id,timestamp,acc_x,acc_y,acc_z,gyro_x,gyro_y,gyro_z
1,1778658375.937361,0.06497973,0.17712638,0.115591936,0.0,0.0,0.0
2,1778658375.947365,0.06497973,0.17712638,0.115591936,0.0,0.0,0.0
3,1778658375.9573665,0.06497973,0.17712638,0.115591936,0.0,0.0,0.0
4,1778658375.9673686,0.06497973,0.17712638,0.115591936,0.0,0.0,0.0
5,1778658375.9773722,0.06497973,0.17712638,0.115591936,0.0,0.0,0.0
6,1778658375.9873748,0.06497973,0.17712638,0.115591936,0.0,0.0,0.0
7,1778658375.997377,0.06497973,0.17712638,0.115591936,0.0,0.0,0.0
8,1778658376.007379,0.06497973,0.17712638,0.115591936,0.0,0.0,0.0
9,1778658376.017382,0.06497973,0.17712638,0.115591936,0.0,0.0,0.0
10,1778658376.0273838,0.06497973,0.17712638,0.115591936,0.0,0.0,0.0
11,1778658376.0373847,0.06497973,0.17712638,0.115591936,0.0,0.0,0.0
12,1778658376.0473902,0.045455948,0.16150673,0.099972285,0.0,0.0,0.0
13,1778658376.0573928,0.045455948,0.16150673,0.099972285,0.0,0.0,0.0
14,1778658376.0673938,0.045455948,0.16150673,0.099972285,0.0,0.0,0.0
15,1778658376.0773985,0.014216649,0.13026744,0.07263712,0.0,0.0,0.0
16,1778658376.087401,-0.013118514,0.11855192,0.03749369,0.0,0.0,0.0
17,1778658376.0974026,-0.013118514,0.11855192,0.03749369,0.0,0.0,0.0
18,1778658376.1074033,-0.013118514,0.11855192,0.03749369,0.0,0.0,0.0
19,1778658376.1174042,-0.013118514,0.11855192,0.03749369,0.0,0.0,0.0
20,1778658376.1274052,-0.013118514,0.11855192,0.03749369,0.0,0.0,0.0
21,1778658376.137406,-0.013118514,0.11855192,0.03749369,0.0,0.0,0.0
22,1778658376.1474073,-0.013118514,0.11855192,0.03749369,0.0,0.0,0.0
23,1778658376.1574101,-0.013118514,0.11855192,0.03749369,0.0,0.0,0.0
24,1778658376.1674123,-0.013118514,0.11855192,0.03749369,0.0,0.0,0.0
25,1778658376.1774142,-0.013118514,0.11855192,0.03749369,0.0,0.0,0.0
26,1778658376.1874187,-0.013118514,0.11855192,0.03749369,0.0,0.0,0.0
27,1778658376.1974213,-0.013118514,0.11855192,0.03749369,0.0,0.0,0.0
28,1778658376.2074225,-0.013118514,0.11855192,0.03749369,0.0,0.0,0.0
29,1778658376.2174237,-0.013118514,0.11855192,0.03749369,0.0,0.0,0.0
30,1778658376.2274249,-0.013118514,0.11855192,0.03749369,0.0,0.0,0.0
31,1778658376.2374263,-0.013118514,0.11855192,0.03749369,0.0,0.0,0.0
32,1778658376.247427,-0.013118514,0.11855192,0.03749369,0.0,0.0,0.0
33,1778658376.2574282,-0.013118514,0.11855192,0.03749369,0.0,0.0,0.0
34,1778658376.2674294,-0.013118514,0.11855192,0.03749369,0.0,0.0,0.0
35,1778658376.2774303,-0.013118514,0.11855192,0.03749369,0.0,0.0,0.0
36,1778658376.287431,-0.013118514,0.11855192,0.03749369,0.0,0.0,0.0
37,1778658376.2974324,-0.013118514,0.11855192,0.03749369,0.0,0.0,0.0
38,1778658376.3074334,-0.013118514,0.11855192,0.03749369,0.0,0.0,0.0
39,1778658376.3174343,-0.013118514,0.11855192,0.03749369,0.0,0.0,0.0
40,1778658376.3274353,-0.048261944,0.06778884,-0.032796286,0.0,0.0,0.0
41,1778658376.3374364,-0.048261944,0.06778884,-0.032796286,0.0,0.0,0.0
42,1778658376.3474371,-0.048261944,0.06778884,-0.032796286,0.0,0.0,0.0
43,1778658376.357439,-0.048261944,0.06778884,-0.032796286,0.0,0.0,0.0
44,1778658376.36744,-0.048261944,0.06778884,-0.032796286,0.0,0.0,0.0
45,1778658376.3774412,-0.048261944,0.06778884,-0.032796286,0.0,0.0,0.0
46,1778658376.3874433,-0.048261944,0.06778884,-0.032796286,0.0,0.0,0.0
47,1778658376.3974447,-0.048261944,0.06778884,-0.032796286,0.0,0.0,0.0
48,1778658376.4074457,-0.048261944,0.06778884,-0.032796286,0.0,0.0,0.0
49,1778658376.4174461,-0.048261944,0.06778884,-0.032796286,0.0,0.0,0.0
50,1778658376.4274473,-0.09512089,-0.0024995792,-0.12651418,0.0,0.0,0.0
51,1778658376.4374483,-0.09512089,-0.0024995792,-0.12651418,0.0,0.0,0.0
52,1778658376.447449,-0.09512089,-0.0024995792,-0.12651418,0.0,0.0,0.0
53,1778658376.457453,-0.09512089,-0.0024995792,-0.12651418,0.0,0.0,0.0
54,1778658376.467455,-0.09512089,-0.0024995792,-0.12651418,0.0,0.0,0.0
55,1778658376.4774559,-0.09512089,-0.0024995792,-0.12651418,0.0,0.0,0.0
56,1778658376.4874575,-0.09512089,-0.0024995792,-0.12651418,0.0,0.0,0.0
57,1778658376.4974585,-0.09512089,-0.0024995792,-0.12651418,0.0,0.0,0.0
58,1778658376.5074608,-0.09512089,-0.0024995792,-0.12651418,0.0,0.0,0.0
59,1778658376.517463,-0.09512089,-0.0024995792,-0.12651418,0.0,0.0,0.0
60,1778658376.5274646,-0.09512089,-0.0024995792,-0.12651418,0.0,0.0,0.0
61,1778658376.5374677,-0.09512089,-0.0024995792,-0.12651418,0.0,0.0,0.0
62,1778658376.5474691,-0.09512089,-0.0024995792,-0.12651418,0.0,0.0,0.0
63,1778658376.5574703,-0.09512089,-0.0024995792,-0.12651418,0.0,0.0,0.0
64,1778658376.5674713,-0.09512089,-0.0024995792,-0.12651418,0.0,0.0,0.0
65,1778658376.5774755,-0.048261944,0.06778884,-0.032796286,0.0,0.0,0.0
66,1778658376.5874765,-0.048261944,0.06778884,-0.032796286,0.0,0.0,0.0
67,1778658376.5974774,-0.048261944,0.06778884,-0.032796286,0.0,0.0,0.0
68,1778658376.607479,-0.048261944,0.06778884,-0.032796286,0.0,0.0,0.0
69,1778658376.61748,-0.048261944,0.06778884,-0.032796286,0.0,0.0,0.0
70,1778658376.6274822,-0.048261944,0.06778884,-0.032796286,0.0,0.0,0.0
71,1778658376.6374838,-0.048261944,0.06778884,-0.032796286,0.0,0.0,0.0
72,1778658376.6474864,-0.048261944,0.06778884,-0.032796286,0.0,0.0,0.0
73,1778658376.6574879,-0.09512089,-0.0024995792,-0.12651418,0.0,0.0,0.0
74,1778658376.6674888,-0.09512089,-0.0024995792,-0.12651418,0.0,0.0,0.0
75,1778658376.6774898,-0.09512089,-0.0024995792,-0.12651418,0.0,0.0,0.0
76,1778658376.6874917,-0.09512089,-0.0024995792,-0.12651418,0.0,0.0,0.0
77,1778658376.697497,-0.09512089,-0.0024995792,-0.12651418,0.0,0.0,0.0
78,1778658376.7074988,-0.09512089,-0.0024995792,-0.12651418,0.0,0.0,0.0
79,1778658376.7175012,-0.09512089,-0.0024995792,-0.12651418,0.0,0.0,0.0
80,1778658376.7275026,-0.09512089,-0.0024995792,-0.12651418,0.0,0.0,0.0
81,1778658376.737504,-0.09512089,-0.0024995792,-0.12651418,0.0,0.0,0.0
82,1778658376.747506,-0.09512089,-0.0024995792,-0.12651418,0.0,0.0,0.0
83,1778658376.7575085,-0.09512089,-0.0024995792,-0.12651418,0.0,0.0,0.0
84,1778658376.767511,-0.09512089,-0.0024995792,-0.12651418,0.0,0.0,0.0
85,1778658376.7775126,-0.09512089,-0.0024995792,-0.12651418,0.0,0.0,0.0
86,1778658376.7875147,-0.09512089,-0.0024995792,-0.12651418,0.0,0.0,0.0
87,1778658376.7975163,-0.09512089,-0.0024995792,-0.12651418,0.0,0.0,0.0
88,1778658376.8075175,-0.09512089,-0.0024995792,-0.12651418,0.0,0.0,0.0
89,1778658376.8175192,-0.09512089,-0.0024995792,-0.12651418,0.0,0.0,0.0
90,1778658376.8275206,-0.09512089,-0.0024995792,-0.12651418,0.0,0.0,0.0
91,1778658376.8375225,-0.09512089,-0.0024995792,-0.12651418,0.0,0.0,0.0
92,1778658376.8475237,-0.09512089,-0.0024995792,-0.12651418,0.0,0.0,0.0
93,1778658376.857527,-0.09512089,-0.0024995792,-0.12651418,0.0,0.0,0.0
94,1778658376.8675292,-0.09512089,-0.0024995792,-0.12651418,0.0,0.0,0.0
95,1778658376.8775308,-0.09512089,-0.0024995792,-0.12651418,0.0,0.0,0.0
96,1778658376.8875315,-0.09512089,-0.0024995792,-0.12651418,0.0,0.0,0.0
97,1778658376.8975322,-0.09512089,-0.0024995792,-0.12651418,0.0,0.0,0.0
98,1778658376.9075334,-0.09512089,-0.0024995792,-0.12651418,0.0,0.0,0.0
99,1778658376.9175353,-0.09512089,-0.0024995792,-0.12651418,0.0,0.0,0.0
100,1778658376.9275372,-0.09512089,-0.0024995792,-0.12651418,0.0,0.0,0.0
101,1778658376.9375381,-0.09512089,-0.0024995792,-0.12651418,0.0,0.0,0.0
102,1778658376.9475405,-0.09512089,-0.0024995792,-0.12651418,0.0,0.0,0.0
103,1778658376.957542,-0.09512089,-0.0024995792,-0.12651418,0.0,0.0,0.0
104,1778658376.9675431,-0.09512089,-0.0024995792,-0.12651418,0.0,0.0,0.0
105,1778658376.977545,-0.09512089,-0.0024995792,-0.12651418,0.0,0.0,0.0
106,1778658376.9875479,-0.09512089,-0.0024995792,-0.12651418,0.0,0.0,0.0
107,1778658376.9975486,-0.09512089,-0.0024995792,-0.12651418,0.0,0.0,0.0
108,1778658377.00755,-0.10293072,-0.029834742,-0.1616576,0.0,0.0,0.0
109,1778658377.017553,-0.10293072,-0.029834742,-0.1616576,0.0,0.0,0.0
110,1778658377.0275545,-0.10293072,-0.029834742,-0.1616576,0.0,0.0,0.0
111,1778658377.0375562,-0.10293072,-0.029834742,-0.1616576,0.0,0.0,0.0
112,1778658377.047557,-0.10293072,-0.029834742,-0.1616576,0.0,0.0,0.0
113,1778658377.0575578,-0.10293072,-0.029834742,-0.1616576,0.0,0.0,0.0
114,1778658377.06756,-0.10293072,-0.029834742,-0.1616576,0.0,0.0,0.0
115,1778658377.077561,-0.10293072,-0.029834742,-0.1616576,0.0,0.0,0.0
116,1778658377.087562,-0.10293072,-0.029834742,-0.1616576,0.0,0.0,0.0
117,1778658377.0975637,-0.11855037,-0.07669369,-0.22023207,0.0,0.0,0.0
118,1778658377.1075652,-0.11855037,-0.07669369,-0.22023207,0.0,0.0,0.0
119,1778658377.117566,-0.11855037,-0.07669369,-0.22023207,0.0,0.0,0.0
120,1778658377.1275678,-0.11855037,-0.07669369,-0.22023207,0.0,0.0,0.0
121,1778658377.13757,-0.11855037,-0.07669369,-0.22023207,0.0,0.0,0.0
122,1778658377.1475708,-0.11855037,-0.07669369,-0.22023207,0.0,0.0,0.0
123,1778658377.1575732,-0.11855037,-0.07669369,-0.22023207,0.0,0.0,0.0
124,1778658377.167575,-0.11855037,-0.07669369,-0.22023207,0.0,0.0,0.0
125,1778658377.1775763,-0.11855037,-0.07669369,-0.22023207,0.0,0.0,0.0
126,1778658377.1875775,-0.11855037,-0.07669369,-0.22023207,0.0,0.0,0.0
127,1778658377.1975799,-0.08731107,-0.111838676,-0.25147137,0.0,0.0,0.0
128,1778658377.207581,-0.08731107,-0.111838676,-0.25147137,0.0,0.0,0.0
129,1778658377.2175853,-0.08731107,-0.111838676,-0.25147137,0.0,0.0,0.0
130,1778658377.2275884,-0.08731107,-0.111838676,-0.25147137,0.0,0.0,0.0
131,1778658377.2375896,-0.08731107,-0.111838676,-0.25147137,0.0,0.0,0.0
132,1778658377.24759,-0.08731107,-0.111838676,-0.25147137,0.0,0.0,0.0
133,1778658377.257594,-0.08731107,-0.111838676,-0.25147137,0.0,0.0,0.0
134,1778658377.2675958,-0.08731107,-0.111838676,-0.25147137,0.0,0.0,0.0
135,1778658377.2775967,-0.08731107,-0.111838676,-0.25147137,0.0,0.0,0.0
136,1778658377.287598,-0.08731107,-0.111838676,-0.25147137,0.0,0.0,0.0
137,1778658377.2975988,-0.08731107,-0.111838676,-0.25147137,0.0,0.0,0.0
138,1778658377.3075998,-0.08731107,-0.111838676,-0.25147137,0.0,0.0,0.0
139,1778658377.317601,-0.08731107,-0.111838676,-0.25147137,0.0,0.0,0.0
140,1778658377.3276021,-0.08731107,-0.111838676,-0.25147137,0.0,0.0,0.0
141,1778658377.3376033,-0.028738163,-0.14307797,-0.21632639,0.0,0.0,0.0
142,1778658377.3476048,-0.028738163,-0.14307797,-0.21632639,0.0,0.0,0.0
143,1778658377.3576055,-0.028738163,-0.14307797,-0.21632639,0.0,0.0,0.0
144,1778658377.3676076,-0.028738163,-0.14307797,-0.21632639,0.0,0.0,0.0
145,1778658377.3776093,-0.028738163,-0.14307797,-0.21632639,0.0,0.0,0.0
146,1778658377.38761,-0.028738163,-0.14307797,-0.21632639,0.0,0.0,0.0
147,1778658377.397611,-0.028738163,-0.14307797,-0.21632639,0.0,0.0,0.0
148,1778658377.4076116,-0.028738163,-0.14307797,-0.21632639,0.0,0.0,0.0
149,1778658377.4176147,-0.028738163,-0.14307797,-0.21632639,0.0,0.0,0.0
150,1778658377.4276164,-0.028738163,-0.14307797,-0.21632639,0.0,0.0,0.0
151,1778658377.4376173,-0.028738163,-0.14307797,-0.21632639,0.0,0.0,0.0
152,1778658377.4476187,-0.028738163,-0.14307797,-0.21632639,0.0,0.0,0.0
153,1778658377.4576206,-0.028738163,-0.14307797,-0.21632639,0.0,0.0,0.0
154,1778658377.4676218,-0.028738163,-0.14307797,-0.21632639,0.0,0.0,0.0
155,1778658377.477623,-0.028738163,-0.14307797,-0.21632639,0.0,0.0,0.0
156,1778658377.487628,-0.028738163,-0.14307797,-0.21632639,0.0,0.0,0.0
157,1778658377.4976292,-0.028738163,-0.14307797,-0.21632639,0.0,0.0,0.0
158,1778658377.5076299,-0.028738163,-0.14307797,-0.21632639,0.0,0.0,0.0
159,1778658377.5176306,-0.028738163,-0.14307797,-0.21632639,0.0,0.0,0.0
160,1778658377.5276318,-0.028738163,-0.14307797,-0.21632639,0.0,0.0,0.0
161,1778658377.5376332,-0.0014029997,-0.1469821,-0.17337312,0.0,0.0,0.0
162,1778658377.547634,-0.0014029997,-0.1469821,-0.17337312,0.0,0.0,0.0
163,1778658377.557635,0.04936008,-0.16260175,-0.10698884,0.0,0.0,0.0
164,1778658377.5676358,0.04936008,-0.16260175,-0.10698884,0.0,0.0,0.0
165,1778658377.577638,0.04936008,-0.16260175,-0.10698884,0.0,0.0,0.0
166,1778658377.587639,0.04936008,-0.16260175,-0.10698884,0.0,0.0,0.0
167,1778658377.5976403,0.04936008,-0.16260175,-0.10698884,0.0,0.0,0.0
168,1778658377.607641,0.04936008,-0.16260175,-0.10698884,0.0,0.0,0.0
169,1778658377.6176417,0.04936008,-0.16260175,-0.10698884,0.0,0.0,0.0
170,1778658377.6276422,0.04936008,-0.16260175,-0.10698884,0.0,0.0,0.0
171,1778658377.6376438,0.04936008,-0.16260175,-0.10698884,0.0,0.0,0.0
172,1778658377.647645,0.04936008,-0.16260175,-0.10698884,0.0,0.0,0.0
173,1778658377.657648,0.04936008,-0.16260175,-0.10698884,0.0,0.0,0.0
174,1778658377.6676507,0.04936008,-0.16260175,-0.10698884,0.0,0.0,0.0
175,1778658377.677652,0.04936008,-0.16260175,-0.10698884,0.0,0.0,0.0
176,1778658377.687653,0.04936008,-0.16260175,-0.10698884,0.0,0.0,0.0
177,1778658377.6976538,0.04936008,-0.16260175,-0.10698884,0.0,0.0,0.0
178,1778658377.7076561,0.04936008,-0.16260175,-0.10698884,0.0,0.0,0.0
179,1778658377.7176573,0.04936008,-0.16260175,-0.10698884,0.0,0.0,0.0
180,1778658377.7276583,0.04936008,-0.16260175,-0.10698884,0.0,0.0,0.0
181,1778658377.737659,0.04936008,-0.16260175,-0.10698884,0.0,0.0,0.0
182,1778658377.7476604,0.04936008,-0.16260175,-0.10698884,0.0,0.0,0.0
183,1778658377.757661,0.04936008,-0.16260175,-0.10698884,0.0,0.0,0.0
184,1778658377.7676616,0.04936008,-0.16260175,-0.10698884,0.0,0.0,0.0
185,1778658377.7776628,0.04936008,-0.16260175,-0.10698884,0.0,0.0,0.0
186,1778658377.787664,0.04936008,-0.16260175,-0.10698884,0.0,0.0,0.0
187,1778658377.7976663,0.04936008,-0.16260175,-0.10698884,0.0,0.0,0.0
188,1778658377.8076677,0.04936008,-0.16260175,-0.10698884,0.0,0.0,0.0
189,1778658377.817669,0.04936008,-0.16260175,-0.10698884,0.0,0.0,0.0
190,1778658377.8276699,0.04936008,-0.16260175,-0.10698884,0.0,0.0,0.0
191,1778658377.8376715,0.14698367,-0.24069999,0.096066594,0.0,0.0,0.0
192,1778658377.8476725,0.14698367,-0.24069999,0.096066594,0.0,0.0,0.0
193,1778658377.8576734,0.14698367,-0.24069999,0.096066594,0.0,0.0,0.0
194,1778658377.8676744,0.14698367,-0.24069999,0.096066594,0.0,0.0,0.0
195,1778658377.877675,0.14698367,-0.24069999,0.096066594,0.0,0.0,0.0
196,1778658377.8876765,0.80691457,-6.2191257,1.0137217,0.0,0.0,0.0
197,1778658377.8976781,0.80691457,-6.2191257,1.0137217,0.0,0.0,0.0
198,1778658377.907679,0.80691457,-6.2191257,1.0137217,0.0,0.0,0.0
199,1778658377.91768,0.80691457,-6.2191257,1.0137217,0.0,0.0,0.0
200,1778658377.927681,0.80691457,-6.2191257,1.0137217,0.0,0.0,0.0
201,1778658377.9376845,0.80691457,-6.2191257,1.0137217,0.0,0.0,0.0
202,1778658377.9476864,0.80691457,-6.2191257,1.0137217,0.0,0.0,0.0
203,1778658377.9576874,0.80691457,-6.2191257,1.0137217,0.0,0.0,0.0
204,1778658377.967688,0.80691457,-6.2191257,1.0137217,0.0,0.0,0.0
205,1778658377.9776897,0.80691457,-6.2191257,1.0137217,0.0,0.0,0.0
206,1778658377.9876907,0.80691457,-6.2191257,1.0137217,0.0,0.0,0.0
207,1778658377.9976916,0.80691457,-6.2191257,1.0137217,0.0,0.0,0.0
208,1778658378.0076923,0.80691457,-6.2191257,1.0137217,0.0,0.0,0.0
209,1778658378.0176935,0.80691457,-6.2191257,1.0137217,0.0,0.0,0.0
210,1778658378.027695,0.14698367,-6.9024878,0.99810207,0.0,0.0,0.0
211,1778658378.0376956,0.14698367,-6.9024878,0.99810207,0.0,0.0,0.0
212,1778658378.047697,0.14698367,-6.9024878,0.99810207,0.0,0.0,0.0
213,1778658378.057698,0.14698367,-6.9024878,0.99810207,0.0,0.0,0.0
214,1778658378.067699,0.14698367,-6.9024878,0.99810207,0.0,0.0,0.0
215,1778658378.0777004,0.14698367,-6.9024878,0.99810207,0.0,0.0,0.0
216,1778658378.0877023,0.6858615,-4.102662,0.97076845,0.0,0.0,0.0
217,1778658378.0977037,0.6858615,-4.102662,0.97076845,0.0,0.0,0.0
218,1778658378.1077046,0.6858615,-4.102662,0.97076845,0.0,0.0,0.0
219,1778658378.1177056,0.6858615,-4.102662,0.97076845,0.0,0.0,0.0
220,1778658378.1277063,0.6858615,-4.102662,0.97076845,0.0,0.0,0.0
221,1778658378.1377077,0.6858615,-4.102662,0.97076845,0.0,0.0,0.0
222,1778658378.1477087,0.6858615,-4.102662,0.97076845,0.0,0.0,0.0
223,1778658378.1577098,0.6858615,-4.102662,0.97076845,0.0,0.0,0.0
224,1778658378.1677113,0.6155731,-3.2006266,0.60370517,0.0,0.0,0.0
225,1778658378.1777122,0.6155731,-3.2006266,0.60370517,0.0,0.0,0.0
226,1778658378.1877136,0.6155731,-3.2006266,0.60370517,0.0,0.0,0.0
227,1778658378.1977153,0.6155731,-3.2006266,0.60370517,0.0,0.0,0.0
228,1778658378.2077165,0.6155731,-3.2006266,0.60370517,0.0,0.0,0.0
229,1778658378.2177176,0.14698367,-6.9024878,0.99810207,0.0,0.0,0.0
230,1778658378.2277188,0.14698367,-6.9024878,0.99810207,0.0,0.0,0.0
231,1778658378.2377198,0.14698367,-6.9024878,0.99810207,0.0,0.0,0.0
232,1778658378.2477212,0.14698367,-6.9024878,0.99810207,0.0,0.0,0.0
233,1778658378.2577238,0.14698367,-6.9024878,0.99810207,0.0,0.0,0.0
234,1778658378.2677262,0.49061593,-2.6617486,0.3225515,0.0,0.0,0.0
235,1778658378.2777271,0.49061593,-2.6617486,0.3225515,0.0,0.0,0.0
236,1778658378.2877283,0.49061593,-2.6617486,0.3225515,0.0,0.0,0.0
237,1778658378.2977293,0.49061593,-2.6617486,0.3225515,0.0,0.0,0.0
238,1778658378.3077304,0.43985286,-2.3259246,0.19369018,0.0,0.0,0.0
239,1778658378.3177314,0.43985286,-2.3259246,0.19369018,0.0,0.0,0.0
240,1778658378.3277342,0.43985286,-2.3259246,0.19369018,0.0,0.0,0.0
241,1778658378.3377357,0.43985286,-2.3259246,0.19369018,0.0,0.0,0.0
242,1778658378.3477364,0.43985286,-2.3259246,0.19369018,0.0,0.0,0.0
243,1778658378.357738,0.43985286,-2.3259246,0.19369018,0.0,0.0,0.0
244,1778658378.367739,0.43985286,-2.3259246,0.19369018,0.0,0.0,0.0
245,1778658378.3777418,0.43985286,-2.3259246,0.19369018,0.0,0.0,0.0
246,1778658378.3877435,0.5530945,-1.9588629,0.17416483,0.0,0.0,0.0
247,1778658378.3977444,0.5530945,-1.9588629,0.17416483,0.0,0.0,0.0
248,1778658378.4077454,0.5530945,-1.9588629,0.17416483,0.0,0.0,0.0
249,1778658378.417746,0.5530945,-1.9588629,0.17416483,0.0,0.0,0.0
250,1778658378.4277475,0.5530945,-1.9588629,0.17416483,0.0,0.0,0.0
251,1778658378.4377484,0.6233829,-1.9393392,0.18978448,0.0,0.0,0.0
252,1778658378.4477494,0.6233829,-1.9393392,0.18978448,0.0,0.0,0.0
253,1778658378.4577498,0.6233829,-1.9393392,0.18978448,0.0,0.0,0.0
254,1778658378.4677527,0.6233829,-1.9393392,0.18978448,0.0,0.0,0.0
255,1778658378.4777536,0.6233829,-1.9393392,0.18978448,0.0,0.0,0.0
256,1778658378.4877548,0.6233829,-1.9393392,0.18978448,0.0,0.0,0.0
257,1778658378.497756,0.6233829,-1.9393392,0.18978448,0.0,0.0,0.0
258,1778658378.5077574,0.6233829,-1.9393392,0.18978448,0.0,0.0,0.0
259,1778658378.5177593,0.6233829,-1.9393392,0.18978448,0.0,0.0,0.0
260,1778658378.5277603,0.6233829,-1.9393392,0.18978448,0.0,0.0,0.0
261,1778658378.5377614,0.6233829,-1.9393392,0.18978448,0.0,0.0,0.0
262,1778658378.5477626,0.6858615,-2.025247,0.2288336,0.0,0.0,0.0
263,1778658378.5577636,0.6858615,-2.025247,0.2288336,0.0,0.0,0.0
264,1778658378.5677645,0.6858615,-2.025247,0.2288336,0.0,0.0,0.0
265,1778658378.5777662,0.6858615,-2.025247,0.2288336,0.0,0.0,0.0
266,1778658378.5877671,0.6858615,-2.025247,0.2288336,0.0,0.0,0.0
267,1778658378.5977683,0.6858615,-2.025247,0.2288336,0.0,0.0,0.0
268,1778658378.6077702,0.6858615,-2.025247,0.2288336,0.0,0.0,0.0
269,1778658378.6177733,0.6858615,-2.025247,0.2288336,0.0,0.0,0.0
270,1778658378.627775,0.6858615,-2.025247,0.2288336,0.0,0.0,0.0
271,1778658378.637776,0.6858615,-2.025247,0.2288336,0.0,0.0,0.0
272,1778658378.6477778,0.6858615,-2.025247,0.2288336,0.0,0.0,0.0
273,1778658378.6577792,0.6858615,-2.025247,0.2288336,0.0,0.0,0.0
274,1778658378.66778,0.6858615,-2.025247,0.2288336,0.0,0.0,0.0
275,1778658378.6777806,0.6858615,-2.025247,0.2288336,0.0,0.0,0.0
276,1778658378.687782,0.6858615,-2.025247,0.2288336,0.0,0.0,0.0
277,1778658378.697783,0.6858615,-2.025247,0.2288336,0.0,0.0,0.0
278,1778658378.7077842,0.6858615,-2.025247,0.2288336,0.0,0.0,0.0
279,1778658378.7177846,0.6858615,-2.025247,0.2288336,0.0,0.0,0.0
280,1778658378.7277856,0.6858615,-2.025247,0.2288336,0.0,0.0,0.0
281,1778658378.7377865,0.6858615,-2.025247,0.2288336,0.0,0.0,0.0
282,1778658378.7477872,0.6858615,-2.025247,0.2288336,0.0,0.0,0.0
283,1778658378.7577887,0.73662615,-2.212683,0.27959824,0.0,0.0,0.0
284,1778658378.7677894,0.73662615,-2.212683,0.27959824,0.0,0.0,0.0
285,1778658378.7777905,0.73662615,-2.212683,0.27959824,0.0,0.0,0.0
286,1778658378.7877917,0.73662615,-2.212683,0.27959824,0.0,0.0,0.0
287,1778658378.7977934,0.73662615,-2.212683,0.27959824,0.0,0.0,0.0
288,1778658378.807794,0.73662615,-2.212683,0.27959824,0.0,0.0,0.0
289,1778658378.817795,0.69757706,-2.5797448,0.2913122,0.0,0.0,0.0
290,1778658378.8277955,0.69757706,-2.5797448,0.2913122,0.0,0.0,0.0
291,1778658378.8377964,0.69757706,-2.5797448,0.2913122,0.0,0.0,0.0
292,1778658378.8477986,0.69757706,-2.5797448,0.2913122,0.0,0.0,0.0
293,1778658378.8577998,0.69757706,-2.5797448,0.2913122,0.0,0.0,0.0
294,1778658378.8678005,0.69757706,-2.5797448,0.2913122,0.0,0.0,0.0
295,1778658378.8778012,0.69757706,-2.5797448,0.2913122,0.0,0.0,0.0
296,1778658378.887802,0.69757706,-2.5797448,0.2913122,0.0,0.0,0.0
297,1778658378.897803,0.69757706,-2.5797448,0.2913122,0.0,0.0,0.0
298,1778658378.9078043,0.69757706,-2.5797448,0.2913122,0.0,0.0,0.0
299,1778658378.9178064,0.69757706,-2.5797448,0.2913122,0.0,0.0,0.0
300,1778658378.9278076,0.69757706,-2.5797448,0.2913122,0.0,0.0,0.0
301,1778658378.9378083,0.69757706,-2.5797448,0.2913122,0.0,0.0,0.0
302,1778658378.9478104,0.69757706,-2.5797448,0.2913122,0.0,0.0,0.0
303,1778658378.957813,0.69757706,-2.5797448,0.2913122,0.0,0.0,0.0
304,1778658378.9678142,0.69757706,-2.5797448,0.2913122,0.0,0.0,0.0
305,1778658378.9778163,0.69757706,-2.5797448,0.2913122,0.0,0.0,0.0
306,1778658378.9878178,0.65462226,-2.751561,0.13121158,0.0,0.0,0.0
307,1778658378.997819,0.65462226,-2.751561,0.13121158,0.0,0.0,0.0
308,1778658379.0078204,0.65462226,-2.751561,0.13121158,0.0,0.0,0.0
309,1778658379.0178235,0.65462226,-2.751561,0.13121158,0.0,0.0,0.0
310,1778658379.0278249,0.65462226,-2.751561,0.13121158,0.0,0.0,0.0
311,1778658379.0378263,0.65462226,-2.751561,0.13121158,0.0,0.0,0.0
312,1778658379.047827,0.65462226,-2.751561,0.13121158,0.0,0.0,0.0
313,1778658379.0578284,0.65462226,-2.751561,0.13121158,0.0,0.0,0.0
314,1778658379.0678303,0.65462226,-2.751561,0.13121158,0.0,0.0,0.0
315,1778658379.0778313,0.65462226,-2.751561,0.13121158,0.0,0.0,0.0
316,1778658379.0878334,0.65462226,-2.751561,0.13121158,0.0,0.0,0.0
317,1778658379.0978348,0.65462226,-2.751561,0.13121158,0.0,0.0,0.0
318,1778658379.1078365,0.65462226,-2.751561,0.13121158,0.0,0.0,0.0
319,1778658379.1178396,0.65462226,-2.751561,0.13121158,0.0,0.0,0.0
320,1778658379.1278408,0.65462226,-2.751561,0.13121158,0.0,0.0,0.0
321,1778658379.137842,0.65462226,-2.751561,0.13121158,0.0,0.0,0.0
322,1778658379.1478426,0.65462226,-2.751561,0.13121158,0.0,0.0,0.0
323,1778658379.1578438,0.65462226,-2.751561,0.13121158,0.0,0.0,0.0
324,1778658379.1678448,0.6233829,-2.7164173,0.28740805,0.0,0.0,0.0
325,1778658379.1778486,0.6233829,-2.7164173,0.28740805,0.0,0.0,0.0
326,1778658379.187849,0.6233829,-2.7164173,0.28740805,0.0,0.0,0.0
327,1778658379.1978507,0.6233829,-2.7164173,0.28740805,0.0,0.0,0.0
328,1778658379.2078528,0.6233829,-2.7164173,0.28740805,0.0,0.0,0.0
329,1778658379.2178543,0.6233829,-2.7164173,0.28740805,0.0,0.0,0.0
330,1778658379.2278554,0.6233829,-2.7164173,0.28740805,0.0,0.0,0.0
331,1778658379.2378566,0.6233829,-2.7164173,0.28740805,0.0,0.0,0.0
332,1778658379.2478588,0.6233829,-2.7164173,0.28740805,0.0,0.0,0.0
333,1778658379.2578602,0.6233829,-2.7164173,0.28740805,0.0,0.0,0.0
334,1778658379.267861,0.6233829,-2.7164173,0.28740805,0.0,0.0,0.0
335,1778658379.2778618,0.6038592,-2.3766892,0.40064976,0.0,0.0,0.0
336,1778658379.2878625,0.6038592,-2.3766892,0.40064976,0.0,0.0,0.0
337,1778658379.297863,0.6038592,-2.3766892,0.40064976,0.0,0.0,0.0
338,1778658379.3078647,0.6038592,-2.3766892,0.40064976,0.0,0.0,0.0
339,1778658379.3178656,0.6038592,-2.3766892,0.40064976,0.0,0.0,0.0
340,1778658379.327866,0.6038592,-2.3766892,0.40064976,0.0,0.0,0.0
341,1778658379.3378675,0.6585279,-2.1853478,0.4475087,0.0,0.0,0.0
342,1778658379.3478684,0.6585279,-2.1853478,0.4475087,0.0,0.0,0.0
343,1778658379.3578694,0.6585279,-2.1853478,0.4475087,0.0,0.0,0.0
344,1778658379.367871,0.6585279,-2.1853478,0.4475087,0.0,0.0,0.0
345,1778658379.377872,0.6585279,-2.1853478,0.4475087,0.0,0.0,0.0
346,1778658379.3878736,0.6585279,-2.1853478,0.4475087,0.0,0.0,0.0
347,1778658379.3978753,0.6585279,-2.1853478,0.4475087,0.0,0.0,0.0
348,1778658379.407876,0.6585279,-2.1853478,0.4475087,0.0,0.0,0.0
349,1778658379.4178772,0.6585279,-2.1853478,0.4475087,0.0,0.0,0.0
350,1778658379.4278786,0.6585279,-2.1853478,0.4475087,0.0,0.0,0.0
351,1778658379.437879,0.6585279,-2.1853478,0.4475087,0.0,0.0,0.0
352,1778658379.4478805,0.6585279,-2.1853478,0.4475087,0.0,0.0,0.0
353,1778658379.4578834,0.6585279,-2.1853478,0.4475087,0.0,0.0,0.0
354,1778658379.4678857,0.6585279,-2.1853478,0.4475087,0.0,0.0,0.0
355,1778658379.4778874,0.6585279,-2.1853478,0.4475087,0.0,0.0,0.0
356,1778658379.4878883,0.6585279,-2.1853478,0.4475087,0.0,0.0,0.0
357,1778658379.4978888,0.6585279,-2.1853478,0.4475087,0.0,0.0,0.0
358,1778658379.5078902,0.6585279,-2.1853478,0.4475087,0.0,0.0,0.0
359,1778658379.5178912,0.6585279,-2.1853478,0.4475087,0.0,0.0,0.0
360,1778658379.5278926,0.6585279,-2.1853478,0.4475087,0.0,0.0,0.0
361,1778658379.5378935,0.6585279,-2.1853478,0.4475087,0.0,0.0,0.0
362,1778658379.5478942,0.6585279,-2.1853478,0.4475087,0.0,0.0,0.0
363,1778658379.5578947,0.6585279,-2.1853478,0.4475087,0.0,0.0,0.0
364,1778658379.5678964,0.6585279,-2.1853478,0.4475087,0.0,0.0,0.0
365,1778658379.5778973,0.6585279,-2.1853478,0.4475087,0.0,0.0,0.0
366,1778658379.5878994,0.6585279,-2.1853478,0.4475087,0.0,0.0,0.0
367,1778658379.5979004,0.6585279,-2.1853478,0.4475087,0.0,0.0,0.0
368,1778658379.6079023,0.6585279,-2.1853478,0.4475087,0.0,0.0,0.0
369,1778658379.6179037,0.7249107,-1.9822924,0.4904635,0.0,0.0,0.0
370,1778658379.6279044,0.7249107,-1.9822924,0.4904635,0.0,0.0,0.0
371,1778658379.6379051,0.7249107,-1.9822924,0.4904635,0.0,0.0,0.0
372,1778658379.6479058,0.7249107,-1.9822924,0.4904635,0.0,0.0,0.0
373,1778658379.6579068,0.7249107,-1.9822924,0.4904635,0.0,0.0,0.0
374,1778658379.6679072,0.7249107,-1.9822924,0.4904635,0.0,0.0,0.0
375,1778658379.677908,0.7249107,-1.9822924,0.4904635,0.0,0.0,0.0
376,1778658379.6879091,0.7249107,-1.9822924,0.4904635,0.0,0.0,0.0
377,1778658379.6979103,0.7249107,-1.9822924,0.4904635,0.0,0.0,0.0
378,1778658379.7079115,0.7249107,-1.9822924,0.4904635,0.0,0.0,0.0
379,1778658379.7179132,0.7249107,-1.9822924,0.4904635,0.0,0.0,0.0
380,1778658379.7279146,0.7210065,-1.6230404,0.5021775,0.0,0.0,0.0
381,1778658379.7379153,0.7210065,-1.6230404,0.5021775,0.0,0.0,0.0
382,1778658379.7479162,0.7210065,-1.6230404,0.5021775,0.0,0.0,0.0
383,1778658379.757917,0.7210065,-1.6230404,0.5021775,0.0,0.0,0.0
384,1778658379.767918,0.7210065,-1.6230404,0.5021775,0.0,0.0,0.0
385,1778658379.777919,0.7210065,-1.6230404,0.5021775,0.0,0.0,0.0
386,1778658379.7879195,0.7210065,-1.6230404,0.5021775,0.0,0.0,0.0
387,1778658379.7979207,0.7210065,-1.6230404,0.5021775,0.0,0.0,0.0
388,1778658379.8079216,0.7210065,-1.6230404,0.5021775,0.0,0.0,0.0
389,1778658379.817923,0.7210065,-1.6230404,0.5021775,0.0,0.0,0.0
390,1778658379.8279247,0.7210065,-1.6230404,0.5021775,0.0,0.0,0.0
391,1778658379.8379269,0.7210065,-1.6230404,0.5021775,0.0,0.0,0.0
392,1778658379.8479273,0.7210065,-1.6230404,0.5021775,0.0,0.0,0.0
393,1778658379.8579285,0.7210065,-1.6230404,0.5021775,0.0,0.0,0.0
394,1778658379.8679757,0.7210065,-1.6230404,0.5021775,0.0,0.0,0.0
395,1778658379.8779767,0.7210065,-1.6230404,0.5021775,0.0,0.0,0.0
396,1778658379.8879774,0.7210065,-1.6230404,0.5021775,0.0,0.0,0.0
397,1778658379.8979778,0.7210065,-1.6230404,0.5021775,0.0,0.0,0.0
398,1778658379.907979,0.68976724,-1.4707481,0.46312833,0.0,0.0,0.0
399,1778658379.9179804,0.68976724,-1.4707481,0.46312833,0.0,0.0,0.0
400,1778658379.9279814,0.68976724,-1.4707481,0.46312833,0.0,0.0,0.0
401,1778658379.9379852,0.68976724,-1.4707481,0.46312833,0.0,0.0,0.0
402,1778658379.947988,0.6624321,-1.3067418,0.39674562,0.0,0.0,0.0
403,1778658379.9579892,0.6624321,-1.3067418,0.39674562,0.0,0.0,0.0
404,1778658379.9679902,0.6624321,-1.3067418,0.39674562,0.0,0.0,0.0
405,1778658379.9779923,0.6624321,-1.3067418,0.39674562,0.0,0.0,0.0
406,1778658379.9879937,0.6624321,-1.3067418,0.39674562,0.0,0.0,0.0
407,1778658379.9979944,0.6624321,-1.3067418,0.39674562,0.0,0.0,0.0
408,1778658380.007995,0.6624321,-1.3067418,0.39674562,0.0,0.0,0.0
409,1778658380.017996,0.6624321,-1.3067418,0.39674562,0.0,0.0,0.0
410,1778658380.0279975,0.6624321,-1.3067418,0.39674562,0.0,0.0,0.0
411,1778658380.0379987,0.6624321,-1.3067418,0.39674562,0.0,0.0,0.0
412,1778658380.048,0.6038592,-0.8732958,0.27569255,0.0,0.0,0.0
413,1778658380.0580018,0.6038592,-0.8732958,0.27569255,0.0,0.0,0.0
414,1778658380.0680032,0.6038592,-0.8732958,0.27569255,0.0,0.0,0.0
415,1778658380.0780046,0.6038592,-0.8732958,0.27569255,0.0,0.0,0.0
416,1778658380.0880053,0.6038592,-0.8732958,0.27569255,0.0,0.0,0.0
417,1778658380.0980067,0.6038592,-0.8732958,0.27569255,0.0,0.0,0.0
418,1778658380.1080086,0.6038592,-0.8732958,0.27569255,0.0,0.0,0.0
419,1778658380.1180093,0.6038592,-0.8732958,0.27569255,0.0,0.0,0.0
420,1778658380.1280105,0.6038592,-0.8732958,0.27569255,0.0,0.0,0.0
421,1778658380.1380117,0.6038592,-0.8732958,0.27569255,0.0,0.0,0.0
422,1778658380.148013,0.6038592,-0.8732958,0.27569255,0.0,0.0,0.0
423,1778658380.158014,0.6038592,-0.8732958,0.27569255,0.0,0.0,0.0
424,1778658380.1680152,0.6038592,-0.8732958,0.27569255,0.0,0.0,0.0
425,1778658380.1780164,0.6038592,-0.8732958,0.27569255,0.0,0.0,0.0
426,1778658380.1880174,0.6038592,-0.8732958,0.27569255,0.0,0.0,0.0
427,1778658380.1980186,0.5804297,-0.7639582,0.27959824,0.0,0.0,0.0
428,1778658380.2080195,0.5804297,-0.7639582,0.27959824,0.0,0.0,0.0
429,1778658380.2180207,0.5804297,-0.7639582,0.27959824,0.0,0.0,0.0
430,1778658380.2280216,0.5804297,-0.7639582,0.27959824,0.0,0.0,0.0
431,1778658380.2380228,0.5804297,-0.7639582,0.27959824,0.0,0.0,0.0
432,1778658380.2480237,0.5804297,-0.7639582,0.27959824,0.0,0.0,0.0
433,1778658380.2580245,0.5804297,-0.7639582,0.27959824,0.0,0.0,0.0
434,1778658380.2680256,0.5804297,-0.7639582,0.27959824,0.0,0.0,0.0
435,1778658380.2780263,0.5804297,-0.7639582,0.27959824,0.0,0.0,0.0
436,1778658380.2880273,0.5804297,-0.7639582,0.27959824,0.0,0.0,0.0
437,1778658380.298029,0.28365636,-0.49452007,0.03749369,0.0,0.0,0.0
438,1778658380.3080301,0.28365636,-0.49452007,0.03749369,0.0,0.0,0.0
439,1778658380.3180308,0.28365636,-0.49452007,0.03749369,0.0,0.0,0.0
440,1778658380.3280315,0.28365636,-0.49452007,0.03749369,0.0,0.0,0.0
441,1778658380.3380337,0.28365636,-0.49452007,0.03749369,0.0,0.0,0.0
442,1778658380.3480346,0.28365636,-0.49452007,0.03749369,0.0,0.0,0.0
443,1778658380.358036,0.28365636,-0.49452007,0.03749369,0.0,0.0,0.0
444,1778658380.3680367,0.28365636,-0.49452007,0.03749369,0.0,0.0,0.0
445,1778658380.3780375,0.28365636,-0.49452007,0.03749369,0.0,0.0,0.0
446,1778658380.3880403,0.28365636,-0.49452007,0.03749369,0.0,0.0,0.0
447,1778658380.3980432,0.28365636,-0.49452007,0.03749369,0.0,0.0,0.0
448,1778658380.4080446,0.28365636,-0.49452007,0.03749369,0.0,0.0,0.0
449,1778658380.4180458,0.28365636,-0.49452007,0.03749369,0.0,0.0,0.0
450,1778658380.4280477,0.28365636,-0.49452007,0.03749369,0.0,0.0,0.0
451,1778658380.438049,0.28365636,-0.49452007,0.03749369,0.0,0.0,0.0
452,1778658380.4480503,0.28365636,-0.49452007,0.03749369,0.0,0.0,0.0
453,1778658380.4580514,0.28365636,-0.49452007,0.03749369,0.0,0.0,0.0
454,1778658380.4680526,0.28365636,-0.49452007,0.03749369,0.0,0.0,0.0
455,1778658380.4780536,0.28365636,-0.49452007,0.03749369,0.0,0.0,0.0
456,1778658380.4880545,0.28365636,-0.49452007,0.03749369,0.0,0.0,0.0
457,1778658380.4980583,0.28365636,-0.49452007,0.03749369,0.0,0.0,0.0
458,1778658380.50806,0.28365636,-0.49452007,0.03749369,0.0,0.0,0.0
459,1778658380.5180619,0.28365636,-0.49452007,0.03749369,0.0,0.0,0.0
460,1778658380.528064,0.28365636,-0.49452007,0.03749369,0.0,0.0,0.0
461,1778658380.5380654,0.28365636,-0.49452007,0.03749369,0.0,0.0,0.0
462,1778658380.5480669,0.28365636,-0.49452007,0.03749369,0.0,0.0,0.0
463,1778658380.5580676,0.28365636,-0.49452007,0.03749369,0.0,0.0,0.0
464,1778658380.568069,-0.11855037,-0.38518253,-0.18508708,0.0,0.0,0.0
465,1778658380.57807,-0.11855037,-0.38518253,-0.18508708,0.0,0.0,0.0
466,1778658380.5880709,-0.11855037,-0.38518253,-0.18508708,0.0,0.0,0.0
467,1778658380.598073,-0.18883878,-0.35003754,-0.1616576,0.0,0.0,0.0
468,1778658380.6080737,-0.18883878,-0.35003754,-0.1616576,0.0,0.0,0.0
469,1778658380.6180747,-0.18883878,-0.35003754,-0.1616576,0.0,0.0,0.0
470,1778658380.628076,-0.18883878,-0.35003754,-0.1616576,0.0,0.0,0.0
471,1778658380.6380775,-0.18883878,-0.35003754,-0.1616576,0.0,0.0,0.0
472,1778658380.6480796,-0.18883878,-0.35003754,-0.1616576,0.0,0.0,0.0
473,1778658380.658081,-0.18883878,-0.35003754,-0.1616576,0.0,0.0,0.0
474,1778658380.6680822,-0.18883878,-0.35003754,-0.1616576,0.0,0.0,0.0
475,1778658380.6780837,-0.23960342,-0.31098843,-0.103084706,0.0,0.0,0.0
476,1778658380.6880848,-0.23960342,-0.31098843,-0.103084706,0.0,0.0,0.0
477,1778658380.6980858,-0.23960342,-0.31098843,-0.103084706,0.0,0.0,0.0
478,1778658380.7080867,-0.23960342,-0.31098843,-0.103084706,0.0,0.0,0.0
479,1778658380.7180882,-0.23960342,-0.31098843,-0.103084706,0.0,0.0,0.0
480,1778658380.7280896,-0.23960342,-0.31098843,-0.103084706,0.0,0.0,0.0
481,1778658380.738091,-0.25522307,-0.18603122,-0.009366812,0.0,0.0,0.0
482,1778658380.748092,-0.25522307,-0.18603122,-0.009366812,0.0,0.0,0.0
483,1778658380.758093,-0.25522307,-0.18603122,-0.009366812,0.0,0.0,0.0
484,1778658380.768095,-0.25522307,-0.18603122,-0.009366812,0.0,0.0,0.0
485,1778658380.7780964,-0.25522307,-0.18603122,-0.009366812,0.0,0.0,0.0
486,1778658380.788098,-0.25522307,-0.18603122,-0.009366812,0.0,0.0,0.0
487,1778658380.7980995,-0.25522307,-0.18603122,-0.009366812,0.0,0.0,0.0
488,1778658380.8081007,-0.25522307,-0.18603122,-0.009366812,0.0,0.0,0.0
489,1778658380.8181021,-0.25522307,-0.18603122,-0.009366812,0.0,0.0,0.0
490,1778658380.8281026,-0.25522307,-0.18603122,-0.009366812,0.0,0.0,0.0
491,1778658380.838104,-0.25522307,-0.18603122,-0.009366812,0.0,0.0,0.0
492,1778658380.8481064,-0.2317936,0.32941717,0.084352635,0.0,0.0,0.0
493,1778658380.8581073,-0.2317936,0.32941717,0.084352635,0.0,0.0,0.0
494,1778658380.8681085,0.03374043,-0.014215093,-0.028890595,0.0,0.0,0.0
495,1778658380.8781097,0.03374043,-0.014215093,-0.028890595,0.0,0.0,0.0
496,1778658380.8881116,0.03374043,-0.014215093,-0.028890595,0.0,0.0,0.0
497,1778658380.898113,0.03374043,-0.014215093,-0.028890595,0.0,0.0,0.0
498,1778658380.908114,0.061075594,-0.17041159,-0.052320067,0.0,0.0,0.0
499,1778658380.9181151,0.061075594,-0.17041159,-0.052320067,0.0,0.0,0.0
500,1778658380.9281168,0.061075594,-0.17041159,-0.052320067,0.0,0.0,0.0
501,1778658380.938118,0.061075594,-0.17041159,-0.052320067,0.0,0.0,0.0
502,1778658380.9481194,0.061075594,-0.17041159,-0.052320067,0.0,0.0,0.0
503,1778658380.9581203,0.061075594,-0.17041159,-0.052320067,0.0,0.0,0.0
504,1778658380.9681213,0.061075594,-0.17041159,-0.052320067,0.0,0.0,0.0
505,1778658380.9781227,0.04936008,-0.22117622,-0.02498646,0.0,0.0,0.0
506,1778658380.9881237,0.04936008,-0.22117622,-0.02498646,0.0,0.0,0.0
507,1778658380.9981246,0.04936008,-0.22117622,-0.02498646,0.0,0.0,0.0
508,1778658381.0081263,0.04936008,-0.22117622,-0.02498646,0.0,0.0,0.0
509,1778658381.0181272,0.04936008,-0.22117622,-0.02498646,0.0,0.0,0.0
510,1778658381.0281281,0.04936008,-0.22117622,-0.02498646,0.0,0.0,0.0
511,1778658381.0381298,0.04936008,-0.22117622,-0.02498646,0.0,0.0,0.0
512,1778658381.0481305,0.04936008,-0.22117622,-0.02498646,0.0,0.0,0.0
513,1778658381.0581312,0.04936008,-0.22117622,-0.02498646,0.0,0.0,0.0
514,1778658381.0681326,0.061075594,-0.2719393,-0.02498646,0.0,0.0,0.0
515,1778658381.0781336,0.061075594,-0.2719393,-0.02498646,0.0,0.0,0.0
516,1778658381.0881343,0.061075594,-0.2719393,-0.02498646,0.0,0.0,0.0
517,1778658381.0981352,0.061075594,-0.2719393,-0.02498646,0.0,0.0,0.0
518,1778658381.1081367,0.061075594,-0.2719393,-0.02498646,0.0,0.0,0.0
519,1778658381.1181376,0.061075594,-0.2719393,-0.02498646,0.0,0.0,0.0
520,1778658381.1281393,0.061075594,-0.2719393,-0.02498646,0.0,0.0,0.0
521,1778658381.1381428,0.061075594,-0.2719393,-0.02498646,0.0,0.0,0.0
522,1778658381.1481447,0.061075594,-0.2719393,-0.02498646,0.0,0.0,0.0
523,1778658381.1581461,0.061075594,-0.2719393,-0.02498646,0.0,0.0,0.0
524,1778658381.168147,0.061075594,-0.2719393,-0.02498646,0.0,0.0,0.0
525,1778658381.1781483,0.061075594,-0.2719393,-0.02498646,0.0,0.0,0.0
526,1778658381.1881492,0.061075594,-0.2719393,-0.02498646,0.0,0.0,0.0
527,1778658381.1981509,0.068885416,-0.3383236,0.03749369,0.0,0.0,0.0
528,1778658381.2081516,0.068885416,-0.3383236,0.03749369,0.0,0.0,0.0
529,1778658381.2181528,0.068885416,-0.3383236,0.03749369,0.0,0.0,0.0
530,1778658381.2281547,0.08841076,-0.44375542,0.39674562,0.0,0.0,0.0
531,1778658381.238156,0.08841076,-0.44375542,0.39674562,0.0,0.0,0.0
532,1778658381.2481577,0.08841076,-0.44375542,0.39674562,0.0,0.0,0.0
533,1778658381.2581594,0.08841076,-0.44375542,0.39674562,0.0,0.0,0.0
534,1778658381.2681606,0.08841076,-0.44375542,0.39674562,0.0,0.0,0.0
535,1778658381.2781618,0.08841076,-0.44375542,0.39674562,0.0,0.0,0.0
536,1778658381.2881632,0.08841076,-0.44375542,0.39674562,0.0,0.0,0.0
537,1778658381.298164,0.08841076,-0.44375542,0.39674562,0.0,0.0,0.0
538,1778658381.3081646,0.08841076,-0.44375542,0.39674562,0.0,0.0,0.0
539,1778658381.318166,0.08841076,-0.44375542,0.39674562,0.0,0.0,0.0
540,1778658381.328167,0.08841076,-0.44375542,0.39674562,0.0,0.0,0.0
541,1778658381.3381681,0.08841076,-0.44375542,0.39674562,0.0,0.0,0.0
542,1778658381.3481698,0.08841076,-0.44375542,0.39674562,0.0,0.0,0.0
543,1778658381.3581705,0.08841076,-0.44375542,0.39674562,0.0,0.0,0.0
544,1778658381.3681715,0.08841076,-0.44375542,0.39674562,0.0,0.0,0.0
545,1778658381.378172,0.08841076,-0.44375542,0.39674562,0.0,0.0,0.0
546,1778658381.388173,0.08841076,-0.44375542,0.39674562,0.0,0.0,0.0
547,1778658381.3981743,0.08841076,-0.44375542,0.39674562,0.0,0.0,0.0
548,1778658381.408175,0.08841076,-0.44375542,0.39674562,0.0,0.0,0.0
549,1778658381.4181767,0.08841076,-0.44375542,0.39674562,0.0,0.0,0.0
550,1778658381.428178,0.08841076,-0.44375542,0.39674562,0.0,0.0,0.0
551,1778658381.438179,0.08841076,-0.44375542,0.39674562,0.0,0.0,0.0
552,1778658381.4481802,0.08841076,-0.44375542,0.39674562,0.0,0.0,0.0
553,1778658381.4581811,0.08841076,-0.44375542,0.39674562,0.0,0.0,0.0
554,1778658381.468182,0.08841076,-0.44375542,0.39674562,0.0,0.0,0.0
555,1778658381.4781835,0.08841076,-0.44375542,0.39674562,0.0,0.0,0.0
556,1778658381.4881852,0.08841076,-0.44375542,0.39674562,0.0,0.0,0.0
557,1778658381.4981856,0.08841076,-0.44375542,0.39674562,0.0,0.0,0.0
558,1778658381.5081868,0.08841076,-0.44375542,0.39674562,0.0,0.0,0.0
559,1778658381.5181878,0.08841076,-0.44375542,0.39674562,0.0,0.0,0.0
560,1778658381.5281885,0.08841076,-0.44375542,0.39674562,0.0,0.0,0.0
561,1778658381.5381901,0.08841076,-0.44375542,0.39674562,0.0,0.0,0.0
562,1778658381.548191,0.08841076,-0.44375542,0.39674562,0.0,0.0,0.0
563,1778658381.5581925,0.08841076,-0.44375542,0.39674562,0.0,0.0,0.0
564,1778658381.5681934,0.08841076,-0.44375542,0.39674562,0.0,0.0,0.0
565,1778658381.5781946,0.08841076,-0.44375542,0.39674562,0.0,0.0,0.0
566,1778658381.5881958,0.08841076,-0.44375542,0.39674562,0.0,0.0,0.0
567,1778658381.598197,0.08841076,-0.44375542,0.39674562,0.0,0.0,0.0
568,1778658381.6081991,0.08841076,-0.44375542,0.39674562,0.0,0.0,0.0
569,1778658381.6182003,0.08841076,-0.44375542,0.39674562,0.0,0.0,0.0
570,1778658381.6282012,0.08841076,-0.44375542,0.39674562,0.0,0.0,0.0
571,1778658381.6382024,0.2602269,-0.44375542,0.52951264,0.0,0.0,0.0
572,1778658381.6482036,0.2602269,-0.44375542,0.52951264,0.0,0.0,0.0
573,1778658381.6582043,0.2602269,-0.44375542,0.52951264,0.0,0.0,0.0
574,1778658381.6682057,0.2602269,-0.44375542,0.52951264,0.0,0.0,0.0
575,1778658381.678207,0.2602269,-0.44375542,0.52951264,0.0,0.0,0.0
576,1778658381.6882076,0.2602269,-0.44375542,0.52951264,0.0,0.0,0.0
577,1778658381.6982114,0.2602269,-0.44375542,0.52951264,0.0,0.0,0.0
578,1778658381.7082124,0.2602269,-0.44375542,0.52951264,0.0,0.0,0.0
579,1778658381.7182136,0.3890882,-0.46328077,0.5021775,0.0,0.0,0.0
580,1778658381.728215,0.3890882,-0.46328077,0.5021775,0.0,0.0,0.0
581,1778658381.7382157,0.3890882,-0.46328077,0.5021775,0.0,0.0,0.0
582,1778658381.7482166,0.3890882,-0.46328077,0.5021775,0.0,0.0,0.0
583,1778658381.758218,0.3890882,-0.46328077,0.5021775,0.0,0.0,0.0
584,1778658381.768219,0.3890882,-0.46328077,0.5021775,0.0,0.0,0.0
585,1778658381.7782197,0.3890882,-0.46328077,0.5021775,0.0,0.0,0.0
586,1778658381.7882206,0.3890882,-0.46328077,0.5021775,0.0,0.0,0.0
587,1778658381.7982216,0.3890882,-0.46328077,0.5021775,0.0,0.0,0.0
588,1778658381.8082256,0.3890882,-0.46328077,0.5021775,0.0,0.0,0.0
589,1778658381.8182273,0.3890882,-0.46328077,0.5021775,0.0,0.0,0.0
590,1778658381.8282313,0.3890882,-0.46328077,0.5021775,0.0,0.0,0.0
591,1778658381.8382325,0.63119274,-0.59604776,0.34207684,0.0,0.0,0.0
592,1778658381.8482335,0.63119274,-0.59604776,0.34207684,0.0,0.0,0.0
593,1778658381.8582363,0.63119274,-0.59604776,0.34207684,0.0,0.0,0.0
594,1778658381.868239,0.63119274,-0.59604776,0.34207684,0.0,0.0,0.0
595,1778658381.87824,0.63119274,-0.59604776,0.34207684,0.0,0.0,0.0
596,1778658381.8882406,0.63119274,-0.59604776,0.34207684,0.0,0.0,0.0
597,1778658381.8982418,0.63119274,-0.59604776,0.34207684,0.0,0.0,0.0
598,1778658381.9082422,0.63119274,-0.59604776,0.34207684,0.0,0.0,0.0
599,1778658381.9182436,0.63119274,-0.59604776,0.34207684,0.0,0.0,0.0
600,1778658381.9282446,0.63119274,-0.59604776,0.34207684,0.0,0.0,0.0
601,1778658381.9382463,0.63119274,-0.59604776,0.34207684,0.0,0.0,0.0
602,1778658381.9482472,0.63119274,-0.59604776,0.34207684,0.0,0.0,0.0
603,1778658381.9582484,0.63119274,-0.59604776,0.34207684,0.0,0.0,0.0
604,1778658381.9682488,0.63119274,-0.59604776,0.34207684,0.0,0.0,0.0
605,1778658381.97825,0.6858615,-0.67024034,0.36550632,0.0,0.0,0.0
606,1778658381.988251,0.6858615,-0.67024034,0.36550632,0.0,0.0,0.0
607,1778658381.9982524,0.6858615,-0.67024034,0.36550632,0.0,0.0,0.0
608,1778658382.0082538,0.7951991,-0.80300736,0.5021775,0.0,0.0,0.0
609,1778658382.0182543,0.7951991,-0.80300736,0.5021775,0.0,0.0,0.0
610,1778658382.0282555,0.7951991,-0.80300736,0.5021775,0.0,0.0,0.0
611,1778658382.0382562,0.7951991,-0.80300736,0.5021775,0.0,0.0,0.0
612,1778658382.0482574,0.7951991,-0.80300736,0.5021775,0.0,0.0,0.0
613,1778658382.0582588,1.4824651,-2.0564864,-0.75520426,0.0,0.0,0.0
614,1778658382.0682595,1.4824651,-2.0564864,-0.75520426,0.0,0.0,0.0
615,1778658382.0782604,1.4824651,-2.0564864,-0.75520426,0.0,0.0,0.0
616,1778658382.0882616,1.4824651,-2.0564864,-0.75520426,0.0,0.0,0.0
617,1778658382.0982625,1.4824651,-2.0564864,-0.75520426,0.0,0.0,0.0
618,1778658382.1082644,1.4824651,-2.0564864,-0.75520426,0.0,0.0,0.0
619,1778658382.1182652,1.4824651,-2.0564864,-0.75520426,0.0,0.0,0.0
620,1778658382.128266,1.4824651,-2.0564864,-0.75520426,0.0,0.0,0.0
621,1778658382.1382668,1.4824651,-2.0564864,-0.75520426,0.0,0.0,0.0
622,1778658382.1482685,1.4824651,-2.0564864,-0.75520426,0.0,0.0,0.0
623,1778658382.1582692,1.4824651,-2.0564864,-0.75520426,0.0,0.0,0.0
624,1778658382.1682699,1.4824651,-2.0564864,-0.75520426,0.0,0.0,0.0
625,1778658382.1782718,1.6113265,-2.4665031,-0.90359247,0.0,0.0,0.0
626,1778658382.1882734,1.6113265,-2.4665031,-0.90359247,0.0,0.0,0.0
627,1778658382.1982749,1.6113265,-2.4665031,-0.90359247,0.0,0.0,0.0
628,1778658382.2082758,1.6113265,-2.4665031,-0.90359247,0.0,0.0,0.0
629,1778658382.218277,1.6113265,-2.4665031,-0.90359247,0.0,0.0,0.0
630,1778658382.228278,1.6113265,-2.4665031,-0.90359247,0.0,0.0,0.0
631,1778658382.238279,1.6113265,-2.4665031,-0.90359247,0.0,0.0,0.0
632,1778658382.24828,2.2165887,-3.2045321,0.041397825,0.0,0.0,0.0
633,1778658382.2582812,2.2165887,-3.2045321,0.041397825,0.0,0.0,0.0
634,1778658382.268282,2.2165887,-3.2045321,0.041397825,0.0,0.0,0.0
635,1778658382.2782836,2.2165887,-3.2045321,0.041397825,0.0,0.0,0.0
636,1778658382.2882848,2.2165887,-3.2045321,0.041397825,0.0,0.0,0.0
637,1778658382.2982855,2.2165887,-3.2045321,0.041397825,0.0,0.0,0.0
638,1778658382.3082867,2.2165887,-3.2045321,0.041397825,0.0,0.0,0.0
639,1778658382.3182876,2.2165887,-3.2045321,0.041397825,0.0,0.0,0.0
640,1778658382.328289,2.2165887,-3.2045321,0.041397825,0.0,0.0,0.0
641,1778658382.3382895,2.2165887,-3.2045321,0.041397825,0.0,0.0,0.0
642,1778658382.3482902,2.2165887,-3.2045321,0.041397825,0.0,0.0,0.0
643,1778658382.3582916,2.2165887,-3.2045321,0.041397825,0.0,0.0,0.0
644,1778658382.368292,2.2165887,-3.2045321,0.041397825,0.0,0.0,0.0
645,1778658382.378293,2.2165887,-3.2045321,0.041397825,0.0,0.0,0.0
646,1778658382.3882947,2.0603921,-3.1459577,1.0488667,0.0,0.0,0.0
647,1778658382.3982956,2.0603921,-3.1459577,1.0488667,0.0,0.0,0.0
648,1778658382.408297,2.0603921,-3.1459577,1.0488667,0.0,0.0,0.0
649,1778658382.4182987,2.0603921,-3.1459577,1.0488667,0.0,0.0,0.0
650,1778658382.4282994,2.0603921,-3.1459577,1.0488667,0.0,0.0,0.0
651,1778658382.4383006,2.0603921,-3.1459577,1.0488667,0.0,0.0,0.0
652,1778658382.4483023,2.0603921,-3.1459577,1.0488667,0.0,0.0,0.0
653,1778658382.4583032,2.0603921,-3.1459577,1.0488667,0.0,0.0,0.0
654,1778658382.4683042,1.8690523,-3.0405242,1.4862169,0.0,0.0,0.0
655,1778658382.4783053,1.8690523,-3.0405242,1.4862169,0.0,0.0,0.0
656,1778658382.4883065,1.8690523,-3.0405242,1.4862169,0.0,0.0,0.0
657,1778658382.4983075,1.8690523,-3.0405242,1.4862169,0.0,0.0,0.0
658,1778658382.5083084,1.8690523,-3.0405242,1.4862169,0.0,0.0,0.0
659,1778658382.5183094,1.8690523,-3.0405242,1.4862169,0.0,0.0,0.0
660,1778658382.5283105,1.8690523,-3.0405242,1.4862169,0.0,0.0,0.0
661,1778658382.5383117,1.8690523,-3.0405242,1.4862169,0.0,0.0,0.0
662,1778658382.548313,1.8690523,-3.0405242,1.4862169,0.0,0.0,0.0
663,1778658382.5583146,1.8690523,-3.0405242,1.4862169,0.0,0.0,0.0
664,1778658382.5683155,1.8690523,-3.0405242,1.4862169,0.0,0.0,0.0
665,1778658382.5783162,1.8690523,-3.0405242,1.4862169,0.0,0.0,0.0
666,1778658382.588317,1.8690523,-3.0405242,1.4862169,0.0,0.0,0.0
667,1778658382.598318,1.1661665,-2.9038532,0.6154207,0.0,0.0,0.0
668,1778658382.6083195,1.1661665,-2.9038532,0.6154207,0.0,0.0,0.0
669,1778658382.6183205,1.1661665,-2.9038532,0.6154207,0.0,0.0,0.0
670,1778658382.6283216,1.0294954,-2.8530886,0.59199125,0.0,0.0,0.0
671,1778658382.6383228,1.0294954,-2.8530886,0.59199125,0.0,0.0,0.0
672,1778658382.6483276,1.0294954,-2.8530886,0.59199125,0.0,0.0,0.0
673,1778658382.6583345,1.0294954,-2.8530886,0.59199125,0.0,0.0,0.0
674,1778658382.668337,1.0294954,-2.8530886,0.59199125,0.0,0.0,0.0
675,1778658382.678338,1.0294954,-2.8530886,0.59199125,0.0,0.0,0.0
676,1778658382.6883392,1.0294954,-2.8530886,0.59199125,0.0,0.0,0.0
677,1778658382.6983402,1.0294954,-2.8530886,0.59199125,0.0,0.0,0.0
678,1778658382.7083414,1.0294954,-2.8530886,0.59199125,0.0,0.0,0.0
679,1778658382.7183437,1.0294954,-2.8530886,0.59199125,0.0,0.0,0.0
680,1778658382.728345,1.0294954,-2.8530886,0.59199125,0.0,0.0,0.0
681,1778658382.7383466,1.0294954,-2.8530886,0.59199125,0.0,0.0,0.0
682,1778658382.7483487,0.912348,-2.696892,0.3928399,0.0,0.0,0.0
683,1778658382.7583501,0.912348,-2.696892,0.3928399,0.0,0.0,0.0
684,1778658382.768352,0.912348,-2.696892,0.3928399,0.0,0.0,0.0
685,1778658382.778353,0.912348,-2.696892,0.3928399,0.0,0.0,0.0
686,1778658382.7883544,0.912348,-2.696892,0.3928399,0.0,0.0,0.0
687,1778658382.7983558,0.912348,-2.696892,0.3928399,0.0,0.0,0.0
688,1778658382.8083563,0.912348,-2.696892,0.3928399,0.0,0.0,0.0
689,1778658382.818357,0.912348,-2.696892,0.3928399,0.0,0.0,0.0
690,1778658382.828359,0.9435873,-2.6305094,0.28350237,0.0,0.0,0.0
691,1778658382.8383598,0.9435873,-2.6305094,0.28350237,0.0,0.0,0.0
692,1778658382.8483608,1.0138757,-2.5836504,0.18978448,0.0,0.0,0.0
693,1778658382.858362,1.0138757,-2.5836504,0.18978448,0.0,0.0,0.0
694,1778658382.868363,1.0138757,-2.5836504,0.18978448,0.0,0.0,0.0
695,1778658382.8783638,0.9435873,-2.0291514,0.010158527,0.0,0.0,0.0
696,1778658382.888365,0.9435873,-2.0291514,0.010158527,0.0,0.0,0.0
697,1778658382.8983657,0.9435873,-2.0291514,0.010158527,0.0,0.0,0.0
698,1778658382.908369,0.9435873,-2.0291514,0.010158527,0.0,0.0,0.0
699,1778658382.918371,0.9435873,-2.0291514,0.010158527,0.0,0.0,0.0
700,1778658382.9283721,0.9435873,-2.0291514,0.010158527,0.0,0.0,0.0
701,1778658382.938374,0.9435873,-2.0291514,0.010158527,0.0,0.0,0.0
702,1778658382.9483747,0.9435873,-2.0291514,0.010158527,0.0,0.0,0.0
703,1778658382.9583757,0.9435873,-2.0291514,0.010158527,0.0,0.0,0.0
704,1778658382.9683764,0.9435873,-2.0291514,0.010158527,0.0,0.0,0.0
705,1778658382.978377,0.9435873,-2.0291514,0.010158527,0.0,0.0,0.0
706,1778658382.9883788,0.9435873,-2.0291514,0.010158527,0.0,0.0,0.0
707,1778658382.99838,0.9435873,-2.0291514,0.010158527,0.0,0.0,0.0
708,1778658383.008381,0.9435873,-2.0291514,0.010158527,0.0,0.0,0.0
709,1778658383.0183818,0.9435873,-2.0291514,0.010158527,0.0,0.0,0.0
710,1778658383.0283828,0.9435873,-2.0291514,0.010158527,0.0,0.0,0.0
711,1778658383.0383837,0.9435873,-2.0291514,0.010158527,0.0,0.0,0.0
712,1778658383.048385,0.9435873,-2.0291514,0.010158527,0.0,0.0,0.0
713,1778658383.0583856,0.9435873,-2.0291514,0.010158527,0.0,0.0,0.0
714,1778658383.0683866,0.82253426,-1.6894248,0.03749369,0.0,0.0,0.0
715,1778658383.0783877,0.82253426,-1.6894248,0.03749369,0.0,0.0,0.0
716,1778658383.0883884,0.82253426,-1.6894248,0.03749369,0.0,0.0,0.0
717,1778658383.0983899,0.82253426,-1.6894248,0.03749369,0.0,0.0,0.0
718,1778658383.1083908,0.82253426,-1.6894248,0.03749369,0.0,0.0,0.0
719,1778658383.118392,0.82253426,-1.6894248,0.03749369,0.0,0.0,0.0
720,1778658383.1283934,0.82253426,-1.6894248,0.03749369,0.0,0.0,0.0
721,1778658383.1383946,0.82253426,-1.6894248,0.03749369,0.0,0.0,0.0
722,1778658383.1483963,0.82253426,-1.6894248,0.03749369,0.0,0.0,0.0
723,1778658383.1583982,0.82253426,-1.6894248,0.03749369,0.0,0.0,0.0
724,1778658383.1683993,0.82253426,-1.6894248,0.03749369,0.0,0.0,0.0
725,1778658383.1784003,0.82253426,-1.6894248,0.03749369,0.0,0.0,0.0
726,1778658383.1884027,0.82253426,-1.6894248,0.03749369,0.0,0.0,0.0
727,1778658383.1984038,0.82253426,-1.6894248,0.03749369,0.0,0.0,0.0
728,1778658383.208405,0.7053869,-1.3887458,0.08044694,0.0,0.0,0.0
729,1778658383.2184062,0.7053869,-1.3887458,0.08044694,0.0,0.0,0.0
730,1778658383.2284074,0.7053869,-1.3887458,0.08044694,0.0,0.0,0.0
731,1778658383.2384088,0.7053869,-1.3887458,0.08044694,0.0,0.0,0.0
732,1778658383.2484097,0.7053869,-1.3887458,0.08044694,0.0,0.0,0.0
733,1778658383.2584114,0.7053869,-1.3887458,0.08044694,0.0,0.0,0.0
734,1778658383.2684128,0.7053869,-1.3887458,0.08044694,0.0,0.0,0.0
735,1778658383.2784138,0.7053869,-1.3887458,0.08044694,0.0,0.0,0.0
736,1778658383.288415,0.7053869,-1.3887458,0.08044694,0.0,0.0,0.0
737,1778658383.2984188,0.7053869,-1.3887458,0.08044694,0.0,0.0,0.0
738,1778658383.3084202,0.7053869,-1.3887458,0.08044694,0.0,0.0,0.0
739,1778658383.318421,0.7053869,-1.3887458,0.08044694,0.0,0.0,0.0
740,1778658383.328422,0.7053869,-1.3887458,0.08044694,0.0,0.0,0.0
741,1778658383.3384237,0.7053869,-1.3887458,0.08044694,0.0,0.0,0.0
742,1778658383.348425,0.7053869,-1.3887458,0.08044694,0.0,0.0,0.0
743,1778658383.358426,0.7053869,-1.3887458,0.08044694,0.0,0.0,0.0
744,1778658383.368427,0.7053869,-1.3887458,0.08044694,0.0,0.0,0.0
745,1778658383.3784306,0.7053869,-1.3887458,0.08044694,0.0,0.0,0.0
746,1778658383.388431,0.7053869,-1.3887458,0.08044694,0.0,0.0,0.0
747,1778658383.398432,0.7053869,-1.3887458,0.08044694,0.0,0.0,0.0
748,1778658383.4084332,0.7053869,-1.3887458,0.08044694,0.0,0.0,0.0
749,1778658383.4184344,0.7053869,-1.3887458,0.08044694,0.0,0.0,0.0
750,1778658383.428435,0.59214365,-1.119306,0.099972285,0.0,0.0,0.0
751,1778658383.4384353,0.59214365,-1.119306,0.099972285,0.0,0.0,0.0
752,1778658383.4484365,0.59214365,-1.119306,0.099972285,0.0,0.0,0.0
753,1778658383.4584374,0.59214365,-1.119306,0.099972285,0.0,0.0,0.0
754,1778658383.468438,0.59214365,-1.119306,0.099972285,0.0,0.0,0.0
755,1778658383.4784384,0.59214365,-1.119306,0.099972285,0.0,0.0,0.0
756,1778658383.48844,-0.0053086895,0.20836568,0.22102378,0.0,0.0,0.0
757,1778658383.498441,-0.0053086895,0.20836568,0.22102378,0.0,0.0,0.0
758,1778658383.5084422,-0.0053086895,0.20836568,0.22102378,0.0,0.0,0.0
759,1778658383.5184438,-0.024832472,0.16150673,0.2327393,0.0,0.0,0.0
760,1778658383.5284445,-0.024832472,0.16150673,0.2327393,0.0,0.0,0.0
761,1778658383.5384474,-0.024832472,0.16150673,0.2327393,0.0,0.0,0.0
762,1778658383.54845,-0.024832472,0.16150673,0.2327393,0.0,0.0,0.0
763,1778658383.5584507,-0.024832472,0.16150673,0.2327393,0.0,0.0,0.0
764,1778658383.5684514,-0.024832472,0.16150673,0.2327393,0.0,0.0,0.0
765,1778658383.578452,-0.024832472,0.16150673,0.2327393,0.0,0.0,0.0
766,1778658383.5884535,-0.024832472,0.16150673,0.2327393,0.0,0.0,0.0
767,1778658383.5984545,-0.024832472,0.16150673,0.2327393,0.0,0.0,0.0
768,1778658383.6084557,-0.024832472,0.16150673,0.2327393,0.0,0.0,0.0
769,1778658383.6184576,-0.024832472,0.16150673,0.2327393,0.0,0.0,0.0
770,1778658383.6284587,-0.024832472,0.16150673,0.2327393,0.0,0.0,0.0
771,1778658383.6384594,-0.024832472,0.16150673,0.2327393,0.0,0.0,0.0
772,1778658383.6484606,-0.024832472,0.16150673,0.2327393,0.0,0.0,0.0
773,1778658383.658465,0.0064068246,0.22788946,0.20930983,0.0,0.0,0.0
774,1778658383.668466,0.0064068246,0.22788946,0.20930983,0.0,0.0,0.0
775,1778658383.6784678,0.0064068246,0.22788946,0.20930983,0.0,0.0,0.0
776,1778658383.688469,0.0064068246,0.22788946,0.20930983,0.0,0.0,0.0
777,1778658383.6984699,0.0064068246,0.22788946,0.20930983,0.0,0.0,0.0
778,1778658383.708471,0.0064068246,0.22788946,0.20930983,0.0,0.0,0.0
779,1778658383.7184722,0.0064068246,0.22788946,0.20930983,0.0,0.0,0.0
780,1778658383.7284734,0.0064068246,0.22788946,0.20930983,0.0,0.0,0.0
781,1778658383.7384756,0.0064068246,0.22788946,0.20930983,0.0,0.0,0.0
782,1778658383.7484772,0.0064068246,0.22788946,0.20930983,0.0,0.0,0.0
783,1778658383.7584782,0.0064068246,0.22788946,0.20930983,0.0,0.0,0.0
784,1778658383.7684789,0.0064068246,0.22788946,0.20930983,0.0,0.0,0.0
785,1778658383.77848,0.0064068246,0.22788946,0.20930983,0.0,0.0,0.0
786,1778658383.7884808,0.0064068246,0.22788946,0.20930983,0.0,0.0,0.0
787,1778658383.7984815,0.0064068246,0.22788946,0.20930983,0.0,0.0,0.0
788,1778658383.808483,0.045455948,0.25131893,0.15073536,0.0,0.0,0.0
789,1778658383.8184843,0.045455948,0.25131893,0.15073536,0.0,0.0,0.0
790,1778658383.828485,0.045455948,0.25131893,0.15073536,0.0,0.0,0.0
791,1778658383.838486,0.045455948,0.25131893,0.15073536,0.0,0.0,0.0
792,1778658383.8484871,0.045455948,0.25131893,0.15073536,0.0,0.0,0.0
793,1778658383.8584878,0.045455948,0.25131893,0.15073536,0.0,0.0,0.0
794,1778658383.8684895,0.06497973,0.24350911,0.13121158,0.0,0.0,0.0
795,1778658383.8784902,0.06497973,0.24350911,0.13121158,0.0,0.0,0.0
796,1778658383.8884916,0.06497973,0.24350911,0.13121158,0.0,0.0,0.0
797,1778658383.8984923,0.06497973,0.24350911,0.13121158,0.0,0.0,0.0
798,1778658383.908493,0.06497973,0.24350911,0.13121158,0.0,0.0,0.0
799,1778658383.918494,0.06497973,0.24350911,0.13121158,0.0,0.0,0.0
800,1778658383.9284964,0.70148116,-1.7597132,0.34598097,0.0,0.0,0.0
801,1778658383.9384978,0.70148116,-1.7597132,0.34598097,0.0,0.0,0.0
802,1778658383.948499,0.70148116,-1.7597132,0.34598097,0.0,0.0,0.0
803,1778658383.9585013,0.70148116,-1.7597132,0.34598097,0.0,0.0,0.0
804,1778658383.968502,0.70148116,-1.7597132,0.34598097,0.0,0.0,0.0
805,1778658383.9785035,0.70148116,-1.7597132,0.34598097,0.0,0.0,0.0
806,1778658383.9885046,0.70148116,-1.7597132,0.34598097,0.0,0.0,0.0
807,1778658383.9985058,0.70148116,-1.7597132,0.34598097,0.0,0.0,0.0
808,1778658384.0085075,1.1856918,-2.5485053,0.084352635,0.0,0.0,0.0
809,1778658384.0185082,1.1856918,-2.5485053,0.084352635,0.0,0.0,0.0
810,1778658384.028509,1.1856918,-2.5485053,0.084352635,0.0,0.0,0.0
811,1778658384.038514,1.1856918,-2.5485053,0.084352635,0.0,0.0,0.0
812,1778658384.0485146,1.1856918,-2.5485053,0.084352635,0.0,0.0,0.0
813,1778658384.058516,1.1856918,-2.5485053,0.084352635,0.0,0.0,0.0
814,1778658384.0685174,1.8963859,-4.9187894,0.53341675,0.0,0.0,0.0
815,1778658384.078519,1.8963859,-4.9187894,0.53341675,0.0,0.0,0.0
816,1778658384.0885203,1.8963859,-4.9187894,0.53341675,0.0,0.0,0.0
817,1778658384.0985212,1.8963859,-4.9187894,0.53341675,0.0,0.0,0.0
818,1778658384.108522,1.8963859,-4.9187894,0.53341675,0.0,0.0,0.0
819,1778658384.118523,1.8963859,-4.9187894,0.53341675,0.0,0.0,0.0
820,1778658384.1285236,1.8963859,-4.9187894,0.53341675,0.0,0.0,0.0
821,1778658384.1385255,1.8963859,-4.9187894,0.53341675,0.0,0.0,0.0
822,1778658384.1485267,1.8963859,-4.9187894,0.53341675,0.0,0.0,0.0
823,1778658384.1585274,1.8963859,-4.9187894,0.53341675,0.0,0.0,0.0
824,1778658384.1685295,1.8963859,-4.9187894,0.53341675,0.0,0.0,0.0
825,1778658384.17853,1.8963859,-4.9187894,0.53341675,0.0,0.0,0.0
826,1778658384.1885314,1.8963859,-4.9187894,0.53341675,0.0,0.0,0.0
827,1778658384.1985333,1.8963859,-4.9187894,0.53341675,0.0,0.0,0.0
828,1778658384.2085342,1.8963859,-4.9187894,0.53341675,0.0,0.0,0.0
829,1778658384.2185354,1.8963859,-4.9187894,0.53341675,0.0,0.0,0.0
830,1778658384.2285366,1.8963859,-4.9187894,0.53341675,0.0,0.0,0.0
831,1778658384.2385378,1.8963859,-4.9187894,0.53341675,0.0,0.0,0.0
832,1778658384.2485394,1.8963859,-4.9187894,0.53341675,0.0,0.0,0.0
833,1778658384.2585423,1.8963859,-4.9187894,0.53341675,0.0,0.0,0.0
834,1778658384.2685432,1.8963859,-4.9187894,0.53341675,0.0,0.0,0.0
835,1778658384.2785444,1.8963859,-4.9187894,0.53341675,0.0,0.0,0.0
836,1778658384.2885463,1.131023,-7.9685297,1.404213,0.0,0.0,0.0
837,1778658384.2985477,1.131023,-7.9685297,1.404213,0.0,0.0,0.0
838,1778658384.3085496,1.131023,-7.9685297,1.404213,0.0,0.0,0.0
839,1778658384.3185506,1.131023,-7.9685297,1.404213,0.0,0.0,0.0
840,1778658384.3285518,1.131023,-7.9685297,1.404213,0.0,0.0,0.0
841,1778658384.3385532,1.131023,-7.9685297,1.404213,0.0,0.0,0.0
842,1778658384.348554,1.131023,-7.9685297,1.404213,0.0,0.0,0.0
843,1778658384.3585565,1.131023,-7.9685297,1.404213,0.0,0.0,0.0
844,1778658384.368558,1.131023,-7.9685297,1.404213,0.0,0.0,0.0
845,1778658384.3785594,1.131023,-7.9685297,1.404213,0.0,0.0,0.0
846,1778658384.3885617,1.131023,-7.9685297,1.404213,0.0,0.0,0.0
847,1778658384.398563,1.131023,-7.9685297,1.404213,0.0,0.0,0.0
848,1778658384.4085655,1.131023,-7.9685297,1.404213,0.0,0.0,0.0
849,1778658384.418567,1.131023,-7.9685297,1.404213,0.0,0.0,0.0
850,1778658384.4285681,1.131023,-7.9685297,1.404213,0.0,0.0,0.0
851,1778658384.438571,1.131023,-7.9685297,1.404213,0.0,0.0,0.0
852,1778658384.448573,1.131023,-7.9685297,1.404213,0.0,0.0,0.0
853,1778658384.458574,1.131023,-7.9685297,1.404213,0.0,0.0,0.0
854,1778658384.4685764,1.131023,-7.9685297,1.404213,0.0,0.0,0.0
855,1778658384.4785779,1.131023,-7.9685297,1.404213,0.0,0.0,0.0
856,1778658384.488581,1.131023,-7.9685297,1.404213,0.0,0.0,0.0
857,1778658384.4985828,1.131023,-7.9685297,1.404213,0.0,0.0,0.0
858,1778658384.5085838,1.131023,-7.9685297,1.404213,0.0,0.0,0.0
859,1778658384.5185854,1.131023,-7.9685297,1.404213,0.0,0.0,0.0
860,1778658384.5285861,1.131023,-7.9685297,1.404213,0.0,0.0,0.0
861,1778658384.5385904,1.131023,-7.9685297,1.404213,0.0,0.0,0.0
862,1778658384.548594,1.131023,-7.9685297,1.404213,0.0,0.0,0.0
863,1778658384.5585952,1.131023,-7.9685297,1.404213,0.0,0.0,0.0
864,1778658384.568596,1.131023,-7.9685297,1.404213,0.0,0.0,0.0
865,1778658384.5785973,0.27975067,-6.988396,1.4549776,0.0,0.0,0.0
866,1778658384.588598,0.27975067,-6.988396,1.4549776,0.0,0.0,0.0
867,1778658384.5985985,0.27975067,-6.988396,1.4549776,0.0,0.0,0.0
868,1778658384.6086001,0.27975067,-6.988396,1.4549776,0.0,0.0,0.0
869,1778658384.6186008,0.27975067,-6.988396,1.4549776,0.0,0.0,0.0
870,1778658384.6286016,0.27975067,-6.988396,1.4549776,0.0,0.0,0.0
871,1778658384.6386032,0.27975067,-6.988396,1.4549776,0.0,0.0,0.0
872,1778658384.648604,0.27975067,-6.988396,1.4549776,0.0,0.0,0.0
873,1778658384.658605,0.27975067,-6.988396,1.4549776,0.0,0.0,0.0
874,1778658384.668629,0.26413104,-3.6340725,0.8223818,0.0,0.0,0.0
875,1778658384.6786304,0.26413104,-3.6340725,0.8223818,0.0,0.0,0.0
876,1778658384.6886308,0.26413104,-3.6340725,0.8223818,0.0,0.0,0.0
877,1778658384.6986315,0.26413104,-3.6340725,0.8223818,0.0,0.0,0.0
878,1778658384.708633,0.26413104,-3.6340725,0.8223818,0.0,0.0,0.0
879,1778658384.7186341,0.26413104,-3.6340725,0.8223818,0.0,0.0,0.0
880,1778658384.7286353,0.26413104,-3.6340725,0.8223818,0.0,0.0,0.0
881,1778658384.7386367,0.09231489,-2.5094564,0.3616006,0.0,0.0,0.0
882,1778658384.7486398,0.09231489,-2.5094564,0.3616006,0.0,0.0,0.0
883,1778658384.758641,0.09231489,-2.5094564,0.3616006,0.0,0.0,0.0
884,1778658384.7686417,0.09231489,-2.5094564,0.3616006,0.0,0.0,0.0
885,1778658384.7786443,0.09231489,-2.5094564,0.3616006,0.0,0.0,0.0
886,1778658384.7886457,0.09231489,-2.5094564,0.3616006,0.0,0.0,0.0
887,1778658384.798647,0.09231489,-2.5094564,0.3616006,0.0,0.0,0.0
888,1778658384.8086476,0.09231489,-2.5094564,0.3616006,0.0,0.0,0.0
889,1778658384.8186486,0.09231489,-2.5094564,0.3616006,0.0,0.0,0.0
890,1778658384.8286495,0.09231489,-2.5094564,0.3616006,0.0,0.0,0.0
891,1778658384.8386505,0.09231489,-2.5094564,0.3616006,0.0,0.0,0.0
892,1778658384.8486514,0.09231489,-2.5094564,0.3616006,0.0,0.0,0.0
893,1778658384.8586528,0.09231489,-2.5094564,0.3616006,0.0,0.0,0.0
894,1778658384.868654,0.09231489,-2.5094564,0.3616006,0.0,0.0,0.0
895,1778658384.8786552,0.09231489,-2.5094564,0.3616006,0.0,0.0,0.0
896,1778658384.8886569,0.09231489,-2.5094564,0.3616006,0.0,0.0,0.0
897,1778658384.8986576,0.09231489,-2.5094564,0.3616006,0.0,0.0,0.0
898,1778658384.908659,0.08841076,-2.212683,0.2288336,0.0,0.0,0.0
899,1778658384.91866,0.08841076,-2.212683,0.2288336,0.0,0.0,0.0
900,1778658384.928661,0.08841076,-2.212683,0.2288336,0.0,0.0,0.0
901,1778658384.938662,0.17041314,-2.0135317,0.17416483,0.0,0.0,0.0
902,1778658384.9486628,0.17041314,-2.0135317,0.17416483,0.0,0.0,0.0
903,1778658384.9586647,0.3187998,-1.8221917,0.22102378,0.0,0.0,0.0
904,1778658384.9686658,0.3187998,-1.8221917,0.22102378,0.0,0.0,0.0
905,1778658384.9786663,0.3187998,-1.8221917,0.22102378,0.0,0.0,0.0
906,1778658384.988668,0.3187998,-1.8221917,0.22102378,0.0,0.0,0.0
907,1778658384.9986694,0.3187998,-1.8221917,0.22102378,0.0,0.0,0.0
908,1778658385.0086699,0.3187998,-1.8221917,0.22102378,0.0,0.0,0.0
909,1778658385.018671,0.3187998,-1.8221917,0.22102378,0.0,0.0,0.0
910,1778658385.028672,0.3187998,-1.8221917,0.22102378,0.0,0.0,0.0
911,1778658385.0386732,0.3187998,-1.8221917,0.22102378,0.0,0.0,0.0
912,1778658385.048674,0.3187998,-1.8221917,0.22102378,0.0,0.0,0.0
913,1778658385.0586753,0.3187998,-1.8221917,0.22102378,0.0,0.0,0.0
914,1778658385.0686767,0.3187998,-1.8221917,0.22102378,0.0,0.0,0.0
915,1778658385.0786772,0.3187998,-1.8221917,0.22102378,0.0,0.0,0.0
916,1778658385.0886781,0.3187998,-1.8221917,0.22102378,0.0,0.0,0.0
917,1778658385.0986793,0.3187998,-1.8221917,0.22102378,0.0,0.0,0.0
918,1778658385.1086802,0.3187998,-1.8221917,0.22102378,0.0,0.0,0.0
919,1778658385.1186807,0.3187998,-1.8221917,0.22102378,0.0,0.0,0.0
920,1778658385.1286826,0.3187998,-1.8221917,0.22102378,0.0,0.0,0.0
921,1778658385.1386836,0.3187998,-1.8221917,0.22102378,0.0,0.0,0.0
922,1778658385.1486847,0.3187998,-1.8221917,0.22102378,0.0,0.0,0.0
923,1778658385.1586852,0.3187998,-1.8221917,0.22102378,0.0,0.0,0.0
924,1778658385.168686,0.3187998,-1.8221917,0.22102378,0.0,0.0,0.0
925,1778658385.1786873,0.5062356,-1.8807646,0.25226307,0.0,0.0,0.0
926,1778658385.1886878,0.5062356,-1.8807646,0.25226307,0.0,0.0,0.0
927,1778658385.1986887,0.5062356,-1.8807646,0.25226307,0.0,0.0,0.0
928,1778658385.2086895,0.5062356,-1.8807646,0.25226307,0.0,0.0,0.0
929,1778658385.2186906,0.5062356,-1.8807646,0.25226307,0.0,0.0,0.0
930,1778658385.2286913,0.5062356,-1.8807646,0.25226307,0.0,0.0,0.0
931,1778658385.2386937,0.5062356,-1.8807646,0.25226307,0.0,0.0,0.0
932,1778658385.2486959,0.5062356,-1.8807646,0.25226307,0.0,0.0,0.0
933,1778658385.258698,0.5062356,-1.8807646,0.25226307,0.0,0.0,0.0
934,1778658385.268699,0.5062356,-1.8807646,0.25226307,0.0,0.0,0.0
935,1778658385.2787004,0.5062356,-1.8807646,0.25226307,0.0,0.0,0.0
936,1778658385.2887013,0.5062356,-1.8807646,0.25226307,0.0,0.0,0.0
937,1778658385.2987022,0.5062356,-1.8807646,0.25226307,0.0,0.0,0.0
938,1778658385.3087037,0.6390026,-1.9901022,0.33817115,0.0,0.0,0.0
939,1778658385.3187044,0.6390026,-1.9901022,0.33817115,0.0,0.0,0.0
940,1778658385.328705,0.6390026,-1.9901022,0.33817115,0.0,0.0,0.0
941,1778658385.3387063,0.6390026,-1.9901022,0.33817115,0.0,0.0,0.0
942,1778658385.3487067,0.6390026,-1.9901022,0.33817115,0.0,0.0,0.0
943,1778658385.3587081,0.6390026,-1.9901022,0.33817115,0.0,0.0,0.0
944,1778658385.3687096,0.6390026,-1.9901022,0.33817115,0.0,0.0,0.0
945,1778658385.3787103,0.6390026,-1.9901022,0.33817115,0.0,0.0,0.0
946,1778658385.3887117,0.6390026,-1.9901022,0.33817115,0.0,0.0,0.0
947,1778658385.3987126,0.6390026,-1.9901022,0.33817115,0.0,0.0,0.0
948,1778658385.4087138,0.6390026,-1.9901022,0.33817115,0.0,0.0,0.0
949,1778658385.4187152,0.6390026,-1.9901022,0.33817115,0.0,0.0,0.0
950,1778658385.4287157,0.6390026,-1.9901022,0.33817115,0.0,0.0,0.0
951,1778658385.438717,0.6390026,-1.9901022,0.33817115,0.0,0.0,0.0
952,1778658385.4487176,0.576524,-2.4547875,0.38112596,0.0,0.0,0.0
953,1778658385.4587185,0.576524,-2.4547875,0.38112596,0.0,0.0,0.0
954,1778658385.46872,0.576524,-2.4547875,0.38112596,0.0,0.0,0.0
955,1778658385.4787211,0.576524,-2.4547875,0.38112596,0.0,0.0,0.0
956,1778658385.4887223,0.576524,-2.4547875,0.38112596,0.0,0.0,0.0
957,1778658385.4987235,0.576524,-2.4547875,0.38112596,0.0,0.0,0.0
958,1778658385.5087247,0.576524,-2.4547875,0.38112596,0.0,0.0,0.0
959,1778658385.5187254,0.576524,-2.4547875,0.38112596,0.0,0.0,0.0
960,1778658385.5287266,0.576524,-2.4547875,0.38112596,0.0,0.0,0.0
961,1778658385.5387273,0.576524,-2.4547875,0.38112596,0.0,0.0,0.0
962,1778658385.5487285,0.576524,-2.4547875,0.38112596,0.0,0.0,0.0
963,1778658385.5587292,0.576524,-2.4547875,0.38112596,0.0,0.0,0.0
964,1778658385.5687299,0.576524,-2.4547875,0.38112596,0.0,0.0,0.0
965,1778658385.5787318,0.576524,-2.4547875,0.38112596,0.0,0.0,0.0
966,1778658385.5887327,0.576524,-2.4547875,0.38112596,0.0,0.0,0.0
967,1778658385.5987341,0.576524,-2.4547875,0.38112596,0.0,0.0,0.0
968,1778658385.6087437,0.576524,-2.4547875,0.38112596,0.0,0.0,0.0
969,1778658385.6187444,0.576524,-2.4547875,0.38112596,0.0,0.0,0.0
970,1778658385.6287453,0.576524,-2.4547875,0.38112596,0.0,0.0,0.0
971,1778658385.638747,0.576524,-2.4547875,0.38112596,0.0,0.0,0.0
972,1778658385.6487477,0.576524,-2.4547875,0.38112596,0.0,0.0,0.0
973,1778658385.6587508,0.576524,-2.4547875,0.38112596,0.0,0.0,0.0
974,1778658385.6687531,0.576524,-2.4547875,0.38112596,0.0,0.0,0.0
975,1778658385.6787546,0.576524,-2.4547875,0.38112596,0.0,0.0,0.0
976,1778658385.6887562,0.576524,-2.4547875,0.38112596,0.0,0.0,0.0
977,1778658385.698757,0.576524,-2.4547875,0.38112596,0.0,0.0,0.0
978,1778658385.7087584,0.5491904,-2.5875545,0.31474167,0.0,0.0,0.0
979,1778658385.7187598,0.5491904,-2.5875545,0.31474167,0.0,0.0,0.0
980,1778658385.7287617,0.5491904,-2.5875545,0.31474167,0.0,0.0,0.0
981,1778658385.7387636,0.5609043,-2.6578429,0.24835895,0.0,0.0,0.0
982,1778658385.7487648,0.5609043,-2.6578429,0.24835895,0.0,0.0,0.0
983,1778658385.7587652,0.5609043,-2.6578429,0.24835895,0.0,0.0,0.0
984,1778658385.7687664,0.5609043,-2.6578429,0.24835895,0.0,0.0,0.0
985,1778658385.7787685,0.5609043,-2.6578429,0.24835895,0.0,0.0,0.0
986,1778658385.7887702,0.5609043,-2.6578429,0.24835895,0.0,0.0,0.0
987,1778658385.7987716,0.5609043,-2.6578429,0.24835895,0.0,0.0,0.0
988,1778658385.8088002,0.5609043,-2.6578429,0.24835895,0.0,0.0,0.0
989,1778658385.818801,0.5609043,-2.6578429,0.24835895,0.0,0.0,0.0
990,1778658385.8288016,0.5609043,-2.6578429,0.24835895,0.0,0.0,0.0
991,1778658385.838802,0.5609043,-2.6578429,0.24835895,0.0,0.0,0.0
992,1778658385.8488033,0.5609043,-2.6578429,0.24835895,0.0,0.0,0.0
993,1778658385.8588042,0.5609043,-2.6578429,0.24835895,0.0,0.0,0.0
994,1778658385.8688052,0.5609043,-2.6578429,0.24835895,0.0,0.0,0.0
995,1778658385.8788066,0.6507181,-2.4430735,0.33426702,0.0,0.0,0.0
996,1778658385.8888078,0.6507181,-2.4430735,0.33426702,0.0,0.0,0.0
997,1778658385.8988085,0.6507181,-2.4430735,0.33426702,0.0,0.0,0.0
998,1778658385.9088097,0.6507181,-2.4430735,0.33426702,0.0,0.0,0.0
999,1778658385.9188104,0.6507181,-2.4430735,0.33426702,0.0,0.0,0.0
1000,1778658385.928811,0.6507181,-2.4430735,0.33426702,0.0,0.0,0.0
