id,timestamp,acc_x,acc_y,acc_z,gyro_x,gyro_y,gyro_z
1,1778658688.2549078,0.20555812,-1.252073,0.43969887,0.0,0.0,0.0
2,1778658688.2649117,0.20555812,-1.252073,0.43969887,0.0,0.0,0.0
3,1778658688.2749138,0.20555812,-1.252073,0.43969887,0.0,0.0,0.0
4,1778658688.284918,0.20555812,-1.252073,0.43969887,0.0,0.0,0.0
5,1778658688.2949233,0.14698367,-1.1271158,0.3850301,0.0,0.0,0.0
6,1778658688.3049262,0.14698367,-1.1271158,0.3850301,0.0,0.0,0.0
7,1778658688.3149302,0.14698367,-1.1271158,0.3850301,0.0,0.0,0.0
8,1778658688.3249333,0.14698367,-1.1271158,0.3850301,0.0,0.0,0.0
9,1778658688.3349392,0.14698367,-1.1271158,0.3850301,0.0,0.0,0.0
10,1778658688.3449428,0.14698367,-1.1271158,0.3850301,0.0,0.0,0.0
11,1778658688.3549464,0.14698367,-1.1271158,0.3850301,0.0,0.0,0.0
12,1778658688.3649497,0.14698367,-1.1271158,0.3850301,0.0,0.0,0.0
13,1778658688.374952,0.14698367,-1.1271158,0.3850301,0.0,0.0,0.0
14,1778658688.3849547,0.14698367,-1.1271158,0.3850301,0.0,0.0,0.0
15,1778658688.3949564,0.14698367,-1.1271158,0.3850301,0.0,0.0,0.0
16,1778658688.404959,0.14698367,-1.1271158,0.3850301,0.0,0.0,0.0
17,1778658688.4149616,0.14698367,-1.1271158,0.3850301,0.0,0.0,0.0
18,1778658688.4249635,0.14698367,-1.1271158,0.3850301,0.0,0.0,0.0
19,1778658688.4349666,0.14698367,-1.1271158,0.3850301,0.0,0.0,0.0
20,1778658688.444988,0.14698367,-1.1271158,0.3850301,0.0,0.0,0.0
21,1778658688.4549918,0.14698367,-1.1271158,0.3850301,0.0,0.0,0.0
22,1778658688.4649954,0.14698367,-1.1271158,0.3850301,0.0,0.0,0.0
23,1778658688.474998,0.14698367,-1.1271158,0.3850301,0.0,0.0,0.0
24,1778658688.485003,0.14698367,-1.1271158,0.3850301,0.0,0.0,0.0
25,1778658688.4950073,0.14698367,-1.1271158,0.3850301,0.0,0.0,0.0
26,1778658688.5050087,0.14698367,-1.1271158,0.3850301,0.0,0.0,0.0
27,1778658688.515011,0.14698367,-1.1271158,0.3850301,0.0,0.0,0.0
28,1778658688.5250125,0.14698367,-1.1271158,0.3850301,0.0,0.0,0.0
29,1778658688.5350137,0.14698367,-1.1271158,0.3850301,0.0,0.0,0.0
30,1778658688.5450163,0.14698367,-1.1271158,0.3850301,0.0,0.0,0.0
31,1778658688.555018,0.14698367,-1.1271158,0.3850301,0.0,0.0,0.0
32,1778658688.565019,0.14698367,-1.1271158,0.3850301,0.0,0.0,0.0
33,1778658688.575022,0.14698367,-1.1271158,0.3850301,0.0,0.0,0.0
34,1778658688.5850248,0.14698367,-1.1271158,0.3850301,0.0,0.0,0.0
35,1778658688.5950263,0.14698367,-1.1271158,0.3850301,0.0,0.0,0.0
36,1778658688.6050284,0.14698367,-1.1271158,0.3850301,0.0,0.0,0.0
37,1778658688.6150296,0.14698367,-1.1271158,0.3850301,0.0,0.0,0.0
38,1778658688.6250327,0.14698367,-1.1271158,0.3850301,0.0,0.0,0.0
39,1778658688.6350353,0.14698367,-1.1271158,0.3850301,0.0,0.0,0.0
40,1778658688.6450365,0.14698367,-1.1271158,0.3850301,0.0,0.0,0.0
41,1778658688.655039,-0.009212824,-0.83815235,0.2327393,0.0,0.0,0.0
42,1778658688.665041,-0.009212824,-0.83815235,0.2327393,0.0,0.0,0.0
43,1778658688.6750426,-0.009212824,-0.83815235,0.2327393,0.0,0.0,0.0
44,1778658688.6850443,-0.009212824,-0.83815235,0.2327393,0.0,0.0,0.0
45,1778658688.6950464,-0.009212824,-0.83815235,0.2327393,0.0,0.0,0.0
46,1778658688.7050483,-0.009212824,-0.83815235,0.2327393,0.0,0.0,0.0
47,1778658688.7150497,-0.009212824,-0.83815235,0.2327393,0.0,0.0,0.0
48,1778658688.725051,-0.009212824,-0.83815235,0.2327393,0.0,0.0,0.0
49,1778658688.7350526,-0.009212824,-0.83815235,0.2327393,0.0,0.0,0.0
50,1778658688.745055,-0.009212824,-0.83815235,0.2327393,0.0,0.0,0.0
51,1778658688.7550573,-0.009212824,-0.83815235,0.2327393,0.0,0.0,0.0
52,1778658688.7650595,-0.009212824,-0.83815235,0.2327393,0.0,0.0,0.0
53,1778658688.7750623,0.14698367,-1.1271158,0.3850301,0.0,0.0,0.0
54,1778658688.7850647,0.14698367,-1.1271158,0.3850301,0.0,0.0,0.0
55,1778658688.7950673,0.14698367,-1.1271158,0.3850301,0.0,0.0,0.0
56,1778658688.80507,0.14698367,-1.1271158,0.3850301,0.0,0.0,0.0
57,1778658688.8150728,0.14698367,-1.1271158,0.3850301,0.0,0.0,0.0
58,1778658688.825075,0.14698367,-1.1271158,0.3850301,0.0,0.0,0.0
59,1778658688.8350768,0.14698367,-1.1271158,0.3850301,0.0,0.0,0.0
60,1778658688.8450792,0.14698367,-1.1271158,0.3850301,0.0,0.0,0.0
61,1778658688.8550825,0.14698367,-1.1271158,0.3850301,0.0,0.0,0.0
62,1778658688.865084,0.14698367,-1.1271158,0.3850301,0.0,0.0,0.0
63,1778658688.8750875,0.14698367,-1.1271158,0.3850301,0.0,0.0,0.0
64,1778658688.8850923,0.14698367,-1.1271158,0.3850301,0.0,0.0,0.0
65,1778658688.8950994,0.14698367,-1.1271158,0.3850301,0.0,0.0,0.0
66,1778658688.9051032,0.14698367,-1.1271158,0.3850301,0.0,0.0,0.0
67,1778658688.915105,0.14698367,-1.1271158,0.3850301,0.0,0.0,0.0
68,1778658688.9251091,0.14698367,-1.1271158,0.3850301,0.0,0.0,0.0
69,1778658688.935113,0.14698367,-1.1271158,0.3850301,0.0,0.0,0.0
70,1778658688.9451156,0.14698367,-1.1271158,0.3850301,0.0,0.0,0.0
71,1778658688.9551187,0.14698367,-1.1271158,0.3850301,0.0,0.0,0.0
72,1778658688.9651215,0.14698367,-1.1271158,0.3850301,0.0,0.0,0.0
73,1778658688.9751253,0.14698367,-1.1271158,0.3850301,0.0,0.0,0.0
74,1778658688.9851289,0.14698367,-1.1271158,0.3850301,0.0,0.0,0.0
75,1778658688.9951315,0.14698367,-1.1271158,0.3850301,0.0,0.0,0.0
76,1778658689.0051343,0.14698367,-1.1271158,0.3850301,0.0,0.0,0.0
77,1778658689.0151403,0.14698367,-1.1271158,0.3850301,0.0,0.0,0.0
78,1778658689.0251443,0.14698367,-1.1271158,0.3850301,0.0,0.0,0.0
79,1778658689.035147,0.14698367,-1.1271158,0.3850301,0.0,0.0,0.0
80,1778658689.0451488,0.14698367,-1.1271158,0.3850301,0.0,0.0,0.0
81,1778658689.0551505,0.14698367,-1.1271158,0.3850301,0.0,0.0,0.0
82,1778658689.0651534,0.14698367,-1.1271158,0.3850301,0.0,0.0,0.0
83,1778658689.0751565,0.14698367,-1.1271158,0.3850301,0.0,0.0,0.0
84,1778658689.085159,0.14698367,-1.1271158,0.3850301,0.0,0.0,0.0
85,1778658689.0951622,0.14698367,-1.1271158,0.3850301,0.0,0.0,0.0
86,1778658689.1051645,0.14698367,-1.1271158,0.3850301,0.0,0.0,0.0
87,1778658689.1151655,0.14698367,-1.1271158,0.3850301,0.0,0.0,0.0
88,1778658689.1251678,-0.05607177,-0.7678639,0.18197466,0.0,0.0,0.0
89,1778658689.1351707,-0.05607177,-0.7678639,0.18197466,0.0,0.0,0.0
90,1778658689.1451719,-0.05607177,-0.7678639,0.18197466,0.0,0.0,0.0
91,1778658689.1551738,-0.05607177,-0.7678639,0.18197466,0.0,0.0,0.0
92,1778658689.1651766,-0.05607177,-0.7678639,0.18197466,0.0,0.0,0.0
93,1778658689.175182,-0.05607177,-0.7678639,0.18197466,0.0,0.0,0.0
94,1778658689.185186,-0.05607177,-0.7678639,0.18197466,0.0,0.0,0.0
95,1778658689.195188,-0.05607177,-0.7678639,0.18197466,0.0,0.0,0.0
96,1778658689.2051892,-0.05607177,-0.7678639,0.18197466,0.0,0.0,0.0
97,1778658689.215191,-0.05607177,-0.7678639,0.18197466,0.0,0.0,0.0
98,1778658689.225193,-0.05607177,-0.7678639,0.18197466,0.0,0.0,0.0
99,1778658689.235196,-0.05607177,-0.7678639,0.18197466,0.0,0.0,0.0
100,1778658689.2451992,-0.05607177,-0.7678639,0.18197466,0.0,0.0,0.0
101,1778658689.255201,-0.05607177,-0.7678639,0.18197466,0.0,0.0,0.0
102,1778658689.2652042,-0.05607177,-0.7678639,0.18197466,0.0,0.0,0.0
103,1778658689.2752073,-0.05607177,-0.7678639,0.18197466,0.0,0.0,0.0
104,1778658689.2852137,-0.05607177,-0.7678639,0.18197466,0.0,0.0,0.0
105,1778658689.2952163,-0.05607177,-0.7678639,0.18197466,0.0,0.0,0.0
106,1778658689.3052194,-0.05607177,-0.7678639,0.18197466,0.0,0.0,0.0
107,1778658689.3152227,-0.05607177,-0.7678639,0.18197466,0.0,0.0,0.0
108,1778658689.3252254,-0.05607177,-0.7678639,0.18197466,0.0,0.0,0.0
109,1778658689.3352299,-0.05607177,-0.7678639,0.18197466,0.0,0.0,0.0
110,1778658689.3452325,-0.05607177,-0.7678639,0.18197466,0.0,0.0,0.0
111,1778658689.3552344,-0.05607177,-0.7678639,0.18197466,0.0,0.0,0.0
112,1778658689.3652368,-0.14197984,-0.6663362,0.08825677,0.0,0.0,0.0
113,1778658689.375238,-0.14197984,-0.6663362,0.08825677,0.0,0.0,0.0
114,1778658689.3852398,-0.14197984,-0.6663362,0.08825677,0.0,0.0,0.0
115,1778658689.3952415,-0.14197984,-0.6663362,0.08825677,0.0,0.0,0.0
116,1778658689.4052432,-0.14197984,-0.6663362,0.08825677,0.0,0.0,0.0
117,1778658689.4152446,-0.14197984,-0.6663362,0.08825677,0.0,0.0,0.0
118,1778658689.4252467,-0.14197984,-0.6663362,0.08825677,0.0,0.0,0.0
119,1778658689.4352486,-0.14197984,-0.6663362,0.08825677,0.0,0.0,0.0
120,1778658689.44525,-0.14197984,-0.6663362,0.08825677,0.0,0.0,0.0
121,1778658689.455252,-0.14197984,-0.6663362,0.08825677,0.0,0.0,0.0
122,1778658689.4652545,-0.14197984,-0.6663362,0.08825677,0.0,0.0,0.0
123,1778658689.475258,-0.21617395,-0.58823794,-0.005461122,0.0,0.0,0.0
124,1778658689.4852593,-0.21617395,-0.58823794,-0.005461122,0.0,0.0,0.0
125,1778658689.4952612,-0.21617395,-0.58823794,-0.005461122,0.0,0.0,0.0
126,1778658689.5052629,-0.21617395,-0.58823794,-0.005461122,0.0,0.0,0.0
127,1778658689.5152636,-0.21617395,-0.58823794,-0.005461122,0.0,0.0,0.0
128,1778658689.5252655,-0.26303288,-0.50623405,-0.11870435,0.0,0.0,0.0
129,1778658689.535271,-0.26303288,-0.50623405,-0.11870435,0.0,0.0,0.0
130,1778658689.5452724,-0.26303288,-0.50623405,-0.11870435,0.0,0.0,0.0
131,1778658689.5552733,-0.26303288,-0.50623405,-0.11870435,0.0,0.0,0.0
132,1778658689.565276,-0.26303288,-0.50623405,-0.11870435,0.0,0.0,0.0
133,1778658689.575278,-0.26303288,-0.50623405,-0.11870435,0.0,0.0,0.0
134,1778658689.58528,-0.26303288,-0.50623405,-0.11870435,0.0,0.0,0.0
135,1778658689.5952814,-0.26303288,-0.50623405,-0.11870435,0.0,0.0,0.0
136,1778658689.605282,-0.26303288,-0.50623405,-0.11870435,0.0,0.0,0.0
137,1778658689.615284,-0.26303288,-0.50623405,-0.11870435,0.0,0.0,0.0
138,1778658689.625285,-0.26303288,-0.50623405,-0.11870435,0.0,0.0,0.0
139,1778658689.6352868,-0.26303288,-0.50623405,-0.11870435,0.0,0.0,0.0
140,1778658689.6452875,-0.26303288,-0.50623405,-0.11870435,0.0,0.0,0.0
141,1778658689.65529,-0.26303288,-0.50623405,-0.11870435,0.0,0.0,0.0
142,1778658689.665291,-0.26303288,-0.50623405,-0.11870435,0.0,0.0,0.0
143,1778658689.6752915,-0.26303288,-0.50623405,-0.11870435,0.0,0.0,0.0
144,1778658689.6852937,-0.26303288,-0.50623405,-0.11870435,0.0,0.0,0.0
145,1778658689.6952949,-0.26303288,-0.50623405,-0.11870435,0.0,0.0,0.0
146,1778658689.7052953,-0.26303288,-0.50623405,-0.11870435,0.0,0.0,0.0
147,1778658689.715297,-0.17712483,-0.6272871,0.033588,0.0,0.0,0.0
148,1778658689.725298,-0.17712483,-0.6272871,0.033588,0.0,0.0,0.0
149,1778658689.735301,-0.17712483,-0.6272871,0.033588,0.0,0.0,0.0
150,1778658689.7453032,-0.17712483,-0.6272871,0.033588,0.0,0.0,0.0
151,1778658689.7553043,-0.17712483,-0.6272871,0.033588,0.0,0.0,0.0
152,1778658689.765306,-0.17712483,-0.6272871,0.033588,0.0,0.0,0.0
153,1778658689.7753088,-0.17712483,-0.6272871,0.033588,0.0,0.0,0.0
154,1778658689.785311,-0.17712483,-0.6272871,0.033588,0.0,0.0,0.0
155,1778658689.7953134,-0.17712483,-0.6272871,0.033588,0.0,0.0,0.0
156,1778658689.8053145,-0.31379598,-0.42813578,-0.18508708,0.0,0.0,0.0
157,1778658689.8153155,-0.31379598,-0.42813578,-0.18508708,0.0,0.0,0.0
158,1778658689.8253167,-0.31379598,-0.42813578,-0.18508708,0.0,0.0,0.0
159,1778658689.83532,-0.31379598,-0.42813578,-0.18508708,0.0,0.0,0.0
160,1778658689.845321,-0.31379598,-0.42813578,-0.18508708,0.0,0.0,0.0
161,1778658689.8553216,-0.31379598,-0.42813578,-0.18508708,0.0,0.0,0.0
162,1778658689.8653219,-0.31379598,-0.42813578,-0.18508708,0.0,0.0,0.0
163,1778658689.8753233,-0.31379598,-0.42813578,-0.18508708,0.0,0.0,0.0
164,1778658689.8853245,-0.31379598,-0.42813578,-0.18508708,0.0,0.0,0.0
165,1778658689.895326,-0.31379598,-0.42813578,-0.18508708,0.0,0.0,0.0
166,1778658689.9053276,-0.31379598,-0.42813578,-0.18508708,0.0,0.0,0.0
167,1778658689.915329,-0.31379598,-0.42813578,-0.18508708,0.0,0.0,0.0
168,1778658689.9253294,-0.31379598,-0.42813578,-0.18508708,0.0,0.0,0.0
169,1778658689.9353309,-0.31379598,-0.42813578,-0.18508708,0.0,0.0,0.0
170,1778658689.9453318,-0.31379598,-0.42813578,-0.18508708,0.0,0.0,0.0
171,1778658689.9553323,-0.31379598,-0.42813578,-0.18508708,0.0,0.0,0.0
172,1778658689.9653335,-0.31379598,-0.42813578,-0.18508708,0.0,0.0,0.0
173,1778658689.9753406,-0.31379598,-0.42813578,-0.18508708,0.0,0.0,0.0
174,1778658689.9853432,-0.31379598,-0.42813578,-0.18508708,0.0,0.0,0.0
175,1778658689.9953442,-0.31379598,-0.42813578,-0.18508708,0.0,0.0,0.0
176,1778658690.0053449,-0.31379598,-0.42813578,-0.18508708,0.0,0.0,0.0
177,1778658690.0153458,-0.31379598,-0.42813578,-0.18508708,0.0,0.0,0.0
178,1778658690.0253475,-0.31379598,-0.42813578,-0.18508708,0.0,0.0,0.0
179,1778658690.0353498,-0.31379598,-0.42813578,-0.18508708,0.0,0.0,0.0
180,1778658690.045352,-0.31379598,-0.42813578,-0.18508708,0.0,0.0,0.0
181,1778658690.0553613,-0.31379598,-0.42813578,-0.18508708,0.0,0.0,0.0
182,1778658690.0653641,-0.31379598,-0.42813578,-0.18508708,0.0,0.0,0.0
183,1778658690.0753658,-0.31379598,-0.42813578,-0.18508708,0.0,0.0,0.0
184,1778658690.0853662,-0.31379598,-0.42813578,-0.18508708,0.0,0.0,0.0
185,1778658690.095368,-0.31379598,-0.42813578,-0.18508708,0.0,0.0,0.0
186,1778658690.105369,-0.31379598,-0.42813578,-0.18508708,0.0,0.0,0.0
187,1778658690.1153696,-0.31379598,-0.42813578,-0.18508708,0.0,0.0,0.0
188,1778658690.1253712,-0.31379598,-0.42813578,-0.18508708,0.0,0.0,0.0
189,1778658690.1353729,-0.31379598,-0.42813578,-0.18508708,0.0,0.0,0.0
190,1778658690.1453736,-0.31379598,-0.42813578,-0.18508708,0.0,0.0,0.0
191,1778658690.155375,-0.31379598,-0.42813578,-0.18508708,0.0,0.0,0.0
192,1778658690.1653762,-0.31379598,-0.42813578,-0.18508708,0.0,0.0,0.0
193,1778658690.1753788,-0.31379598,-0.42813578,-0.18508708,0.0,0.0,0.0
194,1778658690.1853843,-0.3216058,-0.275845,-0.2553755,0.0,0.0,0.0
195,1778658690.195386,-0.3216058,-0.275845,-0.2553755,0.0,0.0,0.0
196,1778658690.2053874,-0.3216058,-0.275845,-0.2553755,0.0,0.0,0.0
197,1778658690.2153888,-0.3216058,-0.275845,-0.2553755,0.0,0.0,0.0
198,1778658690.2253895,-0.3216058,-0.275845,-0.2553755,0.0,0.0,0.0
199,1778658690.2353954,-0.3216058,-0.275845,-0.2553755,0.0,0.0,0.0
200,1778658690.2453983,-0.3216058,-0.275845,-0.2553755,0.0,0.0,0.0
201,1778658690.2554042,-0.3216058,-0.275845,-0.2553755,0.0,0.0,0.0
202,1778658690.265408,-0.3216058,-0.275845,-0.2553755,0.0,0.0,0.0
203,1778658690.2754092,-0.3216058,-0.275845,-0.2553755,0.0,0.0,0.0
204,1778658690.2854106,-0.3216058,-0.275845,-0.2553755,0.0,0.0,0.0
205,1778658690.2954123,-0.3216058,-0.275845,-0.2553755,0.0,0.0,0.0
206,1778658690.3054135,-0.3216058,-0.275845,-0.2553755,0.0,0.0,0.0
207,1778658690.3154156,-0.3216058,-0.275845,-0.2553755,0.0,0.0,0.0
208,1778658690.3254175,-0.3216058,-0.275845,-0.2553755,0.0,0.0,0.0
209,1778658690.3354187,-0.3216058,-0.275845,-0.2553755,0.0,0.0,0.0
210,1778658690.3454201,-0.3216058,-0.275845,-0.2553755,0.0,0.0,0.0
211,1778658690.3554225,-0.29427218,-0.23289017,-0.26318532,0.0,0.0,0.0
212,1778658690.3654232,-0.29427218,-0.23289017,-0.26318532,0.0,0.0,0.0
213,1778658690.3754241,-0.29427218,-0.23289017,-0.26318532,0.0,0.0,0.0
214,1778658690.3854263,-0.29427218,-0.23289017,-0.26318532,0.0,0.0,0.0
215,1778658690.3954275,-0.29427218,-0.23289017,-0.26318532,0.0,0.0,0.0
216,1778658690.4054282,-0.29427218,-0.23289017,-0.26318532,0.0,0.0,0.0
217,1778658690.4154305,-0.29427218,-0.23289017,-0.26318532,0.0,0.0,0.0
218,1778658690.4254322,-0.29427218,-0.23289017,-0.26318532,0.0,0.0,0.0
219,1778658690.435433,-0.29427218,-0.23289017,-0.26318532,0.0,0.0,0.0
220,1778658690.4454339,-0.29427218,-0.23289017,-0.26318532,0.0,0.0,0.0
221,1778658690.455435,-0.29427218,-0.23289017,-0.26318532,0.0,0.0,0.0
222,1778658690.465436,-0.29427218,-0.23289017,-0.26318532,0.0,0.0,0.0
223,1778658690.4754367,-0.29427218,-0.23289017,-0.26318532,0.0,0.0,0.0
224,1778658690.485439,-0.29427218,-0.23289017,-0.26318532,0.0,0.0,0.0
225,1778658690.4954414,-0.29427218,-0.23289017,-0.26318532,0.0,0.0,0.0
226,1778658690.5054438,-0.29427218,-0.23289017,-0.26318532,0.0,0.0,0.0
227,1778658690.5154455,-0.29427218,-0.23289017,-0.26318532,0.0,0.0,0.0
228,1778658690.5254476,-0.29427218,-0.23289017,-0.26318532,0.0,0.0,0.0
229,1778658690.5354486,-0.29427218,-0.23289017,-0.26318532,0.0,0.0,0.0
230,1778658690.5454495,-0.29427218,-0.23289017,-0.26318532,0.0,0.0,0.0
231,1778658690.5554502,-0.29427218,-0.23289017,-0.26318532,0.0,0.0,0.0
232,1778658690.5654519,-0.29427218,-0.23289017,-0.26318532,0.0,0.0,0.0
233,1778658690.5754554,-0.29427218,-0.23289017,-0.26318532,0.0,0.0,0.0
234,1778658690.5854573,-0.29427218,-0.23289017,-0.26318532,0.0,0.0,0.0
235,1778658690.5954585,-0.29427218,-0.23289017,-0.26318532,0.0,0.0,0.0
236,1778658690.6054606,-0.29427218,-0.23289017,-0.26318532,0.0,0.0,0.0
237,1778658690.6154613,-0.29427218,-0.23289017,-0.26318532,0.0,0.0,0.0
238,1778658690.6254637,-0.29427218,-0.23289017,-0.26318532,0.0,0.0,0.0
239,1778658690.635465,-0.19664861,-0.07669369,-0.3295696,0.0,0.0,0.0
240,1778658690.6454656,-0.19664861,-0.07669369,-0.3295696,0.0,0.0,0.0
241,1778658690.6554666,-0.19664861,-0.07669369,-0.3295696,0.0,0.0,0.0
242,1778658690.6654682,-0.19664861,-0.07669369,-0.3295696,0.0,0.0,0.0
243,1778658690.6754699,-0.19664861,-0.07669369,-0.3295696,0.0,0.0,0.0
244,1778658690.6854737,-0.19664861,-0.07669369,-0.3295696,0.0,0.0,0.0
245,1778658690.6954758,-0.19664861,-0.07669369,-0.3295696,0.0,0.0,0.0
246,1778658690.7054765,-0.19664861,-0.07669369,-0.3295696,0.0,0.0,0.0
247,1778658690.7154772,-0.19664861,-0.07669369,-0.3295696,0.0,0.0,0.0
248,1778658690.725478,-0.19664861,-0.07669369,-0.3295696,0.0,0.0,0.0
249,1778658690.735479,-0.11855037,-0.037644565,-0.32566392,0.0,0.0,0.0
250,1778658690.7454813,-0.11855037,-0.037644565,-0.32566392,0.0,0.0,0.0
251,1778658690.7554824,-0.11855037,-0.037644565,-0.32566392,0.0,0.0,0.0
252,1778658690.7654848,-0.11855037,-0.037644565,-0.32566392,0.0,0.0,0.0
253,1778658690.7754862,-0.11855037,-0.037644565,-0.32566392,0.0,0.0,0.0
254,1778658690.785487,-0.11855037,-0.037644565,-0.32566392,0.0,0.0,0.0
255,1778658690.7954893,-0.11855037,-0.037644565,-0.32566392,0.0,0.0,0.0
256,1778658690.8054903,-0.11855037,-0.037644565,-0.32566392,0.0,0.0,0.0
257,1778658690.815491,-0.11855037,-0.037644565,-0.32566392,0.0,0.0,0.0
258,1778658690.825492,-0.11855037,-0.037644565,-0.32566392,0.0,0.0,0.0
259,1778658690.8354933,-0.11855037,-0.037644565,-0.32566392,0.0,0.0,0.0
260,1778658690.8454947,-0.11855037,-0.037644565,-0.32566392,0.0,0.0,0.0
261,1778658690.855496,-0.11855037,-0.037644565,-0.32566392,0.0,0.0,0.0
262,1778658690.865497,-0.11855037,-0.037644565,-0.32566392,0.0,0.0,0.0
263,1778658690.8754983,-0.11855037,-0.037644565,-0.32566392,0.0,0.0,0.0
264,1778658690.8854995,-0.11855037,-0.037644565,-0.32566392,0.0,0.0,0.0
265,1778658690.8955002,-0.11855037,-0.037644565,-0.32566392,0.0,0.0,0.0
266,1778658690.9055011,-0.11855037,-0.037644565,-0.32566392,0.0,0.0,0.0
267,1778658690.915502,-0.11855037,-0.037644565,-0.32566392,0.0,0.0,0.0
268,1778658690.9255028,-0.11855037,-0.037644565,-0.32566392,0.0,0.0,0.0
269,1778658690.935506,-0.11855037,-0.037644565,-0.32566392,0.0,0.0,0.0
270,1778658690.9455078,-0.11855037,-0.037644565,-0.32566392,0.0,0.0,0.0
271,1778658690.9555092,0.13136402,0.07169297,-0.15384778,0.0,0.0,0.0
272,1778658690.9655108,0.13136402,0.07169297,-0.15384778,0.0,0.0,0.0
273,1778658690.9755125,0.13136402,0.07169297,-0.15384778,0.0,0.0,0.0
274,1778658690.9855144,0.13136402,0.07169297,-0.15384778,0.0,0.0,0.0
275,1778658690.995516,0.13136402,0.07169297,-0.15384778,0.0,0.0,0.0
276,1778658691.005517,0.13136402,0.07169297,-0.15384778,0.0,0.0,0.0
277,1778658691.015518,0.13136402,0.07169297,-0.15384778,0.0,0.0,0.0
278,1778658691.0255194,0.13136402,0.07169297,-0.15384778,0.0,0.0,0.0
279,1778658691.03552,0.13136402,0.07169297,-0.15384778,0.0,0.0,0.0
280,1778658691.0455208,0.13136402,0.07169297,-0.15384778,0.0,0.0,0.0
281,1778658691.0555217,0.13136402,0.07169297,-0.15384778,0.0,0.0,0.0
282,1778658691.0655243,0.13136402,0.07169297,-0.15384778,0.0,0.0,0.0
283,1778658691.0755255,0.13136402,0.07169297,-0.15384778,0.0,0.0,0.0
284,1778658691.0855265,0.13136402,0.07169297,-0.15384778,0.0,0.0,0.0
285,1778658691.0955276,0.13917384,0.102932274,-0.09136919,0.0,0.0,0.0
286,1778658691.1055288,0.13917384,0.102932274,-0.09136919,0.0,0.0,0.0
287,1778658691.1155303,0.13917384,0.102932274,-0.09136919,0.0,0.0,0.0
288,1778658691.1255317,0.13917384,0.102932274,-0.09136919,0.0,0.0,0.0
289,1778658691.1355336,0.13917384,0.102932274,-0.09136919,0.0,0.0,0.0
290,1778658691.1455345,0.13917384,0.102932274,-0.09136919,0.0,0.0,0.0
291,1778658691.155536,0.13917384,0.102932274,-0.09136919,0.0,0.0,0.0
292,1778658691.1655374,0.13917384,0.102932274,-0.09136919,0.0,0.0,0.0
293,1778658691.175538,0.13917384,0.102932274,-0.09136919,0.0,0.0,0.0
294,1778658691.1855395,0.13917384,0.102932274,-0.09136919,0.0,0.0,0.0
295,1778658691.1962733,0.3187998,0.020929893,1.0020077,0.0,0.0,0.0
296,1778658691.2062747,0.3187998,0.020929893,1.0020077,0.0,0.0,0.0
297,1778658691.216276,0.3187998,0.020929893,1.0020077,0.0,0.0,0.0
298,1778658691.2262766,0.3187998,0.020929893,1.0020077,0.0,0.0,0.0
299,1778658691.236278,0.3187998,0.020929893,1.0020077,0.0,0.0,0.0
300,1778658691.2462807,0.3187998,0.020929893,1.0020077,0.0,0.0,0.0
301,1778658691.2562833,0.3187998,0.020929893,1.0020077,0.0,0.0,0.0
302,1778658691.2662845,0.3187998,0.020929893,1.0020077,0.0,0.0,0.0
303,1778658691.2762861,0.3187998,0.020929893,1.0020077,0.0,0.0,0.0
304,1778658691.2862868,0.3187998,0.020929893,1.0020077,0.0,0.0,0.0
305,1778658691.2962885,0.3187998,0.020929893,1.0020077,0.0,0.0,0.0
306,1778658691.3062894,0.3187998,0.020929893,1.0020077,0.0,0.0,0.0
307,1778658691.3162904,0.3187998,0.020929893,1.0020077,0.0,0.0,0.0
308,1778658691.3262923,0.3187998,0.020929893,1.0020077,0.0,0.0,0.0
309,1778658691.3362966,0.3187998,0.020929893,1.0020077,0.0,0.0,0.0
310,1778658691.3462996,0.3187998,0.020929893,1.0020077,0.0,0.0,0.0
311,1778658691.3563015,0.5999535,-0.60776174,1.0722961,0.0,0.0,0.0
312,1778658691.3663025,0.5999535,-0.60776174,1.0722961,0.0,0.0,0.0
313,1778658691.3763058,0.5999535,-0.60776174,1.0722961,0.0,0.0,0.0
314,1778658691.386307,0.5999535,-0.60776174,1.0722961,0.0,0.0,0.0
315,1778658691.3963077,0.5999535,-0.60776174,1.0722961,0.0,0.0,0.0
316,1778658691.4063106,0.5999535,-0.60776174,1.0722961,0.0,0.0,0.0
317,1778658691.4163132,0.5999535,-0.60776174,1.0722961,0.0,0.0,0.0
318,1778658691.4263146,0.5999535,-0.60776174,1.0722961,0.0,0.0,0.0
319,1778658691.4363165,0.5999535,-0.60776174,1.0722961,0.0,0.0,0.0
320,1778658691.4463298,0.5999535,-0.60776174,1.0722961,0.0,0.0,0.0
321,1778658691.4563313,0.5999535,-0.60776174,1.0722961,0.0,0.0,0.0
322,1778658691.4663324,0.5999535,-0.60776174,1.0722961,0.0,0.0,0.0
323,1778658691.4763334,0.5999535,-0.60776174,1.0722961,0.0,0.0,0.0
324,1778658691.486336,0.5999535,-0.60776174,1.0722961,0.0,0.0,0.0
325,1778658691.496338,0.5999535,-0.60776174,1.0722961,0.0,0.0,0.0
326,1778658691.5063384,0.5999535,-0.60776174,1.0722961,0.0,0.0,0.0
327,1778658691.5163403,0.5999535,-0.60776174,1.0722961,0.0,0.0,0.0
328,1778658691.5263412,0.5999535,-0.60776174,1.0722961,0.0,0.0,0.0
329,1778658691.536342,0.5999535,-0.60776174,1.0722961,0.0,0.0,0.0
330,1778658691.546344,0.50233144,-1.0880667,0.08825677,0.0,0.0,0.0
331,1778658691.5563781,0.50233144,-1.0880667,0.08825677,0.0,0.0,0.0
332,1778658691.5663793,0.50233144,-1.0880667,0.08825677,0.0,0.0,0.0
333,1778658691.5763807,0.50233144,-1.0880667,0.08825677,0.0,0.0,0.0
334,1778658691.5863812,0.50233144,-1.0880667,0.08825677,0.0,0.0,0.0
335,1778658691.5963824,0.50233144,-1.0880667,0.08825677,0.0,0.0,0.0
336,1778658691.606385,0.50233144,-1.0880667,0.08825677,0.0,0.0,0.0
337,1778658691.6163857,0.50233144,-1.0880667,0.08825677,0.0,0.0,0.0
338,1778658691.6263866,0.45937663,-1.3692204,-0.07965523,0.0,0.0,0.0
339,1778658691.6364417,0.45937663,-1.3692204,-0.07965523,0.0,0.0,0.0
340,1778658691.6464434,0.45937663,-1.3692204,-0.07965523,0.0,0.0,0.0
341,1778658691.656445,0.45937663,-1.3692204,-0.07965523,0.0,0.0,0.0
342,1778658691.666446,0.45937663,-1.3692204,-0.07965523,0.0,0.0,0.0
343,1778658691.676447,0.45937663,-1.3692204,-0.07965523,0.0,0.0,0.0
344,1778658691.6864488,0.45937663,-1.3692204,-0.07965523,0.0,0.0,0.0
345,1778658691.6964493,0.45937663,-1.3692204,-0.07965523,0.0,0.0,0.0
346,1778658691.7064502,0.45937663,-1.3692204,-0.07965523,0.0,0.0,0.0
347,1778658691.7164514,0.45937663,-1.3692204,-0.07965523,0.0,0.0,0.0
348,1778658691.726452,0.45937663,-1.3692204,-0.07965523,0.0,0.0,0.0
349,1778658691.7364533,0.45937663,-1.3692204,-0.07965523,0.0,0.0,0.0
350,1778658691.7464573,0.45937663,-1.3692204,-0.07965523,0.0,0.0,0.0
351,1778658691.7564583,0.45937663,-1.3692204,-0.07965523,0.0,0.0,0.0
352,1778658691.7664597,0.45937663,-1.3692204,-0.07965523,0.0,0.0,0.0
353,1778658691.7764635,0.45937663,-1.3692204,-0.07965523,0.0,0.0,0.0
354,1778658691.786466,0.45937663,-1.3692204,-0.07965523,0.0,0.0,0.0
355,1778658691.7964673,0.45937663,-1.3692204,-0.07965523,0.0,0.0,0.0
356,1778658691.806468,0.45937663,-1.3692204,-0.07965523,0.0,0.0,0.0
357,1778658691.8164687,0.45937663,-1.3692204,-0.07965523,0.0,0.0,0.0
358,1778658691.8264694,0.45937663,-1.3692204,-0.07965523,0.0,0.0,0.0
359,1778658691.8364704,0.45937663,-1.3692204,-0.07965523,0.0,0.0,0.0
360,1778658691.8464713,0.45937663,-1.3692204,-0.07965523,0.0,0.0,0.0
361,1778658691.856474,1.0607346,-3.5794039,-0.11089453,0.0,0.0,0.0
362,1778658691.8664753,1.0607346,-3.5794039,-0.11089453,0.0,0.0,0.0
363,1778658691.8764765,1.0607346,-3.5794039,-0.11089453,0.0,0.0,0.0
364,1778658691.8864772,1.0607346,-3.5794039,-0.11089453,0.0,0.0,0.0
365,1778658691.8964782,1.0607346,-3.5794039,-0.11089453,0.0,0.0,0.0
366,1778658691.9064791,1.0607346,-3.5794039,-0.11089453,0.0,0.0,0.0
367,1778658691.9164808,1.0607346,-3.5794039,-0.11089453,0.0,0.0,0.0
368,1778658691.9264817,1.1114978,-3.9894204,0.2952179,0.0,0.0,0.0
369,1778658691.936483,1.1114978,-3.9894204,0.2952179,0.0,0.0,0.0
370,1778658691.9464834,1.1114978,-3.9894204,0.2952179,0.0,0.0,0.0
371,1778658691.956485,0.4554725,-3.8917968,0.90828985,0.0,0.0,0.0
372,1778658691.9664867,0.4554725,-3.8917968,0.90828985,0.0,0.0,0.0
373,1778658691.9764874,0.4554725,-3.8917968,0.90828985,0.0,0.0,0.0
374,1778658691.9864886,0.4554725,-3.8917968,0.90828985,0.0,0.0,0.0
375,1778658691.9964893,0.4554725,-3.8917968,0.90828985,0.0,0.0,0.0
376,1778658692.0064907,0.4554725,-3.8917968,0.90828985,0.0,0.0,0.0
377,1778658692.0164912,0.4554725,-3.8917968,0.90828985,0.0,0.0,0.0
378,1778658692.026492,0.4554725,-3.8917968,0.90828985,0.0,0.0,0.0
379,1778658692.0364933,0.4554725,-3.8917968,0.90828985,0.0,0.0,0.0
380,1778658692.0464954,0.4554725,-3.8917968,0.90828985,0.0,0.0,0.0
381,1778658692.0564964,0.4554725,-3.8917968,0.90828985,0.0,0.0,0.0
382,1778658692.0664976,-0.28646237,-2.9741416,0.90828985,0.0,0.0,0.0
383,1778658692.0764983,-0.28646237,-2.9741416,0.90828985,0.0,0.0,0.0
384,1778658692.086499,-0.28646237,-2.9741416,0.90828985,0.0,0.0,0.0
385,1778658692.0965,-0.28646237,-2.9741416,0.90828985,0.0,0.0,0.0
386,1778658692.1065006,-0.28646237,-2.9741416,0.90828985,0.0,0.0,0.0
387,1778658692.1165016,-0.28646237,-2.9741416,0.90828985,0.0,0.0,0.0
388,1778658692.1265042,-0.28646237,-2.9741416,0.90828985,0.0,0.0,0.0
389,1778658692.1365063,-0.28646237,-2.9741416,0.90828985,0.0,0.0,0.0
390,1778658692.146508,-0.28646237,-2.9741416,0.90828985,0.0,0.0,0.0
391,1778658692.156509,-0.28646237,-2.9741416,0.90828985,0.0,0.0,0.0
392,1778658692.1665103,-0.28646237,-2.9741416,0.90828985,0.0,0.0,0.0
393,1778658692.1765115,-0.28646237,-2.9741416,0.90828985,0.0,0.0,0.0
394,1778658692.1865125,-0.28646237,-2.9741416,0.90828985,0.0,0.0,0.0
395,1778658692.1965153,-0.28646237,-2.9741416,0.90828985,0.0,0.0,0.0
396,1778658692.2065165,-0.28646237,-2.9741416,0.90828985,0.0,0.0,0.0
397,1778658692.2165172,-0.28646237,-2.9741416,0.90828985,0.0,0.0,0.0
398,1778658692.2265186,-0.28646237,-2.9741416,0.90828985,0.0,0.0,0.0
399,1778658692.2365208,-0.28646237,-2.9741416,0.90828985,0.0,0.0,0.0
400,1778658692.2465222,-0.28646237,-2.9741416,0.90828985,0.0,0.0,0.0
401,1778658692.256526,-0.28646237,-2.9741416,0.90828985,0.0,0.0,0.0
402,1778658692.2665286,-0.28646237,-2.9741416,0.90828985,0.0,0.0,0.0
403,1778658692.2765296,-0.28646237,-2.9741416,0.90828985,0.0,0.0,0.0
404,1778658692.2865317,-0.28646237,-2.9741416,0.90828985,0.0,0.0,0.0
405,1778658692.2965333,-0.28646237,-2.9741416,0.90828985,0.0,0.0,0.0
406,1778658692.3065343,-0.28646237,-2.9741416,0.90828985,0.0,0.0,0.0
407,1778658692.3165364,-0.28646237,-2.9741416,0.90828985,0.0,0.0,0.0
408,1778658692.3265376,-0.28646237,-2.9741416,0.90828985,0.0,0.0,0.0
409,1778658692.3365395,-0.28646237,-2.9741416,0.90828985,0.0,0.0,0.0
410,1778658692.34654,-0.28646237,-2.9741416,0.90828985,0.0,0.0,0.0
411,1778658692.3565423,-0.28646237,-2.9741416,0.90828985,0.0,0.0,0.0
412,1778658692.3665438,-0.28646237,-2.9741416,0.90828985,0.0,0.0,0.0
413,1778658692.3765442,-0.28646237,-2.9741416,0.90828985,0.0,0.0,0.0
414,1778658692.3865461,-0.28646237,-2.9741416,0.90828985,0.0,0.0,0.0
415,1778658692.3965476,-0.28646237,-2.9741416,0.90828985,0.0,0.0,0.0
416,1778658692.4065485,-0.28646237,-2.9741416,0.90828985,0.0,0.0,0.0
417,1778658692.41655,-0.42313352,-2.3532598,0.70132875,0.0,0.0,0.0
418,1778658692.4265509,-0.42313352,-2.3532598,0.70132875,0.0,0.0,0.0
419,1778658692.4365525,-0.42313352,-2.3532598,0.70132875,0.0,0.0,0.0
420,1778658692.4465532,-0.42313352,-2.3532598,0.70132875,0.0,0.0,0.0
421,1778658692.4565544,-0.42313352,-2.3532598,0.70132875,0.0,0.0,0.0
422,1778658692.4665556,-0.42313352,-2.3532598,0.70132875,0.0,0.0,0.0
423,1778658692.4765563,-0.42313352,-2.3532598,0.70132875,0.0,0.0,0.0
424,1778658692.4865568,-0.42313352,-2.3532598,0.70132875,0.0,0.0,0.0
425,1778658692.4965594,-0.46999246,-2.033057,0.36550632,0.0,0.0,0.0
426,1778658692.5065615,-0.46999246,-2.033057,0.36550632,0.0,0.0,0.0
427,1778658692.5165632,-0.46999246,-2.033057,0.36550632,0.0,0.0,0.0
428,1778658692.5265641,-0.46999246,-2.033057,0.36550632,0.0,0.0,0.0
429,1778658692.536565,-0.46999246,-2.033057,0.36550632,0.0,0.0,0.0
430,1778658692.5465662,-0.46999246,-2.033057,0.36550632,0.0,0.0,0.0
431,1778658692.5565677,-0.46999246,-2.033057,0.36550632,0.0,0.0,0.0
432,1778658692.5665681,-0.46999246,-2.033057,0.36550632,0.0,0.0,0.0
433,1778658692.576569,-0.46999246,-2.033057,0.36550632,0.0,0.0,0.0
434,1778658692.5865698,-0.46999246,-2.033057,0.36550632,0.0,0.0,0.0
435,1778658692.5965703,-0.46999246,-2.033057,0.36550632,0.0,0.0,0.0
436,1778658692.6065717,-0.46999246,-2.033057,0.36550632,0.0,0.0,0.0
437,1778658692.6165729,-0.46999246,-2.033057,0.36550632,0.0,0.0,0.0
438,1778658692.626574,-0.46999246,-2.033057,0.36550632,0.0,0.0,0.0
439,1778658692.6365755,-0.46999246,-2.033057,0.36550632,0.0,0.0,0.0
440,1778658692.6465762,-0.46999246,-2.033057,0.36550632,0.0,0.0,0.0
441,1778658692.6565773,-0.46999246,-2.033057,0.36550632,0.0,0.0,0.0
442,1778658692.6665795,-0.46999246,-2.033057,0.36550632,0.0,0.0,0.0
443,1778658692.6765804,-0.46999246,-2.033057,0.36550632,0.0,0.0,0.0
444,1778658692.6865816,-0.46999246,-2.033057,0.36550632,0.0,0.0,0.0
445,1778658692.696584,-0.4856121,-1.7987623,0.07654281,0.0,0.0,0.0
446,1778658692.7065854,-0.4856121,-1.7987623,0.07654281,0.0,0.0,0.0
447,1778658692.716587,-0.4856121,-1.7987623,0.07654281,0.0,0.0,0.0
448,1778658692.7265882,-0.4856121,-1.7987623,0.07654281,0.0,0.0,0.0
449,1778658692.736592,-0.4856121,-1.7987623,0.07654281,0.0,0.0,0.0
450,1778658692.7465954,-0.4856121,-1.7987623,0.07654281,0.0,0.0,0.0
451,1778658692.7565966,-0.4856121,-1.7987623,0.07654281,0.0,0.0,0.0
452,1778658692.7665985,-0.4856121,-1.7987623,0.07654281,0.0,0.0,0.0
453,1778658692.7766006,-0.4856121,-1.7987623,0.07654281,0.0,0.0,0.0
454,1778658692.7866018,-0.4856121,-1.7987623,0.07654281,0.0,0.0,0.0
455,1778658692.7966049,-0.4856121,-1.7987623,0.07654281,0.0,0.0,0.0
456,1778658692.8066065,-0.4856121,-1.7987623,0.07654281,0.0,0.0,0.0
457,1778658692.8166108,-0.4856121,-1.7987623,0.07654281,0.0,0.0,0.0
458,1778658692.826613,-0.4856121,-1.7987623,0.07654281,0.0,0.0,0.0
459,1778658692.8366156,-0.4856121,-1.7987623,0.07654281,0.0,0.0,0.0
460,1778658692.8466184,-0.4856121,-1.7987623,0.07654281,0.0,0.0,0.0
461,1778658692.8566206,-0.4856121,-1.7987623,0.07654281,0.0,0.0,0.0
462,1778658692.8666213,-0.4856121,-1.7987623,0.07654281,0.0,0.0,0.0
463,1778658692.8766232,-0.4856121,-1.6581855,-0.017176636,0.0,0.0,0.0
464,1778658692.8866253,-0.4856121,-1.6581855,-0.017176636,0.0,0.0,0.0
465,1778658692.896626,-0.4856121,-1.6581855,-0.017176636,0.0,0.0,0.0
466,1778658692.9066277,-0.4856121,-1.6581855,-0.017176636,0.0,0.0,0.0
467,1778658692.9166298,-0.4856121,-1.6581855,-0.017176636,0.0,0.0,0.0
468,1778658692.926631,-0.4856121,-1.6581855,-0.017176636,0.0,0.0,0.0
469,1778658692.9366324,-0.4856121,-1.6581855,-0.017176636,0.0,0.0,0.0
470,1778658692.9466343,-0.4856121,-1.6581855,-0.017176636,0.0,0.0,0.0
471,1778658692.956636,-0.4856121,-1.6581855,-0.017176636,0.0,0.0,0.0
472,1778658692.9666378,-0.4856121,-1.6581855,-0.017176636,0.0,0.0,0.0
473,1778658692.9766386,-0.4856121,-1.6581855,-0.017176636,0.0,0.0,0.0
474,1778658692.9866405,-0.4856121,-1.6581855,-0.017176636,0.0,0.0,0.0
475,1778658692.9966424,-0.4856121,-1.6581855,-0.017176636,0.0,0.0,0.0
476,1778658693.006643,-0.4856121,-1.6581855,-0.017176636,0.0,0.0,0.0
477,1778658693.0166442,-0.4856121,-1.6581855,-0.017176636,0.0,0.0,0.0
478,1778658693.0266457,-0.4856121,-1.6581855,-0.017176636,0.0,0.0,0.0
479,1778658693.0366461,-0.4856121,-1.6581855,-0.017176636,0.0,0.0,0.0
480,1778658693.0466478,-0.4856121,-1.6581855,-0.017176636,0.0,0.0,0.0
481,1778658693.0566485,-0.4856121,-1.6581855,-0.017176636,0.0,0.0,0.0
482,1778658693.0666504,-0.4856121,-1.6581855,-0.017176636,0.0,0.0,0.0
483,1778658693.0766516,-0.44265884,-1.6738051,-0.017176636,0.0,0.0,0.0
484,1778658693.0866525,-0.44265884,-1.6738051,-0.017176636,0.0,0.0,0.0
485,1778658693.0966542,-0.44265884,-1.6738051,-0.017176636,0.0,0.0,0.0
486,1778658693.1066556,-0.44265884,-1.6738051,-0.017176636,0.0,0.0,0.0
487,1778658693.1166565,-0.44265884,-1.6738051,-0.017176636,0.0,0.0,0.0
488,1778658693.1266572,-0.44265884,-1.6738051,-0.017176636,0.0,0.0,0.0
489,1778658693.1366618,-0.44265884,-1.6738051,-0.017176636,0.0,0.0,0.0
490,1778658693.1466634,-0.44265884,-1.6738051,-0.017176636,0.0,0.0,0.0
491,1778658693.1566646,-0.44265884,-1.6738051,-0.017176636,0.0,0.0,0.0
492,1778658693.1666658,-0.44265884,-1.6738051,-0.017176636,0.0,0.0,0.0
493,1778658693.1766675,-0.44265884,-1.6738051,-0.017176636,0.0,0.0,0.0
494,1778658693.1866689,-0.44265884,-1.6738051,-0.017176636,0.0,0.0,0.0
495,1778658693.1966696,-0.44265884,-1.6738051,-0.017176636,0.0,0.0,0.0
496,1778658693.206672,-0.44265884,-1.6738051,-0.017176636,0.0,0.0,0.0
497,1778658693.2166746,-0.44265884,-1.6738051,-0.017176636,0.0,0.0,0.0
498,1778658693.2266753,-0.44265884,-1.6738051,-0.017176636,0.0,0.0,0.0
499,1778658693.236677,-0.44265884,-1.6738051,-0.017176636,0.0,0.0,0.0
500,1778658693.2466779,-0.44265884,-1.6738051,-0.017176636,0.0,0.0,0.0
501,1778658693.2566795,-0.44265884,-1.6738051,-0.017176636,0.0,0.0,0.0
502,1778658693.2666814,-0.44265884,-1.6738051,-0.017176636,0.0,0.0,0.0
503,1778658693.2766824,-0.44265884,-1.6738051,-0.017176636,0.0,0.0,0.0
504,1778658693.286687,-0.44265884,-1.6738051,-0.017176636,0.0,0.0,0.0
505,1778658693.2966883,-0.44265884,-1.6738051,-0.017176636,0.0,0.0,0.0
506,1778658693.30669,-0.44265884,-1.6738051,-0.017176636,0.0,0.0,0.0
507,1778658693.3166912,-0.44265884,-1.6738051,-0.017176636,0.0,0.0,0.0
508,1778658693.3266919,-0.44265884,-1.6738051,-0.017176636,0.0,0.0,0.0
509,1778658693.3366942,-0.44265884,-1.6738051,-0.017176636,0.0,0.0,0.0
510,1778658693.3466961,-0.44265884,-1.6738051,-0.017176636,0.0,0.0,0.0
511,1778658693.3566976,-0.44265884,-1.6738051,-0.017176636,0.0,0.0,0.0
512,1778658693.3666995,-0.32941562,-1.7870468,0.04920765,0.0,0.0,0.0
513,1778658693.3767014,-0.32941562,-1.7870468,0.04920765,0.0,0.0,0.0
514,1778658693.3867028,-0.32941562,-1.7870468,0.04920765,0.0,0.0,0.0
515,1778658693.396704,-0.32941562,-1.7870468,0.04920765,0.0,0.0,0.0
516,1778658693.4067054,-0.32941562,-1.7870468,0.04920765,0.0,0.0,0.0
517,1778658693.4167066,-0.32941562,-1.7870468,0.04920765,0.0,0.0,0.0
518,1778658693.426708,-0.32941562,-1.7870468,0.04920765,0.0,0.0,0.0
519,1778658693.4367096,-0.32941562,-1.7870468,0.04920765,0.0,0.0,0.0
520,1778658693.4467113,-0.32941562,-1.7870468,0.04920765,0.0,0.0,0.0
521,1778658693.456716,-0.27084273,-1.8221917,0.084352635,0.0,0.0,0.0
522,1778658693.4667187,-0.27084273,-1.8221917,0.084352635,0.0,0.0,0.0
523,1778658693.4767218,-0.27084273,-1.8221917,0.084352635,0.0,0.0,0.0
524,1778658693.4867232,-0.27084273,-1.8221917,0.084352635,0.0,0.0,0.0
525,1778658693.4967241,-0.27084273,-1.8221917,0.084352635,0.0,0.0,0.0
526,1778658693.5067255,-0.27084273,-1.8221917,0.084352635,0.0,0.0,0.0
527,1778658693.516727,-0.19664861,-1.8456212,0.1273059,0.0,0.0,0.0
528,1778658693.5267282,-0.19664861,-1.8456212,0.1273059,0.0,0.0,0.0
529,1778658693.5367293,-0.19664861,-1.8456212,0.1273059,0.0,0.0,0.0
530,1778658693.5467305,-0.19664861,-1.8456212,0.1273059,0.0,0.0,0.0
531,1778658693.5567315,-0.19664861,-1.8456212,0.1273059,0.0,0.0,0.0
532,1778658693.5667334,-0.19664861,-1.8456212,0.1273059,0.0,0.0,0.0
533,1778658693.5767353,-0.19664861,-1.8456212,0.1273059,0.0,0.0,0.0
534,1778658693.586737,-0.19664861,-1.8456212,0.1273059,0.0,0.0,0.0
535,1778658693.5967383,-0.19664861,-1.8456212,0.1273059,0.0,0.0,0.0
536,1778658693.6067393,-0.19664861,-1.8456212,0.1273059,0.0,0.0,0.0
537,1778658693.61674,-0.19664861,-1.8456212,0.1273059,0.0,0.0,0.0
538,1778658693.6267428,-0.020928338,-1.8495253,0.2288336,0.0,0.0,0.0
539,1778658693.636746,-0.020928338,-1.8495253,0.2288336,0.0,0.0,0.0
540,1778658693.6467466,-0.020928338,-1.8495253,0.2288336,0.0,0.0,0.0
541,1778658693.6567476,-0.020928338,-1.8495253,0.2288336,0.0,0.0,0.0
542,1778658693.6667495,-0.020928338,-1.8495253,0.2288336,0.0,0.0,0.0
543,1778658693.6767516,-0.020928338,-1.8495253,0.2288336,0.0,0.0,0.0
544,1778658693.6867526,-0.020928338,-1.8495253,0.2288336,0.0,0.0,0.0
545,1778658693.6967542,-0.020928338,-1.8495253,0.2288336,0.0,0.0,0.0
546,1778658693.7067556,-0.020928338,-1.8495253,0.2288336,0.0,0.0,0.0
547,1778658693.716756,-0.020928338,-1.8495253,0.2288336,0.0,0.0,0.0
548,1778658693.7267582,-0.020928338,-1.8495253,0.2288336,0.0,0.0,0.0
549,1778658693.7367592,-0.020928338,-1.8495253,0.2288336,0.0,0.0,0.0
550,1778658693.7467601,-0.020928338,-1.8495253,0.2288336,0.0,0.0,0.0
551,1778658693.7567608,-0.020928338,-1.8495253,0.2288336,0.0,0.0,0.0
552,1778658693.7667615,-0.020928338,-1.8495253,0.2288336,0.0,0.0,0.0
553,1778658693.776763,-0.020928338,-1.8495253,0.2288336,0.0,0.0,0.0
554,1778658693.7867644,-0.020928338,-1.8495253,0.2288336,0.0,0.0,0.0
555,1778658693.7967653,-0.020928338,-1.8495253,0.2288336,0.0,0.0,0.0
556,1778658693.8067665,-0.020928338,-1.8495253,0.2288336,0.0,0.0,0.0
557,1778658693.8167684,-0.020928338,-1.8495253,0.2288336,0.0,0.0,0.0
558,1778658693.8267698,-0.020928338,-1.8495253,0.2288336,0.0,0.0,0.0
559,1778658693.8367708,-0.020928338,-1.8495253,0.2288336,0.0,0.0,0.0
560,1778658693.8467717,-0.020928338,-1.8495253,0.2288336,0.0,0.0,0.0
561,1778658693.856773,0.30318016,-1.6738051,0.3616006,0.0,0.0,0.0
562,1778658693.866774,0.30318016,-1.6738051,0.3616006,0.0,0.0,0.0
563,1778658693.8767753,0.30318016,-1.6738051,0.3616006,0.0,0.0,0.0
564,1778658693.8867767,0.30318016,-1.6738051,0.3616006,0.0,0.0,0.0
565,1778658693.8967826,0.30318016,-1.6738051,0.3616006,0.0,0.0,0.0
566,1778658693.9067838,0.30318016,-1.6738051,0.3616006,0.0,0.0,0.0
567,1778658693.916785,0.30318016,-1.6738051,0.3616006,0.0,0.0,0.0
568,1778658693.9267864,0.30318016,-1.6738051,0.3616006,0.0,0.0,0.0
569,1778658693.9367876,0.30318016,-1.6738051,0.3616006,0.0,0.0,0.0
570,1778658693.9467888,0.30318016,-1.6738051,0.3616006,0.0,0.0,0.0
571,1778658693.9567897,0.30318016,-1.6738051,0.3616006,0.0,0.0,0.0
572,1778658693.966791,0.30318016,-1.6738051,0.3616006,0.0,0.0,0.0
573,1778658693.9767923,0.30318016,-1.6738051,0.3616006,0.0,0.0,0.0
574,1778658693.986793,0.30318016,-1.6738051,0.3616006,0.0,0.0,0.0
575,1778658693.9967942,0.30318016,-1.6738051,0.3616006,0.0,0.0,0.0
576,1778658694.006795,0.30318016,-1.6738051,0.3616006,0.0,0.0,0.0
577,1778658694.0167964,0.4242332,-1.478558,0.31083754,0.0,0.0,0.0
578,1778658694.0267973,0.4242332,-1.478558,0.31083754,0.0,0.0,0.0
579,1778658694.036798,0.4242332,-1.478558,0.31083754,0.0,0.0,0.0
580,1778658694.0467997,0.40080374,-1.552752,0.33817115,0.0,0.0,0.0
581,1778658694.056801,0.40080374,-1.552752,0.33817115,0.0,0.0,0.0
582,1778658694.066802,0.40080374,-1.552752,0.33817115,0.0,0.0,0.0
583,1778658694.076803,0.40080374,-1.552752,0.33817115,0.0,0.0,0.0
584,1778658694.0868037,0.40080374,-1.552752,0.33817115,0.0,0.0,0.0
585,1778658694.0968041,0.40080374,-1.552752,0.33817115,0.0,0.0,0.0
586,1778658694.1068058,0.40080374,-1.552752,0.33817115,0.0,0.0,0.0
587,1778658694.116807,0.40080374,-1.552752,0.33817115,0.0,0.0,0.0
588,1778658694.1268077,0.40080374,-1.552752,0.33817115,0.0,0.0,0.0
589,1778658694.1368086,0.45156682,-1.419985,0.28350237,0.0,0.0,0.0
590,1778658694.14681,0.45156682,-1.419985,0.28350237,0.0,0.0,0.0
591,1778658694.1568117,0.45156682,-1.419985,0.28350237,0.0,0.0,0.0
592,1778658694.1668131,0.45156682,-1.419985,0.28350237,0.0,0.0,0.0
593,1778658694.1768181,0.45156682,-1.419985,0.28350237,0.0,0.0,0.0
594,1778658694.1868212,0.45156682,-1.419985,0.28350237,0.0,0.0,0.0
595,1778658694.1968217,0.45156682,-1.419985,0.28350237,0.0,0.0,0.0
596,1778658694.2068233,0.45156682,-1.419985,0.28350237,0.0,0.0,0.0
597,1778658694.216825,0.45156682,-1.419985,0.28350237,0.0,0.0,0.0
598,1778658694.226826,0.45156682,-1.419985,0.28350237,0.0,0.0,0.0
599,1778658694.236827,0.51014125,-0.806913,0.068732984,0.0,0.0,0.0
600,1778658694.246828,0.51014125,-0.806913,0.068732984,0.0,0.0,0.0
601,1778658694.2568288,0.51014125,-0.806913,0.068732984,0.0,0.0,0.0
602,1778658694.2668304,0.51014125,-0.806913,0.068732984,0.0,0.0,0.0
603,1778658694.2768314,0.51014125,-0.806913,0.068732984,0.0,0.0,0.0
604,1778658694.286832,0.51014125,-0.806913,0.068732984,0.0,0.0,0.0
605,1778658694.2968338,0.51014125,-0.806913,0.068732984,0.0,0.0,0.0
606,1778658694.3068361,0.51014125,-0.806913,0.068732984,0.0,0.0,0.0
607,1778658694.3168385,0.51014125,-0.806913,0.068732984,0.0,0.0,0.0
608,1778658694.32684,0.51014125,-0.806913,0.068732984,0.0,0.0,0.0
609,1778658694.3368404,0.51014125,-0.806913,0.068732984,0.0,0.0,0.0
610,1778658694.346841,0.51014125,-0.806913,0.068732984,0.0,0.0,0.0
611,1778658694.3568432,0.51014125,-0.806913,0.068732984,0.0,0.0,0.0
612,1778658694.366844,0.51014125,-0.806913,0.068732984,0.0,0.0,0.0
613,1778658694.3768446,0.51014125,-0.806913,0.068732984,0.0,0.0,0.0
614,1778658694.3868463,0.51014125,-0.806913,0.068732984,0.0,0.0,0.0
615,1778658694.3968496,0.51014125,-0.806913,0.068732984,0.0,0.0,0.0
616,1778658694.4068513,0.51014125,-0.806913,0.068732984,0.0,0.0,0.0
617,1778658694.4168522,0.51014125,-0.806913,0.068732984,0.0,0.0,0.0
618,1778658694.4268548,0.5413806,-0.7522443,0.07263712,0.0,0.0,0.0
619,1778658694.4368563,0.5413806,-0.7522443,0.07263712,0.0,0.0,0.0
620,1778658694.4468572,0.5413806,-0.7522443,0.07263712,0.0,0.0,0.0
621,1778658694.4568582,0.5413806,-0.7522443,0.07263712,0.0,0.0,0.0
622,1778658694.4668593,0.5413806,-0.7522443,0.07263712,0.0,0.0,0.0
623,1778658694.4768598,0.5413806,-0.7522443,0.07263712,0.0,0.0,0.0
624,1778658694.4868612,0.5413806,-0.7522443,0.07263712,0.0,0.0,0.0
625,1778658694.4968622,0.5413806,-0.7522443,0.07263712,0.0,0.0,0.0
626,1778658694.5068636,0.5413806,-0.7522443,0.07263712,0.0,0.0,0.0
627,1778658694.5168645,0.5413806,-0.7522443,0.07263712,0.0,0.0,0.0
628,1778658694.526866,0.5413806,-0.7522443,0.07263712,0.0,0.0,0.0
629,1778658694.5368676,0.5413806,-0.7522443,0.07263712,0.0,0.0,0.0
630,1778658694.546869,0.5413806,-0.7522443,0.07263712,0.0,0.0,0.0
631,1778658694.5568714,0.5413806,-0.7522443,0.07263712,0.0,0.0,0.0
632,1778658694.5668724,0.5413806,-0.6624305,0.07263712,0.0,0.0,0.0
633,1778658694.5768735,0.5413806,-0.6624305,0.07263712,0.0,0.0,0.0
634,1778658694.5868747,0.5413806,-0.6624305,0.07263712,0.0,0.0,0.0
635,1778658694.5968757,0.5413806,-0.6624305,0.07263712,0.0,0.0,0.0
636,1778658694.606876,0.5413806,-0.6624305,0.07263712,0.0,0.0,0.0
637,1778658694.6168768,0.5413806,-0.6624305,0.07263712,0.0,0.0,0.0
638,1778658694.6268783,0.4867118,-0.48671025,0.08044694,0.0,0.0,0.0
639,1778658694.6368792,0.4867118,-0.48671025,0.08044694,0.0,0.0,0.0
640,1778658694.6468801,0.4867118,-0.48671025,0.08044694,0.0,0.0,0.0
641,1778658694.6568818,0.4867118,-0.48671025,0.08044694,0.0,0.0,0.0
642,1778658694.6668828,0.4867118,-0.48671025,0.08044694,0.0,0.0,0.0
643,1778658694.6768837,0.4867118,-0.48671025,0.08044694,0.0,0.0,0.0
644,1778658694.6868844,0.4867118,-0.48671025,0.08044694,0.0,0.0,0.0
645,1778658694.6968853,0.4867118,-0.48671025,0.08044694,0.0,0.0,0.0
646,1778658694.7068863,0.4867118,-0.48671025,0.08044694,0.0,0.0,0.0
647,1778658694.7168868,0.4867118,-0.48671025,0.08044694,0.0,0.0,0.0
648,1778658694.7268877,0.4867118,-0.48671025,0.08044694,0.0,0.0,0.0
649,1778658694.736889,0.4867118,-0.48671025,0.08044694,0.0,0.0,0.0
650,1778658694.74689,0.4867118,-0.48671025,0.08044694,0.0,0.0,0.0
651,1778658694.7568915,0.4867118,-0.48671025,0.08044694,0.0,0.0,0.0
652,1778658694.766892,0.4867118,-0.48671025,0.08044694,0.0,0.0,0.0
653,1778658694.7768927,0.4867118,-0.48671025,0.08044694,0.0,0.0,0.0
654,1778658694.786894,0.4867118,-0.48671025,0.08044694,0.0,0.0,0.0
655,1778658694.7968948,0.4867118,-0.48671025,0.08044694,0.0,0.0,0.0
656,1778658694.806896,0.4867118,-0.48671025,0.08044694,0.0,0.0,0.0
657,1778658694.8168974,0.4867118,-0.48671025,0.08044694,0.0,0.0,0.0
658,1778658694.826898,0.4867118,-0.48671025,0.08044694,0.0,0.0,0.0
659,1778658694.8368995,0.4867118,-0.48671025,0.08044694,0.0,0.0,0.0
660,1778658694.8469002,0.4867118,-0.48671025,0.08044694,0.0,0.0,0.0
661,1778658694.8569014,0.4867118,-0.48671025,0.08044694,0.0,0.0,0.0
662,1778658694.8669026,0.4867118,-0.48671025,0.08044694,0.0,0.0,0.0
663,1778658694.876904,0.4867118,-0.48671025,0.08044694,0.0,0.0,0.0
664,1778658694.8869045,0.4867118,-0.48671025,0.08044694,0.0,0.0,0.0
665,1778658694.8969052,0.4867118,-0.48671025,0.08044694,0.0,0.0,0.0
666,1778658694.9069102,0.45156682,-0.4047063,0.07654281,0.0,0.0,0.0
667,1778658694.916912,0.45156682,-0.4047063,0.07654281,0.0,0.0,0.0
668,1778658694.926913,0.45156682,-0.4047063,0.07654281,0.0,0.0,0.0
669,1778658694.9369137,0.45156682,-0.4047063,0.07654281,0.0,0.0,0.0
670,1778658694.9469154,0.45156682,-0.4047063,0.07654281,0.0,0.0,0.0
671,1778658694.9569166,0.45156682,-0.4047063,0.07654281,0.0,0.0,0.0
672,1778658694.9669173,0.45156682,-0.4047063,0.07654281,0.0,0.0,0.0
673,1778658694.976921,0.45156682,-0.4047063,0.07654281,0.0,0.0,0.0
674,1778658694.9869232,0.4867118,-0.48671025,0.08044694,0.0,0.0,0.0
675,1778658694.9969246,0.4867118,-0.48671025,0.08044694,0.0,0.0,0.0
676,1778658695.0069253,0.4867118,-0.48671025,0.08044694,0.0,0.0,0.0
677,1778658695.0169268,0.4867118,-0.48671025,0.08044694,0.0,0.0,0.0
678,1778658695.0269275,0.4867118,-0.48671025,0.08044694,0.0,0.0,0.0
679,1778658695.0369291,0.4867118,-0.48671025,0.08044694,0.0,0.0,0.0
680,1778658695.0469298,0.4867118,-0.48671025,0.08044694,0.0,0.0,0.0
681,1778658695.056931,0.3890882,-0.24069999,0.017968351,0.0,0.0,0.0
682,1778658695.0669324,0.3890882,-0.24069999,0.017968351,0.0,0.0,0.0
683,1778658695.0769334,0.3890882,-0.24069999,0.017968351,0.0,0.0,0.0
684,1778658695.0869343,0.3890882,-0.24069999,0.017968351,0.0,0.0,0.0
685,1778658695.0969357,0.3890882,-0.24069999,0.017968351,0.0,0.0,0.0
686,1778658695.1069372,0.3890882,-0.24069999,0.017968351,0.0,0.0,0.0
687,1778658695.1169388,0.3890882,-0.24069999,0.017968351,0.0,0.0,0.0
688,1778658695.12694,0.3890882,-0.24069999,0.017968351,0.0,0.0,0.0
689,1778658695.1369407,0.3890882,-0.24069999,0.017968351,0.0,0.0,0.0
690,1778658695.146942,0.3890882,-0.24069999,0.017968351,0.0,0.0,0.0
691,1778658695.1569426,0.3890882,-0.24069999,0.017968351,0.0,0.0,0.0
692,1778658695.166944,0.3890882,-0.24069999,0.017968351,0.0,0.0,0.0
693,1778658695.1769462,0.10012472,0.0795028,0.3850301,0.0,0.0,0.0
694,1778658695.1869476,0.10012472,0.0795028,0.3850301,0.0,0.0,0.0
695,1778658695.1969485,0.10012472,0.0795028,0.3850301,0.0,0.0,0.0
696,1778658695.2069497,0.10012472,0.0795028,0.3850301,0.0,0.0,0.0
697,1778658695.2169514,0.10012472,0.0795028,0.3850301,0.0,0.0,0.0
698,1778658695.2269535,0.10012472,0.0795028,0.3850301,0.0,0.0,0.0
699,1778658695.2369547,0.10012472,0.0795028,0.3850301,0.0,0.0,0.0
700,1778658695.2469559,0.10012472,0.0795028,0.3850301,0.0,0.0,0.0
701,1778658695.256958,0.10012472,0.0795028,0.3850301,0.0,0.0,0.0
702,1778658695.266959,0.10012472,0.0795028,0.3850301,0.0,0.0,0.0
703,1778658695.2769594,0.10012472,0.0795028,0.3850301,0.0,0.0,0.0
704,1778658695.2869608,0.10012472,0.0795028,0.3850301,0.0,0.0,0.0
705,1778658695.2969613,0.10012472,0.0795028,0.3850301,0.0,0.0,0.0
706,1778658695.306962,0.10012472,0.0795028,0.3850301,0.0,0.0,0.0
707,1778658695.3169641,0.10012472,0.0795028,0.3850301,0.0,0.0,0.0
708,1778658695.3269658,0.10012472,0.0795028,0.3850301,0.0,0.0,0.0
709,1778658695.3369675,0.10012472,0.0795028,0.3850301,0.0,0.0,0.0
710,1778658695.3469684,0.10012472,0.0795028,0.3850301,0.0,0.0,0.0
711,1778658695.35697,0.10012472,0.0795028,0.3850301,0.0,0.0,0.0
712,1778658695.3669722,0.10012472,0.0795028,0.3850301,0.0,0.0,0.0
713,1778658695.3769734,0.10012472,0.0795028,0.3850301,0.0,0.0,0.0
714,1778658695.3869748,0.10012472,0.0795028,0.3850301,0.0,0.0,0.0
715,1778658695.3969765,0.10012472,0.0795028,0.3850301,0.0,0.0,0.0
716,1778658695.406977,0.10012472,0.0795028,0.3850301,0.0,0.0,0.0
717,1778658695.4169781,0.10012472,0.0795028,0.3850301,0.0,0.0,0.0
718,1778658695.4269793,0.10012472,0.0795028,0.3850301,0.0,0.0,0.0
719,1778658695.4369798,0.10012472,0.0795028,0.3850301,0.0,0.0,0.0
720,1778658695.446981,0.15479349,0.036549542,0.5217028,0.0,0.0,0.0
721,1778658695.4569826,0.15479349,0.036549542,0.5217028,0.0,0.0,0.0
722,1778658695.466984,0.15479349,0.036549542,0.5217028,0.0,0.0,0.0
723,1778658695.4769855,0.15479349,0.036549542,0.5217028,0.0,0.0,0.0
724,1778658695.4869862,0.15479349,0.036549542,0.5217028,0.0,0.0,0.0
725,1778658695.496987,0.15479349,0.036549542,0.5217028,0.0,0.0,0.0
726,1778658695.5069883,0.15479349,0.036549542,0.5217028,0.0,0.0,0.0
727,1778658695.516989,0.15479349,0.036549542,0.5217028,0.0,0.0,0.0
728,1778658695.526991,0.15479349,0.036549542,0.5217028,0.0,0.0,0.0
729,1778658695.5370343,0.15479349,0.036549542,0.5217028,0.0,0.0,0.0
730,1778658695.5470355,0.15479349,0.036549542,0.5217028,0.0,0.0,0.0
731,1778658695.5570364,0.15479349,0.036549542,0.5217028,0.0,0.0,0.0
732,1778658695.567037,0.15479349,0.036549542,0.5217028,0.0,0.0,0.0
733,1778658695.5770383,0.15479349,0.036549542,0.5217028,0.0,0.0,0.0
734,1778658695.587039,0.15479349,0.036549542,0.5217028,0.0,0.0,0.0
735,1778658695.5970397,0.15479349,0.036549542,0.5217028,0.0,0.0,0.0
736,1778658695.6070411,0.15479349,0.036549542,0.5217028,0.0,0.0,0.0
737,1778658695.6170418,0.15479349,0.036549542,0.5217028,0.0,0.0,0.0
738,1778658695.6270425,0.15479349,0.036549542,0.5217028,0.0,0.0,0.0
739,1778658695.6370437,0.15479349,0.036549542,0.5217028,0.0,0.0,0.0
740,1778658695.6470447,0.15479349,0.036549542,0.5217028,0.0,0.0,0.0
741,1778658695.6570463,0.15479349,0.036549542,0.5217028,0.0,0.0,0.0
742,1778658695.667048,0.15479349,0.036549542,0.5217028,0.0,0.0,0.0
743,1778658695.677049,0.15479349,0.036549542,0.5217028,0.0,0.0,0.0
744,1778658695.6870518,0.15479349,0.036549542,0.5217028,0.0,0.0,0.0
745,1778658695.697053,0.15479349,0.036549542,0.5217028,0.0,0.0,0.0
746,1778658695.7070541,0.15479349,0.036549542,0.5217028,0.0,0.0,0.0
747,1778658695.717056,0.15479349,0.036549542,0.5217028,0.0,0.0,0.0
748,1778658695.7270572,0.15479349,0.036549542,0.5217028,0.0,0.0,0.0
749,1778658695.7370589,0.15479349,0.036549542,0.5217028,0.0,0.0,0.0
750,1778658695.7470605,0.15479349,0.036549542,0.5217028,0.0,0.0,0.0
751,1778658695.7570615,0.15479349,0.036549542,0.5217028,0.0,0.0,0.0
752,1778658695.767063,0.15479349,0.036549542,0.5217028,0.0,0.0,0.0
753,1778658695.777064,0.15479349,0.036549542,0.5217028,0.0,0.0,0.0
754,1778658695.7870646,0.15479349,0.036549542,0.5217028,0.0,0.0,0.0
755,1778658695.7970655,0.15479349,0.036549542,0.5217028,0.0,0.0,0.0
756,1778658695.8070667,0.15479349,0.036549542,0.5217028,0.0,0.0,0.0
757,1778658695.8170688,0.15479349,0.036549542,0.5217028,0.0,0.0,0.0
758,1778658695.827071,0.15479349,0.036549542,0.5217028,0.0,0.0,0.0
759,1778658695.837072,0.15479349,0.036549542,0.5217028,0.0,0.0,0.0
760,1778658695.8470733,0.38518408,-0.053264216,0.4279849,0.0,0.0,0.0
761,1778658695.8570766,0.38518408,-0.053264216,0.4279849,0.0,0.0,0.0
762,1778658695.8670785,0.38518408,-0.053264216,0.4279849,0.0,0.0,0.0
763,1778658695.8770807,0.38518408,-0.053264216,0.4279849,0.0,0.0,0.0
764,1778658695.8870823,0.38518408,-0.053264216,0.4279849,0.0,0.0,0.0
765,1778658695.8970833,0.38518408,-0.053264216,0.4279849,0.0,0.0,0.0
766,1778658695.9070847,0.38518408,-0.053264216,0.4279849,0.0,0.0,0.0
767,1778658695.9170856,0.38518408,-0.053264216,0.4279849,0.0,0.0,0.0
768,1778658695.9270864,0.38518408,-0.053264216,0.4279849,0.0,0.0,0.0
769,1778658695.9370878,0.38518408,-0.053264216,0.4279849,0.0,0.0,0.0
770,1778658695.9470887,0.38518408,-0.053264216,0.4279849,0.0,0.0,0.0
771,1778658695.9570894,0.38518408,-0.053264216,0.4279849,0.0,0.0,0.0
772,1778658695.9670901,0.40080374,-0.07669369,0.34207684,0.0,0.0,0.0
773,1778658695.9770906,0.40080374,-0.07669369,0.34207684,0.0,0.0,0.0
774,1778658695.9870918,0.40080374,-0.07669369,0.34207684,0.0,0.0,0.0
775,1778658695.997093,0.40080374,-0.07669369,0.34207684,0.0,0.0,0.0
776,1778658696.0070937,0.40080374,-0.07669369,0.34207684,0.0,0.0,0.0
777,1778658696.0170944,0.40080374,-0.07669369,0.34207684,0.0,0.0,0.0
778,1778658696.027095,0.40080374,-0.07669369,0.34207684,0.0,0.0,0.0
779,1778658696.0370965,0.21727209,0.005310245,0.34207684,0.0,0.0,0.0
780,1778658696.0470982,0.21727209,0.005310245,0.34207684,0.0,0.0,0.0
781,1778658696.0570996,0.21727209,0.005310245,0.34207684,0.0,0.0,0.0
782,1778658696.0671015,0.21727209,0.005310245,0.34207684,0.0,0.0,0.0
783,1778658696.0771027,0.21727209,0.005310245,0.34207684,0.0,0.0,0.0
784,1778658696.0871038,0.21727209,0.005310245,0.34207684,0.0,0.0,0.0
785,1778658696.0971053,0.21727209,0.005310245,0.34207684,0.0,0.0,0.0
786,1778658696.1071062,0.21727209,0.005310245,0.34207684,0.0,0.0,0.0
787,1778658696.117107,0.21727209,0.005310245,0.34207684,0.0,0.0,0.0
788,1778658696.1271079,0.21727209,0.005310245,0.34207684,0.0,0.0,0.0
789,1778658696.1371086,0.21727209,0.005310245,0.34207684,0.0,0.0,0.0
790,1778658696.1471093,0.21727209,0.005310245,0.34207684,0.0,0.0,0.0
791,1778658696.1571114,0.21727209,0.005310245,0.34207684,0.0,0.0,0.0
792,1778658696.167113,0.21727209,0.005310245,0.34207684,0.0,0.0,0.0
793,1778658696.1771152,0.21727209,0.005310245,0.34207684,0.0,0.0,0.0
794,1778658696.187117,0.40080374,-0.07669369,0.34207684,0.0,0.0,0.0
795,1778658696.197118,0.40080374,-0.07669369,0.34207684,0.0,0.0,0.0
796,1778658696.2071197,0.40080374,-0.07669369,0.34207684,0.0,0.0,0.0
797,1778658696.2171204,0.40080374,-0.07669369,0.34207684,0.0,0.0,0.0
798,1778658696.2271214,0.40080374,-0.07669369,0.34207684,0.0,0.0,0.0
799,1778658696.237123,0.40080374,-0.07669369,0.34207684,0.0,0.0,0.0
800,1778658696.2471244,0.40080374,-0.07669369,0.34207684,0.0,0.0,0.0
801,1778658696.2571259,0.40080374,-0.07669369,0.34207684,0.0,0.0,0.0
802,1778658696.2671282,0.40080374,-0.07669369,0.34207684,0.0,0.0,0.0
803,1778658696.2771316,0.40080374,-0.07669369,0.34207684,0.0,0.0,0.0
804,1778658696.2871332,0.40080374,-0.07669369,0.34207684,0.0,0.0,0.0
805,1778658696.2971356,0.40080374,-0.07669369,0.34207684,0.0,0.0,0.0
806,1778658696.3071365,0.40080374,-0.07669369,0.34207684,0.0,0.0,0.0
807,1778658696.3171377,0.40080374,-0.07669369,0.34207684,0.0,0.0,0.0
808,1778658696.327139,0.40080374,-0.07669369,0.34207684,0.0,0.0,0.0
809,1778658696.3371403,0.40080374,-0.07669369,0.34207684,0.0,0.0,0.0
810,1778658696.3471413,0.40080374,-0.07669369,0.34207684,0.0,0.0,0.0
811,1778658696.3571424,0.40080374,-0.07669369,0.34207684,0.0,0.0,0.0
812,1778658696.3671434,0.40080374,-0.07669369,0.34207684,0.0,0.0,0.0
813,1778658696.3771453,0.40080374,-0.07669369,0.34207684,0.0,0.0,0.0
814,1778658696.3871465,0.40080374,-0.07669369,0.34207684,0.0,0.0,0.0
815,1778658696.397148,0.07278956,0.07169297,0.31083754,0.0,0.0,0.0
816,1778658696.4071493,0.07278956,0.07169297,0.31083754,0.0,0.0,0.0
817,1778658696.41715,0.07278956,0.07169297,0.31083754,0.0,0.0,0.0
818,1778658696.4271512,0.07278956,0.07169297,0.31083754,0.0,0.0,0.0
819,1778658696.437152,0.07278956,0.07169297,0.31083754,0.0,0.0,0.0
820,1778658696.4471548,0.018120784,0.07169297,0.18978448,0.0,0.0,0.0
821,1778658696.4571567,0.018120784,0.07169297,0.18978448,0.0,0.0,0.0
822,1778658696.4671576,0.018120784,0.07169297,0.18978448,0.0,0.0,0.0
823,1778658696.4771595,0.018120784,0.07169297,0.18978448,0.0,0.0,0.0
824,1778658696.4871612,0.018120784,0.07169297,0.18978448,0.0,0.0,0.0
825,1778658696.4971616,0.018120784,0.07169297,0.18978448,0.0,0.0,0.0
826,1778658696.5071647,0.018120784,0.07169297,0.18978448,0.0,0.0,0.0
827,1778658696.5171669,0.018120784,0.07169297,0.18978448,0.0,0.0,0.0
828,1778658696.5271688,0.018120784,0.07169297,0.18978448,0.0,0.0,0.0
829,1778658696.5371711,0.018120784,0.07169297,0.18978448,0.0,0.0,0.0
830,1778658696.5471728,0.018120784,0.07169297,0.18978448,0.0,0.0,0.0
831,1778658696.5571737,0.018120784,0.07169297,0.18978448,0.0,0.0,0.0
832,1778658696.567175,0.018120784,0.07169297,0.18978448,0.0,0.0,0.0
833,1778658696.5771754,0.018120784,0.07169297,0.18978448,0.0,0.0,0.0
834,1778658696.587176,0.018120784,0.07169297,0.18978448,0.0,0.0,0.0
835,1778658696.597177,0.018120784,0.07169297,0.18978448,0.0,0.0,0.0
836,1778658696.6071782,0.018120784,0.07169297,0.18978448,0.0,0.0,0.0
837,1778658696.6171792,0.018120784,0.07169297,0.18978448,0.0,0.0,0.0
838,1778658696.6271806,0.018120784,0.07169297,0.18978448,0.0,0.0,0.0
839,1778658696.6371818,0.018120784,0.07169297,0.18978448,0.0,0.0,0.0
840,1778658696.6471837,0.018120784,0.07169297,0.18978448,0.0,0.0,0.0
841,1778658696.6571853,0.018120784,0.07169297,0.18978448,0.0,0.0,0.0
842,1778658696.667187,0.018120784,0.07169297,0.18978448,0.0,0.0,0.0
843,1778658696.677188,0.018120784,0.07169297,0.18978448,0.0,0.0,0.0
844,1778658696.68719,0.018120784,0.07169297,0.18978448,0.0,0.0,0.0
845,1778658696.697192,0.018120784,0.07169297,0.18978448,0.0,0.0,0.0
846,1778658696.7071927,0.018120784,0.07169297,0.18978448,0.0,0.0,0.0
847,1778658696.717194,0.018120784,0.07169297,0.18978448,0.0,0.0,0.0
848,1778658696.7271955,-0.13807571,0.11074209,0.033588,0.0,0.0,0.0
849,1778658696.7371962,-0.13807571,0.11074209,0.033588,0.0,0.0,0.0
850,1778658696.7471976,-0.13807571,0.11074209,0.033588,0.0,0.0,0.0
851,1778658696.7571988,-0.13807571,0.11074209,0.033588,0.0,0.0,0.0
852,1778658696.767201,-0.13807571,0.11074209,0.033588,0.0,0.0,0.0
853,1778658696.7772021,-0.13807571,0.11074209,0.033588,0.0,0.0,0.0
854,1778658696.7872028,-0.13807571,0.11074209,0.033588,0.0,0.0,0.0
855,1778658696.7972035,-0.13807571,0.11074209,0.033588,0.0,0.0,0.0
856,1778658696.807205,-0.0014029997,0.059979014,0.115591936,0.0,0.0,0.0
857,1778658696.8172057,-0.0014029997,0.059979014,0.115591936,0.0,0.0,0.0
858,1778658696.8272069,-0.0014029997,0.059979014,0.115591936,0.0,0.0,0.0
859,1778658696.8372073,-0.0014029997,0.059979014,0.115591936,0.0,0.0,0.0
860,1778658696.8472092,-0.0014029997,0.059979014,0.115591936,0.0,0.0,0.0
861,1778658696.8572123,-0.0014029997,0.059979014,0.115591936,0.0,0.0,0.0
862,1778658696.8672152,-0.0014029997,0.059979014,0.115591936,0.0,0.0,0.0
863,1778658696.8772168,-0.0014029997,0.059979014,0.115591936,0.0,0.0,0.0
864,1778658696.8872182,-0.0014029997,0.059979014,0.115591936,0.0,0.0,0.0
865,1778658696.8972187,-0.0014029997,0.059979014,0.115591936,0.0,0.0,0.0
866,1778658696.9072204,-0.14197984,0.102932274,-0.005461122,0.0,0.0,0.0
867,1778658696.9172218,-0.14197984,0.102932274,-0.005461122,0.0,0.0,0.0
868,1778658696.9272223,-0.14197984,0.102932274,-0.005461122,0.0,0.0,0.0
869,1778658696.9372234,-0.14197984,0.102932274,-0.005461122,0.0,0.0,0.0
870,1778658696.9472241,-0.14197984,0.102932274,-0.005461122,0.0,0.0,0.0
871,1778658696.9572253,-0.14197984,0.102932274,-0.005461122,0.0,0.0,0.0
872,1778658696.967226,-0.14197984,0.102932274,-0.005461122,0.0,0.0,0.0
873,1778658696.9772267,-0.14197984,0.102932274,-0.005461122,0.0,0.0,0.0
874,1778658696.9872274,-0.14197984,0.102932274,-0.005461122,0.0,0.0,0.0
875,1778658696.9972289,-0.14197984,0.102932274,-0.005461122,0.0,0.0,0.0
876,1778658697.00723,-0.14197984,0.102932274,-0.005461122,0.0,0.0,0.0
877,1778658697.017231,-0.14197984,0.102932274,-0.005461122,0.0,0.0,0.0
878,1778658697.027232,-0.05607177,-0.05716835,-0.044510245,0.0,0.0,0.0
879,1778658697.0372329,-0.05607177,-0.05716835,-0.044510245,0.0,0.0,0.0
880,1778658697.0472338,-0.05607177,-0.05716835,-0.044510245,0.0,0.0,0.0
881,1778658697.0572364,-0.14197984,0.102932274,-0.005461122,0.0,0.0,0.0
882,1778658697.0672371,-0.14197984,0.102932274,-0.005461122,0.0,0.0,0.0
883,1778658697.0772383,-0.14197984,0.102932274,-0.005461122,0.0,0.0,0.0
884,1778658697.087239,-0.14197984,0.102932274,-0.005461122,0.0,0.0,0.0
885,1778658697.0972416,-0.14197984,0.102932274,-0.005461122,0.0,0.0,0.0
886,1778658697.107243,-0.14197984,0.102932274,-0.005461122,0.0,0.0,0.0
887,1778658697.1172442,-0.14197984,0.102932274,-0.005461122,0.0,0.0,0.0
888,1778658697.127246,-0.14197984,0.102932274,-0.005461122,0.0,0.0,0.0
889,1778658697.1372473,-0.14197984,0.102932274,-0.005461122,0.0,0.0,0.0
890,1778658697.147248,-0.14197984,0.102932274,-0.005461122,0.0,0.0,0.0
891,1778658697.1572492,-0.06388159,-0.1508878,-0.03670042,0.0,0.0,0.0
892,1778658697.16725,-0.06388159,-0.1508878,-0.03670042,0.0,0.0,0.0
893,1778658697.1772506,-0.06388159,-0.1508878,-0.03670042,0.0,0.0,0.0
894,1778658697.1872528,-0.06388159,-0.1508878,-0.03670042,0.0,0.0,0.0
895,1778658697.1972535,-0.06388159,-0.1508878,-0.03670042,0.0,0.0,0.0
896,1778658697.2072544,-0.06388159,-0.1508878,-0.03670042,0.0,0.0,0.0
897,1778658697.2172554,-0.06388159,-0.1508878,-0.03670042,0.0,0.0,0.0
898,1778658697.2272568,-0.06388159,-0.1508878,-0.03670042,0.0,0.0,0.0
899,1778658697.2372587,-0.06388159,-0.1508878,-0.03670042,0.0,0.0,0.0
900,1778658697.2472594,-0.06388159,-0.1508878,-0.03670042,0.0,0.0,0.0
901,1778658697.2572613,-0.06388159,-0.1508878,-0.03670042,0.0,0.0,0.0
902,1778658697.267263,-0.06388159,-0.1508878,-0.03670042,0.0,0.0,0.0
903,1778658697.2772639,-0.06388159,-0.1508878,-0.03670042,0.0,0.0,0.0
904,1778658697.2872646,-0.06388159,-0.1508878,-0.03670042,0.0,0.0,0.0
905,1778658697.2972662,-0.09902658,-0.32270393,0.017968351,0.0,0.0,0.0
906,1778658697.3072672,-0.09902658,-0.32270393,0.017968351,0.0,0.0,0.0
907,1778658697.3172684,-0.09902658,-0.32270393,0.017968351,0.0,0.0,0.0
908,1778658697.3272693,-0.09902658,-0.32270393,0.017968351,0.0,0.0,0.0
909,1778658697.3372703,-0.09902658,-0.32270393,0.017968351,0.0,0.0,0.0
910,1778658697.3472724,-0.29427218,-0.6350969,0.18588035,0.0,0.0,0.0
911,1778658697.357274,-0.29427218,-0.6350969,0.18588035,0.0,0.0,0.0
912,1778658697.3672752,-0.29427218,-0.6350969,0.18588035,0.0,0.0,0.0
913,1778658697.3772762,-0.29427218,-0.6350969,0.18588035,0.0,0.0,0.0
914,1778658697.387277,-0.29427218,-0.6350969,0.18588035,0.0,0.0,0.0
915,1778658697.397278,-0.29427218,-0.6350969,0.18588035,0.0,0.0,0.0
916,1778658697.4072788,-0.29427218,-0.6350969,0.18588035,0.0,0.0,0.0
917,1778658697.4172797,-0.29427218,-0.6350969,0.18588035,0.0,0.0,0.0
918,1778658697.427281,-0.29427218,-0.6350969,0.18588035,0.0,0.0,0.0
919,1778658697.4372814,-0.29427218,-0.6350969,0.18588035,0.0,0.0,0.0
920,1778658697.4472833,-0.51294726,-0.9318702,0.43579474,0.0,0.0,0.0
921,1778658697.457285,-0.51294726,-0.9318702,0.43579474,0.0,0.0,0.0
922,1778658697.467286,-0.51294726,-0.9318702,0.43579474,0.0,0.0,0.0
923,1778658697.4772885,-0.51294726,-0.9318702,0.43579474,0.0,0.0,0.0
924,1778658697.4872906,-0.51294726,-0.9318702,0.43579474,0.0,0.0,0.0
925,1778658697.4972918,-0.51294726,-0.9318702,0.43579474,0.0,0.0,0.0
926,1778658697.5072925,-0.51294726,-0.9318702,0.43579474,0.0,0.0,0.0
927,1778658697.5172942,-0.56371033,-1.0412078,0.5568462,0.0,0.0,0.0
928,1778658697.5272946,-0.56371033,-1.0412078,0.5568462,0.0,0.0,0.0
929,1778658697.5372958,-0.56371033,-1.0412078,0.5568462,0.0,0.0,0.0
930,1778658697.547296,-0.56371033,-1.0412078,0.5568462,0.0,0.0,0.0
931,1778658697.5572982,-0.56371033,-1.0412078,0.5568462,0.0,0.0,0.0
932,1778658697.5672996,-0.56371033,-1.0412078,0.5568462,0.0,0.0,0.0
933,1778658697.5773008,-0.56371033,-1.0412078,0.5568462,0.0,0.0,0.0
934,1778658697.5873036,-0.56371033,-1.0412078,0.5568462,0.0,0.0,0.0
935,1778658697.5973067,-0.56371033,-1.0412078,0.5568462,0.0,0.0,0.0
936,1778658697.6073077,-0.56371033,-1.0412078,0.5568462,0.0,0.0,0.0
937,1778658697.617309,-0.56371033,-1.0412078,0.5568462,0.0,0.0,0.0
938,1778658697.6273115,-0.56371033,-1.0412078,0.5568462,0.0,0.0,0.0
939,1778658697.6373122,-0.56371033,-1.0412078,0.5568462,0.0,0.0,0.0
940,1778658697.6473134,-0.56371033,-1.0412078,0.5568462,0.0,0.0,0.0
941,1778658697.6573153,-0.56371033,-1.0412078,0.5568462,0.0,0.0,0.0
942,1778658697.6673167,-0.56371033,-1.0412078,0.5568462,0.0,0.0,0.0
943,1778658697.6773176,-0.56371033,-1.0412078,0.5568462,0.0,0.0,0.0
944,1778658697.6873183,-0.56371033,-1.0412078,0.5568462,0.0,0.0,0.0
945,1778658697.6973212,-0.56371033,-1.0412078,0.5568462,0.0,0.0,0.0
946,1778658697.7073236,-0.56371033,-1.0412078,0.5568462,0.0,0.0,0.0
947,1778658697.7173252,-0.56371033,-1.0412078,0.5568462,0.0,0.0,0.0
948,1778658697.7273266,-0.56371033,-1.0412078,0.5568462,0.0,0.0,0.0
949,1778658697.7373278,-0.56371033,-1.0412078,0.5568462,0.0,0.0,0.0
950,1778658697.747329,-0.56371033,-1.0412078,0.5568462,0.0,0.0,0.0
951,1778658697.7573302,-0.56371033,-1.0412078,0.5568462,0.0,0.0,0.0
952,1778658697.767331,-0.56371033,-1.0412078,0.5568462,0.0,0.0,0.0
953,1778658697.7773323,-0.56371033,-1.0412078,0.5568462,0.0,0.0,0.0
954,1778658697.7873335,-0.50123173,-1.7440935,1.0957257,0.0,0.0,0.0
955,1778658697.7973342,-0.50123173,-1.7440935,1.0957257,0.0,0.0,0.0
956,1778658697.8073351,-0.50123173,-1.7440935,1.0957257,0.0,0.0,0.0
957,1778658697.8173366,-0.50123173,-1.7440935,1.0957257,0.0,0.0,0.0
958,1778658697.8273373,-0.50123173,-1.7440935,1.0957257,0.0,0.0,0.0
959,1778658697.837339,-0.50123173,-1.7440935,1.0957257,0.0,0.0,0.0
960,1778658697.8473396,-0.50123173,-1.7440935,1.0957257,0.0,0.0,0.0
961,1778658697.8573408,-0.50123173,-1.7440935,1.0957257,0.0,0.0,0.0
962,1778658697.8673427,-0.50123173,-1.7440935,1.0957257,0.0,0.0,0.0
963,1778658697.8773434,-0.50123173,-1.7440935,1.0957257,0.0,0.0,0.0
964,1778658697.887345,-0.50123173,-1.7440935,1.0957257,0.0,0.0,0.0
965,1778658697.8973458,-0.50123173,-1.7440935,1.0957257,0.0,0.0,0.0
966,1778658697.9073465,-0.50123173,-1.7440935,1.0957257,0.0,0.0,0.0
967,1778658697.9173477,-0.50123173,-1.7440935,1.0957257,0.0,0.0,0.0
968,1778658697.9273498,-0.50123173,-1.7440935,1.0957257,0.0,0.0,0.0
969,1778658697.9373512,-0.50123173,-1.7440935,1.0957257,0.0,0.0,0.0
970,1778658697.9473526,-0.50123173,-1.7440935,1.0957257,0.0,0.0,0.0
971,1778658697.957354,-0.50123173,-1.7440935,1.0957257,0.0,0.0,0.0
972,1778658697.9673548,-0.50123173,-1.7440935,1.0957257,0.0,0.0,0.0
973,1778658697.9773579,-0.50123173,-1.7440935,1.0957257,0.0,0.0,0.0
974,1778658697.9873605,-0.50123173,-1.7440935,1.0957257,0.0,0.0,0.0
975,1778658697.997362,-0.50123173,-1.7440935,1.0957257,0.0,0.0,0.0
976,1778658698.0073628,-0.50123173,-1.7440935,1.0957257,0.0,0.0,0.0
977,1778658698.0173635,-0.50123173,-1.7440935,1.0957257,0.0,0.0,0.0
978,1778658698.027365,-0.50123173,-1.7440935,1.0957257,0.0,0.0,0.0
979,1778658698.0373664,0.11574437,-2.60708,1.1894436,0.0,0.0,0.0
980,1778658698.0473673,0.11574437,-2.60708,1.1894436,0.0,0.0,0.0
981,1778658698.0573678,0.11574437,-2.60708,1.1894436,0.0,0.0,0.0
982,1778658698.0673697,0.11574437,-2.60708,1.1894436,0.0,0.0,0.0
983,1778658698.0773706,0.11574437,-2.60708,1.1894436,0.0,0.0,0.0
984,1778658698.087372,0.11574437,-2.60708,1.1894436,0.0,0.0,0.0
985,1778658698.0973728,0.11574437,-2.60708,1.1894436,0.0,0.0,0.0
986,1778658698.1073732,0.11574437,-2.60708,1.1894436,0.0,0.0,0.0
987,1778658698.1173744,0.4125177,-2.8882337,1.0722961,0.0,0.0,0.0
988,1778658698.1273751,0.4125177,-2.8882337,1.0722961,0.0,0.0,0.0
989,1778658698.1373763,0.4125177,-2.8882337,1.0722961,0.0,0.0,0.0
990,1778658698.1473787,0.4125177,-2.8882337,1.0722961,0.0,0.0,0.0
991,1778658698.15738,0.4125177,-2.8882337,1.0722961,0.0,0.0,0.0
992,1778658698.167381,0.4125177,-2.8882337,1.0722961,0.0,0.0,0.0
993,1778658698.1773827,0.4125177,-2.8882337,1.0722961,0.0,0.0,0.0
994,1778658698.1873841,0.6429083,-3.0951931,1.0410569,0.0,0.0,0.0
995,1778658698.1973853,0.6429083,-3.0951931,1.0410569,0.0,0.0,0.0
996,1778658698.2073863,0.6429083,-3.0951931,1.0410569,0.0,0.0,0.0
997,1778658698.217387,0.6429083,-3.0951931,1.0410569,0.0,0.0,0.0
998,1778658698.2273881,0.6429083,-3.0951931,1.0410569,0.0,0.0,0.0
999,1778658698.237389,0.6429083,-3.0951931,1.0410569,0.0,0.0,0.0
1000,1778658698.2473903,0.6429083,-3.0951931,1.0410569,0.0,0.0,0.0
