id,timestamp,acc_x,acc_y,acc_z,gyro_x,gyro_y,gyro_z
1,1778662557.6278446,0.27975067,-1.6113249,-0.15775347,0.0,0.0,0.0
2,1778662557.6378465,0.27975067,-1.6113249,-0.15775347,0.0,0.0,0.0
3,1778662557.6478477,0.27975067,-1.6113249,-0.15775347,0.0,0.0,0.0
4,1778662557.6578507,0.27975067,-1.6113249,-0.15775347,0.0,0.0,0.0
5,1778662557.6678538,0.69367135,-1.3223615,0.084352635,0.0,0.0,0.0
6,1778662557.6778545,0.69367135,-1.3223615,0.084352635,0.0,0.0,0.0
7,1778662557.6878562,0.69367135,-1.3223615,0.084352635,0.0,0.0,0.0
8,1778662557.6978579,0.69367135,-1.3223615,0.084352635,0.0,0.0,0.0
9,1778662557.707859,0.69367135,-1.3223615,0.084352635,0.0,0.0,0.0
10,1778662557.7178612,0.69367135,-1.3223615,0.084352635,0.0,0.0,0.0
11,1778662557.7278633,0.69367135,-1.3223615,0.084352635,0.0,0.0,0.0
12,1778662557.7378638,0.69367135,-1.3223615,0.084352635,0.0,0.0,0.0
13,1778662557.7478642,0.69367135,-1.3223615,0.084352635,0.0,0.0,0.0
14,1778662557.7578652,0.69367135,-1.3223615,0.084352635,0.0,0.0,0.0
15,1778662557.7678657,0.69367135,-1.3223615,0.084352635,0.0,0.0,0.0
16,1778662557.777867,0.69367135,-1.3223615,0.084352635,0.0,0.0,0.0
17,1778662557.7878702,0.69367135,-1.3223615,0.084352635,0.0,0.0,0.0
18,1778662557.7978714,0.69367135,-1.3223615,0.084352635,0.0,0.0,0.0
19,1778662557.8078725,0.69367135,-1.3223615,0.084352635,0.0,0.0,0.0
20,1778662557.8178732,0.69367135,-1.3223615,0.084352635,0.0,0.0,0.0
21,1778662557.8278744,0.69367135,-1.3223615,0.084352635,0.0,0.0,0.0
22,1778662557.8378756,0.69367135,-1.3223615,0.084352635,0.0,0.0,0.0
23,1778662557.8478765,0.69367135,-1.3223615,0.084352635,0.0,0.0,0.0
24,1778662557.8578775,0.69367135,-1.3223615,0.084352635,0.0,0.0,0.0
25,1778662557.8678803,0.69367135,-1.3223615,0.084352635,0.0,0.0,0.0
26,1778662557.8778818,0.69367135,-1.3223615,0.084352635,0.0,0.0,0.0
27,1778662557.8878827,0.69367135,-1.3223615,0.084352635,0.0,0.0,0.0
28,1778662557.8978844,1.7167599,-0.3773727,0.947339,0.0,0.0,0.0
29,1778662557.9078856,1.7167599,-0.3773727,0.947339,0.0,0.0,0.0
30,1778662557.9178865,1.7167599,-0.3773727,0.947339,0.0,0.0,0.0
31,1778662557.9278877,1.7167599,-0.3773727,0.947339,0.0,0.0,0.0
32,1778662557.9378893,1.7167599,-0.3773727,0.947339,0.0,0.0,0.0
33,1778662557.9478915,1.7167599,-0.3773727,0.947339,0.0,0.0,0.0
34,1778662557.9578927,1.7167599,-0.3773727,0.947339,0.0,0.0,0.0
35,1778662557.9678943,1.802668,-0.26412946,1.0332471,0.0,0.0,0.0
36,1778662557.977897,1.802668,-0.26412946,1.0332471,0.0,0.0,0.0
37,1778662557.987898,1.802668,-0.26412946,1.0332471,0.0,0.0,0.0
38,1778662557.9978995,1.876862,-0.16260175,1.1035355,0.0,0.0,0.0
39,1778662558.0079005,1.876862,-0.16260175,1.1035355,0.0,0.0,0.0
40,1778662558.017902,1.876862,-0.16260175,1.1035355,0.0,0.0,0.0
41,1778662558.027904,1.876862,-0.16260175,1.1035355,0.0,0.0,0.0
42,1778662558.0379062,1.9861996,0.0482635,1.1894436,0.0,0.0,0.0
43,1778662558.0479069,1.9861996,0.0482635,1.1894436,0.0,0.0,0.0
44,1778662558.0579078,1.9861996,0.0482635,1.1894436,0.0,0.0,0.0
45,1778662558.067908,1.9861996,0.0482635,1.1894436,0.0,0.0,0.0
46,1778662558.0779092,1.9861996,0.0482635,1.1894436,0.0,0.0,0.0
47,1778662558.0879104,1.9861996,0.0482635,1.1894436,0.0,0.0,0.0
48,1778662558.097911,1.9861996,0.0482635,1.1894436,0.0,0.0,0.0
49,1778662558.1079125,1.9861996,0.0482635,1.1894436,0.0,0.0,0.0
50,1778662558.1179135,1.9861996,0.0482635,1.1894436,0.0,0.0,0.0
51,1778662558.1279144,1.9861996,0.0482635,1.1894436,0.0,0.0,0.0
52,1778662558.137916,1.9861996,0.0482635,1.1894436,0.0,0.0,0.0
53,1778662558.1479175,1.9861996,0.0482635,1.1894436,0.0,0.0,0.0
54,1778662558.1579182,1.9861996,0.0482635,1.1894436,0.0,0.0,0.0
55,1778662558.1679196,2.076012,0.13807726,1.2402066,0.0,0.0,0.0
56,1778662558.1779206,2.076012,0.13807726,1.2402066,0.0,0.0,0.0
57,1778662558.1879218,2.076012,0.13807726,1.2402066,0.0,0.0,0.0
58,1778662558.1979234,2.076012,0.13807726,1.2402066,0.0,0.0,0.0
59,1778662558.2079244,2.076012,0.13807726,1.2402066,0.0,0.0,0.0
60,1778662558.2179253,2.076012,0.13807726,1.2402066,0.0,0.0,0.0
61,1778662558.2279272,2.076012,0.13807726,1.2402066,0.0,0.0,0.0
62,1778662558.237928,2.076012,0.13807726,1.2402066,0.0,0.0,0.0
63,1778662558.247929,2.076012,0.13807726,1.2402066,0.0,0.0,0.0
64,1778662558.2579298,2.076012,0.13807726,1.2402066,0.0,0.0,0.0
65,1778662558.2679331,2.076012,0.13807726,1.2402066,0.0,0.0,0.0
66,1778662558.277934,2.076012,0.13807726,1.2402066,0.0,0.0,0.0
67,1778662558.2879345,2.076012,0.13807726,1.2402066,0.0,0.0,0.0
68,1778662558.2979362,2.076012,0.13807726,1.2402066,0.0,0.0,0.0
69,1778662558.3079376,2.076012,0.13807726,1.2402066,0.0,0.0,0.0
70,1778662558.31794,2.076012,0.13807726,1.2402066,0.0,0.0,0.0
71,1778662558.3279414,2.1970649,0.23569928,1.2909713,0.0,0.0,0.0
72,1778662558.3379457,2.1970649,0.23569928,1.2909713,0.0,0.0,0.0
73,1778662558.3479478,2.1970649,0.23569928,1.2909713,0.0,0.0,0.0
74,1778662558.3579493,2.1970649,0.23569928,1.2909713,0.0,0.0,0.0
75,1778662558.36795,2.1970649,0.23569928,1.2909713,0.0,0.0,0.0
76,1778662558.3779514,2.1970649,0.23569928,1.2909713,0.0,0.0,0.0
77,1778662558.387954,2.1970649,0.23569928,1.2909713,0.0,0.0,0.0
78,1778662558.3979552,2.1970649,0.23569928,1.2909713,0.0,0.0,0.0
79,1778662558.4079568,2.1970649,0.23569928,1.2909713,0.0,0.0,0.0
80,1778662558.4179585,2.1970649,0.23569928,1.2909713,0.0,0.0,0.0
81,1778662558.4279604,2.1970649,0.23569928,1.2909713,0.0,0.0,0.0
82,1778662558.4379618,2.1970649,0.23569928,1.2909713,0.0,0.0,0.0
83,1778662558.4479628,2.1970649,0.23569928,1.2909713,0.0,0.0,0.0
84,1778662558.4579637,2.1970649,0.23569928,1.2909713,0.0,0.0,0.0
85,1778662558.4679656,2.1970649,0.23569928,1.2909713,0.0,0.0,0.0
86,1778662558.477966,2.1970649,0.23569928,1.2909713,0.0,0.0,0.0
87,1778662558.487967,2.1970649,0.23569928,1.2909713,0.0,0.0,0.0
88,1778662558.4979687,2.3454516,0.3098934,1.3495442,0.0,0.0,0.0
89,1778662558.5079694,2.3454516,0.3098934,1.3495442,0.0,0.0,0.0
90,1778662558.5179698,2.3454516,0.3098934,1.3495442,0.0,0.0,0.0
91,1778662558.5279715,2.3454516,0.3098934,1.3495442,0.0,0.0,0.0
92,1778662558.537973,2.3454516,0.3098934,1.3495442,0.0,0.0,0.0
93,1778662558.5479763,2.3454516,0.3098934,1.3495442,0.0,0.0,0.0
94,1778662558.5579782,2.3454516,0.3098934,1.3495442,0.0,0.0,0.0
95,1778662558.567979,2.3454516,0.3098934,1.3495442,0.0,0.0,0.0
96,1778662558.5779796,2.3454516,0.3098934,1.3495442,0.0,0.0,0.0
97,1778662558.5879805,2.3454516,0.3098934,1.3495442,0.0,0.0,0.0
98,1778662558.5979815,2.3923104,0.5324726,1.2948754,0.0,0.0,0.0
99,1778662558.6079824,2.3923104,0.5324726,1.2948754,0.0,0.0,0.0
100,1778662558.6179836,2.3923104,0.5324726,1.2948754,0.0,0.0,0.0
101,1778662558.6279855,2.3923104,0.5324726,1.2948754,0.0,0.0,0.0
102,1778662558.6379867,2.3923104,0.5324726,1.2948754,0.0,0.0,0.0
103,1778662558.6479871,2.3923104,0.5324726,1.2948754,0.0,0.0,0.0
104,1778662558.6579885,2.3923104,0.5324726,1.2948754,0.0,0.0,0.0
105,1778662558.6679895,2.3923104,0.5324726,1.2948754,0.0,0.0,0.0
106,1778662558.6779912,2.3923104,0.5324726,1.2948754,0.0,0.0,0.0
107,1778662558.6879957,2.2868772,0.59885687,1.173824,0.0,0.0,0.0
108,1778662558.6979969,2.2868772,0.59885687,1.173824,0.0,0.0,0.0
109,1778662558.708,2.2868772,0.59885687,1.173824,0.0,0.0,0.0
110,1778662558.7180014,2.2868772,0.59885687,1.173824,0.0,0.0,0.0
111,1778662558.7280018,2.2868772,0.59885687,1.173824,0.0,0.0,0.0
112,1778662558.7380025,2.2868772,0.59885687,1.173824,0.0,0.0,0.0
113,1778662558.7480042,2.2868772,0.59885687,1.173824,0.0,0.0,0.0
114,1778662558.758005,2.2868772,0.59885687,1.173824,0.0,0.0,0.0
115,1778662558.7680054,2.2868772,0.59885687,1.173824,0.0,0.0,0.0
116,1778662558.7780063,2.2868772,0.59885687,1.173824,0.0,0.0,0.0
117,1778662558.7880082,2.2087789,0.59885687,1.1269649,0.0,0.0,0.0
118,1778662558.7980099,2.064298,0.6300962,1.0332471,0.0,0.0,0.0
119,1778662558.8080106,2.064298,0.6300962,1.0332471,0.0,0.0,0.0
120,1778662558.818012,2.064298,0.6300962,1.0332471,0.0,0.0,0.0
121,1778662558.8280134,2.064298,0.6300962,1.0332471,0.0,0.0,0.0
122,1778662558.838014,2.064298,0.6300962,1.0332471,0.0,0.0,0.0
123,1778662558.8480146,2.064298,0.6300962,1.0332471,0.0,0.0,0.0
124,1778662558.8580165,2.064298,0.6300962,1.0332471,0.0,0.0,0.0
125,1778662558.8680172,2.064298,0.6300962,1.0332471,0.0,0.0,0.0
126,1778662558.8780184,2.064298,0.6300962,1.0332471,0.0,0.0,0.0
127,1778662558.8880188,2.064298,0.6300962,1.0332471,0.0,0.0,0.0
128,1778662558.8980196,2.064298,0.6300962,1.0332471,0.0,0.0,0.0
129,1778662558.9080222,2.064298,0.6300962,1.0332471,0.0,0.0,0.0
130,1778662558.9180236,2.064298,0.6300962,1.0332471,0.0,0.0,0.0
131,1778662558.9280245,2.064298,0.6300962,1.0332471,0.0,0.0,0.0
132,1778662558.9380257,1.9237211,0.65352565,0.912194,0.0,0.0,0.0
133,1778662558.9480264,1.9237211,0.65352565,0.912194,0.0,0.0,0.0
134,1778662558.9580278,1.9237211,0.65352565,0.912194,0.0,0.0,0.0
135,1778662558.9680283,1.9237211,0.65352565,0.912194,0.0,0.0,0.0
136,1778662558.9780304,1.9237211,0.65352565,0.912194,0.0,0.0,0.0
137,1778662558.9880316,1.9237211,0.65352565,0.912194,0.0,0.0,0.0
138,1778662558.9980328,1.9237211,0.65352565,0.912194,0.0,0.0,0.0
139,1778662559.008034,1.9237211,0.65352565,0.912194,0.0,0.0,0.0
140,1778662559.0180364,1.9237211,0.65352565,0.912194,0.0,0.0,0.0
141,1778662559.028039,1.9237211,0.65352565,0.912194,0.0,0.0,0.0
142,1778662559.0380404,1.9237211,0.65352565,0.912194,0.0,0.0,0.0
143,1778662559.048041,1.9237211,0.65352565,0.912194,0.0,0.0,0.0
144,1778662559.0580416,1.9237211,0.65352565,0.912194,0.0,0.0,0.0
145,1778662559.068043,1.9237211,0.65352565,0.912194,0.0,0.0,0.0
146,1778662559.078044,1.9237211,0.65352565,0.912194,0.0,0.0,0.0
147,1778662559.088045,1.9237211,0.65352565,0.912194,0.0,0.0,0.0
148,1778662559.0980468,1.9237211,0.65352565,0.912194,0.0,0.0,0.0
149,1778662559.1080494,1.9237211,0.65352565,0.912194,0.0,0.0,0.0
150,1778662559.1180506,1.9237211,0.65352565,0.912194,0.0,0.0,0.0
151,1778662559.128052,1.8143835,0.64571583,0.779427,0.0,0.0,0.0
152,1778662559.1380534,1.8143835,0.64571583,0.779427,0.0,0.0,0.0
153,1778662559.1480546,1.8143835,0.64571583,0.779427,0.0,0.0,0.0
154,1778662559.1580565,1.8143835,0.64571583,0.779427,0.0,0.0,0.0
155,1778662559.1680577,1.8143835,0.64571583,0.779427,0.0,0.0,0.0
156,1778662559.1780584,1.8143835,0.64571583,0.779427,0.0,0.0,0.0
157,1778662559.1880593,1.8143835,0.64571583,0.779427,0.0,0.0,0.0
158,1778662559.198064,1.8143835,0.64571583,0.779427,0.0,0.0,0.0
159,1778662559.208066,1.8143835,0.64571583,0.779427,0.0,0.0,0.0
160,1778662559.2180667,1.8143835,0.64571583,0.779427,0.0,0.0,0.0
161,1778662559.2280676,1.8143835,0.64571583,0.779427,0.0,0.0,0.0
162,1778662559.238069,1.8143835,0.64571583,0.779427,0.0,0.0,0.0
163,1778662559.24807,1.8143835,0.64571583,0.779427,0.0,0.0,0.0
164,1778662559.258071,1.8143835,0.64571583,0.779427,0.0,0.0,0.0
165,1778662559.2680728,1.8143835,0.64571583,0.779427,0.0,0.0,0.0
166,1778662559.2780747,1.8143835,0.64571583,0.779427,0.0,0.0,0.0
167,1778662559.2880757,1.7792385,0.6418102,0.7169484,0.0,0.0,0.0
168,1778662559.2980764,1.7792385,0.6418102,0.7169484,0.0,0.0,0.0
169,1778662559.3080778,1.7753344,0.64962,0.65837395,0.0,0.0,0.0
170,1778662559.3180788,1.7753344,0.64962,0.65837395,0.0,0.0,0.0
171,1778662559.3280795,1.7753344,0.64962,0.65837395,0.0,0.0,0.0
172,1778662559.3380804,1.7753344,0.64962,0.65837395,0.0,0.0,0.0
173,1778662559.3480842,1.7753344,0.64962,0.65837395,0.0,0.0,0.0
174,1778662559.3580856,1.7753344,0.64962,0.65837395,0.0,0.0,0.0
175,1778662559.368087,1.8104779,0.7042903,0.5802757,0.0,0.0,0.0
176,1778662559.378089,1.8104779,0.7042903,0.5802757,0.0,0.0,0.0
177,1778662559.3880908,1.8104779,0.7042903,0.5802757,0.0,0.0,0.0
178,1778662559.398092,1.8690523,0.75114924,0.5529421,0.0,0.0,0.0
179,1778662559.4080927,1.8690523,0.75114924,0.5529421,0.0,0.0,0.0
180,1778662559.418094,1.8690523,0.75114924,0.5529421,0.0,0.0,0.0
181,1778662559.4280949,1.8690523,0.75114924,0.5529421,0.0,0.0,0.0
182,1778662559.4380958,1.8690523,0.75114924,0.5529421,0.0,0.0,0.0
183,1778662559.448097,1.8690523,0.75114924,0.5529421,0.0,0.0,0.0
184,1778662559.458098,1.8690523,0.75114924,0.5529421,0.0,0.0,0.0
185,1778662559.4680986,1.8690523,0.75114924,0.5529421,0.0,0.0,0.0
186,1778662559.4781003,1.8690523,0.75114924,0.5529421,0.0,0.0,0.0
187,1778662559.4881015,1.8690523,0.75114924,0.5529421,0.0,0.0,0.0
188,1778662559.4981022,1.8690523,0.75114924,0.5529421,0.0,0.0,0.0
189,1778662559.5081048,1.8690523,0.75114924,0.5529421,0.0,0.0,0.0
190,1778662559.5182798,2.076012,0.8917261,0.6154207,0.0,0.0,0.0
191,1778662559.5282803,2.076012,0.8917261,0.6154207,0.0,0.0,0.0
192,1778662559.5382812,2.076012,0.8917261,0.6154207,0.0,0.0,0.0
193,1778662559.5482817,2.076012,0.8917261,0.6154207,0.0,0.0,0.0
194,1778662559.5582829,2.076012,0.8917261,0.6154207,0.0,0.0,0.0
195,1778662559.5682843,2.076012,0.8917261,0.6154207,0.0,0.0,0.0
196,1778662559.578285,2.076012,0.8917261,0.6154207,0.0,0.0,0.0
197,1778662559.5882862,2.076012,0.8917261,0.6154207,0.0,0.0,0.0
198,1778662559.5982866,2.076012,0.8917261,0.6154207,0.0,0.0,0.0
199,1778662559.6082876,2.076012,0.8917261,0.6154207,0.0,0.0,0.0
200,1778662559.618289,2.076012,0.8917261,0.6154207,0.0,0.0,0.0
201,1778662559.6282926,2.076012,0.8917261,0.6154207,0.0,0.0,0.0
202,1778662559.638295,2.076012,0.8917261,0.6154207,0.0,0.0,0.0
203,1778662559.6482966,2.076012,0.8917261,0.6154207,0.0,0.0,0.0
204,1778662559.6582975,2.076012,0.8917261,0.6154207,0.0,0.0,0.0
205,1778662559.6682987,2.076012,0.8917261,0.6154207,0.0,0.0,0.0
206,1778662559.6783006,2.076012,0.8917261,0.6154207,0.0,0.0,0.0
207,1778662559.6883013,2.076012,0.8917261,0.6154207,0.0,0.0,0.0
208,1778662559.6983027,2.076012,0.8917261,0.6154207,0.0,0.0,0.0
209,1778662559.708305,2.076012,0.8917261,0.6154207,0.0,0.0,0.0
210,1778662559.7183065,2.076012,0.8917261,0.6154207,0.0,0.0,0.0
211,1778662559.728309,2.076012,0.8917261,0.6154207,0.0,0.0,0.0
212,1778662559.7383106,2.076012,0.8917261,0.6154207,0.0,0.0,0.0
213,1778662559.7483113,2.076012,0.8917261,0.6154207,0.0,0.0,0.0
214,1778662559.7583117,2.076012,0.8917261,0.6154207,0.0,0.0,0.0
215,1778662559.7683127,2.076012,0.8917261,0.6154207,0.0,0.0,0.0
216,1778662559.7783146,2.076012,0.8917261,0.6154207,0.0,0.0,0.0
217,1778662559.788316,2.076012,0.8917261,0.6154207,0.0,0.0,0.0
218,1778662559.7983165,2.076012,0.8917261,0.6154207,0.0,0.0,0.0
219,1778662559.8083174,2.076012,0.8917261,0.6154207,0.0,0.0,0.0
220,1778662559.8183198,2.2595434,1.3212664,0.92000383,0.0,0.0,0.0
221,1778662559.8283205,2.2595434,1.3212664,0.92000383,0.0,0.0,0.0
222,1778662559.8383212,2.2595434,1.3212664,0.92000383,0.0,0.0,0.0
223,1778662559.8483572,2.2595434,1.3212664,0.92000383,0.0,0.0,0.0
224,1778662559.85836,2.2595434,1.3212664,0.92000383,0.0,0.0,0.0
225,1778662559.8683612,2.2595434,1.3212664,0.92000383,0.0,0.0,0.0
226,1778662559.878362,2.2595434,1.3212664,0.92000383,0.0,0.0,0.0
227,1778662559.8883631,2.2595434,1.3212664,0.92000383,0.0,0.0,0.0
228,1778662559.8983643,2.2595434,1.3212664,0.92000383,0.0,0.0,0.0
229,1778662559.9083648,2.2595434,1.3212664,0.92000383,0.0,0.0,0.0
230,1778662559.9183664,2.2595434,1.3212664,0.92000383,0.0,0.0,0.0
231,1778662559.9283671,2.2595434,1.3212664,0.92000383,0.0,0.0,0.0
232,1778662559.9383678,2.2595434,1.3212664,0.92000383,0.0,0.0,0.0
233,1778662559.9483721,2.2595434,1.3212664,0.92000383,0.0,0.0,0.0
234,1778662559.9583747,2.2595434,1.3212664,0.92000383,0.0,0.0,0.0
235,1778662559.9683764,2.2595434,1.3212664,0.92000383,0.0,0.0,0.0
236,1778662559.9783778,2.2595434,1.3212664,0.92000383,0.0,0.0,0.0
237,1778662559.9883788,2.2595434,1.3212664,0.92000383,0.0,0.0,0.0
238,1778662559.99838,2.2595434,1.3212664,0.92000383,0.0,0.0,0.0
239,1778662560.0083838,2.247828,1.5907061,0.97076845,0.0,0.0,0.0
240,1778662560.0183852,2.247828,1.5907061,0.97076845,0.0,0.0,0.0
241,1778662560.0283873,2.247828,1.5907061,0.97076845,0.0,0.0,0.0
242,1778662560.0383887,2.236114,1.7508068,0.95124316,0.0,0.0,0.0
243,1778662560.0483894,2.236114,1.7508068,0.95124316,0.0,0.0,0.0
244,1778662560.0583918,2.236114,1.7508068,0.95124316,0.0,0.0,0.0
245,1778662560.0683925,2.236114,1.7508068,0.95124316,0.0,0.0,0.0
246,1778662560.0783937,2.236114,1.7508068,0.95124316,0.0,0.0,0.0
247,1778662560.088395,2.236114,1.7508068,0.95124316,0.0,0.0,0.0
248,1778662560.098397,2.236114,1.7508068,0.95124316,0.0,0.0,0.0
249,1778662560.1083992,2.236114,1.7508068,0.95124316,0.0,0.0,0.0
250,1778662560.1184006,2.236114,1.7508068,0.95124316,0.0,0.0,0.0
251,1778662560.1284018,2.236114,1.7508068,0.95124316,0.0,0.0,0.0
252,1778662560.1384025,2.236114,1.7508068,0.95124316,0.0,0.0,0.0
253,1778662560.1484034,2.236114,1.7508068,0.95124316,0.0,0.0,0.0
254,1778662560.1584046,2.236114,1.7508068,0.95124316,0.0,0.0,0.0
255,1778662560.168406,2.236114,1.7508068,0.95124316,0.0,0.0,0.0
256,1778662560.1784067,2.236114,1.7508068,0.95124316,0.0,0.0,0.0
257,1778662560.1884081,2.236114,1.7508068,0.95124316,0.0,0.0,0.0
258,1778662560.1984098,2.236114,1.7508068,0.95124316,0.0,0.0,0.0
259,1778662560.2084112,2.236114,1.7508068,0.95124316,0.0,0.0,0.0
260,1778662560.2184124,2.236114,1.7508068,0.95124316,0.0,0.0,0.0
261,1778662560.2284136,2.236114,1.7508068,0.95124316,0.0,0.0,0.0
262,1778662560.238414,2.236114,1.7508068,0.95124316,0.0,0.0,0.0
263,1778662560.2484164,2.236114,1.7508068,0.95124316,0.0,0.0,0.0
264,1778662560.2584178,2.236114,1.7508068,0.95124316,0.0,0.0,0.0
265,1778662560.2684183,2.236114,1.7508068,0.95124316,0.0,0.0,0.0
266,1778662560.2784193,2.2126846,1.914813,0.9043842,0.0,0.0,0.0
267,1778662560.2884207,2.2126846,1.914813,0.9043842,0.0,0.0,0.0
268,1778662560.298422,2.2126846,1.914813,0.9043842,0.0,0.0,0.0
269,1778662560.308426,2.2126846,1.914813,0.9043842,0.0,0.0,0.0
270,1778662560.3184276,2.2126846,1.914813,0.9043842,0.0,0.0,0.0
271,1778662560.3284307,2.2126846,1.914813,0.9043842,0.0,0.0,0.0
272,1778662560.3384326,2.2126846,1.914813,0.9043842,0.0,0.0,0.0
273,1778662560.3484337,2.2126846,1.914813,0.9043842,0.0,0.0,0.0
274,1778662560.3584363,2.2126846,1.914813,0.9043842,0.0,0.0,0.0
275,1778662560.3684373,2.2126846,1.914813,0.9043842,0.0,0.0,0.0
276,1778662560.3784397,2.2126846,1.914813,0.9043842,0.0,0.0,0.0
277,1778662560.388441,2.2126846,1.914813,0.9043842,0.0,0.0,0.0
278,1778662560.398442,2.2126846,1.914813,0.9043842,0.0,0.0,0.0
279,1778662560.4084442,2.1658256,2.0710096,0.82628596,0.0,0.0,0.0
280,1778662560.4184453,2.1658256,2.0710096,0.82628596,0.0,0.0,0.0
281,1778662560.4284463,2.1658256,2.0710096,0.82628596,0.0,0.0,0.0
282,1778662560.438448,2.1658256,2.0710096,0.82628596,0.0,0.0,0.0
283,1778662560.4484503,2.1658256,2.0710096,0.82628596,0.0,0.0,0.0
284,1778662560.4584513,2.1658256,2.0710096,0.82628596,0.0,0.0,0.0
285,1778662560.4684536,2.1658256,2.0710096,0.82628596,0.0,0.0,0.0
286,1778662560.4784546,2.1658256,2.0710096,0.82628596,0.0,0.0,0.0
287,1778662560.488456,2.1658256,2.0710096,0.82628596,0.0,0.0,0.0
288,1778662560.4984577,2.1658256,2.0710096,0.82628596,0.0,0.0,0.0
289,1778662560.5084589,2.1658256,2.0710096,0.82628596,0.0,0.0,0.0
290,1778662560.5184596,2.1658256,2.0710096,0.82628596,0.0,0.0,0.0
291,1778662560.528461,2.1658256,2.0710096,0.82628596,0.0,0.0,0.0
292,1778662560.5384617,2.1658256,2.0710096,0.82628596,0.0,0.0,0.0
293,1778662560.548464,2.1658256,2.0710096,0.82628596,0.0,0.0,0.0
294,1778662560.5584657,2.1658256,2.0710096,0.82628596,0.0,0.0,0.0
295,1778662560.5684676,2.1658256,2.0710096,0.82628596,0.0,0.0,0.0
296,1778662560.5784688,2.1658256,2.0710096,0.82628596,0.0,0.0,0.0
297,1778662560.5884702,2.1658256,2.0710096,0.82628596,0.0,0.0,0.0
298,1778662560.5984712,2.068202,2.383404,0.59980106,0.0,0.0,0.0
299,1778662560.6084723,2.068202,2.383404,0.59980106,0.0,0.0,0.0
300,1778662560.6184733,2.068202,2.383404,0.59980106,0.0,0.0,0.0
301,1778662560.6284745,2.068202,2.383404,0.59980106,0.0,0.0,0.0
302,1778662560.6384773,2.068202,2.383404,0.59980106,0.0,0.0,0.0
303,1778662560.6484783,2.068202,2.383404,0.59980106,0.0,0.0,0.0
304,1778662560.6584797,2.0447726,2.5552201,0.4592242,0.0,0.0,0.0
305,1778662560.6684804,2.0447726,2.5552201,0.4592242,0.0,0.0,0.0
306,1778662560.6784825,2.0447726,2.5552201,0.4592242,0.0,0.0,0.0
307,1778662560.6884842,2.0447726,2.5552201,0.4592242,0.0,0.0,0.0
308,1778662560.6984847,2.0447726,2.5552201,0.4592242,0.0,0.0,0.0
309,1778662560.7084887,2.0447726,2.5552201,0.4592242,0.0,0.0,0.0
310,1778662560.7184901,2.0447726,2.5552201,0.4592242,0.0,0.0,0.0
311,1778662560.728491,2.0447726,2.5552201,0.4592242,0.0,0.0,0.0
312,1778662560.7384932,2.0408683,2.7192266,0.31474167,0.0,0.0,0.0
313,1778662560.7484946,2.0408683,2.7192266,0.31474167,0.0,0.0,0.0
314,1778662560.7584953,2.0408683,2.7192266,0.31474167,0.0,0.0,0.0
315,1778662560.768497,2.0369627,2.8715174,0.16635501,0.0,0.0,0.0
316,1778662560.7784977,2.0369627,2.8715174,0.16635501,0.0,0.0,0.0
317,1778662560.7884996,2.0369627,2.8715174,0.16635501,0.0,0.0,0.0
318,1778662560.798501,2.0369627,2.8715174,0.16635501,0.0,0.0,0.0
319,1778662560.8085027,2.0369627,2.8715174,0.16635501,0.0,0.0,0.0
320,1778662560.8185036,2.0369627,2.8715174,0.16635501,0.0,0.0,0.0
321,1778662560.8285053,2.0369627,2.8715174,0.16635501,0.0,0.0,0.0
322,1778662560.8385062,2.0369627,2.8715174,0.16635501,0.0,0.0,0.0
323,1778662560.848507,2.0369627,2.8715174,0.16635501,0.0,0.0,0.0
324,1778662560.8585086,2.0369627,2.8715174,0.16635501,0.0,0.0,0.0
325,1778662560.8685098,2.0369627,2.8715174,0.16635501,0.0,0.0,0.0
326,1778662560.8785105,2.0369627,2.8715174,0.16635501,0.0,0.0,0.0
327,1778662560.888513,2.0369627,2.8715174,0.16635501,0.0,0.0,0.0
328,1778662560.8985145,2.0369627,2.8715174,0.16635501,0.0,0.0,0.0
329,1778662560.9085157,2.0369627,2.8715174,0.16635501,0.0,0.0,0.0
330,1778662560.9185169,2.0369627,2.8715174,0.16635501,0.0,0.0,0.0
331,1778662560.9285195,2.0369627,2.8715174,0.16635501,0.0,0.0,0.0
332,1778662560.9385216,2.0369627,2.8715174,0.16635501,0.0,0.0,0.0
333,1778662560.9485228,2.0369627,2.8715174,0.16635501,0.0,0.0,0.0
334,1778662560.9585257,2.0369627,2.8715174,0.16635501,0.0,0.0,0.0
335,1778662560.968527,2.0369627,2.8715174,0.16635501,0.0,0.0,0.0
336,1778662560.978528,2.0369627,2.8715174,0.16635501,0.0,0.0,0.0
337,1778662560.98853,2.0369627,2.8715174,0.16635501,0.0,0.0,0.0
338,1778662560.9985313,2.0369627,2.8715174,0.16635501,0.0,0.0,0.0
339,1778662561.0085323,2.0369627,2.8715174,0.16635501,0.0,0.0,0.0
340,1778662561.0185368,2.0369627,2.8715174,0.16635501,0.0,0.0,0.0
341,1778662561.028539,2.0252488,3.1214333,-0.06403558,0.0,0.0,0.0
342,1778662561.0385408,2.0252488,3.1214333,-0.06403558,0.0,0.0,0.0
343,1778662561.0485427,2.0252488,3.1214333,-0.06403558,0.0,0.0,0.0
344,1778662561.0585432,2.0252488,3.1214333,-0.06403558,0.0,0.0,0.0
345,1778662561.068545,2.0252488,3.1214333,-0.06403558,0.0,0.0,0.0
346,1778662561.0785475,2.0252488,3.1214333,-0.06403558,0.0,0.0,0.0
347,1778662561.0885484,2.0252488,3.1214333,-0.06403558,0.0,0.0,0.0
348,1778662561.0985508,2.0252488,3.1214333,-0.06403558,0.0,0.0,0.0
349,1778662561.1085522,2.0252488,3.1214333,-0.06403558,0.0,0.0,0.0
350,1778662561.118553,2.0252488,3.1214333,-0.06403558,0.0,0.0,0.0
351,1778662561.1285558,2.0252488,3.1214333,-0.06403558,0.0,0.0,0.0
352,1778662561.138557,2.0252488,3.1214333,-0.06403558,0.0,0.0,0.0
353,1778662561.1485596,2.0252488,3.1214333,-0.06403558,0.0,0.0,0.0
354,1778662561.158562,2.0252488,3.1214333,-0.06403558,0.0,0.0,0.0
355,1778662561.1685631,2.0252488,3.1214333,-0.06403558,0.0,0.0,0.0
356,1778662561.1785643,2.0252488,3.1214333,-0.06403558,0.0,0.0,0.0
357,1778662561.1885655,2.0252488,3.1214333,-0.06403558,0.0,0.0,0.0
358,1778662561.1985662,2.0252488,3.1214333,-0.06403558,0.0,0.0,0.0
359,1778662561.208568,2.0252488,3.1214333,-0.06403558,0.0,0.0,0.0
360,1778662561.2185695,2.0252488,3.1214333,-0.06403558,0.0,0.0,0.0
361,1778662561.2285705,2.0252488,3.1214333,-0.06403558,0.0,0.0,0.0
362,1778662561.2385721,2.0252488,3.1214333,-0.06403558,0.0,0.0,0.0
363,1778662561.248573,2.0252488,3.1214333,-0.06403558,0.0,0.0,0.0
364,1778662561.258575,2.0252488,3.1214333,-0.06403558,0.0,0.0,0.0
365,1778662561.2685766,2.0252488,3.1214333,-0.06403558,0.0,0.0,0.0
366,1778662561.278577,2.0252488,3.1214333,-0.06403558,0.0,0.0,0.0
367,1778662561.2885785,2.0252488,3.1214333,-0.06403558,0.0,0.0,0.0
368,1778662561.2985804,2.0252488,3.1214333,-0.06403558,0.0,0.0,0.0
369,1778662561.3085814,2.0252488,3.1214333,-0.06403558,0.0,0.0,0.0
370,1778662561.3185823,2.0252488,3.1214333,-0.06403558,0.0,0.0,0.0
371,1778662561.328583,2.0252488,3.1214333,-0.06403558,0.0,0.0,0.0
372,1778662561.3385844,2.0252488,3.1214333,-0.06403558,0.0,0.0,0.0
373,1778662561.3485854,2.0252488,3.1214333,-0.06403558,0.0,0.0,0.0
374,1778662561.3585865,2.0252488,3.1214333,-0.06403558,0.0,0.0,0.0
375,1778662561.3685882,2.0252488,3.1214333,-0.06403558,0.0,0.0,0.0
376,1778662561.3785892,2.076012,3.45335,-0.18899277,0.0,0.0,0.0
377,1778662561.3885906,2.076012,3.45335,-0.18899277,0.0,0.0,0.0
378,1778662561.3985922,2.076012,3.45335,-0.18899277,0.0,0.0,0.0
379,1778662561.4085934,2.0252488,3.1214333,-0.06403558,0.0,0.0,0.0
380,1778662561.4185944,2.0252488,3.1214333,-0.06403558,0.0,0.0,0.0
381,1778662561.428596,2.0252488,3.1214333,-0.06403558,0.0,0.0,0.0
382,1778662561.4386408,2.0252488,3.1214333,-0.06403558,0.0,0.0,0.0
383,1778662561.4486427,2.0252488,3.1214333,-0.06403558,0.0,0.0,0.0
384,1778662561.4586437,2.0252488,3.1214333,-0.06403558,0.0,0.0,0.0
385,1778662561.4686446,2.0252488,3.1214333,-0.06403558,0.0,0.0,0.0
386,1778662561.4786456,2.0252488,3.1214333,-0.06403558,0.0,0.0,0.0
387,1778662561.488647,1.6269461,3.8633666,-0.15775347,0.0,0.0,0.0
388,1778662561.4986496,1.6269461,3.8633666,-0.15775347,0.0,0.0,0.0
389,1778662561.5086517,1.6269461,3.8633666,-0.15775347,0.0,0.0,0.0
390,1778662561.5186536,1.6269461,3.8633666,-0.15775347,0.0,0.0,0.0
391,1778662561.5286546,1.6269461,3.8633666,-0.15775347,0.0,0.0,0.0
392,1778662561.538655,1.6269461,3.8633666,-0.15775347,0.0,0.0,0.0
393,1778662561.548656,1.6269461,3.8633666,-0.15775347,0.0,0.0,0.0
394,1778662561.558658,1.6269461,3.8633666,-0.15775347,0.0,0.0,0.0
395,1778662561.5686595,1.6269461,3.8633666,-0.15775347,0.0,0.0,0.0
396,1778662561.578661,1.6269461,3.8633666,-0.15775347,0.0,0.0,0.0
397,1778662561.588663,1.2715999,3.8711765,-0.032796286,0.0,0.0,0.0
398,1778662561.598665,1.2715999,3.8711765,-0.032796286,0.0,0.0,0.0
399,1778662561.6086674,1.2715999,3.8711765,-0.032796286,0.0,0.0,0.0
400,1778662561.618669,1.2715999,3.8711765,-0.032796286,0.0,0.0,0.0
401,1778662561.6286733,1.2715999,3.8711765,-0.032796286,0.0,0.0,0.0
402,1778662561.6386757,1.2715999,3.8711765,-0.032796286,0.0,0.0,0.0
403,1778662561.6486773,1.2715999,3.8711765,-0.032796286,0.0,0.0,0.0
404,1778662561.6586778,1.2715999,3.8711765,-0.032796286,0.0,0.0,0.0
405,1778662561.6686795,1.2715999,3.8711765,-0.032796286,0.0,0.0,0.0
406,1778662561.6786819,1.2715999,3.8711765,-0.032796286,0.0,0.0,0.0
407,1778662561.6886828,1.2715999,3.8711765,-0.032796286,0.0,0.0,0.0
408,1778662561.6986842,1.2715999,3.8711765,-0.032796286,0.0,0.0,0.0
409,1778662561.7086866,1.2715999,3.8711765,-0.032796286,0.0,0.0,0.0
410,1778662561.718689,1.2715999,3.8711765,-0.032796286,0.0,0.0,0.0
411,1778662561.72869,1.2715999,3.8711765,-0.032796286,0.0,0.0,0.0
412,1778662561.738692,1.2715999,3.8711765,-0.032796286,0.0,0.0,0.0
413,1778662561.748695,1.2715999,3.8711765,-0.032796286,0.0,0.0,0.0
414,1778662561.7586973,1.2715999,3.8711765,-0.032796286,0.0,0.0,0.0
415,1778662561.7686985,1.2715999,3.8711765,-0.032796286,0.0,0.0,0.0
416,1778662561.7787006,1.2715999,3.8711765,-0.032796286,0.0,0.0,0.0
417,1778662561.788703,1.2715999,3.8711765,-0.032796286,0.0,0.0,0.0
418,1778662561.798704,1.2715999,3.8711765,-0.032796286,0.0,0.0,0.0
419,1778662561.808706,1.2715999,3.8711765,-0.032796286,0.0,0.0,0.0
420,1778662561.8187072,1.2715999,3.8711765,-0.032796286,0.0,0.0,0.0
421,1778662561.8287084,1.2715999,3.8711765,-0.032796286,0.0,0.0,0.0
422,1778662561.8387108,1.2715999,3.8711765,-0.032796286,0.0,0.0,0.0
423,1778662561.8487115,1.2715999,3.8711765,-0.032796286,0.0,0.0,0.0
424,1778662561.858714,1.2715999,3.8711765,-0.032796286,0.0,0.0,0.0
425,1778662561.8687155,1.1075937,3.8399372,0.060923163,0.0,0.0,0.0
426,1778662561.8787162,1.1075937,3.8399372,0.060923163,0.0,0.0,0.0
427,1778662561.8887184,1.1075937,3.8399372,0.060923163,0.0,0.0,0.0
428,1778662561.8987195,1.1075937,3.8399372,0.060923163,0.0,0.0,0.0
429,1778662561.9087205,1.1075937,3.8399372,0.060923163,0.0,0.0,0.0
430,1778662561.9187217,1.1075937,3.8399372,0.060923163,0.0,0.0,0.0
431,1778662561.9287229,1.1075937,3.8399372,0.060923163,0.0,0.0,0.0
432,1778662561.9387238,1.1075937,3.8399372,0.060923163,0.0,0.0,0.0
433,1778662561.948726,1.1075937,3.8399372,0.060923163,0.0,0.0,0.0
434,1778662561.958727,1.1075937,3.8399372,0.060923163,0.0,0.0,0.0
435,1778662561.9687283,1.1075937,3.8399372,0.060923163,0.0,0.0,0.0
436,1778662561.9787297,1.1075937,3.8399372,0.060923163,0.0,0.0,0.0
437,1778662561.9887304,1.1075937,3.8399372,0.060923163,0.0,0.0,0.0
438,1778662561.9987323,1.1075937,3.8399372,0.060923163,0.0,0.0,0.0
439,1778662562.0087333,1.1075937,3.8399372,0.060923163,0.0,0.0,0.0
440,1778662562.018736,0.9826364,3.789174,0.20930983,0.0,0.0,0.0
441,1778662562.028737,0.9826364,3.789174,0.20930983,0.0,0.0,0.0
442,1778662562.0387383,0.9826364,3.789174,0.20930983,0.0,0.0,0.0
443,1778662562.04874,0.9826364,3.789174,0.20930983,0.0,0.0,0.0
444,1778662562.0587425,0.9826364,3.789174,0.20930983,0.0,0.0,0.0
445,1778662562.0687435,0.9826364,3.789174,0.20930983,0.0,0.0,0.0
446,1778662562.0787454,0.9826364,3.789174,0.20930983,0.0,0.0,0.0
447,1778662562.088747,0.9826364,3.789174,0.20930983,0.0,0.0,0.0
448,1778662562.0987484,0.9826364,3.789174,0.20930983,0.0,0.0,0.0
449,1778662562.1087499,0.9826364,3.789174,0.20930983,0.0,0.0,0.0
450,1778662562.1187508,0.9826364,3.789174,0.20930983,0.0,0.0,0.0
451,1778662562.1287522,0.9826364,3.789174,0.20930983,0.0,0.0,0.0
452,1778662562.138754,1.0333995,3.71498,0.97076845,0.0,0.0,0.0
453,1778662562.1487546,1.0333995,3.71498,0.97076845,0.0,0.0,0.0
454,1778662562.1587553,1.0333995,3.71498,0.97076845,0.0,0.0,0.0
455,1778662562.1687567,1.0333995,3.71498,0.97076845,0.0,0.0,0.0
456,1778662562.1787574,1.0333995,3.71498,0.97076845,0.0,0.0,0.0
457,1778662562.1887612,1.0333995,3.71498,0.97076845,0.0,0.0,0.0
458,1778662562.1987715,1.0333995,3.71498,0.97076845,0.0,0.0,0.0
459,1778662562.208773,1.0333995,3.71498,0.97076845,0.0,0.0,0.0
460,1778662562.2187746,1.0333995,3.71498,0.97076845,0.0,0.0,0.0
461,1778662562.2287755,1.0333995,3.71498,0.97076845,0.0,0.0,0.0
462,1778662562.2387779,1.0333995,3.71498,0.97076845,0.0,0.0,0.0
463,1778662562.2487795,1.0333995,3.71498,0.97076845,0.0,0.0,0.0
464,1778662562.2587802,1.0333995,3.71498,0.97076845,0.0,0.0,0.0
465,1778662562.2687821,1.0333995,3.71498,0.97076845,0.0,0.0,0.0
466,1778662562.278783,1.0333995,3.71498,0.97076845,0.0,0.0,0.0
467,1778662562.2887838,1.0333995,3.71498,0.97076845,0.0,0.0,0.0
468,1778662562.2987852,1.1935017,3.7305996,1.3026853,0.0,0.0,0.0
469,1778662562.3087862,1.1935017,3.7305996,1.3026853,0.0,0.0,0.0
470,1778662562.318787,1.1935017,3.7305996,1.3026853,0.0,0.0,0.0
471,1778662562.328789,1.1935017,3.7305996,1.3026853,0.0,0.0,0.0
472,1778662562.3387902,1.1935017,3.7305996,1.3026853,0.0,0.0,0.0
473,1778662562.3487923,1.1935017,3.7305996,1.3026853,0.0,0.0,0.0
474,1778662562.3587935,1.1935017,3.7305996,1.3026853,0.0,0.0,0.0
475,1778662562.3687944,1.1935017,3.7305996,1.3026853,0.0,0.0,0.0
476,1778662562.3787968,1.1935017,3.7305996,1.3026853,0.0,0.0,0.0
477,1778662562.3887982,1.1935017,3.7305996,1.3026853,0.0,0.0,0.0
478,1778662562.3987992,1.1935017,3.7305996,1.3026853,0.0,0.0,0.0
479,1778662562.4088013,1.1935017,3.7305996,1.3026853,0.0,0.0,0.0
480,1778662562.4188023,1.1935017,3.7305996,1.3026853,0.0,0.0,0.0
481,1778662562.428803,1.1935017,3.7305996,1.3026853,0.0,0.0,0.0
482,1778662562.4388068,1.1935017,3.7305996,1.3026853,0.0,0.0,0.0
483,1778662562.4488096,1.1935017,3.7305996,1.3026853,0.0,0.0,0.0
484,1778662562.4588122,1.1935017,3.7305996,1.3026853,0.0,0.0,0.0
485,1778662562.4688141,1.1935017,3.7305996,1.3026853,0.0,0.0,0.0
486,1778662562.478815,1.1935017,3.7305996,1.3026853,0.0,0.0,0.0
487,1778662562.4888158,1.1935017,3.7305996,1.3026853,0.0,0.0,0.0
488,1778662562.4988163,1.1935017,3.7305996,1.3026853,0.0,0.0,0.0
489,1778662562.508818,1.6816164,3.7735543,1.8767081,0.0,0.0,0.0
490,1778662562.5188193,1.6816164,3.7735543,1.8767081,0.0,0.0,0.0
491,1778662562.5288203,1.6816164,3.7735543,1.8767081,0.0,0.0,0.0
492,1778662562.5388224,1.1935017,3.7305996,1.3026853,0.0,0.0,0.0
493,1778662562.5488243,1.1935017,3.7305996,1.3026853,0.0,0.0,0.0
494,1778662562.558825,1.1935017,3.7305996,1.3026853,0.0,0.0,0.0
495,1778662562.5688283,1.1935017,3.7305996,1.3026853,0.0,0.0,0.0
496,1778662562.5788305,3.1928182,3.082384,1.2753516,0.0,0.0,0.0
497,1778662562.5888336,3.1928182,3.082384,1.2753516,0.0,0.0,0.0
498,1778662562.5988348,3.1928182,3.082384,1.2753516,0.0,0.0,0.0
499,1778662562.6088367,3.1928182,3.082384,1.2753516,0.0,0.0,0.0
500,1778662562.6188388,3.1928182,3.082384,1.2753516,0.0,0.0,0.0
501,1778662562.6288397,3.1928182,3.082384,1.2753516,0.0,0.0,0.0
502,1778662562.6388407,3.1928182,3.082384,1.2753516,0.0,0.0,0.0
503,1778662562.648842,3.1928182,3.082384,1.2753516,0.0,0.0,0.0
504,1778662562.658844,3.1928182,3.082384,1.2753516,0.0,0.0,0.0
505,1778662562.6688447,3.1928182,3.082384,1.2753516,0.0,0.0,0.0
506,1778662562.6788473,3.1928182,3.082384,1.2753516,0.0,0.0,0.0
507,1778662562.688849,3.1928182,3.082384,1.2753516,0.0,0.0,0.0
508,1778662562.6988509,3.1928182,3.082384,1.2753516,0.0,0.0,0.0
509,1778662562.7088523,3.1928182,3.082384,1.2753516,0.0,0.0,0.0
510,1778662562.718854,3.1928182,3.082384,1.2753516,0.0,0.0,0.0
511,1778662562.7288551,3.1928182,3.082384,1.2753516,0.0,0.0,0.0
512,1778662562.7388556,3.1928182,3.082384,1.2753516,0.0,0.0,0.0
513,1778662562.7488563,3.1928182,3.082384,1.2753516,0.0,0.0,0.0
514,1778662562.7588582,3.0170965,2.8324683,0.21711965,0.0,0.0,0.0
515,1778662562.7688591,3.0170965,2.8324683,0.21711965,0.0,0.0,0.0
516,1778662562.7788599,3.0170965,2.8324683,0.21711965,0.0,0.0,0.0
517,1778662562.7888622,3.0170965,2.8324683,0.21711965,0.0,0.0,0.0
518,1778662562.7988636,3.0170965,2.8324683,0.21711965,0.0,0.0,0.0
519,1778662562.8088658,3.0170965,2.8324683,0.21711965,0.0,0.0,0.0
520,1778662562.818867,3.0170965,2.8324683,0.21711965,0.0,0.0,0.0
521,1778662562.8288717,3.0170965,2.8324683,0.21711965,0.0,0.0,0.0
522,1778662562.838874,3.0170965,2.8324683,0.21711965,0.0,0.0,0.0
523,1778662562.8488755,3.0170965,2.8324683,0.21711965,0.0,0.0,0.0
524,1778662562.8588762,3.0170965,2.8324683,0.21711965,0.0,0.0,0.0
525,1778662562.8688784,3.0170965,2.8324683,0.21711965,0.0,0.0,0.0
526,1778662562.87888,3.0170965,2.8324683,0.21711965,0.0,0.0,0.0
527,1778662562.8888807,3.0170965,2.8324683,0.21711965,0.0,0.0,0.0
528,1778662562.8988829,3.0170965,2.8324683,0.21711965,0.0,0.0,0.0
529,1778662562.908884,3.0170965,2.8324683,0.21711965,0.0,0.0,0.0
530,1778662562.9188855,3.0170965,2.8324683,0.21711965,0.0,0.0,0.0
531,1778662562.9288871,3.0170965,2.8324683,0.21711965,0.0,0.0,0.0
532,1778662562.9388888,3.0170965,2.8324683,0.21711965,0.0,0.0,0.0
533,1778662562.948891,3.0170965,2.8324683,0.21711965,0.0,0.0,0.0
534,1778662562.9588928,2.763278,2.5317907,0.4553185,0.0,0.0,0.0
535,1778662562.9688938,2.763278,2.5317907,0.4553185,0.0,0.0,0.0
536,1778662562.9788952,2.763278,2.5317907,0.4553185,0.0,0.0,0.0
537,1778662562.9888978,2.763278,2.5317907,0.4553185,0.0,0.0,0.0
538,1778662562.9988987,2.763278,2.5317907,0.4553185,0.0,0.0,0.0
539,1778662563.0089006,2.763278,2.5317907,0.4553185,0.0,0.0,0.0
540,1778662563.0189023,2.763278,2.5317907,0.4553185,0.0,0.0,0.0
541,1778662563.0289032,2.763278,2.5317907,0.4553185,0.0,0.0,0.0
542,1778662563.038905,2.763278,2.5317907,0.4553185,0.0,0.0,0.0
543,1778662563.0489063,2.763278,2.5317907,0.4553185,0.0,0.0,0.0
544,1778662563.0589077,2.763278,2.5317907,0.4553185,0.0,0.0,0.0
545,1778662563.0689101,2.763278,2.5317907,0.4553185,0.0,0.0,0.0
546,1778662563.078911,2.763278,2.5317907,0.4553185,0.0,0.0,0.0
547,1778662563.0889132,2.763278,2.5317907,0.4553185,0.0,0.0,0.0
548,1778662563.0989146,2.763278,2.5317907,0.4553185,0.0,0.0,0.0
549,1778662563.1089158,2.763278,2.5317907,0.4553185,0.0,0.0,0.0
550,1778662563.118918,2.5758421,2.3638787,0.59980106,0.0,0.0,0.0
551,1778662563.1289191,2.5758421,2.3638787,0.59980106,0.0,0.0,0.0
552,1778662563.1389198,2.5758421,2.3638787,0.59980106,0.0,0.0,0.0
553,1778662563.1489224,2.5758421,2.3638787,0.59980106,0.0,0.0,0.0
554,1778662563.1589253,2.5758421,2.3638787,0.59980106,0.0,0.0,0.0
555,1778662563.168927,2.5758421,2.3638787,0.59980106,0.0,0.0,0.0
556,1778662563.1789293,2.5758421,2.3638787,0.59980106,0.0,0.0,0.0
557,1778662563.18893,2.5758421,2.3638787,0.59980106,0.0,0.0,0.0
558,1778662563.1989322,2.0994413,2.04758,0.8848604,0.0,0.0,0.0
559,1778662563.2089334,2.0994413,2.04758,0.8848604,0.0,0.0,0.0
560,1778662563.2189343,2.0994413,2.04758,0.8848604,0.0,0.0,0.0
561,1778662563.2289364,2.0994413,2.04758,0.8848604,0.0,0.0,0.0
562,1778662563.2389371,2.0994413,2.04758,0.8848604,0.0,0.0,0.0
563,1778662563.2489388,2.0994413,2.04758,0.8848604,0.0,0.0,0.0
564,1778662563.258943,1.2715999,0.7355296,1.0957257,0.0,0.0,0.0
565,1778662563.2689438,1.2715999,0.7355296,1.0957257,0.0,0.0,0.0
566,1778662563.2789466,1.2715999,0.7355296,1.0957257,0.0,0.0,0.0
567,1778662563.2889485,1.2715999,0.7355296,1.0957257,0.0,0.0,0.0
568,1778662563.29895,1.2715999,0.7355296,1.0957257,0.0,0.0,0.0
569,1778662563.3089516,1.2715999,0.7355296,1.0957257,0.0,0.0,0.0
570,1778662563.318953,1.2715999,0.7355296,1.0957257,0.0,0.0,0.0
571,1778662563.3289537,1.2715999,0.7355296,1.0957257,0.0,0.0,0.0
572,1778662563.3389559,1.404367,0.5363783,0.8106663,0.0,0.0,0.0
573,1778662563.3489568,1.404367,0.5363783,0.8106663,0.0,0.0,0.0
574,1778662563.3589578,1.404367,0.5363783,0.8106663,0.0,0.0,0.0
575,1778662563.368959,1.404367,0.5363783,0.8106663,0.0,0.0,0.0
576,1778662563.37896,1.404367,0.5363783,0.8106663,0.0,0.0,0.0
577,1778662563.3889625,1.404367,0.5363783,0.8106663,0.0,0.0,0.0
578,1778662563.3989644,1.404367,0.5363783,0.8106663,0.0,0.0,0.0
579,1778662563.408966,1.404367,0.5363783,0.8106663,0.0,0.0,0.0
580,1778662563.4189675,1.404367,0.5363783,0.8106663,0.0,0.0,0.0
581,1778662563.4289684,1.404367,0.5363783,0.8106663,0.0,0.0,0.0
582,1778662563.4389708,1.4317006,0.469994,0.732568,0.0,0.0,0.0
583,1778662563.4489734,1.4317006,0.469994,0.732568,0.0,0.0,0.0
584,1778662563.4589744,1.4317006,0.469994,0.732568,0.0,0.0,0.0
585,1778662563.4689767,1.4317006,0.469994,0.732568,0.0,0.0,0.0
586,1778662563.4789784,1.4317006,0.469994,0.732568,0.0,0.0,0.0
587,1778662563.488979,1.4317006,0.469994,0.732568,0.0,0.0,0.0
588,1778662563.4989812,1.4512259,0.41142112,0.6622796,0.0,0.0,0.0
589,1778662563.508983,1.4512259,0.41142112,0.6622796,0.0,0.0,0.0
590,1778662563.5189834,1.4512259,0.41142112,0.6622796,0.0,0.0,0.0
591,1778662563.528985,1.4512259,0.41142112,0.6622796,0.0,0.0,0.0
592,1778662563.538986,1.4512259,0.41142112,0.6622796,0.0,0.0,0.0
593,1778662563.5489905,1.4512259,0.41142112,0.6622796,0.0,0.0,0.0
594,1778662563.558996,1.4512259,0.41142112,0.6622796,0.0,0.0,0.0
595,1778662563.5689967,1.4512259,0.41142112,0.6622796,0.0,0.0,0.0
596,1778662563.578999,1.4512259,0.41142112,0.6622796,0.0,0.0,0.0
597,1778662563.5890005,1.4512259,0.41142112,0.6622796,0.0,0.0,0.0
598,1778662563.5990012,1.4512259,0.41142112,0.6622796,0.0,0.0,0.0
599,1778662563.609003,1.4512259,0.41142112,0.6622796,0.0,0.0,0.0
600,1778662563.619004,1.4512259,0.41142112,0.6622796,0.0,0.0,0.0
601,1778662563.6290052,1.4512259,0.41142112,0.6622796,0.0,0.0,0.0
602,1778662563.6390078,1.4512259,0.41142112,0.6622796,0.0,0.0,0.0
603,1778662563.649009,1.4512259,0.41142112,0.6622796,0.0,0.0,0.0
604,1778662563.659011,1.4512259,0.41142112,0.6622796,0.0,0.0,0.0
605,1778662563.669013,1.4512259,0.41142112,0.6622796,0.0,0.0,0.0
606,1778662563.679014,1.4512259,0.41142112,0.6622796,0.0,0.0,0.0
607,1778662563.6890156,1.4512259,0.41142112,0.6622796,0.0,0.0,0.0
608,1778662563.6990173,1.4512259,0.41142112,0.6622796,0.0,0.0,0.0
609,1778662563.7090185,1.4512259,0.41142112,0.6622796,0.0,0.0,0.0
610,1778662563.719021,1.4512259,0.41142112,0.6622796,0.0,0.0,0.0
611,1778662563.729022,1.4512259,0.41142112,0.6622796,0.0,0.0,0.0
612,1778662563.7390232,1.4512259,0.41142112,0.6622796,0.0,0.0,0.0
613,1778662563.7490246,1.4473202,0.36456215,0.60370517,0.0,0.0,0.0
614,1778662563.7590268,1.4473202,0.36456215,0.60370517,0.0,0.0,0.0
615,1778662563.7690275,1.4473202,0.36456215,0.60370517,0.0,0.0,0.0
616,1778662563.7790296,1.4473202,0.36456215,0.60370517,0.0,0.0,0.0
617,1778662563.7890303,1.4473202,0.36456215,0.60370517,0.0,0.0,0.0
618,1778662563.7990308,1.4473202,0.36456215,0.60370517,0.0,0.0,0.0
619,1778662563.8090322,1.4473202,0.36456215,0.60370517,0.0,0.0,0.0
620,1778662563.819033,1.4473202,0.36456215,0.60370517,0.0,0.0,0.0
621,1778662563.829034,1.4473202,0.36456215,0.60370517,0.0,0.0,0.0
622,1778662563.839106,1.4473202,0.36456215,0.60370517,0.0,0.0,0.0
623,1778662563.8491073,1.4473202,0.36456215,0.60370517,0.0,0.0,0.0
624,1778662563.8591084,1.4473202,0.36456215,0.60370517,0.0,0.0,0.0
625,1778662563.8691094,1.4473202,0.36456215,0.60370517,0.0,0.0,0.0
626,1778662563.8791115,1.4317006,0.29036805,0.51389295,0.0,0.0,0.0
627,1778662563.889113,1.4317006,0.29036805,0.51389295,0.0,0.0,0.0
628,1778662563.8991137,1.4317006,0.29036805,0.51389295,0.0,0.0,0.0
629,1778662563.9091148,1.4317006,0.29036805,0.51389295,0.0,0.0,0.0
630,1778662563.9191165,1.4317006,0.29036805,0.51389295,0.0,0.0,0.0
631,1778662563.9291172,1.4317006,0.29036805,0.51389295,0.0,0.0,0.0
632,1778662563.9391196,1.4317006,0.29036805,0.51389295,0.0,0.0,0.0
633,1778662563.9491208,1.4317006,0.29036805,0.51389295,0.0,0.0,0.0
634,1778662563.9591222,1.4317006,0.29036805,0.51389295,0.0,0.0,0.0
635,1778662563.9691236,1.4317006,0.29036805,0.51389295,0.0,0.0,0.0
636,1778662563.979125,1.4317006,0.29036805,0.51389295,0.0,0.0,0.0
637,1778662563.989127,1.4317006,0.29036805,0.51389295,0.0,0.0,0.0
638,1778662563.9991295,1.4317006,0.29036805,0.51389295,0.0,0.0,0.0
639,1778662564.0091307,1.4317006,0.29036805,0.51389295,0.0,0.0,0.0
640,1778662564.0191321,1.4317006,0.29036805,0.51389295,0.0,0.0,0.0
641,1778662564.0291336,1.4317006,0.25912875,0.50608313,0.0,0.0,0.0
642,1778662564.0391345,1.4317006,0.25912875,0.50608313,0.0,0.0,0.0
643,1778662564.0491364,1.4317006,0.25912875,0.50608313,0.0,0.0,0.0
644,1778662564.0591373,1.4317006,0.25912875,0.50608313,0.0,0.0,0.0
645,1778662564.0691392,1.4395103,0.23569928,0.5217028,0.0,0.0,0.0
646,1778662564.0791407,1.4395103,0.23569928,0.5217028,0.0,0.0,0.0
647,1778662564.0891416,1.4395103,0.23569928,0.5217028,0.0,0.0,0.0
648,1778662564.0991435,1.4395103,0.23569928,0.5217028,0.0,0.0,0.0
649,1778662564.1091459,1.4395103,0.23569928,0.5217028,0.0,0.0,0.0
650,1778662564.1191466,1.4395103,0.23569928,0.5217028,0.0,0.0,0.0
651,1778662564.1291494,1.4395103,0.23569928,0.5217028,0.0,0.0,0.0
652,1778662564.1391504,1.4395103,0.23569928,0.5217028,0.0,0.0,0.0
653,1778662564.1491513,1.4395103,0.23569928,0.5217028,0.0,0.0,0.0
654,1778662564.1591535,1.4395103,0.23569928,0.5217028,0.0,0.0,0.0
655,1778662564.1691546,1.4395103,0.23569928,0.5217028,0.0,0.0,0.0
656,1778662564.1791558,1.4395103,0.23569928,0.5217028,0.0,0.0,0.0
657,1778662564.1891563,1.4395103,0.23569928,0.5217028,0.0,0.0,0.0
658,1778662564.199157,1.4395103,0.23569928,0.5217028,0.0,0.0,0.0
659,1778662564.2091575,1.4395103,0.23569928,0.5217028,0.0,0.0,0.0
660,1778662564.219159,1.4512259,0.2161755,0.57637155,0.0,0.0,0.0
661,1778662564.2291613,1.4512259,0.2161755,0.57637155,0.0,0.0,0.0
662,1778662564.2391627,1.4512259,0.2161755,0.57637155,0.0,0.0,0.0
663,1778662564.2491639,1.4512259,0.2161755,0.57637155,0.0,0.0,0.0
664,1778662564.2591667,1.4512259,0.2161755,0.57637155,0.0,0.0,0.0
665,1778662564.2691684,1.4512259,0.2161755,0.57637155,0.0,0.0,0.0
666,1778662564.2791696,1.4512259,0.2161755,0.57637155,0.0,0.0,0.0
667,1778662564.2891715,1.4512259,0.2161755,0.57637155,0.0,0.0,0.0
668,1778662564.2991726,1.4512259,0.2161755,0.57637155,0.0,0.0,0.0
669,1778662564.3091733,1.4512259,0.2161755,0.57637155,0.0,0.0,0.0
670,1778662564.319175,1.4512259,0.2161755,0.57637155,0.0,0.0,0.0
671,1778662564.329177,1.4512259,0.2161755,0.57637155,0.0,0.0,0.0
672,1778662564.339178,1.4512259,0.2161755,0.57637155,0.0,0.0,0.0
673,1778662564.3491838,1.4512259,0.2161755,0.57637155,0.0,0.0,0.0
674,1778662564.359186,1.4512259,0.2161755,0.57637155,0.0,0.0,0.0
675,1778662564.369188,1.501989,0.2161755,0.7481877,0.0,0.0,0.0
676,1778662564.3791893,1.501989,0.2161755,0.7481877,0.0,0.0,0.0
677,1778662564.3891902,1.501989,0.2161755,0.7481877,0.0,0.0,0.0
678,1778662564.3991933,1.501989,0.2161755,0.7481877,0.0,0.0,0.0
679,1778662564.4091945,1.501989,0.2161755,0.7481877,0.0,0.0,0.0
680,1778662564.419195,1.501989,0.2161755,0.7481877,0.0,0.0,0.0
681,1778662564.4291968,1.501989,0.2161755,0.7481877,0.0,0.0,0.0
682,1778662564.439198,1.501989,0.2161755,0.7481877,0.0,0.0,0.0
683,1778662564.4491992,1.501989,0.2161755,0.7481877,0.0,0.0,0.0
684,1778662564.4592001,1.501989,0.2161755,0.7481877,0.0,0.0,0.0
685,1778662564.4692025,1.501989,0.2161755,0.7481877,0.0,0.0,0.0
686,1778662564.4792037,1.501989,0.2161755,0.7481877,0.0,0.0,0.0
687,1778662564.489205,1.501989,0.2161755,0.7481877,0.0,0.0,0.0
688,1778662564.4992058,1.501989,0.2161755,0.7481877,0.0,0.0,0.0
689,1778662564.5092072,1.501989,0.2161755,0.7481877,0.0,0.0,0.0
690,1778662564.5192084,1.501989,0.2161755,0.7481877,0.0,0.0,0.0
691,1778662564.5292096,1.501989,0.2161755,0.7481877,0.0,0.0,0.0
692,1778662564.539211,1.5215143,0.22007963,0.8340958,0.0,0.0,0.0
693,1778662564.5492127,1.5215143,0.22007963,0.8340958,0.0,0.0,0.0
694,1778662564.5592139,1.5215143,0.22007963,0.8340958,0.0,0.0,0.0
695,1778662564.569215,1.5215143,0.22007963,0.8340958,0.0,0.0,0.0
696,1778662564.5792158,1.5215143,0.22007963,0.8340958,0.0,0.0,0.0
697,1778662564.589217,1.5215143,0.22007963,0.8340958,0.0,0.0,0.0
698,1778662564.599218,1.5215143,0.22007963,0.8340958,0.0,0.0,0.0
699,1778662564.6092188,1.5215143,0.22007963,0.8340958,0.0,0.0,0.0
700,1778662564.6192195,1.5215143,0.22007963,0.8340958,0.0,0.0,0.0
701,1778662564.6292207,1.5215143,0.22007963,0.8340958,0.0,0.0,0.0
702,1778662564.6392212,1.5215143,0.22007963,0.8340958,0.0,0.0,0.0
703,1778662564.6492229,1.5215143,0.22007963,0.8340958,0.0,0.0,0.0
704,1778662564.659224,1.5215143,0.22007963,0.8340958,0.0,0.0,0.0
705,1778662564.6692247,1.5215143,0.22007963,0.8340958,0.0,0.0,0.0
706,1778662564.6792269,1.5566577,0.22007963,0.912194,0.0,0.0,0.0
707,1778662564.6892283,1.5566577,0.22007963,0.912194,0.0,0.0,0.0
708,1778662564.6992292,1.5566577,0.22007963,0.912194,0.0,0.0,0.0
709,1778662564.7092316,1.5566577,0.22007963,0.912194,0.0,0.0,0.0
710,1778662564.7192326,1.5566577,0.22007963,0.912194,0.0,0.0,0.0
711,1778662564.7292337,1.5566577,0.22007963,0.912194,0.0,0.0,0.0
712,1778662564.7392352,1.5566577,0.22007963,0.912194,0.0,0.0,0.0
713,1778662564.7493086,1.5957068,0.2161755,0.97857827,0.0,0.0,0.0
714,1778662564.75931,1.5957068,0.2161755,0.97857827,0.0,0.0,0.0
715,1778662564.7693138,1.5957068,0.2161755,0.97857827,0.0,0.0,0.0
716,1778662564.779315,1.5957068,0.2161755,0.97857827,0.0,0.0,0.0
717,1778662564.789317,1.6386616,0.21226981,1.0215316,0.0,0.0,0.0
718,1778662564.7993178,1.6386616,0.21226981,1.0215316,0.0,0.0,0.0
719,1778662564.8093195,1.6386616,0.21226981,1.0215316,0.0,0.0,0.0
720,1778662564.8193216,1.6738067,0.22007963,1.0722961,0.0,0.0,0.0
721,1778662564.8293235,1.6738067,0.22007963,1.0722961,0.0,0.0,0.0
722,1778662564.8393245,1.6738067,0.22007963,1.0722961,0.0,0.0,0.0
723,1778662564.8493254,1.6738067,0.22007963,1.0722961,0.0,0.0,0.0
724,1778662564.8593276,1.6738067,0.22007963,1.0722961,0.0,0.0,0.0
725,1778662564.869329,1.6738067,0.22007963,1.0722961,0.0,0.0,0.0
726,1778662564.8793302,1.6738067,0.22007963,1.0722961,0.0,0.0,0.0
727,1778662564.8893309,1.6738067,0.22007963,1.0722961,0.0,0.0,0.0
728,1778662564.8993323,1.70895,0.23960498,1.0371512,0.0,0.0,0.0
729,1778662564.9093335,1.70895,0.23960498,1.0371512,0.0,0.0,0.0
730,1778662564.9193342,1.70895,0.23960498,1.0371512,0.0,0.0,0.0
731,1778662564.9293356,1.70895,0.23960498,1.0371512,0.0,0.0,0.0
732,1778662564.9393368,1.70895,0.23960498,1.0371512,0.0,0.0,0.0
733,1778662564.9493382,1.70895,0.23960498,1.0371512,0.0,0.0,0.0
734,1778662564.9593399,1.70895,0.23960498,1.0371512,0.0,0.0,0.0
735,1778662564.969341,1.70895,0.23960498,1.0371512,0.0,0.0,0.0
736,1778662564.979342,1.70895,0.23960498,1.0371512,0.0,0.0,0.0
737,1778662564.9893436,1.70895,0.23960498,1.0371512,0.0,0.0,0.0
738,1778662564.9993443,1.70895,0.23960498,1.0371512,0.0,0.0,0.0
739,1778662565.009345,1.70895,0.23960498,1.0371512,0.0,0.0,0.0
740,1778662565.0193467,1.70895,0.23960498,1.0371512,0.0,0.0,0.0
741,1778662565.0293477,1.70895,0.23960498,1.0371512,0.0,0.0,0.0
742,1778662565.039349,1.70895,0.23960498,1.0371512,0.0,0.0,0.0
743,1778662565.0493505,1.70895,0.23960498,1.0371512,0.0,0.0,0.0
744,1778662565.0593534,1.70895,0.23960498,1.0371512,0.0,0.0,0.0
745,1778662565.069355,1.70895,0.23960498,1.0371512,0.0,0.0,0.0
746,1778662565.0793564,1.70895,0.23960498,1.0371512,0.0,0.0,0.0
747,1778662565.0893574,1.70895,0.23960498,1.0371512,0.0,0.0,0.0
748,1778662565.099359,1.7479992,0.22007963,0.93562347,0.0,0.0,0.0
749,1778662565.10936,1.7479992,0.22007963,0.93562347,0.0,0.0,0.0
750,1778662565.119361,1.70895,0.23960498,1.0371512,0.0,0.0,0.0
751,1778662565.1293633,1.70895,0.23960498,1.0371512,0.0,0.0,0.0
752,1778662565.139364,1.70895,0.23960498,1.0371512,0.0,0.0,0.0
753,1778662565.1493664,1.70895,0.23960498,1.0371512,0.0,0.0,0.0
754,1778662565.1593688,1.70895,0.23960498,1.0371512,0.0,0.0,0.0
755,1778662565.1693704,1.70895,0.23960498,1.0371512,0.0,0.0,0.0
756,1778662565.1793716,1.70895,0.23960498,1.0371512,0.0,0.0,0.0
757,1778662565.1893723,1.70895,0.23960498,1.0371512,0.0,0.0,0.0
758,1778662565.1993737,1.70895,0.23960498,1.0371512,0.0,0.0,0.0
759,1778662565.2093751,1.70895,0.23960498,1.0371512,0.0,0.0,0.0
760,1778662565.219376,1.70895,0.23960498,1.0371512,0.0,0.0,0.0
761,1778662565.2293787,1.70895,0.23960498,1.0371512,0.0,0.0,0.0
762,1778662565.239381,1.70895,0.23960498,1.0371512,0.0,0.0,0.0
763,1778662565.2493815,1.70895,0.23960498,1.0371512,0.0,0.0,0.0
764,1778662565.2593827,1.70895,0.23960498,1.0371512,0.0,0.0,0.0
765,1778662565.269384,1.70895,0.23960498,1.0371512,0.0,0.0,0.0
766,1778662565.279385,1.70895,0.23960498,1.0371512,0.0,0.0,0.0
767,1778662565.2893856,1.70895,0.23960498,1.0371512,0.0,0.0,0.0
768,1778662565.2993867,1.70895,0.23960498,1.0371512,0.0,0.0,0.0
769,1778662565.3093874,1.70895,0.23960498,1.0371512,0.0,0.0,0.0
770,1778662565.3193889,1.70895,0.23960498,1.0371512,0.0,0.0,0.0
771,1778662565.3293903,1.70895,0.23960498,1.0371512,0.0,0.0,0.0
772,1778662565.3393915,1.70895,0.23960498,1.0371512,0.0,0.0,0.0
773,1778662565.3493924,1.7675246,0.20836568,0.87314487,0.0,0.0,0.0
774,1778662565.3593931,1.7675246,0.20836568,0.87314487,0.0,0.0,0.0
775,1778662565.3693938,1.7675246,0.20836568,0.87314487,0.0,0.0,0.0
776,1778662565.379395,1.7675246,0.20836568,0.87314487,0.0,0.0,0.0
777,1778662565.3893957,1.7675246,0.20836568,0.87314487,0.0,0.0,0.0
778,1778662565.3993983,1.7675246,0.20836568,0.87314487,0.0,0.0,0.0
779,1778662565.4094489,1.8495269,0.23179515,0.6427543,0.0,0.0,0.0
780,1778662565.41945,1.8495269,0.23179515,0.6427543,0.0,0.0,0.0
781,1778662565.4294515,1.8339072,0.11074209,0.7520918,0.0,0.0,0.0
782,1778662565.4394522,1.8339072,0.11074209,0.7520918,0.0,0.0,0.0
783,1778662565.449453,1.8339072,0.11074209,0.7520918,0.0,0.0,0.0
784,1778662565.4594545,1.7675246,0.07169297,0.76771146,0.0,0.0,0.0
785,1778662565.469455,1.7675246,0.07169297,0.76771146,0.0,0.0,0.0
786,1778662565.479456,1.7675246,0.07169297,0.76771146,0.0,0.0,0.0
787,1778662565.4894578,1.7675246,0.07169297,0.76771146,0.0,0.0,0.0
788,1778662565.499459,1.7675246,0.07169297,0.76771146,0.0,0.0,0.0
789,1778662565.5094604,1.7675246,0.07169297,0.76771146,0.0,0.0,0.0
790,1778662565.5194616,1.7675246,0.07169297,0.76771146,0.0,0.0,0.0
791,1778662565.5294626,1.7675246,0.07169297,0.76771146,0.0,0.0,0.0
792,1778662565.5394642,1.7675246,0.07169297,0.76771146,0.0,0.0,0.0
793,1778662565.549465,1.7675246,0.07169297,0.76771146,0.0,0.0,0.0
794,1778662565.559467,0.35394478,-0.8732958,0.6778993,0.0,0.0,0.0
795,1778662565.5694687,0.35394478,-0.8732958,0.6778993,0.0,0.0,0.0
796,1778662565.57947,0.35394478,-0.8732958,0.6778993,0.0,0.0,0.0
797,1778662565.5894713,0.35394478,-0.8732958,0.6778993,0.0,0.0,0.0
798,1778662565.599473,0.35394478,-0.8732958,0.6778993,0.0,0.0,0.0
799,1778662565.6094737,0.35394478,-0.8732958,0.6778993,0.0,0.0,0.0
800,1778662565.619475,0.35394478,-0.8732958,0.6778993,0.0,0.0,0.0
801,1778662565.629476,0.35394478,-0.8732958,0.6778993,0.0,0.0,0.0
802,1778662565.6394775,0.35394478,-0.8732958,0.6778993,0.0,0.0,0.0
803,1778662565.6494794,0.35394478,-0.8732958,0.6778993,0.0,0.0,0.0
804,1778662565.65948,0.35394478,-0.8732958,0.6778993,0.0,0.0,0.0
805,1778662565.6694813,0.35394478,-0.8732958,0.6778993,0.0,0.0,0.0
806,1778662565.679483,0.35394478,-0.8732958,0.6778993,0.0,0.0,0.0
807,1778662565.689484,0.35394478,-0.8732958,0.6778993,0.0,0.0,0.0
808,1778662565.6994846,0.35394478,-0.8732958,0.6778993,0.0,0.0,0.0
809,1778662565.7094865,0.35394478,-0.8732958,0.6778993,0.0,0.0,0.0
810,1778662565.7194874,0.35394478,-0.8732958,0.6778993,0.0,0.0,0.0
811,1778662565.7294884,0.35394478,-0.8732958,0.6778993,0.0,0.0,0.0
812,1778662565.7394893,0.35394478,-0.8732958,0.6778993,0.0,0.0,0.0
813,1778662565.7494922,0.35394478,-0.8732958,0.6778993,0.0,0.0,0.0
814,1778662565.7594938,0.35394478,-0.8732958,0.6778993,0.0,0.0,0.0
815,1778662565.7694976,0.35394478,-0.8732958,0.6778993,0.0,0.0,0.0
816,1778662565.7794988,0.35394478,-0.8732958,0.6778993,0.0,0.0,0.0
817,1778662565.7895005,0.35394478,-0.8732958,0.6778993,0.0,0.0,0.0
818,1778662565.7995014,0.35394478,-0.8732958,0.6778993,0.0,0.0,0.0
819,1778662565.809503,0.010310959,-1.0529233,0.59980106,0.0,0.0,0.0
820,1778662565.819504,-0.16150518,-1.1583551,0.5451323,0.0,0.0,0.0
821,1778662565.8295054,-0.16150518,-1.1583551,0.5451323,0.0,0.0,0.0
822,1778662565.839507,-0.16150518,-1.1583551,0.5451323,0.0,0.0,0.0
823,1778662565.8495088,-0.16150518,-1.1583551,0.5451323,0.0,0.0,0.0
824,1778662565.85951,-0.16150518,-1.1583551,0.5451323,0.0,0.0,0.0
825,1778662565.8695126,-0.16150518,-1.1583551,0.5451323,0.0,0.0,0.0
826,1778662565.8795137,-0.16150518,-1.1583551,0.5451323,0.0,0.0,0.0
827,1778662565.8895156,-0.16150518,-1.1583551,0.5451323,0.0,0.0,0.0
828,1778662565.8995168,-0.16150518,-1.1583551,0.5451323,0.0,0.0,0.0
829,1778662565.9095173,-0.16150518,-1.1583551,0.5451323,0.0,0.0,0.0
830,1778662565.9195187,-0.16150518,-1.1583551,0.5451323,0.0,0.0,0.0
831,1778662565.9295197,-0.16150518,-1.1583551,0.5451323,0.0,0.0,0.0
832,1778662565.9395206,-0.16150518,-1.1583551,0.5451323,0.0,0.0,0.0
833,1778662565.9495223,-0.16150518,-1.1583551,0.5451323,0.0,0.0,0.0
834,1778662565.9595237,-0.16150518,-1.1583551,0.5451323,0.0,0.0,0.0
835,1778662565.9695246,-0.16150518,-1.1583551,0.5451323,0.0,0.0,0.0
836,1778662565.9795263,-0.16150518,-1.1583551,0.5451323,0.0,0.0,0.0
837,1778662565.989527,-0.16150518,-1.1583551,0.5451323,0.0,0.0,0.0
838,1778662565.9995294,-0.16150518,-1.1583551,0.5451323,0.0,0.0,0.0
839,1778662566.009532,-0.16150518,-1.1583551,0.5451323,0.0,0.0,0.0
840,1778662566.0195332,-0.16150518,-1.1583551,0.5451323,0.0,0.0,0.0
841,1778662566.029534,-0.16150518,-1.1583551,0.5451323,0.0,0.0,0.0
842,1778662566.039535,-0.16150518,-1.1583551,0.5451323,0.0,0.0,0.0
843,1778662566.049536,-0.16150518,-1.1583551,0.5451323,0.0,0.0,0.0
844,1778662566.0595374,-0.16150518,-1.1583551,0.5451323,0.0,0.0,0.0
845,1778662566.069538,-0.16150518,-1.1583551,0.5451323,0.0,0.0,0.0
846,1778662566.0795393,-0.16150518,-1.1583551,0.5451323,0.0,0.0,0.0
847,1778662566.0895407,-0.16150518,-1.1583551,0.5451323,0.0,0.0,0.0
848,1778662566.0995414,-0.16150518,-1.1583551,0.5451323,0.0,0.0,0.0
849,1778662566.109543,-0.16150518,-1.1583551,0.5451323,0.0,0.0,0.0
850,1778662566.1195445,-0.34113112,-1.248169,0.46703404,0.0,0.0,0.0
851,1778662566.1295455,-0.34113112,-1.248169,0.46703404,0.0,0.0,0.0
852,1778662566.1395478,-0.34113112,-1.248169,0.46703404,0.0,0.0,0.0
853,1778662566.1495492,-0.34113112,-1.248169,0.46703404,0.0,0.0,0.0
854,1778662566.15955,-0.34113112,-1.248169,0.46703404,0.0,0.0,0.0
855,1778662566.1695516,-0.34113112,-1.248169,0.46703404,0.0,0.0,0.0
856,1778662566.1795523,-0.34113112,-1.248169,0.46703404,0.0,0.0,0.0
857,1778662566.1895537,-0.5207571,-1.3106475,0.37722027,0.0,0.0,0.0
858,1778662566.199555,-0.5207571,-1.3106475,0.37722027,0.0,0.0,0.0
859,1778662566.2095556,-0.5207571,-1.3106475,0.37722027,0.0,0.0,0.0
860,1778662566.2195566,-0.5207571,-1.3106475,0.37722027,0.0,0.0,0.0
861,1778662566.2295618,-0.5207571,-1.3106475,0.37722027,0.0,0.0,0.0
862,1778662566.2395651,-0.5207571,-1.3106475,0.37722027,0.0,0.0,0.0
863,1778662566.249567,-0.79019684,-1.431699,0.1702607,0.0,0.0,0.0
864,1778662566.2595675,-0.79019684,-1.431699,0.1702607,0.0,0.0,0.0
865,1778662566.269569,-0.79019684,-1.431699,0.1702607,0.0,0.0,0.0
866,1778662566.2795706,-0.79019684,-1.431699,0.1702607,0.0,0.0,0.0
867,1778662566.2895718,-0.79019684,-1.431699,0.1702607,0.0,0.0,0.0
868,1778662566.299573,-0.79019684,-1.431699,0.1702607,0.0,0.0,0.0
869,1778662566.3095734,-0.79019684,-1.431699,0.1702607,0.0,0.0,0.0
870,1778662566.3195746,-0.79019684,-1.431699,0.1702607,0.0,0.0,0.0
871,1778662566.3295755,-0.79019684,-1.431699,0.1702607,0.0,0.0,0.0
872,1778662566.3395777,-0.79019684,-1.431699,0.1702607,0.0,0.0,0.0
873,1778662566.349579,-0.79019684,-1.431699,0.1702607,0.0,0.0,0.0
874,1778662566.3595805,-0.79019684,-1.431699,0.1702607,0.0,0.0,0.0
875,1778662566.3695815,-0.79019684,-1.431699,0.1702607,0.0,0.0,0.0
876,1778662566.379584,-0.79019684,-1.431699,0.1702607,0.0,0.0,0.0
877,1778662566.389586,-0.79019684,-1.431699,0.1702607,0.0,0.0,0.0
878,1778662566.3995883,-0.79019684,-1.431699,0.1702607,0.0,0.0,0.0
879,1778662566.40959,-0.79019684,-1.431699,0.1702607,0.0,0.0,0.0
880,1778662566.419592,-0.79019684,-1.431699,0.1702607,0.0,0.0,0.0
881,1778662566.4295926,-0.79019684,-1.431699,0.1702607,0.0,0.0,0.0
882,1778662566.4395933,-0.79019684,-1.431699,0.1702607,0.0,0.0,0.0
883,1778662566.4495943,-0.79019684,-1.431699,0.1702607,0.0,0.0,0.0
884,1778662566.4595954,-0.79019684,-1.431699,0.1702607,0.0,0.0,0.0
885,1778662566.4695973,-0.79019684,-1.431699,0.1702607,0.0,0.0,0.0
886,1778662566.4795983,-0.79019684,-1.431699,0.1702607,0.0,0.0,0.0
887,1778662566.4895995,-0.90734416,-1.7050444,-0.1928969,0.0,0.0,0.0
888,1778662566.499601,-0.90734416,-1.7050444,-0.1928969,0.0,0.0,0.0
889,1778662566.5096014,-0.90734416,-1.7050444,-0.1928969,0.0,0.0,0.0
890,1778662566.519602,-0.90734416,-1.7050444,-0.1928969,0.0,0.0,0.0
891,1778662566.5296035,-0.90734416,-1.7050444,-0.1928969,0.0,0.0,0.0
892,1778662566.539604,-0.90734416,-1.7050444,-0.1928969,0.0,0.0,0.0
893,1778662566.5496054,-0.90734416,-1.7050444,-0.1928969,0.0,0.0,0.0
894,1778662566.5596066,-0.8214361,-1.7675229,-0.2866148,0.0,0.0,0.0
895,1778662566.5696075,-0.8214361,-1.7675229,-0.2866148,0.0,0.0,0.0
896,1778662566.5796082,-0.8214361,-1.7675229,-0.2866148,0.0,0.0,0.0
897,1778662566.58961,-0.8214361,-1.7675229,-0.2866148,0.0,0.0,0.0
898,1778662566.599611,-0.8214361,-1.7675229,-0.2866148,0.0,0.0,0.0
899,1778662566.609612,-0.8214361,-1.7675229,-0.2866148,0.0,0.0,0.0
900,1778662566.6196125,-0.8214361,-1.7675229,-0.2866148,0.0,0.0,0.0
901,1778662566.6296134,-0.8214361,-1.7675229,-0.2866148,0.0,0.0,0.0
902,1778662566.639615,-0.8214361,-1.7675229,-0.2866148,0.0,0.0,0.0
903,1778662566.6496165,-0.8214361,-1.7675229,-0.2866148,0.0,0.0,0.0
904,1778662566.6596181,-0.8214361,-1.7675229,-0.2866148,0.0,0.0,0.0
905,1778662566.6696186,-0.8214361,-1.7675229,-0.2866148,0.0,0.0,0.0
906,1778662566.6796196,-0.8214361,-1.7675229,-0.2866148,0.0,0.0,0.0
907,1778662566.6896214,-0.8214361,-1.7675229,-0.2866148,0.0,0.0,0.0
908,1778662566.6996224,-0.8214361,-1.7675229,-0.2866148,0.0,0.0,0.0
909,1778662566.7096229,-0.8214361,-1.7675229,-0.2866148,0.0,0.0,0.0
910,1778662566.719624,-0.8214361,-1.7675229,-0.2866148,0.0,0.0,0.0
911,1778662566.729625,-0.8214361,-1.7675229,-0.2866148,0.0,0.0,0.0
912,1778662566.7396257,-0.8214361,-1.7675229,-0.2866148,0.0,0.0,0.0
913,1778662566.7496266,-0.8214361,-1.7675229,-0.2866148,0.0,0.0,0.0
914,1778662566.759627,-0.8214361,-1.7675229,-0.2866148,0.0,0.0,0.0
915,1778662566.769628,-0.8214361,-1.7675229,-0.2866148,0.0,0.0,0.0
916,1778662566.7796292,-0.8214361,-1.7675229,-0.2866148,0.0,0.0,0.0
917,1778662566.789631,-0.8214361,-1.7675229,-0.2866148,0.0,0.0,0.0
918,1778662566.7996328,-0.8214361,-1.7675229,-0.2866148,0.0,0.0,0.0
919,1778662566.809634,-0.8214361,-1.7675229,-0.2866148,0.0,0.0,0.0
920,1778662566.8196354,-0.8214361,-1.7675229,-0.2866148,0.0,0.0,0.0
921,1778662566.8296363,-0.8214361,-1.7675229,-0.2866148,0.0,0.0,0.0
922,1778662566.8396375,-0.8214361,-1.7675229,-0.2866148,0.0,0.0,0.0
923,1778662566.849638,-0.8214361,-1.7675229,-0.2866148,0.0,0.0,0.0
924,1778662566.8596396,-0.8214361,-1.7675229,-0.2866148,0.0,0.0,0.0
925,1778662566.8696404,-0.8214361,-1.7675229,-0.2866148,0.0,0.0,0.0
926,1778662566.879642,-0.8214361,-1.7675229,-0.2866148,0.0,0.0,0.0
927,1778662566.889643,-0.8214361,-1.7675229,-0.2866148,0.0,0.0,0.0
928,1778662566.8996449,-0.27474687,-1.9237195,-0.3920482,0.0,0.0,0.0
929,1778662566.909646,-0.27474687,-1.9237195,-0.3920482,0.0,0.0,0.0
930,1778662566.9196467,-0.27474687,-1.9237195,-0.3920482,0.0,0.0,0.0
931,1778662566.929648,-0.27474687,-1.9237195,-0.3920482,0.0,0.0,0.0
932,1778662566.9396493,-0.27474687,-1.9237195,-0.3920482,0.0,0.0,0.0
933,1778662566.949651,-0.27474687,-1.9237195,-0.3920482,0.0,0.0,0.0
934,1778662566.9596527,-0.27474687,-1.9237195,-0.3920482,0.0,0.0,0.0
935,1778662566.9696548,-0.27474687,-1.9237195,-0.3920482,0.0,0.0,0.0
936,1778662566.9796565,-0.27474687,-1.9237195,-0.3920482,0.0,0.0,0.0
937,1778662566.9896576,-0.27474687,-1.9237195,-0.3920482,0.0,0.0,0.0
938,1778662566.9996588,-0.27474687,-1.9237195,-0.3920482,0.0,0.0,0.0
939,1778662567.0096612,-0.27474687,-1.9237195,-0.3920482,0.0,0.0,0.0
940,1778662567.0196629,-0.27474687,-1.9237195,-0.3920482,0.0,0.0,0.0
941,1778662567.0296633,-0.27474687,-1.9237195,-0.3920482,0.0,0.0,0.0
942,1778662567.039665,-0.27474687,-1.9237195,-0.3920482,0.0,0.0,0.0
943,1778662567.049667,-0.27474687,-1.9237195,-0.3920482,0.0,0.0,0.0
944,1778662567.059668,-0.27474687,-1.9237195,-0.3920482,0.0,0.0,0.0
945,1778662567.0696697,-0.27474687,-1.9237195,-0.3920482,0.0,0.0,0.0
946,1778662567.0798678,-0.6183791,-2.704702,-0.63415277,0.0,0.0,0.0
947,1778662567.0898693,-0.6183791,-2.704702,-0.63415277,0.0,0.0,0.0
948,1778662567.0998702,-0.6183791,-2.704702,-0.63415277,0.0,0.0,0.0
949,1778662567.1098707,-0.6183791,-2.704702,-0.63415277,0.0,0.0,0.0
950,1778662567.1198726,-0.6183791,-2.704702,-0.63415277,0.0,0.0,0.0
951,1778662567.129874,-0.6183791,-2.704702,-0.63415277,0.0,0.0,0.0
952,1778662567.1398752,-0.6183791,-2.704702,-0.63415277,0.0,0.0,0.0
953,1778662567.1498766,-0.6183791,-2.704702,-0.63415277,0.0,0.0,0.0
954,1778662567.1598778,-0.7589575,-2.9155672,-0.62634295,0.0,0.0,0.0
955,1778662567.1698785,-0.7589575,-2.9155672,-0.62634295,0.0,0.0,0.0
956,1778662567.1798794,-0.7589575,-2.9155672,-0.62634295,0.0,0.0,0.0
957,1778662567.1898816,-0.9034385,-3.0639539,-0.5951036,0.0,0.0,0.0
958,1778662567.1998827,-0.9034385,-3.0639539,-0.5951036,0.0,0.0,0.0
959,1778662567.2098835,-0.9034385,-3.0639539,-0.5951036,0.0,0.0,0.0
960,1778662567.2198844,-0.9034385,-3.0639539,-0.5951036,0.0,0.0,0.0
961,1778662567.2298863,-0.9034385,-3.0639539,-0.5951036,0.0,0.0,0.0
962,1778662567.2398875,-0.9034385,-3.0639539,-0.5951036,0.0,0.0,0.0
963,1778662567.2498884,-0.9034385,-3.0639539,-0.5951036,0.0,0.0,0.0
964,1778662567.2598908,-0.9034385,-3.0639539,-0.5951036,0.0,0.0,0.0
965,1778662567.269892,-0.9034385,-3.0639539,-0.5951036,0.0,0.0,0.0
966,1778662567.2798932,-0.9034385,-3.0639539,-0.5951036,0.0,0.0,0.0
967,1778662567.2898943,-0.9034385,-3.0639539,-0.5951036,0.0,0.0,0.0
968,1778662567.2998958,-0.9034385,-3.0639539,-0.5951036,0.0,0.0,0.0
969,1778662567.3098962,-0.9034385,-3.0639539,-0.5951036,0.0,0.0,0.0
970,1778662567.3198974,-0.9034385,-3.0639539,-0.5951036,0.0,0.0,0.0
971,1778662567.3298986,-0.9034385,-3.0639539,-0.5951036,0.0,0.0,0.0
972,1778662567.3398995,-0.9034385,-3.0639539,-0.5951036,0.0,0.0,0.0
973,1778662567.3499029,-0.9034385,-3.0639539,-0.5951036,0.0,0.0,0.0
974,1778662567.3599052,-0.9034385,-3.0639539,-0.5951036,0.0,0.0,0.0
975,1778662567.3699067,-0.9034385,-3.0639539,-0.5951036,0.0,0.0,0.0
976,1778662567.3799076,-0.9034385,-3.0639539,-0.5951036,0.0,0.0,0.0
977,1778662567.3899083,-0.9034385,-3.0639539,-0.5951036,0.0,0.0,0.0
978,1778662567.3999093,-0.9034385,-3.0639539,-0.5951036,0.0,0.0,0.0
979,1778662567.4099114,-0.9034385,-3.0639539,-0.5951036,0.0,0.0,0.0
980,1778662567.4199123,-0.9034385,-3.0639539,-0.5951036,0.0,0.0,0.0
981,1778662567.4299147,-0.9034385,-3.0639539,-0.5951036,0.0,0.0,0.0
982,1778662567.4399154,-0.9034385,-3.0639539,-0.5951036,0.0,0.0,0.0
983,1778662567.4499166,-0.9034385,-3.0639539,-0.5951036,0.0,0.0,0.0
984,1778662567.4599175,-1.1143037,-3.1576717,-0.532625,0.0,0.0,0.0
985,1778662567.4699183,-1.1143037,-3.1576717,-0.532625,0.0,0.0,0.0
986,1778662567.4799194,-1.1143037,-3.1576717,-0.532625,0.0,0.0,0.0
987,1778662567.4899209,-1.1143037,-3.1576717,-0.532625,0.0,0.0,0.0
988,1778662567.4999216,-1.1143037,-3.1576717,-0.532625,0.0,0.0,0.0
989,1778662567.5099227,-1.1143037,-3.1576717,-0.532625,0.0,0.0,0.0
990,1778662567.5199242,-1.1143037,-3.1576717,-0.532625,0.0,0.0,0.0
991,1778662567.5299253,-1.1143037,-3.1576717,-0.532625,0.0,0.0,0.0
992,1778662567.539926,-1.1143037,-3.1576717,-0.532625,0.0,0.0,0.0
993,1778662567.549928,-1.1143037,-3.1576717,-0.532625,0.0,0.0,0.0
994,1778662567.5599291,-1.1143037,-3.1576717,-0.532625,0.0,0.0,0.0
995,1778662567.5699306,-1.1143037,-3.1576717,-0.532625,0.0,0.0,0.0
996,1778662567.5799315,-1.1143037,-3.1576717,-0.532625,0.0,0.0,0.0
997,1778662567.5899322,-1.1143037,-3.1576717,-0.532625,0.0,0.0,0.0
998,1778662567.599934,-1.274406,-3.1225283,-0.50138575,0.0,0.0,0.0
999,1778662567.6099346,-1.274406,-3.1225283,-0.50138575,0.0,0.0,0.0
1000,1778662567.6199365,-1.274406,-3.1225283,-0.50138575,0.0,0.0,0.0
