id,timestamp,acc_x,acc_y,acc_z,gyro_x,gyro_y,gyro_z
1,1778658319.0652277,0.06497973,0.005310245,-0.2866148,0.0,0.0,0.0
2,1778658319.0752296,0.06497973,0.005310245,-0.2866148,0.0,0.0,0.0
3,1778658319.0852306,0.06497973,0.005310245,-0.2866148,0.0,0.0,0.0
4,1778658319.0952315,0.06497973,0.005310245,-0.2866148,0.0,0.0,0.0
5,1778658319.1052341,0.029836297,-0.018119227,-0.26318532,0.0,0.0,0.0
6,1778658319.115235,0.029836297,-0.018119227,-0.26318532,0.0,0.0,0.0
7,1778658319.1252365,0.029836297,-0.018119227,-0.26318532,0.0,0.0,0.0
8,1778658319.1352413,0.029836297,-0.018119227,-0.26318532,0.0,0.0,0.0
9,1778658319.1452434,0.029836297,-0.018119227,-0.26318532,0.0,0.0,0.0
10,1778658319.1552448,0.029836297,-0.018119227,-0.26318532,0.0,0.0,0.0
11,1778658319.1652458,0.029836297,-0.018119227,-0.26318532,0.0,0.0,0.0
12,1778658319.1752477,0.029836297,-0.018119227,-0.26318532,0.0,0.0,0.0
13,1778658319.185249,0.029836297,-0.018119227,-0.26318532,0.0,0.0,0.0
14,1778658319.19525,0.029836297,-0.018119227,-0.26318532,0.0,0.0,0.0
15,1778658319.2052522,0.029836297,-0.018119227,-0.26318532,0.0,0.0,0.0
16,1778658319.2152534,0.029836297,-0.018119227,-0.26318532,0.0,0.0,0.0
17,1778658319.2252555,0.029836297,-0.018119227,-0.26318532,0.0,0.0,0.0
18,1778658319.2352567,-0.0014029997,-0.033738878,-0.2553755,0.0,0.0,0.0
19,1778658319.245258,-0.0014029997,-0.033738878,-0.2553755,0.0,0.0,0.0
20,1778658319.2552588,-0.0014029997,-0.033738878,-0.2553755,0.0,0.0,0.0
21,1778658319.2652597,-0.0014029997,-0.033738878,-0.2553755,0.0,0.0,0.0
22,1778658319.2752604,-0.0014029997,-0.033738878,-0.2553755,0.0,0.0,0.0
23,1778658319.2852612,-0.0014029997,-0.033738878,-0.2553755,0.0,0.0,0.0
24,1778658319.2952628,-0.0014029997,-0.033738878,-0.2553755,0.0,0.0,0.0
25,1778658319.3052645,-0.0014029997,-0.033738878,-0.2553755,0.0,0.0,0.0
26,1778658319.315266,-0.0014029997,-0.033738878,-0.2553755,0.0,0.0,0.0
27,1778658319.3252666,-0.0014029997,-0.033738878,-0.2553755,0.0,0.0,0.0
28,1778658319.3352673,-0.0014029997,-0.033738878,-0.2553755,0.0,0.0,0.0
29,1778658319.3452685,0.029836297,-0.018119227,-0.26318532,0.0,0.0,0.0
30,1778658319.3552692,0.029836297,-0.018119227,-0.26318532,0.0,0.0,0.0
31,1778658319.36527,0.029836297,-0.018119227,-0.26318532,0.0,0.0,0.0
32,1778658319.3752708,0.029836297,-0.018119227,-0.26318532,0.0,0.0,0.0
33,1778658319.3852723,0.029836297,-0.018119227,-0.26318532,0.0,0.0,0.0
34,1778658319.3952732,0.029836297,-0.018119227,-0.26318532,0.0,0.0,0.0
35,1778658319.4052742,-0.024832472,-0.080597825,-0.20461242,0.0,0.0,0.0
36,1778658319.4152749,-0.024832472,-0.080597825,-0.20461242,0.0,0.0,0.0
37,1778658319.4252758,-0.024832472,-0.080597825,-0.20461242,0.0,0.0,0.0
38,1778658319.435277,-0.024832472,-0.080597825,-0.20461242,0.0,0.0,0.0
39,1778658319.445278,-0.024832472,-0.080597825,-0.20461242,0.0,0.0,0.0
40,1778658319.4552789,-0.024832472,-0.080597825,-0.20461242,0.0,0.0,0.0
41,1778658319.465281,-0.024832472,-0.080597825,-0.20461242,0.0,0.0,0.0
42,1778658319.4752824,-0.024832472,-0.080597825,-0.20461242,0.0,0.0,0.0
43,1778658319.4852834,-0.03654799,-0.068883866,-0.26318532,0.0,0.0,0.0
44,1778658319.495284,-0.03654799,-0.068883866,-0.26318532,0.0,0.0,0.0
45,1778658319.505285,-0.03654799,-0.068883866,-0.26318532,0.0,0.0,0.0
46,1778658319.5152867,-0.03654799,-0.068883866,-0.26318532,0.0,0.0,0.0
47,1778658319.5252876,-0.03654799,-0.068883866,-0.26318532,0.0,0.0,0.0
48,1778658319.535288,-0.03654799,-0.068883866,-0.26318532,0.0,0.0,0.0
49,1778658319.5452902,-0.03654799,-0.068883866,-0.26318532,0.0,0.0,0.0
50,1778658319.555291,-0.03654799,-0.068883866,-0.26318532,0.0,0.0,0.0
51,1778658319.565292,-0.03654799,-0.068883866,-0.26318532,0.0,0.0,0.0
52,1778658319.5752923,-0.03654799,-0.068883866,-0.26318532,0.0,0.0,0.0
53,1778658319.585294,-0.03654799,-0.068883866,-0.26318532,0.0,0.0,0.0
54,1778658319.5952952,-0.03654799,-0.068883866,-0.26318532,0.0,0.0,0.0
55,1778658319.605296,-0.03654799,-0.068883866,-0.26318532,0.0,0.0,0.0
56,1778658319.6152973,-0.03654799,-0.068883866,-0.26318532,0.0,0.0,0.0
57,1778658319.6252985,-0.017022649,-0.10402885,-0.087465055,0.0,0.0,0.0
58,1778658319.6352994,-0.017022649,-0.10402885,-0.087465055,0.0,0.0,0.0
59,1778658319.6453001,-0.017022649,-0.10402885,-0.087465055,0.0,0.0,0.0
60,1778658319.6553023,-0.017022649,-0.10402885,-0.087465055,0.0,0.0,0.0
61,1778658319.6653037,-0.017022649,-0.10402885,-0.087465055,0.0,0.0,0.0
62,1778658319.675305,-0.017022649,-0.10402885,-0.087465055,0.0,0.0,0.0
63,1778658319.6853056,-0.017022649,-0.10402885,-0.087465055,0.0,0.0,0.0
64,1778658319.6953077,-0.017022649,-0.10402885,-0.087465055,0.0,0.0,0.0
65,1778658319.70531,-0.017022649,-0.10402885,-0.087465055,0.0,0.0,0.0
66,1778658319.7153115,-0.017022649,-0.10402885,-0.087465055,0.0,0.0,0.0
67,1778658319.7253122,-0.017022649,-0.10402885,-0.087465055,0.0,0.0,0.0
68,1778658319.735313,-0.017022649,-0.10402885,-0.087465055,0.0,0.0,0.0
69,1778658319.745314,-0.017022649,-0.10402885,-0.087465055,0.0,0.0,0.0
70,1778658319.7553148,-0.017022649,-0.10402885,-0.087465055,0.0,0.0,0.0
71,1778658319.765316,-0.017022649,-0.10402885,-0.087465055,0.0,0.0,0.0
72,1778658319.7753165,-0.017022649,-0.10402885,-0.087465055,0.0,0.0,0.0
73,1778658319.785317,-0.017022649,-0.10402885,-0.087465055,0.0,0.0,0.0
74,1778658319.7953176,-0.017022649,-0.10402885,-0.087465055,0.0,0.0,0.0
75,1778658319.8053193,-0.017022649,-0.10402885,-0.087465055,0.0,0.0,0.0
76,1778658319.8153217,-0.017022649,-0.10402885,-0.087465055,0.0,0.0,0.0
77,1778658319.8253255,-0.017022649,-0.10402885,-0.087465055,0.0,0.0,0.0
78,1778658319.8353271,-0.017022649,-0.10402885,-0.087465055,0.0,0.0,0.0
79,1778658319.8453279,0.037646122,-0.15479194,0.115591936,0.0,0.0,0.0
80,1778658319.8553288,0.037646122,-0.15479194,0.115591936,0.0,0.0,0.0
81,1778658319.8653297,0.037646122,-0.15479194,0.115591936,0.0,0.0,0.0
82,1778658319.8753302,0.037646122,-0.15479194,0.115591936,0.0,0.0,0.0
83,1778658319.8853328,0.037646122,-0.15479194,0.115591936,0.0,0.0,0.0
84,1778658319.8953345,0.037646122,-0.15479194,0.115591936,0.0,0.0,0.0
85,1778658319.9053357,0.037646122,-0.15479194,0.115591936,0.0,0.0,0.0
86,1778658319.9153376,0.037646122,-0.15479194,0.115591936,0.0,0.0,0.0
87,1778658319.925339,0.037646122,-0.15479194,0.115591936,0.0,0.0,0.0
88,1778658319.9353406,0.037646122,-0.15479194,0.115591936,0.0,0.0,0.0
89,1778658319.9453423,0.037646122,-0.15479194,0.115591936,0.0,0.0,0.0
90,1778658319.9553432,0.037646122,-0.15479194,0.115591936,0.0,0.0,0.0
91,1778658319.9653437,0.037646122,-0.15479194,0.115591936,0.0,0.0,0.0
92,1778658319.9753447,0.037646122,-0.15479194,0.115591936,0.0,0.0,0.0
93,1778658319.985347,0.037646122,-0.15479194,0.115591936,0.0,0.0,0.0
94,1778658319.9953485,0.037646122,-0.15479194,0.115591936,0.0,0.0,0.0
95,1778658320.0053532,0.08450507,-0.20555657,0.2327393,0.0,0.0,0.0
96,1778658320.0153544,0.08450507,-0.20555657,0.2327393,0.0,0.0,0.0
97,1778658320.0253558,0.08450507,-0.20555657,0.2327393,0.0,0.0,0.0
98,1778658320.0353572,0.08450507,-0.20555657,0.2327393,0.0,0.0,0.0
99,1778658320.045358,0.08450507,-0.20555657,0.2327393,0.0,0.0,0.0
100,1778658320.0553596,0.08450507,-0.20555657,0.2327393,0.0,0.0,0.0
101,1778658320.0653603,0.08450507,-0.20555657,0.2327393,0.0,0.0,0.0
102,1778658320.0753613,0.08450507,-0.20555657,0.2327393,0.0,0.0,0.0
103,1778658320.0853624,0.08450507,-0.20555657,0.2327393,0.0,0.0,0.0
104,1778658320.0953634,0.08450507,-0.20555657,0.2327393,0.0,0.0,0.0
105,1778658320.105364,0.08450507,-0.20555657,0.2327393,0.0,0.0,0.0
106,1778658320.1153653,0.08450507,-0.20555657,0.2327393,0.0,0.0,0.0
107,1778658320.1253657,0.08450507,-0.20555657,0.2327393,0.0,0.0,0.0
108,1778658320.135367,0.08450507,-0.20555657,0.2327393,0.0,0.0,0.0
109,1778658320.1453707,0.08450507,-0.20555657,0.2327393,0.0,0.0,0.0
110,1778658320.1553726,0.08450507,-0.20555657,0.2327393,0.0,0.0,0.0
111,1778658320.1653743,0.08450507,-0.20555657,0.2327393,0.0,0.0,0.0
112,1778658320.1753747,0.08450507,-0.20555657,0.2327393,0.0,0.0,0.0
113,1778658320.1853757,0.08450507,-0.20555657,0.2327393,0.0,0.0,0.0
114,1778658320.1953769,0.08450507,-0.20555657,0.2327393,0.0,0.0,0.0
115,1778658320.2053776,0.08450507,-0.20555657,0.2327393,0.0,0.0,0.0
116,1778658320.2153783,0.08450507,-0.20555657,0.2327393,0.0,0.0,0.0
117,1778658320.2253795,0.08450507,-0.20555657,0.2327393,0.0,0.0,0.0
118,1778658320.2353816,0.08450507,-0.20555657,0.2327393,0.0,0.0,0.0
119,1778658320.2453833,0.08450507,-0.20555657,0.2327393,0.0,0.0,0.0
120,1778658320.2553837,0.08450507,-0.20555657,0.2327393,0.0,0.0,0.0
121,1778658320.265385,0.18603279,-0.33051375,0.41236526,0.0,0.0,0.0
122,1778658320.2753854,0.18603279,-0.33051375,0.41236526,0.0,0.0,0.0
123,1778658320.2853866,0.18603279,-0.33051375,0.41236526,0.0,0.0,0.0
124,1778658320.2953877,0.18603279,-0.33051375,0.41236526,0.0,0.0,0.0
125,1778658320.3053887,0.18603279,-0.33051375,0.41236526,0.0,0.0,0.0
126,1778658320.3153896,0.18603279,-0.33051375,0.41236526,0.0,0.0,0.0
127,1778658320.3253903,0.18603279,-0.33051375,0.41236526,0.0,0.0,0.0
128,1778658320.3353908,0.18603279,-0.33051375,0.41236526,0.0,0.0,0.0
129,1778658320.3453934,0.18603279,-0.33051375,0.41236526,0.0,0.0,0.0
130,1778658320.3553948,0.18603279,-0.33051375,0.41236526,0.0,0.0,0.0
131,1778658320.3653955,0.18603279,-0.33051375,0.41236526,0.0,0.0,0.0
132,1778658320.375396,0.18603279,-0.33051375,0.41236526,0.0,0.0,0.0
133,1778658320.3853972,0.18603279,-0.33051375,0.41236526,0.0,0.0,0.0
134,1778658320.395398,0.18603279,-0.33051375,0.41236526,0.0,0.0,0.0
135,1778658320.4053993,0.18603279,-0.33051375,0.41236526,0.0,0.0,0.0
136,1778658320.4154003,0.18603279,-0.33051375,0.41236526,0.0,0.0,0.0
137,1778658320.4254017,0.18603279,-0.33051375,0.41236526,0.0,0.0,0.0
138,1778658320.4354029,0.18603279,-0.33051375,0.41236526,0.0,0.0,0.0
139,1778658320.4454033,0.18603279,-0.33051375,0.41236526,0.0,0.0,0.0
140,1778658320.4554043,0.30318016,-0.49452007,0.6544698,0.0,0.0,0.0
141,1778658320.465405,0.30318016,-0.49452007,0.6544698,0.0,0.0,0.0
142,1778658320.4754052,0.30318016,-0.49452007,0.6544698,0.0,0.0,0.0
143,1778658320.4854062,0.30318016,-0.49452007,0.6544698,0.0,0.0,0.0
144,1778658320.4954066,0.30318016,-0.49452007,0.6544698,0.0,0.0,0.0
145,1778658320.5054076,0.30318016,-0.49452007,0.6544698,0.0,0.0,0.0
146,1778658320.51541,0.30318016,-0.49452007,0.6544698,0.0,0.0,0.0
147,1778658320.5254111,0.30318016,-0.49452007,0.6544698,0.0,0.0,0.0
148,1778658320.535413,0.30318016,-0.49452007,0.6544698,0.0,0.0,0.0
149,1778658320.5454156,0.30318016,-0.49452007,0.6544698,0.0,0.0,0.0
150,1778658320.5554173,0.30318016,-0.49452007,0.6544698,0.0,0.0,0.0
151,1778658320.565418,0.30318016,-0.49452007,0.6544698,0.0,0.0,0.0
152,1778658320.5754187,0.30318016,-0.49452007,0.6544698,0.0,0.0,0.0
153,1778658320.58542,0.30318016,-0.49452007,0.6544698,0.0,0.0,0.0
154,1778658320.5954204,0.30318016,-0.49452007,0.6544698,0.0,0.0,0.0
155,1778658320.6054208,0.30318016,-0.49452007,0.6544698,0.0,0.0,0.0
156,1778658320.6154215,0.30318016,-0.49452007,0.6544698,0.0,0.0,0.0
157,1778658320.6254222,0.30318016,-0.49452007,0.6544698,0.0,0.0,0.0
158,1778658320.6354234,0.30318016,-0.49452007,0.6544698,0.0,0.0,0.0
159,1778658320.6454241,0.30318016,-0.49452007,0.6544698,0.0,0.0,0.0
160,1778658320.6554253,0.30318016,-0.49452007,0.6544698,0.0,0.0,0.0
161,1778658320.6654263,0.30318016,-0.49452007,0.6544698,0.0,0.0,0.0
162,1778658320.6754277,0.30318016,-0.49452007,0.6544698,0.0,0.0,0.0
163,1778658320.685429,0.30318016,-0.49452007,0.6544698,0.0,0.0,0.0
164,1778658320.6954298,0.30318016,-0.49452007,0.6544698,0.0,0.0,0.0
165,1778658320.7054307,0.30318016,-0.49452007,0.6544698,0.0,0.0,0.0
166,1778658320.7154317,0.30318016,-0.49452007,0.6544698,0.0,0.0,0.0
167,1778658320.7254322,0.30318016,-0.49452007,0.6544698,0.0,0.0,0.0
168,1778658320.7354338,0.40080374,-0.7912934,1.3612597,0.0,0.0,0.0
169,1778658320.7454348,0.40080374,-0.7912934,1.3612597,0.0,0.0,0.0
170,1778658320.7554362,0.40080374,-0.7912934,1.3612597,0.0,0.0,0.0
171,1778658320.7654378,0.40080374,-0.7912934,1.3612597,0.0,0.0,0.0
172,1778658320.7754388,0.40080374,-0.7912934,1.3612597,0.0,0.0,0.0
173,1778658320.7854419,0.40080374,-0.7912934,1.3612597,0.0,0.0,0.0
174,1778658320.795444,0.6858615,-1.7519033,-0.68491584,0.0,0.0,0.0
175,1778658320.805445,0.6858615,-1.7519033,-0.68491584,0.0,0.0,0.0
176,1778658320.8154464,0.6858615,-1.7519033,-0.68491584,0.0,0.0,0.0
177,1778658320.8254478,0.86548907,-1.8182861,0.25226307,0.0,0.0,0.0
178,1778658320.8354495,0.86548907,-1.8182861,0.25226307,0.0,0.0,0.0
179,1778658320.8454506,0.86548907,-1.8182861,0.25226307,0.0,0.0,0.0
180,1778658320.8554516,0.86548907,-1.8182861,0.25226307,0.0,0.0,0.0
181,1778658320.865452,0.86548907,-1.8182861,0.25226307,0.0,0.0,0.0
182,1778658320.8754532,0.86548907,-1.8182861,0.25226307,0.0,0.0,0.0
183,1778658320.8854542,0.86548907,-1.8182861,0.25226307,0.0,0.0,0.0
184,1778658320.895455,0.86548907,-1.8182861,0.25226307,0.0,0.0,0.0
185,1778658320.905456,0.5374749,-1.7128543,0.28740805,0.0,0.0,0.0
186,1778658320.9154572,0.5374749,-1.7128543,0.28740805,0.0,0.0,0.0
187,1778658320.925458,0.5374749,-1.7128543,0.28740805,0.0,0.0,0.0
188,1778658320.9354594,0.5374749,-1.7128543,0.28740805,0.0,0.0,0.0
189,1778658320.9454606,0.5374749,-1.7128543,0.28740805,0.0,0.0,0.0
190,1778658320.9554613,0.5374749,-1.7128543,0.28740805,0.0,0.0,0.0
191,1778658320.9654622,0.5374749,-1.7128543,0.28740805,0.0,0.0,0.0
192,1778658320.975463,0.5374749,-1.7128543,0.28740805,0.0,0.0,0.0
193,1778658320.9854639,0.5374749,-1.7128543,0.28740805,0.0,0.0,0.0
194,1778658320.995465,0.5374749,-1.7128543,0.28740805,0.0,0.0,0.0
195,1778658321.0054665,0.5374749,-1.7128543,0.28740805,0.0,0.0,0.0
196,1778658321.015468,0.5374749,-1.7128543,0.28740805,0.0,0.0,0.0
197,1778658321.0254686,0.5374749,-1.7128543,0.28740805,0.0,0.0,0.0
198,1778658321.0354698,0.5374749,-1.7128543,0.28740805,0.0,0.0,0.0
199,1778658321.0454707,0.5374749,-1.7128543,0.28740805,0.0,0.0,0.0
200,1778658321.0554712,0.5374749,-1.7128543,0.28740805,0.0,0.0,0.0
201,1778658321.065474,0.3929939,-1.2442632,0.33817115,0.0,0.0,0.0
202,1778658321.0754757,0.3929939,-1.2442632,0.33817115,0.0,0.0,0.0
203,1778658321.0854762,0.3929939,-1.2442632,0.33817115,0.0,0.0,0.0
204,1778658321.0954773,0.3500391,-1.0997822,0.34598097,0.0,0.0,0.0
205,1778658321.1054788,0.3500391,-1.0997822,0.34598097,0.0,0.0,0.0
206,1778658321.1154797,0.3500391,-1.0997822,0.34598097,0.0,0.0,0.0
207,1778658321.1254811,0.3500391,-1.0997822,0.34598097,0.0,0.0,0.0
208,1778658321.1354818,0.3500391,-1.0997822,0.34598097,0.0,0.0,0.0
209,1778658321.1454825,0.3500391,-1.0997822,0.34598097,0.0,0.0,0.0
210,1778658321.1554842,0.3500391,-1.0997822,0.34598097,0.0,0.0,0.0
211,1778658321.1654854,0.3500391,-1.0997822,0.34598097,0.0,0.0,0.0
212,1778658321.1754868,0.3500391,-1.0997822,0.34598097,0.0,0.0,0.0
213,1778658321.185488,0.3500391,-1.0997822,0.34598097,0.0,0.0,0.0
214,1778658321.1954887,0.3500391,-1.0997822,0.34598097,0.0,0.0,0.0
215,1778658321.2054894,0.3500391,-1.0997822,0.34598097,0.0,0.0,0.0
216,1778658321.21549,0.3500391,-1.0997822,0.34598097,0.0,0.0,0.0
217,1778658321.2254918,0.3500391,-1.0997822,0.34598097,0.0,0.0,0.0
218,1778658321.2354932,0.3500391,-1.0997822,0.34598097,0.0,0.0,0.0
219,1778658321.2454937,0.3500391,-1.0997822,0.34598097,0.0,0.0,0.0
220,1778658321.2554967,0.3500391,-1.0997822,0.34598097,0.0,0.0,0.0
221,1778658321.2654982,0.3500391,-1.0997822,0.34598097,0.0,0.0,0.0
222,1778658321.2754989,0.3500391,-1.0997822,0.34598097,0.0,0.0,0.0
223,1778658321.2855,0.3500391,-1.0997822,0.34598097,0.0,0.0,0.0
224,1778658321.2955012,0.3500391,-1.0997822,0.34598097,0.0,0.0,0.0
225,1778658321.3055022,0.3500391,-1.0997822,0.34598097,0.0,0.0,0.0
226,1778658321.3155031,0.30318016,-0.8732958,0.34988666,0.0,0.0,0.0
227,1778658321.3255038,0.30318016,-0.8732958,0.34988666,0.0,0.0,0.0
228,1778658321.3355055,0.30318016,-0.8732958,0.34988666,0.0,0.0,0.0
229,1778658321.345507,0.30318016,-0.8732958,0.34988666,0.0,0.0,0.0
230,1778658321.3555076,0.30318016,-0.8732958,0.34988666,0.0,0.0,0.0
231,1778658321.3655086,0.30318016,-0.8732958,0.34988666,0.0,0.0,0.0
232,1778658321.3755093,0.30318016,-0.8732958,0.34988666,0.0,0.0,0.0
233,1778658321.3855119,0.30318016,-0.8732958,0.34988666,0.0,0.0,0.0
234,1778658321.3955135,0.30318016,-0.8732958,0.34988666,0.0,0.0,0.0
235,1778658321.405514,0.30318016,-0.8732958,0.34988666,0.0,0.0,0.0
236,1778658321.4155147,0.30318016,-0.8732958,0.34988666,0.0,0.0,0.0
237,1778658321.4255154,0.30318016,-0.8732958,0.34988666,0.0,0.0,0.0
238,1778658321.4355166,0.30318016,-0.8732958,0.34988666,0.0,0.0,0.0
239,1778658321.4455175,0.30318016,-0.8732958,0.34988666,0.0,0.0,0.0
240,1778658321.455519,0.30318016,-0.8732958,0.34988666,0.0,0.0,0.0
241,1778658321.4655201,0.30318016,-0.8732958,0.34988666,0.0,0.0,0.0
242,1778658321.4755208,0.30318016,-0.8732958,0.34988666,0.0,0.0,0.0
243,1778658321.485522,0.30318016,-0.8732958,0.34988666,0.0,0.0,0.0
244,1778658321.495523,0.30318016,-0.8732958,0.34988666,0.0,0.0,0.0
245,1778658321.5055242,0.30318016,-0.8732958,0.34988666,0.0,0.0,0.0
246,1778658321.515525,0.30318016,-0.8732958,0.34988666,0.0,0.0,0.0
247,1778658321.525526,0.30318016,-0.8732958,0.34988666,0.0,0.0,0.0
248,1778658321.5355272,0.20165244,-0.70928943,0.21321397,0.0,0.0,0.0
249,1778658321.5455282,0.20165244,-0.70928943,0.21321397,0.0,0.0,0.0
250,1778658321.555529,0.20165244,-0.70928943,0.21321397,0.0,0.0,0.0
251,1778658321.56553,0.20165244,-0.70928943,0.21321397,0.0,0.0,0.0
252,1778658321.575531,0.20165244,-0.70928943,0.21321397,0.0,0.0,0.0
253,1778658321.5855324,-0.2005543,-0.48280457,-0.06793971,0.0,0.0,0.0
254,1778658321.5955338,-0.2005543,-0.48280457,-0.06793971,0.0,0.0,0.0
255,1778658321.6055348,-0.2005543,-0.48280457,-0.06793971,0.0,0.0,0.0
256,1778658321.6155362,-0.2005543,-0.48280457,-0.06793971,0.0,0.0,0.0
257,1778658321.625537,-0.2005543,-0.48280457,-0.06793971,0.0,0.0,0.0
258,1778658321.6355379,-0.2005543,-0.48280457,-0.06793971,0.0,0.0,0.0
259,1778658321.6455395,-0.43484902,-0.09621747,0.029683866,0.0,0.0,0.0
260,1778658321.6555407,-0.43484902,-0.09621747,0.029683866,0.0,0.0,0.0
261,1778658321.6655421,-0.43484902,-0.09621747,0.029683866,0.0,0.0,0.0
262,1778658321.6755428,-0.43484902,-0.09621747,0.029683866,0.0,0.0,0.0
263,1778658321.6855438,-0.43484902,-0.09621747,0.029683866,0.0,0.0,0.0
264,1778658321.6955452,-0.43484902,-0.09621747,0.029683866,0.0,0.0,0.0
265,1778658321.7055457,-0.43484902,-0.09621747,0.029683866,0.0,0.0,0.0
266,1778658321.7155464,-0.43484902,-0.09621747,0.029683866,0.0,0.0,0.0
267,1778658321.7255468,-0.43484902,-0.09621747,0.029683866,0.0,0.0,0.0
268,1778658321.735548,-0.43484902,-0.09621747,0.029683866,0.0,0.0,0.0
269,1778658321.7455516,-0.43484902,-0.09621747,0.029683866,0.0,0.0,0.0
270,1778658321.7555535,-0.36846474,-0.0024995792,0.025778176,0.0,0.0,0.0
271,1778658321.7655542,-0.36846474,-0.0024995792,0.025778176,0.0,0.0,0.0
272,1778658321.775555,-0.36846474,-0.0024995792,0.025778176,0.0,0.0,0.0
273,1778658321.785556,-0.36846474,-0.0024995792,0.025778176,0.0,0.0,0.0
274,1778658321.7955568,-0.36846474,-0.0024995792,0.025778176,0.0,0.0,0.0
275,1778658321.8055582,-0.25131738,0.19274603,0.029683866,0.0,0.0,0.0
276,1778658321.8155599,-0.25131738,0.19274603,0.029683866,0.0,0.0,0.0
277,1778658321.8255613,-0.25131738,0.19274603,0.029683866,0.0,0.0,0.0
278,1778658321.835563,-0.25131738,0.19274603,0.029683866,0.0,0.0,0.0
279,1778658321.8455644,-0.25131738,0.19274603,0.029683866,0.0,0.0,0.0
280,1778658321.8555653,-0.25131738,0.19274603,0.029683866,0.0,0.0,0.0
281,1778658321.8655663,-0.25131738,0.19274603,0.029683866,0.0,0.0,0.0
282,1778658321.875567,-0.25131738,0.19274603,0.029683866,0.0,0.0,0.0
283,1778658321.8855677,-0.25131738,0.19274603,0.029683866,0.0,0.0,0.0
284,1778658321.895569,-0.25131738,0.19274603,0.029683866,0.0,0.0,0.0
285,1778658321.9055698,-0.25131738,0.19274603,0.029683866,0.0,0.0,0.0
286,1778658321.915571,-0.25131738,0.19274603,0.029683866,0.0,0.0,0.0
287,1778658321.9255724,-0.25131738,0.19274603,0.029683866,0.0,0.0,0.0
288,1778658321.9355733,-0.25131738,0.19274603,0.029683866,0.0,0.0,0.0
289,1778658321.9455748,-0.25131738,0.19274603,0.029683866,0.0,0.0,0.0
290,1778658321.9555764,-0.25131738,0.19274603,0.029683866,0.0,0.0,0.0
291,1778658321.9655771,-0.25131738,0.19274603,0.029683866,0.0,0.0,0.0
292,1778658321.9755778,-0.25131738,0.19274603,0.029683866,0.0,0.0,0.0
293,1778658321.9855783,-0.25131738,0.19274603,0.029683866,0.0,0.0,0.0
294,1778658321.99558,-0.25131738,0.19274603,0.029683866,0.0,0.0,0.0
295,1778658322.0055811,-0.25131738,0.19274603,0.029683866,0.0,0.0,0.0
296,1778658322.0155818,-0.25131738,0.19274603,0.029683866,0.0,0.0,0.0
297,1778658322.0255835,-0.25131738,0.19274603,0.029683866,0.0,0.0,0.0
298,1778658322.0355864,-0.25131738,0.19274603,0.029683866,0.0,0.0,0.0
299,1778658322.0455878,-0.25131738,0.19274603,0.029683866,0.0,0.0,0.0
300,1778658322.0555892,-0.18102896,0.33332285,0.029683866,0.0,0.0,0.0
301,1778658322.0655906,-0.18102896,0.33332285,0.029683866,0.0,0.0,0.0
302,1778658322.0755913,-0.18102896,0.33332285,0.029683866,0.0,0.0,0.0
303,1778658322.0855937,-0.18102896,0.33332285,0.029683866,0.0,0.0,0.0
304,1778658322.0955951,-0.18102896,0.33332285,0.029683866,0.0,0.0,0.0
305,1778658322.1055958,-0.18102896,0.33332285,0.029683866,0.0,0.0,0.0
306,1778658322.115597,-0.14588553,0.19274603,0.014064217,0.0,0.0,0.0
307,1778658322.125598,-0.14588553,0.19274603,0.014064217,0.0,0.0,0.0
308,1778658322.135599,-0.14588553,0.19274603,0.014064217,0.0,0.0,0.0
309,1778658322.1456013,-0.14588553,0.19274603,0.014064217,0.0,0.0,0.0
310,1778658322.155603,-0.14588553,0.19274603,0.014064217,0.0,0.0,0.0
311,1778658322.1656044,-0.14588553,0.19274603,0.014064217,0.0,0.0,0.0
312,1778658322.1756058,-0.14588553,0.19274603,0.014064217,0.0,0.0,0.0
313,1778658322.185607,-0.22007808,0.20445998,-0.009366812,0.0,0.0,0.0
314,1778658322.195608,-0.22007808,0.20445998,-0.009366812,0.0,0.0,0.0
315,1778658322.2056088,-0.22007808,0.20445998,-0.009366812,0.0,0.0,0.0
316,1778658322.2156107,-0.22007808,0.20445998,-0.009366812,0.0,0.0,0.0
317,1778658322.2256117,-0.22007808,0.20445998,-0.009366812,0.0,0.0,0.0
318,1778658322.2356122,-0.22007808,0.20445998,-0.009366812,0.0,0.0,0.0
319,1778658322.2456133,-0.23569773,0.20055585,0.010158527,0.0,0.0,0.0
320,1778658322.255614,-0.23569773,0.20055585,0.010158527,0.0,0.0,0.0
321,1778658322.2656157,-0.23569773,0.20055585,0.010158527,0.0,0.0,0.0
322,1778658322.2756178,-0.23569773,0.20055585,0.010158527,0.0,0.0,0.0
323,1778658322.2856197,-0.23569773,0.20055585,0.010158527,0.0,0.0,0.0
324,1778658322.2956216,-0.23569773,0.20055585,0.010158527,0.0,0.0,0.0
325,1778658322.3056228,-0.23569773,0.20055585,0.010158527,0.0,0.0,0.0
326,1778658322.315624,-0.23569773,0.20055585,0.010158527,0.0,0.0,0.0
327,1778658322.3256252,-0.23569773,0.20055585,0.010158527,0.0,0.0,0.0
328,1778658322.335627,-0.23569773,0.20055585,0.010158527,0.0,0.0,0.0
329,1778658322.345628,-0.23569773,0.20055585,0.010158527,0.0,0.0,0.0
330,1778658322.355629,-0.23569773,0.20055585,0.010158527,0.0,0.0,0.0
331,1778658322.3656294,-0.23569773,0.20055585,0.010158527,0.0,0.0,0.0
332,1778658322.3756301,-0.23569773,0.20055585,0.010158527,0.0,0.0,0.0
333,1778658322.3856316,-0.23569773,0.20055585,0.010158527,0.0,0.0,0.0
334,1778658322.3956323,-0.23569773,0.20055585,0.010158527,0.0,0.0,0.0
335,1778658322.4056334,-0.23569773,0.20055585,0.010158527,0.0,0.0,0.0
336,1778658322.4156346,-0.23569773,0.20055585,0.010158527,0.0,0.0,0.0
337,1778658322.4256353,-0.23569773,0.20055585,0.010158527,0.0,0.0,0.0
338,1778658322.4356363,-0.23569773,0.20055585,0.010158527,0.0,0.0,0.0
339,1778658322.4456375,-0.23569773,0.20055585,0.010158527,0.0,0.0,0.0
340,1778658322.4556386,-0.23569773,0.20055585,0.010158527,0.0,0.0,0.0
341,1778658322.4656396,-0.23569773,0.20055585,0.010158527,0.0,0.0,0.0
342,1778658322.4756405,-0.23569773,0.20055585,0.010158527,0.0,0.0,0.0
343,1778658322.4856412,-0.23569773,0.20055585,0.010158527,0.0,0.0,0.0
344,1778658322.4956427,-0.23569773,0.20055585,0.010158527,0.0,0.0,0.0
345,1778658322.5056436,-0.23569773,0.20055585,0.010158527,0.0,0.0,0.0
346,1778658322.5156438,-0.23569773,0.20055585,0.010158527,0.0,0.0,0.0
347,1778658322.525645,-0.21617395,0.19665016,-0.005461122,0.0,0.0,0.0
348,1778658322.5356457,-0.21617395,0.19665016,-0.005461122,0.0,0.0,0.0
349,1778658322.545647,-0.21617395,0.19665016,-0.005461122,0.0,0.0,0.0
350,1778658322.5556483,-0.21617395,0.19665016,-0.005461122,0.0,0.0,0.0
351,1778658322.5656495,-0.21617395,0.19665016,-0.005461122,0.0,0.0,0.0
352,1778658322.575651,-0.21617395,0.19665016,-0.005461122,0.0,0.0,0.0
353,1778658322.5856555,-0.21617395,0.19665016,-0.005461122,0.0,0.0,0.0
354,1778658322.5956583,-0.21617395,0.19665016,-0.005461122,0.0,0.0,0.0
355,1778658322.6056595,-0.21617395,0.19665016,-0.005461122,0.0,0.0,0.0
356,1778658322.61566,-0.21617395,0.19665016,-0.005461122,0.0,0.0,0.0
357,1778658322.6256611,-0.20836413,0.20055585,0.006254392,0.0,0.0,0.0
358,1778658322.6356616,-0.20836413,0.20055585,0.006254392,0.0,0.0,0.0
359,1778658322.6456625,-0.20836413,0.20055585,0.006254392,0.0,0.0,0.0
360,1778658322.655664,-0.20836413,0.20055585,0.006254392,0.0,0.0,0.0
361,1778658322.6656647,-0.20836413,0.20055585,0.006254392,0.0,0.0,0.0
362,1778658322.675666,-0.20836413,0.20055585,0.006254392,0.0,0.0,0.0
363,1778658322.685667,-0.20836413,0.20055585,0.006254392,0.0,0.0,0.0
364,1778658322.6956675,-0.20836413,0.20055585,0.006254392,0.0,0.0,0.0
365,1778658322.705669,-0.20836413,0.20055585,0.006254392,0.0,0.0,0.0
366,1778658322.7156703,-0.20836413,0.20055585,0.006254392,0.0,0.0,0.0
367,1778658322.7256708,-0.20836413,0.20055585,0.006254392,0.0,0.0,0.0
368,1778658322.735672,-0.20836413,0.20055585,0.006254392,0.0,0.0,0.0
369,1778658322.745673,-0.20836413,0.20055585,0.006254392,0.0,0.0,0.0
370,1778658322.755674,-0.20836413,0.20055585,0.006254392,0.0,0.0,0.0
371,1778658322.765675,-0.20836413,0.20055585,0.006254392,0.0,0.0,0.0
372,1778658322.7756765,-0.20836413,0.20055585,0.006254392,0.0,0.0,0.0
373,1778658322.785678,-0.18883878,0.31379753,0.02187404,0.0,0.0,0.0
374,1778658322.79568,-0.18883878,0.31379753,0.02187404,0.0,0.0,0.0
375,1778658322.805681,-0.18883878,0.31379753,0.02187404,0.0,0.0,0.0
376,1778658322.8156824,-0.20836413,0.20055585,0.006254392,0.0,0.0,0.0
377,1778658322.8256836,-0.20836413,0.20055585,0.006254392,0.0,0.0,0.0
378,1778658322.8356845,-0.20836413,0.20055585,0.006254392,0.0,0.0,0.0
379,1778658322.8456857,-0.20836413,0.20055585,0.006254392,0.0,0.0,0.0
380,1778658322.8556864,-0.20836413,0.20055585,0.006254392,0.0,0.0,0.0
381,1778658322.8656874,-0.20836413,0.20055585,0.006254392,0.0,0.0,0.0
382,1778658322.8756895,-0.20836413,0.20055585,0.006254392,0.0,0.0,0.0
383,1778658322.8856912,-0.20836413,0.20055585,0.006254392,0.0,0.0,0.0
384,1778658322.8956919,-0.20836413,0.20055585,0.006254392,0.0,0.0,0.0
385,1778658322.9056945,-0.16150518,0.337227,0.041397825,0.0,0.0,0.0
386,1778658322.9156954,-0.16150518,0.337227,0.041397825,0.0,0.0,0.0
387,1778658322.925697,-0.16150518,0.337227,0.041397825,0.0,0.0,0.0
388,1778658322.935698,-0.16150518,0.337227,0.041397825,0.0,0.0,0.0
389,1778658322.9456992,-0.16150518,0.337227,0.041397825,0.0,0.0,0.0
390,1778658322.9557018,-0.16150518,0.337227,0.041397825,0.0,0.0,0.0
391,1778658322.9657032,-0.16150518,0.337227,0.041397825,0.0,0.0,0.0
392,1778658322.9757044,-0.16150518,0.337227,0.041397825,0.0,0.0,0.0
393,1778658322.9857066,-0.16150518,0.337227,0.041397825,0.0,0.0,0.0
394,1778658322.9957082,-0.16150518,0.337227,0.041397825,0.0,0.0,0.0
395,1778658323.0057096,-0.16150518,0.337227,0.041397825,0.0,0.0,0.0
396,1778658323.015712,-0.16150518,0.337227,0.041397825,0.0,0.0,0.0
397,1778658323.025713,-0.16150518,0.337227,0.041397825,0.0,0.0,0.0
398,1778658323.0357146,-0.16150518,0.337227,0.041397825,0.0,0.0,0.0
399,1778658323.0457156,-0.16150518,0.337227,0.041397825,0.0,0.0,0.0
400,1778658323.0557172,-0.16150518,0.337227,0.041397825,0.0,0.0,0.0
401,1778658323.065721,-0.16150518,0.337227,0.041397825,0.0,0.0,0.0
402,1778658323.0757225,-0.16150518,0.337227,0.041397825,0.0,0.0,0.0
403,1778658323.0857239,-0.16150518,0.337227,0.041397825,0.0,0.0,0.0
404,1778658323.0957246,-0.16150518,0.337227,0.041397825,0.0,0.0,0.0
405,1778658323.1057253,-0.16150518,0.337227,0.041397825,0.0,0.0,0.0
406,1778658323.1157267,-0.16150518,0.337227,0.041397825,0.0,0.0,0.0
407,1778658323.1257274,-0.16150518,0.337227,0.041397825,0.0,0.0,0.0
408,1778658323.1357281,-0.16150518,0.337227,0.041397825,0.0,0.0,0.0
409,1778658323.1457295,-0.16150518,0.337227,0.041397825,0.0,0.0,0.0
410,1778658323.1557302,-0.16150518,0.337227,0.041397825,0.0,0.0,0.0
411,1778658323.1657314,-0.16150518,0.337227,0.041397825,0.0,0.0,0.0
412,1778658323.1757333,-0.16150518,0.337227,0.041397825,0.0,0.0,0.0
413,1778658323.1857345,-0.16150518,0.337227,0.041397825,0.0,0.0,0.0
414,1778658323.195735,-0.16150518,0.337227,0.041397825,0.0,0.0,0.0
415,1778658323.2057362,-0.16150518,0.337227,0.041397825,0.0,0.0,0.0
416,1778658323.215737,-0.16150518,0.337227,0.041397825,0.0,0.0,0.0
417,1778658323.2257376,-0.16150518,0.337227,0.041397825,0.0,0.0,0.0
418,1778658323.2357383,-0.16150518,0.337227,0.041397825,0.0,0.0,0.0
419,1778658323.245739,-0.16150518,0.337227,0.041397825,0.0,0.0,0.0
420,1778658323.2557406,-0.16150518,0.337227,0.041397825,0.0,0.0,0.0
421,1778658323.2657418,0.010310959,0.25131893,0.1273059,0.0,0.0,0.0
422,1778658323.2757432,0.010310959,0.25131893,0.1273059,0.0,0.0,0.0
423,1778658323.2857442,0.010310959,0.25131893,0.1273059,0.0,0.0,0.0
424,1778658323.2957451,0.010310959,0.25131893,0.1273059,0.0,0.0,0.0
425,1778658323.3057468,0.010310959,0.25131893,0.1273059,0.0,0.0,0.0
426,1778658323.3157482,0.166509,0.059979014,0.20930983,0.0,0.0,0.0
427,1778658323.325749,0.166509,0.059979014,0.20930983,0.0,0.0,0.0
428,1778658323.3357499,0.166509,0.059979014,0.20930983,0.0,0.0,0.0
429,1778658323.3457518,0.166509,0.059979014,0.20930983,0.0,0.0,0.0
430,1778658323.3557532,0.166509,0.059979014,0.20930983,0.0,0.0,0.0
431,1778658323.365754,0.166509,0.059979014,0.20930983,0.0,0.0,0.0
432,1778658323.3757548,0.166509,0.059979014,0.20930983,0.0,0.0,0.0
433,1778658323.3857567,0.166509,0.059979014,0.20930983,0.0,0.0,0.0
434,1778658323.3957584,0.166509,0.059979014,0.20930983,0.0,0.0,0.0
435,1778658323.4057596,0.166509,0.059979014,0.20930983,0.0,0.0,0.0
436,1778658323.4157608,0.166509,0.059979014,0.20930983,0.0,0.0,0.0
437,1778658323.425763,0.166509,0.059979014,0.20930983,0.0,0.0,0.0
438,1778658323.4357636,0.166509,0.059979014,0.20930983,0.0,0.0,0.0
439,1778658323.4457645,0.166509,0.059979014,0.20930983,0.0,0.0,0.0
440,1778658323.4557655,0.166509,0.059979014,0.20930983,0.0,0.0,0.0
441,1778658323.4657667,0.166509,0.059979014,0.20930983,0.0,0.0,0.0
442,1778658323.4757683,0.166509,0.059979014,0.20930983,0.0,0.0,0.0
443,1778658323.4857693,0.166509,0.059979014,0.20930983,0.0,0.0,0.0
444,1778658323.4957705,0.166509,0.059979014,0.20930983,0.0,0.0,0.0
445,1778658323.5057733,0.166509,0.059979014,0.20930983,0.0,0.0,0.0
446,1778658323.5157747,0.166509,0.059979014,0.20930983,0.0,0.0,0.0
447,1778658323.5257757,0.166509,0.059979014,0.20930983,0.0,0.0,0.0
448,1778658323.535778,0.166509,0.059979014,0.20930983,0.0,0.0,0.0
449,1778658323.5457795,0.166509,0.059979014,0.20930983,0.0,0.0,0.0
450,1778658323.5557816,0.166509,0.059979014,0.20930983,0.0,0.0,0.0
451,1778658323.5657837,0.166509,0.059979014,0.20930983,0.0,0.0,0.0
452,1778658323.575785,0.166509,0.059979014,0.20930983,0.0,0.0,0.0
453,1778658323.5857885,0.166509,0.059979014,0.20930983,0.0,0.0,0.0
454,1778658323.5957923,0.166509,0.059979014,0.20930983,0.0,0.0,0.0
455,1778658323.6057959,0.166509,0.059979014,0.20930983,0.0,0.0,0.0
456,1778658323.6157982,0.166509,0.059979014,0.20930983,0.0,0.0,0.0
457,1778658323.625803,0.166509,0.059979014,0.20930983,0.0,0.0,0.0
458,1778658323.6358058,0.166509,0.059979014,0.20930983,0.0,0.0,0.0
459,1778658323.6458073,0.166509,0.059979014,0.20930983,0.0,0.0,0.0
460,1778658323.655808,0.166509,0.059979014,0.20930983,0.0,0.0,0.0
461,1778658323.6658096,0.166509,0.059979014,0.20930983,0.0,0.0,0.0
462,1778658323.6758106,0.166509,0.059979014,0.20930983,0.0,0.0,0.0
463,1778658323.6858115,0.166509,0.059979014,0.20930983,0.0,0.0,0.0
464,1778658323.6958134,0.27584654,-0.123552635,0.21321397,0.0,0.0,0.0
465,1778658323.705815,0.27584654,-0.123552635,0.21321397,0.0,0.0,0.0
466,1778658323.7158177,0.27584654,-0.123552635,0.21321397,0.0,0.0,0.0
467,1778658323.7258186,0.27584654,-0.123552635,0.21321397,0.0,0.0,0.0
468,1778658323.7358193,0.27584654,-0.123552635,0.21321397,0.0,0.0,0.0
469,1778658323.7458212,0.27584654,-0.123552635,0.21321397,0.0,0.0,0.0
470,1778658323.7558222,0.27584654,-0.123552635,0.21321397,0.0,0.0,0.0
471,1778658323.765823,0.27584654,-0.123552635,0.21321397,0.0,0.0,0.0
472,1778658323.7758238,0.27584654,-0.123552635,0.21321397,0.0,0.0,0.0
473,1778658323.7858248,0.27584654,-0.123552635,0.21321397,0.0,0.0,0.0
474,1778658323.7958255,0.27584654,-0.123552635,0.21321397,0.0,0.0,0.0
475,1778658323.8058271,0.27584654,-0.26412946,0.11949607,0.0,0.0,0.0
476,1778658323.8158283,0.27584654,-0.26412946,0.11949607,0.0,0.0,0.0
477,1778658323.8258312,0.27584654,-0.26412946,0.11949607,0.0,0.0,0.0
478,1778658323.8358333,0.27584654,-0.26412946,0.11949607,0.0,0.0,0.0
479,1778658323.8458345,0.27584654,-0.26412946,0.11949607,0.0,0.0,0.0
480,1778658323.8558354,0.27584654,-0.26412946,0.11949607,0.0,0.0,0.0
481,1778658323.8658373,0.27584654,-0.26412946,0.11949607,0.0,0.0,0.0
482,1778658323.875838,0.27584654,-0.26412946,0.11949607,0.0,0.0,0.0
483,1778658323.8858395,0.27584654,-0.26412946,0.11949607,0.0,0.0,0.0
484,1778658323.8958411,0.27584654,-0.26412946,0.11949607,0.0,0.0,0.0
485,1778658323.905842,0.27584654,-0.26412946,0.11949607,0.0,0.0,0.0
486,1778658323.915843,0.27584654,-0.26412946,0.11949607,0.0,0.0,0.0
487,1778658323.9258437,0.27584654,-0.26412946,0.11949607,0.0,0.0,0.0
488,1778658323.9358466,0.27584654,-0.26412946,0.11949607,0.0,0.0,0.0
489,1778658323.9458482,0.27584654,-0.26412946,0.11949607,0.0,0.0,0.0
490,1778658323.9558487,0.27584654,-0.26412946,0.11949607,0.0,0.0,0.0
491,1778658323.96585,0.27584654,-0.26412946,0.11949607,0.0,0.0,0.0
492,1778658323.975851,0.27584654,-0.26412946,0.11949607,0.0,0.0,0.0
493,1778658323.9858518,0.27584654,-0.26412946,0.11949607,0.0,0.0,0.0
494,1778658323.9958534,0.27584654,-0.26412946,0.11949607,0.0,0.0,0.0
495,1778658324.0058541,0.27584654,-0.26412946,0.11949607,0.0,0.0,0.0
496,1778658324.0158546,0.27584654,-0.26412946,0.11949607,0.0,0.0,0.0
497,1778658324.0258555,0.27584654,-0.26412946,0.11949607,0.0,0.0,0.0
498,1778658324.0358565,0.27584654,-0.26412946,0.11949607,0.0,0.0,0.0
499,1778658324.045858,0.27584654,-0.26412946,0.11949607,0.0,0.0,0.0
500,1778658324.055859,0.27584654,-0.26412946,0.11949607,0.0,0.0,0.0
501,1778658324.06586,0.27584654,-0.26412946,0.11949607,0.0,0.0,0.0
502,1778658324.0758607,0.27584654,-0.26412946,0.11949607,0.0,0.0,0.0
503,1778658324.0858614,0.27584654,-0.26412946,0.11949607,0.0,0.0,0.0
504,1778658324.0958624,0.27584654,-0.26412946,0.11949607,0.0,0.0,0.0
505,1778658324.105863,0.27584654,-0.26412946,0.11949607,0.0,0.0,0.0
506,1778658324.1158638,0.27584654,-0.26412946,0.11949607,0.0,0.0,0.0
507,1778658324.1258645,0.27584654,-0.26412946,0.11949607,0.0,0.0,0.0
508,1778658324.1358657,0.27584654,-0.26412946,0.11949607,0.0,0.0,0.0
509,1778658324.1458664,0.27584654,-0.26412946,0.11949607,0.0,0.0,0.0
510,1778658324.1558673,0.2250819,-0.31879824,0.09216246,0.0,0.0,0.0
511,1778658324.165868,0.2250819,-0.31879824,0.09216246,0.0,0.0,0.0
512,1778658324.1758692,0.2250819,-0.31879824,0.09216246,0.0,0.0,0.0
513,1778658324.1858711,0.2250819,-0.31879824,0.09216246,0.0,0.0,0.0
514,1778658324.1958723,0.2250819,-0.31879824,0.09216246,0.0,0.0,0.0
515,1778658324.2058735,0.2250819,-0.31879824,0.09216246,0.0,0.0,0.0
516,1778658324.2158751,0.17041314,-0.31879824,0.17807053,0.0,0.0,0.0
517,1778658324.2258759,0.17041314,-0.31879824,0.17807053,0.0,0.0,0.0
518,1778658324.235877,0.17041314,-0.31879824,0.17807053,0.0,0.0,0.0
519,1778658324.2458782,0.17041314,-0.31879824,0.17807053,0.0,0.0,0.0
520,1778658324.2558794,0.17041314,-0.31879824,0.17807053,0.0,0.0,0.0
521,1778658324.2658823,0.17041314,-0.31879824,0.17807053,0.0,0.0,0.0
522,1778658324.2758849,0.17041314,-0.31879824,0.17807053,0.0,0.0,0.0
523,1778658324.2858853,0.17041314,-0.31879824,0.17807053,0.0,0.0,0.0
524,1778658324.2958875,0.17041314,-0.31879824,0.17807053,0.0,0.0,0.0
525,1778658324.3058891,0.17041314,-0.31879824,0.17807053,0.0,0.0,0.0
526,1778658324.3158906,0.17041314,-0.31879824,0.17807053,0.0,0.0,0.0
527,1778658324.3258917,0.17041314,-0.31879824,0.17807053,0.0,0.0,0.0
528,1778658324.3358932,0.17041314,-0.31879824,0.17807053,0.0,0.0,0.0
529,1778658324.345894,0.17041314,-0.31879824,0.17807053,0.0,0.0,0.0
530,1778658324.3558946,0.17041314,-0.31879824,0.17807053,0.0,0.0,0.0
531,1778658324.3658955,0.17041314,-0.31879824,0.17807053,0.0,0.0,0.0
532,1778658324.3758962,0.17041314,-0.31879824,0.17807053,0.0,0.0,0.0
533,1778658324.3858976,0.17041314,-0.31879824,0.17807053,0.0,0.0,0.0
534,1778658324.395898,0.17041314,-0.31879824,0.17807053,0.0,0.0,0.0
535,1778658324.4058995,0.17041314,-0.31879824,0.17807053,0.0,0.0,0.0
536,1778658324.4159005,0.17041314,-0.31879824,0.17807053,0.0,0.0,0.0
537,1778658324.4259014,0.17041314,-0.31879824,0.17807053,0.0,0.0,0.0
538,1778658324.4359024,0.17041314,-0.31879824,0.17807053,0.0,0.0,0.0
539,1778658324.4459038,0.17041314,-0.31879824,0.17807053,0.0,0.0,0.0
540,1778658324.4559045,0.17041314,-0.31879824,0.17807053,0.0,0.0,0.0
541,1778658324.4659061,0.17041314,-0.31879824,0.17807053,0.0,0.0,0.0
542,1778658324.4759066,0.17041314,-0.31879824,0.17807053,0.0,0.0,0.0
543,1778658324.4859078,0.17041314,-0.31879824,0.17807053,0.0,0.0,0.0
544,1778658324.4959092,0.17041314,-0.31879824,0.17807053,0.0,0.0,0.0
545,1778658324.50591,0.17041314,-0.31879824,0.17807053,0.0,0.0,0.0
546,1778658324.5159109,0.17041314,-0.31879824,0.17807053,0.0,0.0,0.0
547,1778658324.5259113,0.17041314,-0.31879824,0.17807053,0.0,0.0,0.0
548,1778658324.5359137,0.17041314,-0.31879824,0.17807053,0.0,0.0,0.0
549,1778658324.545915,0.17041314,-0.31879824,0.17807053,0.0,0.0,0.0
550,1778658324.5559158,0.17041314,-0.31879824,0.17807053,0.0,0.0,0.0
551,1778658324.5659168,0.17041314,-0.31879824,0.17807053,0.0,0.0,0.0
552,1778658324.5759192,0.3187998,-0.42032596,0.54122657,0.0,0.0,0.0
553,1778658324.5859203,0.3187998,-0.42032596,0.54122657,0.0,0.0,0.0
554,1778658324.5959208,0.3187998,-0.42032596,0.54122657,0.0,0.0,0.0
555,1778658324.6059227,0.3187998,-0.42032596,0.54122657,0.0,0.0,0.0
556,1778658324.6159236,0.3187998,-0.42032596,0.54122657,0.0,0.0,0.0
557,1778658324.6259246,0.3187998,-0.42032596,0.54122657,0.0,0.0,0.0
558,1778658324.6359255,0.3187998,-0.42032596,0.54122657,0.0,0.0,0.0
559,1778658324.6459262,0.3187998,-0.42032596,0.54122657,0.0,0.0,0.0
560,1778658324.6559277,0.3187998,-0.42032596,0.54122657,0.0,0.0,0.0
561,1778658324.6659293,0.3187998,-0.42032596,0.54122657,0.0,0.0,0.0
562,1778658324.6759303,0.3187998,-0.42032596,0.54122657,0.0,0.0,0.0
563,1778658324.6859317,0.34613496,-0.45156527,0.6427543,0.0,0.0,0.0
564,1778658324.6959326,0.34613496,-0.45156527,0.6427543,0.0,0.0,0.0
565,1778658324.7059338,0.34613496,-0.45156527,0.6427543,0.0,0.0,0.0
566,1778658324.715935,0.34613496,-0.45156527,0.6427543,0.0,0.0,0.0
567,1778658324.7259357,0.34613496,-0.45156527,0.6427543,0.0,0.0,0.0
568,1778658324.735937,0.34613496,-0.45156527,0.6427543,0.0,0.0,0.0
569,1778658324.7459378,0.34613496,-0.45156527,0.6427543,0.0,0.0,0.0
570,1778658324.7559385,0.34613496,-0.45156527,0.6427543,0.0,0.0,0.0
571,1778658324.7659392,0.34613496,-0.45156527,0.6427543,0.0,0.0,0.0
572,1778658324.7759438,0.34613496,-0.45156527,0.6427543,0.0,0.0,0.0
573,1778658324.7859454,0.34613496,-0.45156527,0.6427543,0.0,0.0,0.0
574,1778658324.7959466,0.34613496,-0.45156527,0.6427543,0.0,0.0,0.0
575,1778658324.8059473,0.34613496,-0.45156527,0.6427543,0.0,0.0,0.0
576,1778658324.815949,0.34613496,-0.45156527,0.6427543,0.0,0.0,0.0
577,1778658324.8259497,0.34613496,-0.45156527,0.6427543,0.0,0.0,0.0
578,1778658324.8359501,0.34613496,-0.45156527,0.6427543,0.0,0.0,0.0
579,1778658324.8459513,0.34613496,-0.45156527,0.6427543,0.0,0.0,0.0
580,1778658324.8559518,0.34613496,-0.45156527,0.6427543,0.0,0.0,0.0
581,1778658324.8659525,0.34613496,-0.45156527,0.6427543,0.0,0.0,0.0
582,1778658324.875954,0.34613496,-0.45156527,0.6427543,0.0,0.0,0.0
583,1778658324.8859546,0.34613496,-0.45156527,0.6427543,0.0,0.0,0.0
584,1778658324.8959556,0.34613496,-0.45156527,0.6427543,0.0,0.0,0.0
585,1778658324.9059565,0.34613496,-0.45156527,0.6427543,0.0,0.0,0.0
586,1778658324.915957,0.34613496,-0.45156527,0.6427543,0.0,0.0,0.0
587,1778658324.925958,0.34613496,-0.45156527,0.6427543,0.0,0.0,0.0
588,1778658324.9359596,0.34613496,-0.45156527,0.6427543,0.0,0.0,0.0
589,1778658324.9459605,0.34613496,-0.45156527,0.6427543,0.0,0.0,0.0
590,1778658324.9559612,0.34613496,-0.45156527,0.6427543,0.0,0.0,0.0
591,1778658324.9659626,0.51014125,-0.57652247,0.7169484,0.0,0.0,0.0
592,1778658324.9759634,0.51014125,-0.57652247,0.7169484,0.0,0.0,0.0
593,1778658324.9859657,0.51014125,-0.57652247,0.7169484,0.0,0.0,0.0
594,1778658324.9959717,0.51014125,-0.57652247,0.7169484,0.0,0.0,0.0
595,1778658325.0059733,0.51014125,-0.57652247,0.7169484,0.0,0.0,0.0
596,1778658325.0159743,0.62728864,-0.7014796,0.63104033,0.0,0.0,0.0
597,1778658325.0259752,0.62728864,-0.7014796,0.63104033,0.0,0.0,0.0
598,1778658325.035976,0.62728864,-0.7014796,0.63104033,0.0,0.0,0.0
599,1778658325.0459776,0.62728864,-0.7014796,0.63104033,0.0,0.0,0.0
600,1778658325.0559783,0.62728864,-0.7014796,0.63104033,0.0,0.0,0.0
601,1778658325.0659797,0.62728864,-0.7014796,0.63104033,0.0,0.0,0.0
602,1778658325.075981,0.62728864,-0.7014796,0.63104033,0.0,0.0,0.0
603,1778658325.0859816,0.62728864,-0.7014796,0.63104033,0.0,0.0,0.0
604,1778658325.0959828,0.62728864,-0.7014796,0.63104033,0.0,0.0,0.0
605,1778658325.1059837,0.62728864,-0.7014796,0.63104033,0.0,0.0,0.0
606,1778658325.1159852,0.62728864,-0.7014796,0.63104033,0.0,0.0,0.0
607,1778658325.1259868,0.62728864,-0.7014796,0.63104033,0.0,0.0,0.0
608,1778658325.1359882,0.62728864,-0.7014796,0.63104033,0.0,0.0,0.0
609,1778658325.1459887,0.62728864,-0.7014796,0.63104033,0.0,0.0,0.0
610,1778658325.1559901,0.62728864,-0.7014796,0.63104033,0.0,0.0,0.0
611,1778658325.165991,0.62728864,-0.7014796,0.63104033,0.0,0.0,0.0
612,1778658325.1759918,0.62728864,-0.7014796,0.63104033,0.0,0.0,0.0
613,1778658325.1859927,0.62728864,-0.7014796,0.63104033,0.0,0.0,0.0
614,1778658325.1959934,0.62728864,-0.7014796,0.63104033,0.0,0.0,0.0
615,1778658325.2059941,0.62728864,-0.7014796,0.63104033,0.0,0.0,0.0
616,1778658325.215995,0.62728864,-0.7014796,0.63104033,0.0,0.0,0.0
617,1778658325.2259955,0.62728864,-0.7014796,0.63104033,0.0,0.0,0.0
618,1778658325.2359962,0.62728864,-0.7014796,0.63104033,0.0,0.0,0.0
619,1778658325.246363,1.2989335,-3.1654816,1.4198326,0.0,0.0,0.0
620,1778658325.2563643,1.2989335,-3.1654816,1.4198326,0.0,0.0,0.0
621,1778658325.2663658,1.2989335,-3.1654816,1.4198326,0.0,0.0,0.0
622,1778658325.276367,1.2989335,-3.1654816,1.4198326,0.0,0.0,0.0
623,1778658325.2863674,1.2989335,-3.1654816,1.4198326,0.0,0.0,0.0
624,1778658325.2963686,1.1817862,-2.8179452,0.6271346,0.0,0.0,0.0
625,1778658325.3063693,1.1817862,-2.8179452,0.6271346,0.0,0.0,0.0
626,1778658325.316371,1.1817862,-2.8179452,0.6271346,0.0,0.0,0.0
627,1778658325.326372,1.1817862,-2.8179452,0.6271346,0.0,0.0,0.0
628,1778658325.3363724,1.1817862,-2.8179452,0.6271346,0.0,0.0,0.0
629,1778658325.3463728,1.1817862,-2.8179452,0.6271346,0.0,0.0,0.0
630,1778658325.356374,1.1817862,-2.8179452,0.6271346,0.0,0.0,0.0
631,1778658325.3663762,1.1817862,-2.8179452,0.6271346,0.0,0.0,0.0
632,1778658325.3763776,1.1700722,-2.7632763,0.59589535,0.0,0.0,0.0
633,1778658325.386378,1.1700722,-2.7632763,0.59589535,0.0,0.0,0.0
634,1778658325.396379,1.1700722,-2.7632763,0.59589535,0.0,0.0,0.0
635,1778658325.40638,1.1700722,-2.7632763,0.59589535,0.0,0.0,0.0
636,1778658325.4163806,1.1700722,-2.7632763,0.59589535,0.0,0.0,0.0
637,1778658325.4263818,1.1700722,-2.7632763,0.59589535,0.0,0.0,0.0
638,1778658325.4364238,1.1700722,-2.7632763,0.59589535,0.0,0.0,0.0
639,1778658325.4464262,1.1700722,-2.7632763,0.59589535,0.0,0.0,0.0
640,1778658325.456427,1.1700722,-2.7632763,0.59589535,0.0,0.0,0.0
641,1778658325.4664278,1.1700722,-2.7632763,0.59589535,0.0,0.0,0.0
642,1778658325.47643,1.1700722,-2.7632763,0.59589535,0.0,0.0,0.0
643,1778658325.486431,1.1700722,-2.7632763,0.59589535,0.0,0.0,0.0
644,1778658325.4964328,1.1700722,-2.7632763,0.59589535,0.0,0.0,0.0
645,1778658325.506435,1.1700722,-2.7632763,0.59589535,0.0,0.0,0.0
646,1778658325.5164356,1.1700722,-2.7632763,0.59589535,0.0,0.0,0.0
647,1778658325.5264363,1.1700722,-2.7632763,0.59589535,0.0,0.0,0.0
648,1778658325.5364377,1.1700722,-2.7632763,0.59589535,0.0,0.0,0.0
649,1778658325.5464392,1.1700722,-2.7632763,0.59589535,0.0,0.0,0.0
650,1778658325.5564399,1.1700722,-2.7632763,0.59589535,0.0,0.0,0.0
651,1778658325.5664413,1.1544526,-2.7749903,0.8770506,0.0,0.0,0.0
652,1778658325.576442,1.1544526,-2.7749903,0.8770506,0.0,0.0,0.0
653,1778658325.5864432,1.1544526,-2.7749903,0.8770506,0.0,0.0,0.0
654,1778658325.5964446,1.1544526,-2.7749903,0.8770506,0.0,0.0,0.0
655,1778658325.6064458,1.1544526,-2.7749903,0.8770506,0.0,0.0,0.0
656,1778658325.6164472,1.1544526,-2.7749903,0.8770506,0.0,0.0,0.0
657,1778658325.626449,1.1544526,-2.7749903,0.8770506,0.0,0.0,0.0
658,1778658325.63645,1.1544526,-2.7749903,0.8770506,0.0,0.0,0.0
659,1778658325.6464512,1.0646389,-2.685178,0.72085255,0.0,0.0,0.0
660,1778658325.6564524,1.0646389,-2.685178,0.72085255,0.0,0.0,0.0
661,1778658325.6664534,1.0646389,-2.685178,0.72085255,0.0,0.0,0.0
662,1778658325.6764545,1.0646389,-2.685178,0.72085255,0.0,0.0,0.0
663,1778658325.686455,1.0646389,-2.685178,0.72085255,0.0,0.0,0.0
664,1778658325.6964562,1.0646389,-2.685178,0.72085255,0.0,0.0,0.0
665,1778658325.706457,1.0646389,-2.685178,0.72085255,0.0,0.0,0.0
666,1778658325.7164574,1.0646389,-2.685178,0.72085255,0.0,0.0,0.0
667,1778658325.7264583,1.0646389,-2.685178,0.72085255,0.0,0.0,0.0
668,1778658325.7364593,1.0646389,-2.685178,0.72085255,0.0,0.0,0.0
669,1778658325.7464604,1.0646389,-2.685178,0.72085255,0.0,0.0,0.0
670,1778658325.7564614,1.0646389,-2.685178,0.72085255,0.0,0.0,0.0
671,1778658325.7664626,1.0646389,-2.685178,0.72085255,0.0,0.0,0.0
672,1778658325.7764635,1.0646389,-2.685178,0.72085255,0.0,0.0,0.0
673,1778658325.7864664,1.0646389,-2.685178,0.72085255,0.0,0.0,0.0
674,1778658325.7964678,1.0646389,-2.685178,0.72085255,0.0,0.0,0.0
675,1778658325.8064692,1.0646389,-2.685178,0.72085255,0.0,0.0,0.0
676,1778658325.8164704,1.0646389,-2.685178,0.72085255,0.0,0.0,0.0
677,1778658325.8264713,1.0646389,-2.685178,0.72085255,0.0,0.0,0.0
678,1778658325.836472,1.0646389,-2.685178,0.72085255,0.0,0.0,0.0
679,1778658325.8464727,1.0646389,-2.685178,0.72085255,0.0,0.0,0.0
680,1778658325.8564773,1.0646389,-2.685178,0.72085255,0.0,0.0,0.0
681,1778658325.866479,1.0646389,-2.685178,0.72085255,0.0,0.0,0.0
682,1778658325.8764796,1.0646389,-2.685178,0.72085255,0.0,0.0,0.0
683,1778658325.8864806,1.0646389,-2.685178,0.72085255,0.0,0.0,0.0
684,1778658325.8964813,1.0646389,-2.685178,0.72085255,0.0,0.0,0.0
685,1778658325.9064817,1.0646389,-2.685178,0.72085255,0.0,0.0,0.0
686,1778658325.9164832,1.0646389,-2.685178,0.72085255,0.0,0.0,0.0
687,1778658325.926484,1.0646389,-2.685178,0.72085255,0.0,0.0,0.0
688,1778658325.9364846,1.0646389,-2.685178,0.72085255,0.0,0.0,0.0
689,1778658325.9464862,1.0490191,-2.6305094,0.59980106,0.0,0.0,0.0
690,1778658325.9564877,1.0490191,-2.6305094,0.59980106,0.0,0.0,0.0
691,1778658325.9664884,1.0490191,-2.6305094,0.59980106,0.0,0.0,0.0
692,1778658325.9764895,1.1036879,-2.6656528,0.53732246,0.0,0.0,0.0
693,1778658325.9864907,1.1036879,-2.6656528,0.53732246,0.0,0.0,0.0
694,1778658325.9964917,1.1036879,-2.6656528,0.53732246,0.0,0.0,0.0
695,1778658326.0064933,1.1036879,-2.6656528,0.53732246,0.0,0.0,0.0
696,1778658326.0164938,1.1036879,-2.6656528,0.53732246,0.0,0.0,0.0
697,1778658326.0264945,1.1036879,-2.6656528,0.53732246,0.0,0.0,0.0
698,1778658326.0364954,1.1036879,-2.6656528,0.53732246,0.0,0.0,0.0
699,1778658326.0464966,1.1036879,-2.6656528,0.53732246,0.0,0.0,0.0
700,1778658326.0565007,1.1036879,-2.6656528,0.53732246,0.0,0.0,0.0
701,1778658326.066502,1.1036879,-2.6656528,0.53732246,0.0,0.0,0.0
702,1778658326.076503,1.1036879,-2.6656528,0.53732246,0.0,0.0,0.0
703,1778658326.086505,1.1036879,-2.6656528,0.53732246,0.0,0.0,0.0
704,1778658326.0965059,1.1036879,-2.6656528,0.53732246,0.0,0.0,0.0
705,1778658326.1065066,1.1036879,-2.6656528,0.53732246,0.0,0.0,0.0
706,1778658326.1165075,1.1036879,-2.6656528,0.53732246,0.0,0.0,0.0
707,1778658326.1265087,1.1036879,-2.6656528,0.53732246,0.0,0.0,0.0
708,1778658326.13651,1.1036879,-2.6656528,0.53732246,0.0,0.0,0.0
709,1778658326.1465108,1.1036879,-2.6656528,0.53732246,0.0,0.0,0.0
710,1778658326.1565123,1.1036879,-2.6656528,0.53732246,0.0,0.0,0.0
711,1778658326.166514,1.2052157,-2.9350924,0.46312833,0.0,0.0,0.0
712,1778658326.1765158,1.2052157,-2.9350924,0.46312833,0.0,0.0,0.0
713,1778658326.1865172,1.2052157,-2.9350924,0.46312833,0.0,0.0,0.0
714,1778658326.1965187,1.2052157,-2.9350924,0.46312833,0.0,0.0,0.0
715,1778658326.2065194,1.2052157,-2.9350924,0.46312833,0.0,0.0,0.0
716,1778658326.2165205,1.2052157,-2.9350924,0.46312833,0.0,0.0,0.0
717,1778658326.226521,1.2052157,-2.9350924,0.46312833,0.0,0.0,0.0
718,1778658326.236522,1.2052157,-2.9350924,0.46312833,0.0,0.0,0.0
719,1778658326.246523,1.2052157,-2.9350924,0.46312833,0.0,0.0,0.0
720,1778658326.2565236,1.2052157,-2.9350924,0.46312833,0.0,0.0,0.0
721,1778658326.266525,0.63509846,-1.419985,0.068732984,0.0,0.0,0.0
722,1778658326.2765257,0.63509846,-1.419985,0.068732984,0.0,0.0,0.0
723,1778658326.2865262,0.63509846,-1.419985,0.068732984,0.0,0.0,0.0
724,1778658326.2965271,0.63509846,-1.419985,0.068732984,0.0,0.0,0.0
725,1778658326.3065286,0.63509846,-1.419985,0.068732984,0.0,0.0,0.0
726,1778658326.3165295,0.63509846,-1.419985,0.068732984,0.0,0.0,0.0
727,1778658326.3265312,0.63509846,-1.419985,0.068732984,0.0,0.0,0.0
728,1778658326.336532,0.63509846,-1.419985,0.068732984,0.0,0.0,0.0
729,1778658326.346533,0.63509846,-1.419985,0.068732984,0.0,0.0,0.0
730,1778658326.3565342,0.63509846,-1.419985,0.068732984,0.0,0.0,0.0
731,1778658326.366535,0.63509846,-1.419985,0.068732984,0.0,0.0,0.0
732,1778658326.3765364,0.63509846,-1.419985,0.068732984,0.0,0.0,0.0
733,1778658326.3865376,0.63509846,-1.419985,0.068732984,0.0,0.0,0.0
734,1778658326.396539,0.63509846,-1.419985,0.068732984,0.0,0.0,0.0
735,1778658326.4065397,0.63509846,-1.419985,0.068732984,0.0,0.0,0.0
736,1778658326.4165404,0.63509846,-1.419985,0.068732984,0.0,0.0,0.0
737,1778658326.426542,0.6858615,-1.5839913,0.068732984,0.0,0.0,0.0
738,1778658326.4365432,0.6858615,-1.5839913,0.068732984,0.0,0.0,0.0
739,1778658326.446544,0.6858615,-1.5839913,0.068732984,0.0,0.0,0.0
740,1778658326.456545,0.6858615,-1.5839913,0.068732984,0.0,0.0,0.0
741,1778658326.4665456,0.6858615,-1.5839913,0.068732984,0.0,0.0,0.0
742,1778658326.4765463,0.6858615,-1.5839913,0.068732984,0.0,0.0,0.0
743,1778658326.4865472,0.6858615,-1.5839913,0.068732984,0.0,0.0,0.0
744,1778658326.4965482,0.6858615,-1.5839913,0.068732984,0.0,0.0,0.0
745,1778658326.5065494,0.6858615,-1.5839913,0.068732984,0.0,0.0,0.0
746,1778658326.5165503,0.6858615,-1.5839913,0.068732984,0.0,0.0,0.0
747,1778658326.5265512,0.6858615,-1.5839913,0.068732984,0.0,0.0,0.0
748,1778658326.5365517,0.6858615,-1.5839913,0.068732984,0.0,0.0,0.0
749,1778658326.5465527,0.6858615,-1.5839913,0.068732984,0.0,0.0,0.0
750,1778658326.5565534,0.6858615,-1.5839913,0.068732984,0.0,0.0,0.0
751,1778658326.5665538,0.6858615,-1.5839913,0.068732984,0.0,0.0,0.0
752,1778658326.5765548,0.6858615,-1.5839913,0.068732984,0.0,0.0,0.0
753,1778658326.5865555,0.6858615,-1.5839913,0.068732984,0.0,0.0,0.0
754,1778658326.5965562,0.6858615,-1.5839913,0.068732984,0.0,0.0,0.0
755,1778658326.6065583,0.59604937,-1.2715983,0.07654281,0.0,0.0,0.0
756,1778658326.6165593,0.59604937,-1.2715983,0.07654281,0.0,0.0,0.0
757,1778658326.62656,0.59604937,-1.2715983,0.07654281,0.0,0.0,0.0
758,1778658326.6365604,0.59604937,-1.2715983,0.07654281,0.0,0.0,0.0
759,1778658326.6465619,0.59604937,-1.2715983,0.07654281,0.0,0.0,0.0
760,1778658326.6565628,0.59604937,-1.2715983,0.07654281,0.0,0.0,0.0
761,1778658326.6665661,0.59604937,-1.2715983,0.07654281,0.0,0.0,0.0
762,1778658326.6765685,0.59604937,-1.2715983,0.07654281,0.0,0.0,0.0
763,1778658326.6865697,0.59604937,-1.2715983,0.07654281,0.0,0.0,0.0
764,1778658326.6965704,0.59604937,-1.2715983,0.07654281,0.0,0.0,0.0
765,1778658326.7065716,0.59604937,-1.2715983,0.07654281,0.0,0.0,0.0
766,1778658326.7165728,0.59604937,-1.2715983,0.07654281,0.0,0.0,0.0
767,1778658326.7265735,0.59604937,-1.2715983,0.07654281,0.0,0.0,0.0
768,1778658326.7365742,0.59604937,-1.2715983,0.07654281,0.0,0.0,0.0
769,1778658326.7465754,0.59604937,-1.2715983,0.07654281,0.0,0.0,0.0
770,1778658326.7565763,0.59604937,-1.2715983,0.07654281,0.0,0.0,0.0
771,1778658326.7665777,0.59604937,-1.2715983,0.07654281,0.0,0.0,0.0
772,1778658326.7765796,0.59604937,-1.2715983,0.07654281,0.0,0.0,0.0
773,1778658326.7865806,0.59604937,-1.2715983,0.07654281,0.0,0.0,0.0
774,1778658326.7965813,0.59604937,-1.2715983,0.07654281,0.0,0.0,0.0
775,1778658326.8065817,0.59604937,-1.2715983,0.07654281,0.0,0.0,0.0
776,1778658326.816583,0.59604937,-1.2715983,0.07654281,0.0,0.0,0.0
777,1778658326.826584,0.5452847,-0.9162506,0.13121158,0.0,0.0,0.0
778,1778658326.8365853,0.5452847,-0.9162506,0.13121158,0.0,0.0,0.0
779,1778658326.8465862,0.5452847,-0.9162506,0.13121158,0.0,0.0,0.0
780,1778658326.8565872,0.5452847,-0.9162506,0.13121158,0.0,0.0,0.0
781,1778658326.8665886,0.5452847,-0.9162506,0.13121158,0.0,0.0,0.0
782,1778658326.876589,0.5452847,-0.9162506,0.13121158,0.0,0.0,0.0
783,1778658326.8865898,0.5452847,-0.9162506,0.13121158,0.0,0.0,0.0
784,1778658326.8965912,0.5452847,-0.9162506,0.13121158,0.0,0.0,0.0
785,1778658326.9065924,0.5452847,-0.9162506,0.13121158,0.0,0.0,0.0
786,1778658326.9165933,0.5452847,-0.9162506,0.13121158,0.0,0.0,0.0
787,1778658326.926594,0.5452847,-0.9162506,0.13121158,0.0,0.0,0.0
788,1778658326.936595,0.5452847,-0.9162506,0.13121158,0.0,0.0,0.0
789,1778658326.9465957,0.5452847,-0.9162506,0.13121158,0.0,0.0,0.0
790,1778658326.9565973,0.5452847,-0.9162506,0.13121158,0.0,0.0,0.0
791,1778658326.9665995,0.52966505,-0.8225327,0.14683123,0.0,0.0,0.0
792,1778658326.976601,0.52966505,-0.8225327,0.14683123,0.0,0.0,0.0
793,1778658326.986602,0.52966505,-0.8225327,0.14683123,0.0,0.0,0.0
794,1778658326.9966025,0.52966505,-0.8225327,0.14683123,0.0,0.0,0.0
795,1778658327.0066037,0.52966505,-0.8225327,0.14683123,0.0,0.0,0.0
796,1778658327.016605,0.52966505,-0.8225327,0.14683123,0.0,0.0,0.0
797,1778658327.0266058,0.52966505,-0.8225327,0.14683123,0.0,0.0,0.0
798,1778658327.0366082,0.52966505,-0.8225327,0.14683123,0.0,0.0,0.0
799,1778658327.0466094,0.52966505,-0.8225327,0.14683123,0.0,0.0,0.0
800,1778658327.0566099,0.52966505,-0.8225327,0.14683123,0.0,0.0,0.0
801,1778658327.066611,0.52966505,-0.8225327,0.14683123,0.0,0.0,0.0
802,1778658327.0766122,0.46718645,-0.6350969,0.1585452,0.0,0.0,0.0
803,1778658327.0866137,0.46718645,-0.6350969,0.1585452,0.0,0.0,0.0
804,1778658327.0966146,0.46718645,-0.6350969,0.1585452,0.0,0.0,0.0
805,1778658327.1066153,0.46718645,-0.6350969,0.1585452,0.0,0.0,0.0
806,1778658327.116616,0.46718645,-0.6350969,0.1585452,0.0,0.0,0.0
807,1778658327.1266177,0.46718645,-0.6350969,0.1585452,0.0,0.0,0.0
808,1778658327.136619,0.46718645,-0.6350969,0.1585452,0.0,0.0,0.0
809,1778658327.1466208,0.46718645,-0.6350969,0.1585452,0.0,0.0,0.0
810,1778658327.1566215,0.46718645,-0.6350969,0.1585452,0.0,0.0,0.0
811,1778658327.1666224,0.46718645,-0.6350969,0.1585452,0.0,0.0,0.0
812,1778658327.176624,0.46718645,-0.6350969,0.1585452,0.0,0.0,0.0
813,1778658327.186625,0.46718645,-0.6350969,0.1585452,0.0,0.0,0.0
814,1778658327.1966257,0.46718645,-0.6350969,0.1585452,0.0,0.0,0.0
815,1778658327.206627,0.46718645,-0.6350969,0.1585452,0.0,0.0,0.0
816,1778658327.2166276,0.46718645,-0.6350969,0.1585452,0.0,0.0,0.0
817,1778658327.226628,0.46718645,-0.6350969,0.1585452,0.0,0.0,0.0
818,1778658327.2366292,0.3578489,-0.45156527,0.18588035,0.0,0.0,0.0
819,1778658327.2466304,0.3578489,-0.45156527,0.18588035,0.0,0.0,0.0
820,1778658327.2566319,0.3578489,-0.45156527,0.18588035,0.0,0.0,0.0
821,1778658327.2666326,0.3578489,-0.45156527,0.18588035,0.0,0.0,0.0
822,1778658327.276633,0.3578489,-0.45156527,0.18588035,0.0,0.0,0.0
823,1778658327.2866344,0.3578489,-0.45156527,0.18588035,0.0,0.0,0.0
824,1778658327.296636,0.3578489,-0.45156527,0.18588035,0.0,0.0,0.0
825,1778658327.3066368,0.3578489,-0.45156527,0.18588035,0.0,0.0,0.0
826,1778658327.3166378,0.3578489,-0.45156527,0.18588035,0.0,0.0,0.0
827,1778658327.3266392,0.3578489,-0.45156527,0.18588035,0.0,0.0,0.0
828,1778658327.3366396,0.3578489,-0.45156527,0.18588035,0.0,0.0,0.0
829,1778658327.3466406,0.3578489,-0.45156527,0.18588035,0.0,0.0,0.0
830,1778658327.3566418,0.3578489,-0.45156527,0.18588035,0.0,0.0,0.0
831,1778658327.3666422,0.3578489,-0.45156527,0.18588035,0.0,0.0,0.0
832,1778658327.3766437,0.3578489,-0.45156527,0.18588035,0.0,0.0,0.0
833,1778658327.3866444,0.3578489,-0.45156527,0.18588035,0.0,0.0,0.0
834,1778658327.3966453,0.3578489,-0.45156527,0.18588035,0.0,0.0,0.0
835,1778658327.4066463,0.3578489,-0.45156527,0.18588035,0.0,0.0,0.0
836,1778658327.4166472,0.3578489,-0.45156527,0.18588035,0.0,0.0,0.0
837,1778658327.4266484,0.3578489,-0.45156527,0.18588035,0.0,0.0,0.0
838,1778658327.4366496,0.3578489,-0.45156527,0.18588035,0.0,0.0,0.0
839,1778658327.44665,0.3578489,-0.45156527,0.18588035,0.0,0.0,0.0
840,1778658327.4566512,0.3578489,-0.45156527,0.18588035,0.0,0.0,0.0
841,1778658327.4666524,0.3578489,-0.45156527,0.18588035,0.0,0.0,0.0
842,1778658327.4766574,0.3578489,-0.45156527,0.18588035,0.0,0.0,0.0
843,1778658327.4866588,0.3578489,-0.45156527,0.18588035,0.0,0.0,0.0
844,1778658327.4966593,0.3578489,-0.45156527,0.18588035,0.0,0.0,0.0
845,1778658327.50666,0.3578489,-0.45156527,0.18588035,0.0,0.0,0.0
846,1778658327.5166612,0.3578489,-0.45156527,0.18588035,0.0,0.0,0.0
847,1778658327.5266619,0.3578489,-0.45156527,0.18588035,0.0,0.0,0.0
848,1778658327.5366633,0.3578489,-0.45156527,0.18588035,0.0,0.0,0.0
849,1778658327.5466638,0.3578489,-0.45156527,0.18588035,0.0,0.0,0.0
850,1778658327.5566642,0.3578489,-0.45156527,0.18588035,0.0,0.0,0.0
851,1778658327.5666652,0.3578489,-0.45156527,0.18588035,0.0,0.0,0.0
852,1778658327.576666,0.3578489,-0.45156527,0.18588035,0.0,0.0,0.0
853,1778658327.586667,0.3578489,-0.45156527,0.18588035,0.0,0.0,0.0
854,1778658327.5966687,0.3578489,-0.45156527,0.18588035,0.0,0.0,0.0
855,1778658327.6066701,0.3578489,-0.45156527,0.18588035,0.0,0.0,0.0
856,1778658327.6166718,0.3578489,-0.45156527,0.18588035,0.0,0.0,0.0
857,1778658327.626673,0.3578489,-0.45156527,0.18588035,0.0,0.0,0.0
858,1778658327.6366735,0.3578489,-0.45156527,0.18588035,0.0,0.0,0.0
859,1778658327.6466749,0.3578489,-0.45156527,0.18588035,0.0,0.0,0.0
860,1778658327.6566756,0.3578489,-0.45156527,0.18588035,0.0,0.0,0.0
861,1778658327.6666787,0.3578489,-0.45156527,0.18588035,0.0,0.0,0.0
862,1778658327.6766858,0.3578489,-0.45156527,0.18588035,0.0,0.0,0.0
863,1778658327.6866865,0.3578489,-0.45156527,0.18588035,0.0,0.0,0.0
864,1778658327.696688,0.3578489,-0.45156527,0.18588035,0.0,0.0,0.0
865,1778658327.7066891,0.20555812,-0.22508036,0.2327393,0.0,0.0,0.0
866,1778658327.7166896,0.20555812,-0.22508036,0.2327393,0.0,0.0,0.0
867,1778658327.7266903,0.20555812,-0.22508036,0.2327393,0.0,0.0,0.0
868,1778658327.7366915,0.166509,-0.16260175,0.21711965,0.0,0.0,0.0
869,1778658327.7466924,0.166509,-0.16260175,0.21711965,0.0,0.0,0.0
870,1778658327.7566934,0.166509,-0.16260175,0.21711965,0.0,0.0,0.0
871,1778658327.766694,0.166509,-0.16260175,0.21711965,0.0,0.0,0.0
872,1778658327.776695,0.166509,-0.16260175,0.21711965,0.0,0.0,0.0
873,1778658327.7866957,0.166509,-0.16260175,0.21711965,0.0,0.0,0.0
874,1778658327.7966964,0.166509,-0.16260175,0.21711965,0.0,0.0,0.0
875,1778658327.8066974,0.0025011348,0.23569928,0.24054912,0.0,0.0,0.0
876,1778658327.816698,0.0025011348,0.23569928,0.24054912,0.0,0.0,0.0
877,1778658327.8266988,0.0025011348,0.23569928,0.24054912,0.0,0.0,0.0
878,1778658327.8367002,0.0025011348,0.23569928,0.24054912,0.0,0.0,0.0
879,1778658327.8467014,0.0025011348,0.23569928,0.24054912,0.0,0.0,0.0
880,1778658327.8567028,0.0025011348,0.23569928,0.24054912,0.0,0.0,0.0
881,1778658327.8667045,0.018120784,0.19665016,0.24835895,0.0,0.0,0.0
882,1778658327.8767052,0.018120784,0.19665016,0.24835895,0.0,0.0,0.0
883,1778658327.8867059,0.018120784,0.19665016,0.24835895,0.0,0.0,0.0
884,1778658327.8967097,0.07669524,0.16150673,-0.25147137,0.0,0.0,0.0
885,1778658327.9067113,0.07669524,0.16150673,-0.25147137,0.0,0.0,0.0
886,1778658327.9167123,0.07669524,0.16150673,-0.25147137,0.0,0.0,0.0
887,1778658327.9267128,0.07669524,0.16150673,-0.25147137,0.0,0.0,0.0
888,1778658327.936714,0.07669524,0.16150673,-0.25147137,0.0,0.0,0.0
889,1778658327.9467149,0.07669524,0.16150673,-0.25147137,0.0,0.0,0.0
890,1778658327.956716,0.07669524,0.16150673,-0.25147137,0.0,0.0,0.0
891,1778658327.9667175,0.07669524,0.16150673,-0.25147137,0.0,0.0,0.0
892,1778658327.9767199,0.07669524,0.16150673,-0.25147137,0.0,0.0,0.0
893,1778658327.9867215,0.07669524,0.16150673,-0.25147137,0.0,0.0,0.0
894,1778658327.9967227,0.07669524,0.16150673,-0.25147137,0.0,0.0,0.0
895,1778658328.0067244,0.07669524,0.16150673,-0.25147137,0.0,0.0,0.0
896,1778658328.0167255,0.07669524,0.16150673,-0.25147137,0.0,0.0,0.0
897,1778658328.0267265,0.07669524,0.16150673,-0.25147137,0.0,0.0,0.0
898,1778658328.0367272,0.07669524,0.16150673,-0.25147137,0.0,0.0,0.0
899,1778658328.0467277,0.07669524,0.16150673,-0.25147137,0.0,0.0,0.0
900,1778658328.0567286,0.07669524,0.16150673,-0.25147137,0.0,0.0,0.0
901,1778658328.0667298,0.07669524,0.16150673,-0.25147137,0.0,0.0,0.0
902,1778658328.076732,0.07669524,0.16150673,-0.25147137,0.0,0.0,0.0
903,1778658328.0867329,0.07669524,0.16150673,-0.25147137,0.0,0.0,0.0
904,1778658328.0967338,0.07669524,0.16150673,-0.25147137,0.0,0.0,0.0
905,1778658328.106735,0.041550256,0.13807726,-0.24366154,0.0,0.0,0.0
906,1778658328.1167355,0.041550256,0.13807726,-0.24366154,0.0,0.0,0.0
907,1778658328.126736,0.041550256,0.13807726,-0.24366154,0.0,0.0,0.0
908,1778658328.1367376,0.041550256,0.13807726,-0.24366154,0.0,0.0,0.0
909,1778658328.1467385,0.041550256,0.13807726,-0.24366154,0.0,0.0,0.0
910,1778658328.1567392,0.041550256,0.13807726,-0.24366154,0.0,0.0,0.0
911,1778658328.1667404,0.041550256,0.13807726,-0.24366154,0.0,0.0,0.0
912,1778658328.1767414,0.041550256,0.13807726,-0.24366154,0.0,0.0,0.0
913,1778658328.186743,0.041550256,0.13807726,-0.24366154,0.0,0.0,0.0
914,1778658328.1967437,0.041550256,0.13807726,-0.24366154,0.0,0.0,0.0
915,1778658328.2067447,0.041550256,0.13807726,-0.24366154,0.0,0.0,0.0
916,1778658328.216746,0.041550256,0.13807726,-0.24366154,0.0,0.0,0.0
917,1778658328.2267468,0.041550256,0.13807726,-0.24366154,0.0,0.0,0.0
918,1778658328.2367475,0.041550256,0.13807726,-0.24366154,0.0,0.0,0.0
919,1778658328.2467492,-0.017022649,0.11464778,-0.21632639,0.0,0.0,0.0
920,1778658328.2567499,-0.017022649,0.11464778,-0.21632639,0.0,0.0,0.0
921,1778658328.2667508,-0.017022649,0.11464778,-0.21632639,0.0,0.0,0.0
922,1778658328.2767518,-0.017022649,0.11464778,-0.21632639,0.0,0.0,0.0
923,1778658328.286753,-0.017022649,0.11464778,-0.21632639,0.0,0.0,0.0
924,1778658328.2967565,-0.017022649,0.11464778,-0.21632639,0.0,0.0,0.0
925,1778658328.3067586,-0.017022649,0.11464778,-0.21632639,0.0,0.0,0.0
926,1778658328.3167598,-0.017022649,0.11464778,-0.21632639,0.0,0.0,0.0
927,1778658328.3267612,-0.017022649,0.11464778,-0.21632639,0.0,0.0,0.0
928,1778658328.3367622,-0.017022649,0.11464778,-0.21632639,0.0,0.0,0.0
929,1778658328.3467634,-0.017022649,0.11464778,-0.21632639,0.0,0.0,0.0
930,1778658328.3567646,-0.017022649,0.11464778,-0.21632639,0.0,0.0,0.0
931,1778658328.366765,-0.017022649,0.11464778,-0.21632639,0.0,0.0,0.0
932,1778658328.3767662,-0.017022649,0.11464778,-0.21632639,0.0,0.0,0.0
933,1778658328.3867671,-0.017022649,0.11464778,-0.21632639,0.0,0.0,0.0
934,1778658328.3967683,-0.017022649,0.11464778,-0.21632639,0.0,0.0,0.0
935,1778658328.406769,-0.017022649,0.11464778,-0.21632639,0.0,0.0,0.0
936,1778658328.41677,-0.017022649,0.11464778,-0.21632639,0.0,0.0,0.0
937,1778658328.4267712,-0.017022649,0.11464778,-0.21632639,0.0,0.0,0.0
938,1778658328.436772,-0.017022649,0.11464778,-0.21632639,0.0,0.0,0.0
939,1778658328.4467726,-0.017022649,0.11464778,-0.21632639,0.0,0.0,0.0
940,1778658328.4567735,-0.017022649,0.11464778,-0.21632639,0.0,0.0,0.0
941,1778658328.466775,-0.017022649,0.11464778,-0.21632639,0.0,0.0,0.0
942,1778658328.4767756,-0.017022649,0.11464778,-0.21632639,0.0,0.0,0.0
943,1778658328.486777,-0.017022649,0.11464778,-0.21632639,0.0,0.0,0.0
944,1778658328.496779,-0.017022649,0.11464778,-0.21632639,0.0,0.0,0.0
945,1778658328.5067794,-0.017022649,0.11464778,-0.21632639,0.0,0.0,0.0
946,1778658328.5167809,-0.028738163,0.08340849,-0.20070674,0.0,0.0,0.0
947,1778658328.526782,-0.028738163,0.08340849,-0.20070674,0.0,0.0,0.0
948,1778658328.5367825,-0.028738163,0.08340849,-0.20070674,0.0,0.0,0.0
949,1778658328.5467834,-0.028738163,0.08340849,-0.20070674,0.0,0.0,0.0
950,1778658328.5567846,-0.028738163,0.08340849,-0.20070674,0.0,0.0,0.0
951,1778658328.5667853,-0.028738163,0.08340849,-0.20070674,0.0,0.0,0.0
952,1778658328.5767896,-0.0014029997,0.07169297,-0.16946743,0.0,0.0,0.0
953,1778658328.5867913,-0.0014029997,0.07169297,-0.16946743,0.0,0.0,0.0
954,1778658328.5967922,-0.0014029997,0.07169297,-0.16946743,0.0,0.0,0.0
955,1778658328.6067944,-0.0014029997,0.07169297,-0.16946743,0.0,0.0,0.0
956,1778658328.6167955,-0.0014029997,0.07169297,-0.16946743,0.0,0.0,0.0
957,1778658328.6267967,-0.0014029997,0.07169297,-0.16946743,0.0,0.0,0.0
958,1778658328.6367974,-0.0014029997,0.07169297,-0.16946743,0.0,0.0,0.0
959,1778658328.6467986,-0.0014029997,0.07169297,-0.16946743,0.0,0.0,0.0
960,1778658328.6567996,-0.0014029997,0.07169297,-0.16946743,0.0,0.0,0.0
961,1778658328.6668,-0.0014029997,0.07169297,-0.16946743,0.0,0.0,0.0
962,1778658328.6768014,-0.0014029997,0.07169297,-0.16946743,0.0,0.0,0.0
963,1778658328.6868029,-0.0014029997,0.07169297,-0.16946743,0.0,0.0,0.0
964,1778658328.696804,-0.0014029997,0.07169297,-0.16946743,0.0,0.0,0.0
965,1778658328.7068055,-0.0014029997,0.07169297,-0.16946743,0.0,0.0,0.0
966,1778658328.7168062,-0.0014029997,0.07169297,-0.16946743,0.0,0.0,0.0
967,1778658328.726807,-0.0014029997,0.07169297,-0.16946743,0.0,0.0,0.0
968,1778658328.7368088,-0.0014029997,0.07169297,-0.16946743,0.0,0.0,0.0
969,1778658328.7468095,-0.0014029997,0.07169297,-0.16946743,0.0,0.0,0.0
970,1778658328.7568104,0.018120784,0.059979014,-0.1616576,0.0,0.0,0.0
971,1778658328.766812,0.018120784,0.059979014,-0.1616576,0.0,0.0,0.0
972,1778658328.776813,0.018120784,0.059979014,-0.1616576,0.0,0.0,0.0
973,1778658328.7868154,0.018120784,0.059979014,-0.1616576,0.0,0.0,0.0
974,1778658328.7968187,0.018120784,0.059979014,-0.1616576,0.0,0.0,0.0
975,1778658328.8068202,0.018120784,0.059979014,-0.1616576,0.0,0.0,0.0
976,1778658328.8168206,0.018120784,0.059979014,-0.1616576,0.0,0.0,0.0
977,1778658328.8268216,0.018120784,0.059979014,-0.1616576,0.0,0.0,0.0
978,1778658328.836823,0.018120784,0.059979014,-0.1616576,0.0,0.0,0.0
979,1778658328.8468242,0.018120784,0.059979014,-0.1616576,0.0,0.0,0.0
980,1778658328.8568246,0.018120784,0.059979014,-0.1616576,0.0,0.0,0.0
981,1778658328.866826,0.018120784,0.059979014,-0.1616576,0.0,0.0,0.0
982,1778658328.8768265,0.018120784,0.059979014,-0.1616576,0.0,0.0,0.0
983,1778658328.886828,0.018120784,0.059979014,-0.1616576,0.0,0.0,0.0
984,1778658328.8968294,0.018120784,0.059979014,-0.1616576,0.0,0.0,0.0
985,1778658328.9068305,0.018120784,0.059979014,-0.1616576,0.0,0.0,0.0
986,1778658328.9168317,0.018120784,0.059979014,-0.1616576,0.0,0.0,0.0
987,1778658328.926833,0.018120784,0.059979014,-0.1616576,0.0,0.0,0.0
988,1778658328.9368336,0.018120784,0.059979014,-0.1616576,0.0,0.0,0.0
989,1778658328.946834,0.018120784,0.059979014,-0.1616576,0.0,0.0,0.0
990,1778658328.9568346,0.018120784,0.059979014,-0.1616576,0.0,0.0,0.0
991,1778658328.9668355,0.061075594,-0.08840764,-0.11089453,0.0,0.0,0.0
992,1778658328.9768367,0.061075594,-0.08840764,-0.11089453,0.0,0.0,0.0
993,1778658328.9868371,0.061075594,-0.08840764,-0.11089453,0.0,0.0,0.0
994,1778658328.996838,0.061075594,-0.08840764,-0.11089453,0.0,0.0,0.0
995,1778658329.006839,0.061075594,-0.08840764,-0.11089453,0.0,0.0,0.0
996,1778658329.01684,0.061075594,-0.08840764,-0.11089453,0.0,0.0,0.0
997,1778658329.0268414,0.061075594,-0.08840764,-0.11089453,0.0,0.0,0.0
998,1778658329.0368419,0.061075594,-0.08840764,-0.11089453,0.0,0.0,0.0
999,1778658329.0468428,0.061075594,-0.08840764,-0.11089453,0.0,0.0,0.0
1000,1778658329.0568438,0.061075594,-0.08840764,-0.11089453,0.0,0.0,0.0
