id,timestamp,acc_x,acc_y,acc_z,gyro_x,gyro_y,gyro_z
1,1778658659.4286125,0.30708584,0.20055585,0.6700895,0.0,0.0,0.0
2,1778658659.4386153,0.30708584,0.20055585,0.6700895,0.0,0.0,0.0
3,1778658659.4486196,0.30708584,0.20055585,0.6700895,0.0,0.0,0.0
4,1778658659.4586236,0.30708584,0.20055585,0.6700895,0.0,0.0,0.0
5,1778658659.4686282,0.30708584,0.20055585,0.6700895,0.0,0.0,0.0
6,1778658659.4786303,0.30708584,0.20055585,0.6700895,0.0,0.0,0.0
7,1778658659.488631,0.30708584,0.20055585,0.6700895,0.0,0.0,0.0
8,1778658659.4986327,0.30708584,0.20055585,0.6700895,0.0,0.0,0.0
9,1778658659.508637,0.30708584,0.20055585,0.6700895,0.0,0.0,0.0
10,1778658659.5186384,0.30708584,0.20055585,0.6700895,0.0,0.0,0.0
11,1778658659.5286403,0.30708584,0.20055585,0.6700895,0.0,0.0,0.0
12,1778658659.5386424,0.30708584,0.20055585,0.6700895,0.0,0.0,0.0
13,1778658659.5486438,0.30708584,0.20055585,0.6700895,0.0,0.0,0.0
14,1778658659.5586476,0.30708584,0.20055585,0.6700895,0.0,0.0,0.0
15,1778658659.5686488,0.30708584,0.20055585,0.6700895,0.0,0.0,0.0
16,1778658659.578651,0.33832514,0.25912875,0.8340958,0.0,0.0,0.0
17,1778658659.5886533,0.33832514,0.25912875,0.8340958,0.0,0.0,0.0
18,1778658659.5986543,0.33832514,0.25912875,0.8340958,0.0,0.0,0.0
19,1778658659.608656,0.33832514,0.25912875,0.8340958,0.0,0.0,0.0
20,1778658659.6186574,0.33832514,0.25912875,0.8340958,0.0,0.0,0.0
21,1778658659.6286583,0.33832514,0.25912875,0.8340958,0.0,0.0,0.0
22,1778658659.6386602,0.33832514,0.25912875,0.8340958,0.0,0.0,0.0
23,1778658659.6486611,0.33832514,0.25912875,0.8340958,0.0,0.0,0.0
24,1778658659.6586637,0.33832514,0.25912875,0.8340958,0.0,0.0,0.0
25,1778658659.6686668,0.33832514,0.25912875,0.8340958,0.0,0.0,0.0
26,1778658659.6786704,0.33832514,0.25912875,0.8340958,0.0,0.0,0.0
27,1778658659.6886737,0.33832514,0.25912875,0.8340958,0.0,0.0,0.0
28,1778658659.6986752,0.33832514,0.25912875,0.8340958,0.0,0.0,0.0
29,1778658659.7086756,0.33832514,0.25912875,0.8340958,0.0,0.0,0.0
30,1778658659.7186775,0.33832514,0.25912875,0.8340958,0.0,0.0,0.0
31,1778658659.7286782,0.33832514,0.25912875,0.8340958,0.0,0.0,0.0
32,1778658659.73868,0.33832514,0.25912875,0.8340958,0.0,0.0,0.0
33,1778658659.7486813,0.33832514,0.25912875,0.8340958,0.0,0.0,0.0
34,1778658659.7586823,0.33832514,0.25912875,0.8340958,0.0,0.0,0.0
35,1778658659.7686841,0.33832514,0.25912875,0.8340958,0.0,0.0,0.0
36,1778658659.7786858,0.33832514,0.25912875,0.8340958,0.0,0.0,0.0
37,1778658659.788687,0.33832514,0.25912875,0.8340958,0.0,0.0,0.0
38,1778658659.7986875,0.33832514,0.25912875,0.8340958,0.0,0.0,0.0
39,1778658659.8086882,0.33832514,0.25912875,0.8340958,0.0,0.0,0.0
40,1778658659.81869,0.33832514,0.25912875,0.8340958,0.0,0.0,0.0
41,1778658659.8286932,0.33832514,0.25912875,0.8340958,0.0,0.0,0.0
42,1778658659.8386946,0.33832514,0.25912875,0.8340958,0.0,0.0,0.0
43,1778658659.8486972,0.33832514,0.25912875,0.8340958,0.0,0.0,0.0
44,1778658659.8586988,0.33832514,0.25912875,0.8340958,0.0,0.0,0.0
45,1778658659.8686998,0.33832514,0.25912875,0.8340958,0.0,0.0,0.0
46,1778658659.8787012,0.33832514,0.25912875,0.8340958,0.0,0.0,0.0
47,1778658659.888704,0.33832514,0.25912875,0.8340958,0.0,0.0,0.0
48,1778658659.8987067,0.33832514,0.25912875,0.8340958,0.0,0.0,0.0
49,1778658659.9087083,0.33832514,0.25912875,0.8340958,0.0,0.0,0.0
50,1778658659.918711,0.33832514,0.25912875,0.8340958,0.0,0.0,0.0
51,1778658659.9287138,0.33832514,0.25912875,0.8340958,0.0,0.0,0.0
52,1778658659.9387157,0.70929104,0.056073327,0.8926702,0.0,0.0,0.0
53,1778658659.948718,0.70929104,0.056073327,0.8926702,0.0,0.0,0.0
54,1778658659.9587224,0.70929104,0.056073327,0.8926702,0.0,0.0,0.0
55,1778658659.9687243,0.70929104,0.056073327,0.8926702,0.0,0.0,0.0
56,1778658659.9787252,0.70929104,0.056073327,0.8926702,0.0,0.0,0.0
57,1778658659.9887264,0.70929104,0.056073327,0.8926702,0.0,0.0,0.0
58,1778658659.9987292,0.70929104,0.056073327,0.8926702,0.0,0.0,0.0
59,1778658660.0087314,0.70929104,0.056073327,0.8926702,0.0,0.0,0.0
60,1778658660.018734,0.70929104,0.056073327,0.8926702,0.0,0.0,0.0
61,1778658660.0287483,0.92796767,-0.19774674,0.88095474,0.0,0.0,0.0
62,1778658660.03875,0.92796767,-0.19774674,0.88095474,0.0,0.0,0.0
63,1778658660.0487516,0.92796767,-0.19774674,0.88095474,0.0,0.0,0.0
64,1778658660.058854,0.92796767,-0.19774674,0.88095474,0.0,0.0,0.0
65,1778658660.0688596,0.92796767,-0.19774674,0.88095474,0.0,0.0,0.0
66,1778658660.078861,0.92796767,-0.19774674,0.88095474,0.0,0.0,0.0
67,1778658660.0888617,0.92796767,-0.19774674,0.88095474,0.0,0.0,0.0
68,1778658660.0988648,0.92796767,-0.19774674,0.88095474,0.0,0.0,0.0
69,1778658660.108867,0.92796767,-0.19774674,0.88095474,0.0,0.0,0.0
70,1778658660.118868,0.92796767,-0.19774674,0.88095474,0.0,0.0,0.0
71,1778658660.128869,0.92796767,-0.19774674,0.88095474,0.0,0.0,0.0
72,1778658660.138871,0.92796767,-0.19774674,0.88095474,0.0,0.0,0.0
73,1778658660.1488717,0.92796767,-0.19774674,0.88095474,0.0,0.0,0.0
74,1778658660.158873,0.92796767,-0.19774674,0.88095474,0.0,0.0,0.0
75,1778658660.168874,0.92796767,-0.19774674,0.88095474,0.0,0.0,0.0
76,1778658660.1788747,0.92796767,-0.19774674,0.88095474,0.0,0.0,0.0
77,1778658660.1888778,0.9982561,-0.5374733,0.81847614,0.0,0.0,0.0
78,1778658660.198879,0.9982561,-0.5374733,0.81847614,0.0,0.0,0.0
79,1778658660.2088816,0.9982561,-0.5374733,0.81847614,0.0,0.0,0.0
80,1778658660.218883,0.9982561,-0.5374733,0.81847614,0.0,0.0,0.0
81,1778658660.228884,0.9982561,-0.5374733,0.81847614,0.0,0.0,0.0
82,1778658660.2388852,0.9982561,-0.5374733,0.81847614,0.0,0.0,0.0
83,1778658660.2489038,0.9982561,-0.5374733,0.81847614,0.0,0.0,0.0
84,1778658660.258907,0.9982561,-0.5374733,0.81847614,0.0,0.0,0.0
85,1778658660.2689095,0.9982561,-0.5374733,0.81847614,0.0,0.0,0.0
86,1778658660.2789104,0.9982561,-0.5374733,0.81847614,0.0,0.0,0.0
87,1778658660.2889118,0.9982561,-0.5374733,0.81847614,0.0,0.0,0.0
88,1778658660.2989132,0.9982561,-0.5374733,0.81847614,0.0,0.0,0.0
89,1778658660.308914,0.9982561,-0.5374733,0.81847614,0.0,0.0,0.0
90,1778658660.318915,0.9982561,-0.5374733,0.81847614,0.0,0.0,0.0
91,1778658660.3289165,0.9982561,-0.5374733,0.81847614,0.0,0.0,0.0
92,1778658660.338917,0.9982561,-0.5374733,0.81847614,0.0,0.0,0.0
93,1778658660.3489206,0.9982561,-0.5374733,0.81847614,0.0,0.0,0.0
94,1778658660.3589222,0.92796767,-0.19774674,0.88095474,0.0,0.0,0.0
95,1778658660.368923,0.92796767,-0.19774674,0.88095474,0.0,0.0,0.0
96,1778658660.378924,0.92796767,-0.19774674,0.88095474,0.0,0.0,0.0
97,1778658660.3889244,0.92796767,-0.19774674,0.88095474,0.0,0.0,0.0
98,1778658660.3989258,0.6077633,-0.7678639,0.084352635,0.0,0.0,0.0
99,1778658660.4089272,0.6077633,-0.7678639,0.084352635,0.0,0.0,0.0
100,1778658660.4189281,0.6077633,-0.7678639,0.084352635,0.0,0.0,0.0
101,1778658660.4289293,0.6077633,-0.7678639,0.084352635,0.0,0.0,0.0
102,1778658660.438931,0.6077633,-0.7678639,0.084352635,0.0,0.0,0.0
103,1778658660.4489322,0.6077633,-0.7678639,0.084352635,0.0,0.0,0.0
104,1778658660.4589334,0.6077633,-0.7678639,0.084352635,0.0,0.0,0.0
105,1778658660.4689353,0.6077633,-0.7678639,0.084352635,0.0,0.0,0.0
106,1778658660.478937,0.6077633,-0.7678639,0.084352635,0.0,0.0,0.0
107,1778658660.4889405,0.6077633,-0.7678639,0.084352635,0.0,0.0,0.0
108,1778658660.4989421,0.6077633,-0.7678639,0.084352635,0.0,0.0,0.0
109,1778658660.5089467,0.6077633,-0.7678639,0.084352635,0.0,0.0,0.0
110,1778658660.5189486,0.6077633,-0.7678639,0.084352635,0.0,0.0,0.0
111,1778658660.5289493,0.6077633,-0.7678639,0.084352635,0.0,0.0,0.0
112,1778658660.5389519,0.6077633,-0.7678639,0.084352635,0.0,0.0,0.0
113,1778658660.5489535,0.6077633,-0.7678639,0.084352635,0.0,0.0,0.0
114,1778658660.5589545,0.6077633,-0.7678639,0.084352635,0.0,0.0,0.0
115,1778658660.568956,0.6077633,-0.7678639,0.084352635,0.0,0.0,0.0
116,1778658660.5789573,0.6077633,-0.7678639,0.084352635,0.0,0.0,0.0
117,1778658660.5889585,0.6077633,-0.7678639,0.084352635,0.0,0.0,0.0
118,1778658660.59896,0.6077633,-0.7678639,0.084352635,0.0,0.0,0.0
119,1778658660.6089625,0.6077633,-0.7678639,0.084352635,0.0,0.0,0.0
120,1778658660.6189642,0.6077633,-0.7678639,0.084352635,0.0,0.0,0.0
121,1778658660.6289654,0.6077633,-0.7678639,0.084352635,0.0,0.0,0.0
122,1778658660.638966,0.6077633,-0.7678639,0.084352635,0.0,0.0,0.0
123,1778658660.6489685,0.6077633,-0.7678639,0.084352635,0.0,0.0,0.0
124,1778658660.6589694,0.6077633,-0.7678639,0.084352635,0.0,0.0,0.0
125,1778658660.6689703,0.6077633,-0.7678639,0.084352635,0.0,0.0,0.0
126,1778658660.678972,0.6077633,-0.7678639,0.084352635,0.0,0.0,0.0
127,1778658660.6889734,0.6077633,-0.7678639,0.084352635,0.0,0.0,0.0
128,1778658660.6989741,0.6077633,-0.7678639,0.084352635,0.0,0.0,0.0
129,1778658660.708978,0.6077633,-0.7678639,0.084352635,0.0,0.0,0.0
130,1778658660.7189796,0.6077633,-0.7678639,0.084352635,0.0,0.0,0.0
131,1778658660.72898,0.6077633,-0.7678639,0.084352635,0.0,0.0,0.0
132,1778658660.7389824,0.23289172,-1.4160793,0.47093818,0.0,0.0,0.0
133,1778658660.748984,0.23289172,-1.4160793,0.47093818,0.0,0.0,0.0
134,1778658660.758985,0.23289172,-1.4160793,0.47093818,0.0,0.0,0.0
135,1778658660.7689867,0.23289172,-1.4160793,0.47093818,0.0,0.0,0.0
136,1778658660.7789874,0.23289172,-1.4160793,0.47093818,0.0,0.0,0.0
137,1778658660.788988,0.23289172,-1.4160793,0.47093818,0.0,0.0,0.0
138,1778658660.7989893,0.23289172,-1.4160793,0.47093818,0.0,0.0,0.0
139,1778658660.8089902,0.23289172,-1.4160793,0.47093818,0.0,0.0,0.0
140,1778658660.818992,0.23289172,-1.4160793,0.47093818,0.0,0.0,0.0
141,1778658660.8289938,0.23289172,-1.4160793,0.47093818,0.0,0.0,0.0
142,1778658660.8389943,0.23289172,-1.4160793,0.47093818,0.0,0.0,0.0
143,1778658660.8489962,0.23289172,-1.4160793,0.47093818,0.0,0.0,0.0
144,1778658660.8589983,0.23289172,-1.4160793,0.47093818,0.0,0.0,0.0
145,1778658660.8689992,0.23289172,-1.4160793,0.47093818,0.0,0.0,0.0
146,1778658660.8790004,0.23289172,-1.4160793,0.47093818,0.0,0.0,0.0
147,1778658660.8890517,0.36956444,-1.7948565,0.5490364,0.0,0.0,0.0
148,1778658660.899053,0.36956444,-1.7948565,0.5490364,0.0,0.0,0.0
149,1778658660.9090564,0.36956444,-1.7948565,0.5490364,0.0,0.0,0.0
150,1778658660.9190578,0.36956444,-1.7948565,0.5490364,0.0,0.0,0.0
151,1778658660.929059,0.36956444,-1.7948565,0.5490364,0.0,0.0,0.0
152,1778658660.9390612,0.36956444,-1.7948565,0.5490364,0.0,0.0,0.0
153,1778658660.9490619,0.36956444,-1.7948565,0.5490364,0.0,0.0,0.0
154,1778658660.9590628,0.36956444,-1.7948565,0.5490364,0.0,0.0,0.0
155,1778658660.969065,0.36956444,-1.7948565,0.5490364,0.0,0.0,0.0
156,1778658660.979066,0.36956444,-1.7948565,0.5490364,0.0,0.0,0.0
157,1778658660.9890676,0.36956444,-1.7948565,0.5490364,0.0,0.0,0.0
158,1778658660.9990697,0.36956444,-1.7948565,0.5490364,0.0,0.0,0.0
159,1778658661.009071,0.36956444,-1.7948565,0.5490364,0.0,0.0,0.0
160,1778658661.019072,0.36956444,-1.7948565,0.5490364,0.0,0.0,0.0
161,1778658661.0291107,0.36956444,-1.7948565,0.5490364,0.0,0.0,0.0
162,1778658661.0391116,0.36956444,-1.7948565,0.5490364,0.0,0.0,0.0
163,1778658661.0491128,0.36956444,-1.7948565,0.5490364,0.0,0.0,0.0
164,1778658661.0591152,0.36956444,-1.7948565,0.5490364,0.0,0.0,0.0
165,1778658661.0691164,0.36956444,-1.7948565,0.5490364,0.0,0.0,0.0
166,1778658661.079118,0.36956444,-1.7948565,0.5490364,0.0,0.0,0.0
167,1778658661.089119,0.36956444,-1.7948565,0.5490364,0.0,0.0,0.0
168,1778658661.0991206,0.6819574,-2.8140395,0.28740805,0.0,0.0,0.0
169,1778658661.1091218,0.6819574,-2.8140395,0.28740805,0.0,0.0,0.0
170,1778658661.1191223,0.6819574,-2.8140395,0.28740805,0.0,0.0,0.0
171,1778658661.129124,0.6819574,-2.8140395,0.28740805,0.0,0.0,0.0
172,1778658661.1391253,0.6819574,-2.8140395,0.28740805,0.0,0.0,0.0
173,1778658661.1491296,0.6819574,-2.8140395,0.28740805,0.0,0.0,0.0
174,1778658661.1591327,0.75614995,-3.1693873,0.2639786,0.0,0.0,0.0
175,1778658661.169134,0.75614995,-3.1693873,0.2639786,0.0,0.0,0.0
176,1778658661.179135,0.75614995,-3.1693873,0.2639786,0.0,0.0,0.0
177,1778658661.1891363,0.75614995,-3.1693873,0.2639786,0.0,0.0,0.0
178,1778658661.1991384,0.75614995,-3.1693873,0.2639786,0.0,0.0,0.0
179,1778658661.2091393,0.75614995,-3.1693873,0.2639786,0.0,0.0,0.0
180,1778658661.2191405,0.75614995,-3.1693873,0.2639786,0.0,0.0,0.0
181,1778658661.2291415,0.75614995,-3.1693873,0.2639786,0.0,0.0,0.0
182,1778658661.239143,0.75614995,-3.1693873,0.2639786,0.0,0.0,0.0
183,1778658661.2491438,0.75614995,-3.1693873,0.2639786,0.0,0.0,0.0
184,1778658661.2591448,0.75614995,-3.1693873,0.2639786,0.0,0.0,0.0
185,1778658661.2691467,0.75614995,-3.1693873,0.2639786,0.0,0.0,0.0
186,1778658661.2791483,0.75614995,-3.1693873,0.2639786,0.0,0.0,0.0
187,1778658661.2891495,0.75614995,-3.1693873,0.2639786,0.0,0.0,0.0
188,1778658661.299153,0.75614995,-3.1693873,0.2639786,0.0,0.0,0.0
189,1778658661.3091562,0.75614995,-3.1693873,0.2639786,0.0,0.0,0.0
190,1778658661.3191578,0.75614995,-3.1693873,0.2639786,0.0,0.0,0.0
191,1778658661.3291593,0.75614995,-3.1693873,0.2639786,0.0,0.0,0.0
192,1778658661.3391602,0.75614995,-3.1693873,0.2639786,0.0,0.0,0.0
193,1778658661.3491611,0.75614995,-3.1693873,0.2639786,0.0,0.0,0.0
194,1778658661.3591626,0.75614995,-3.1693873,0.2639786,0.0,0.0,0.0
195,1778658661.369163,0.75614995,-3.1693873,0.2639786,0.0,0.0,0.0
196,1778658661.379164,0.75614995,-3.1693873,0.2639786,0.0,0.0,0.0
197,1778658661.3891656,0.75614995,-3.1693873,0.2639786,0.0,0.0,0.0
198,1778658661.399167,0.75614995,-3.1693873,0.2639786,0.0,0.0,0.0
199,1778658661.4091692,0.75614995,-3.1693873,0.2639786,0.0,0.0,0.0
200,1778658661.4191716,0.75614995,-3.1693873,0.2639786,0.0,0.0,0.0
201,1778658661.4291759,0.75614995,-3.1693873,0.2639786,0.0,0.0,0.0
202,1778658661.4391794,0.75614995,-3.1693873,0.2639786,0.0,0.0,0.0
203,1778658661.449181,0.75614995,-3.1693873,0.2639786,0.0,0.0,0.0
204,1778658661.459182,0.75614995,-3.1693873,0.2639786,0.0,0.0,0.0
205,1778658661.469184,0.75614995,-3.1693873,0.2639786,0.0,0.0,0.0
206,1778658661.4791846,0.75614995,-3.1693873,0.2639786,0.0,0.0,0.0
207,1778658661.489186,0.75614995,-3.1693873,0.2639786,0.0,0.0,0.0
208,1778658661.4991868,0.75614995,-3.1693873,0.2639786,0.0,0.0,0.0
209,1778658661.5091872,0.75614995,-3.1693873,0.2639786,0.0,0.0,0.0
210,1778658661.519189,0.75614995,-3.1693873,0.2639786,0.0,0.0,0.0
211,1778658661.5291905,0.75614995,-3.1693873,0.2639786,0.0,0.0,0.0
212,1778658661.5391917,0.75614995,-3.1693873,0.2639786,0.0,0.0,0.0
213,1778658661.5491943,0.75614995,-3.1693873,0.2639786,0.0,0.0,0.0
214,1778658661.5591958,0.75614995,-3.1693873,0.2639786,0.0,0.0,0.0
215,1778658661.5691965,0.75614995,-3.1693873,0.2639786,0.0,0.0,0.0
216,1778658661.5791981,0.75614995,-3.1693873,0.2639786,0.0,0.0,0.0
217,1778658661.589199,0.75614995,-3.1693873,0.2639786,0.0,0.0,0.0
218,1778658661.5992002,0.75614995,-3.1693873,0.2639786,0.0,0.0,0.0
219,1778658661.6092014,0.75614995,-3.1693873,0.2639786,0.0,0.0,0.0
220,1778658661.6192024,0.75614995,-3.1693873,0.2639786,0.0,0.0,0.0
221,1778658661.6292038,0.75614995,-3.1693873,0.2639786,0.0,0.0,0.0
222,1778658661.6392052,0.75614995,-3.1693873,0.2639786,0.0,0.0,0.0
223,1778658661.649206,0.75614995,-3.1693873,0.2639786,0.0,0.0,0.0
224,1778658661.6592073,-0.80191076,-2.5485053,0.04920765,0.0,0.0,0.0
225,1778658661.6692088,-0.80191076,-2.5485053,0.04920765,0.0,0.0,0.0
226,1778658661.6792095,-0.80191076,-2.5485053,0.04920765,0.0,0.0,0.0
227,1778658661.6892111,-0.80191076,-2.5485053,0.04920765,0.0,0.0,0.0
228,1778658661.6992123,-0.80191076,-2.5485053,0.04920765,0.0,0.0,0.0
229,1778658661.7092137,-0.80191076,-2.5485053,0.04920765,0.0,0.0,0.0
230,1778658661.7192159,-0.80191076,-2.5485053,0.04920765,0.0,0.0,0.0
231,1778658661.729217,-0.80191076,-2.5485053,0.04920765,0.0,0.0,0.0
232,1778658661.7392182,-0.80191076,-2.5485053,0.04920765,0.0,0.0,0.0
233,1778658661.7492213,-0.96201295,-4.2002854,0.08825677,0.0,0.0,0.0
234,1778658661.7592254,-0.96201295,-4.2002854,0.08825677,0.0,0.0,0.0
235,1778658661.7692263,-0.96201295,-4.2002854,0.08825677,0.0,0.0,0.0
236,1778658661.7792277,-0.96201295,-4.2002854,0.08825677,0.0,0.0,0.0
237,1778658661.7892284,-0.96201295,-4.2002854,0.08825677,0.0,0.0,0.0
238,1778658661.799229,-0.96201295,-4.2002854,0.08825677,0.0,0.0,0.0
239,1778658661.8092296,-0.96201295,-4.2002854,0.08825677,0.0,0.0,0.0
240,1778658661.8192313,-0.96201295,-4.2002854,0.08825677,0.0,0.0,0.0
241,1778658661.8292325,-0.96201295,-4.2002854,0.08825677,0.0,0.0,0.0
242,1778658661.8392334,-0.96201295,-4.2002854,0.08825677,0.0,0.0,0.0
243,1778658661.8492346,-0.96201295,-4.2002854,0.08825677,0.0,0.0,0.0
244,1778658661.8592362,-0.96201295,-4.2002854,0.08825677,0.0,0.0,0.0
245,1778658661.8692377,-0.96201295,-4.2002854,0.08825677,0.0,0.0,0.0
246,1778658661.8792386,-0.96201295,-4.2002854,0.08825677,0.0,0.0,0.0
247,1778658661.8892395,-0.96201295,-4.2002854,0.08825677,0.0,0.0,0.0
248,1778658661.8992405,-0.96201295,-4.2002854,0.08825677,0.0,0.0,0.0
249,1778658661.9092417,-0.96201295,-4.2002854,0.08825677,0.0,0.0,0.0
250,1778658661.9192424,-0.96201295,-4.2002854,0.08825677,0.0,0.0,0.0
251,1778658661.9292436,-0.96201295,-4.2002854,0.08825677,0.0,0.0,0.0
252,1778658661.939245,-0.96201295,-4.2002854,0.08825677,0.0,0.0,0.0
253,1778658661.949246,-0.96201295,-4.2002854,0.08825677,0.0,0.0,0.0
254,1778658661.9592483,-0.6964789,-1.9315293,0.37331614,0.0,0.0,0.0
255,1778658661.9692495,-0.6964789,-1.9315293,0.37331614,0.0,0.0,0.0
256,1778658661.979251,-0.6964789,-1.9315293,0.37331614,0.0,0.0,0.0
257,1778658661.989252,-0.6964789,-1.9315293,0.37331614,0.0,0.0,0.0
258,1778658661.9992533,-0.6964789,-1.9315293,0.37331614,0.0,0.0,0.0
259,1778658662.0092542,-0.6964789,-1.9315293,0.37331614,0.0,0.0,0.0
260,1778658662.019256,-0.6964789,-1.9315293,0.37331614,0.0,0.0,0.0
261,1778658662.0292573,-0.6964789,-1.9315293,0.37331614,0.0,0.0,0.0
262,1778658662.039258,-0.6964789,-1.9315293,0.37331614,0.0,0.0,0.0
263,1778658662.0492601,-0.6964789,-1.9315293,0.37331614,0.0,0.0,0.0
264,1778658662.059261,-0.6964789,-1.9315293,0.37331614,0.0,0.0,0.0
265,1778658662.069262,-0.6964789,-1.9315293,0.37331614,0.0,0.0,0.0
266,1778658662.0792634,-0.6964789,-1.9315293,0.37331614,0.0,0.0,0.0
267,1778658662.0892653,-0.6964789,-1.9315293,0.37331614,0.0,0.0,0.0
268,1778658662.0992672,-0.6964789,-1.9315293,0.37331614,0.0,0.0,0.0
269,1778658662.1092715,-0.6964789,-1.9315293,0.37331614,0.0,0.0,0.0
270,1778658662.1192727,-0.6964789,-1.9315293,0.37331614,0.0,0.0,0.0
271,1778658662.1292741,-0.6964789,-1.9315293,0.37331614,0.0,0.0,0.0
272,1778658662.1392756,-0.6964789,-1.9315293,0.37331614,0.0,0.0,0.0
273,1778658662.1492767,-0.6964789,-1.9315293,0.37331614,0.0,0.0,0.0
274,1778658662.1592786,-0.6964789,-1.9315293,0.37331614,0.0,0.0,0.0
275,1778658662.1692803,-0.6964789,-1.9315293,0.37331614,0.0,0.0,0.0
276,1778658662.1792812,-0.6964789,-1.9315293,0.37331614,0.0,0.0,0.0
277,1778658662.1892824,-0.46999246,-1.6152307,0.43969887,0.0,0.0,0.0
278,1778658662.1992834,-0.46999246,-1.6152307,0.43969887,0.0,0.0,0.0
279,1778658662.2092843,-0.46999246,-1.6152307,0.43969887,0.0,0.0,0.0
280,1778658662.219286,-0.46999246,-1.6152307,0.43969887,0.0,0.0,0.0
281,1778658662.2292867,-0.46999246,-1.6152307,0.43969887,0.0,0.0,0.0
282,1778658662.2392874,-0.46999246,-1.6152307,0.43969887,0.0,0.0,0.0
283,1778658662.2492888,-0.46999246,-1.6152307,0.43969887,0.0,0.0,0.0
284,1778658662.2592905,-0.46999246,-1.6152307,0.43969887,0.0,0.0,0.0
285,1778658662.2692926,-0.46999246,-1.6152307,0.43969887,0.0,0.0,0.0
286,1778658662.279295,-0.41141954,-1.4941776,0.3225515,0.0,0.0,0.0
287,1778658662.289296,-0.41141954,-1.4941776,0.3225515,0.0,0.0,0.0
288,1778658662.299297,-0.41141954,-1.4941776,0.3225515,0.0,0.0,0.0
289,1778658662.3092988,-0.41141954,-1.4941776,0.3225515,0.0,0.0,0.0
290,1778658662.3193,-0.41141954,-1.4941776,0.3225515,0.0,0.0,0.0
291,1778658662.3293014,-0.41141954,-1.4941776,0.3225515,0.0,0.0,0.0
292,1778658662.3393035,-0.41141954,-1.4941776,0.3225515,0.0,0.0,0.0
293,1778658662.3493054,-0.41141954,-1.4941776,0.3225515,0.0,0.0,0.0
294,1778658662.3593066,-0.41141954,-1.4941776,0.3225515,0.0,0.0,0.0
295,1778658662.369307,-0.41141954,-1.4941776,0.3225515,0.0,0.0,0.0
296,1778658662.3793082,-0.41141954,-1.4941776,0.3225515,0.0,0.0,0.0
297,1778658662.3893096,-0.41141954,-1.4941776,0.3225515,0.0,0.0,0.0
298,1778658662.3993108,-0.41141954,-1.4941776,0.3225515,0.0,0.0,0.0
299,1778658662.409312,-0.41141954,-1.4941776,0.3225515,0.0,0.0,0.0
300,1778658662.4193132,-0.41141954,-1.4941776,0.3225515,0.0,0.0,0.0
301,1778658662.4293144,-0.41141954,-1.4941776,0.3225515,0.0,0.0,0.0
302,1778658662.4393172,-0.41141954,-1.4941776,0.3225515,0.0,0.0,0.0
303,1778658662.4493184,-0.41141954,-1.4941776,0.3225515,0.0,0.0,0.0
304,1778658662.4593198,-0.41141954,-1.4941776,0.3225515,0.0,0.0,0.0
305,1778658662.4693213,-0.41141954,-1.4941776,0.3225515,0.0,0.0,0.0
306,1778658662.4793222,-0.41141954,-1.4941776,0.3225515,0.0,0.0,0.0
307,1778658662.4893234,-0.41141954,-1.4941776,0.3225515,0.0,0.0,0.0
308,1778658662.499325,-0.41141954,-1.4941776,0.3225515,0.0,0.0,0.0
309,1778658662.5093281,-0.41141954,-1.4941776,0.3225515,0.0,0.0,0.0
310,1778658662.51933,-0.41141954,-1.4941776,0.3225515,0.0,0.0,0.0
311,1778658662.5293314,-0.41141954,-1.4941776,0.3225515,0.0,0.0,0.0
312,1778658662.5393324,-0.41141954,-1.4941776,0.3225515,0.0,0.0,0.0
313,1778658662.549334,-0.41141954,-1.4941776,0.3225515,0.0,0.0,0.0
314,1778658662.5593357,-0.41141954,-1.4941776,0.3225515,0.0,0.0,0.0
315,1778658662.569337,-0.41141954,-1.4941776,0.3225515,0.0,0.0,0.0
316,1778658662.5793388,-0.41141954,-1.4941776,0.3225515,0.0,0.0,0.0
317,1778658662.58934,-0.41141954,-1.4941776,0.3225515,0.0,0.0,0.0
318,1778658662.5993414,-0.41141954,-1.4941776,0.3225515,0.0,0.0,0.0
319,1778658662.6093435,-0.50513744,-1.3496966,0.045303512,0.0,0.0,0.0
320,1778658662.619345,-0.50513744,-1.3496966,0.045303512,0.0,0.0,0.0
321,1778658662.6293464,-0.50513744,-1.3496966,0.045303512,0.0,0.0,0.0
322,1778658662.6393487,-0.50513744,-1.3496966,0.045303512,0.0,0.0,0.0
323,1778658662.6493495,-0.50513744,-1.3496966,0.045303512,0.0,0.0,0.0
324,1778658662.659351,-0.50513744,-1.3496966,0.045303512,0.0,0.0,0.0
325,1778658662.6693528,-0.50513744,-1.3496966,0.045303512,0.0,0.0,0.0
326,1778658662.679354,-0.50513744,-1.3496966,0.045303512,0.0,0.0,0.0
327,1778658662.689357,-0.50513744,-1.3496966,0.045303512,0.0,0.0,0.0
328,1778658662.6993585,-0.50513744,-1.3496966,0.045303512,0.0,0.0,0.0
329,1778658662.7093592,-0.50513744,-1.3496966,0.045303512,0.0,0.0,0.0
330,1778658662.719361,-0.5090416,-1.3887458,0.04920765,0.0,0.0,0.0
331,1778658662.729363,-0.5090416,-1.3887458,0.04920765,0.0,0.0,0.0
332,1778658662.7393649,-0.5090416,-1.3887458,0.04920765,0.0,0.0,0.0
333,1778658662.7493665,-0.5090416,-1.3887458,0.04920765,0.0,0.0,0.0
334,1778658662.7593675,-0.5090416,-1.3887458,0.04920765,0.0,0.0,0.0
335,1778658662.769369,-0.5090416,-1.3887458,0.04920765,0.0,0.0,0.0
336,1778658662.7793705,-0.5090416,-1.3887458,0.04920765,0.0,0.0,0.0
337,1778658662.7893717,-0.5090416,-1.3887458,0.04920765,0.0,0.0,0.0
338,1778658662.7993734,-0.5090416,-1.3887458,0.04920765,0.0,0.0,0.0
339,1778658662.8093965,-0.5090416,-1.3887458,0.04920765,0.0,0.0,0.0
340,1778658662.8193977,-0.5090416,-1.3887458,0.04920765,0.0,0.0,0.0
341,1778658662.8293989,-0.5090416,-1.3887458,0.04920765,0.0,0.0,0.0
342,1778658662.8393996,-0.5090416,-1.3887458,0.04920765,0.0,0.0,0.0
343,1778658662.849401,-0.5090416,-1.3887458,0.04920765,0.0,0.0,0.0
344,1778658662.8594022,-0.37237042,-1.6503756,0.22102378,0.0,0.0,0.0
345,1778658662.8694034,-0.37237042,-1.6503756,0.22102378,0.0,0.0,0.0
346,1778658662.8794048,-0.37237042,-1.6503756,0.22102378,0.0,0.0,0.0
347,1778658662.8894057,-0.5090416,-1.3887458,0.04920765,0.0,0.0,0.0
348,1778658662.8994067,-0.5090416,-1.3887458,0.04920765,0.0,0.0,0.0
349,1778658662.9094074,-0.5090416,-1.3887458,0.04920765,0.0,0.0,0.0
350,1778658662.91941,-0.5090416,-1.3887458,0.04920765,0.0,0.0,0.0
351,1778658662.9294116,-0.5090416,-1.3887458,0.04920765,0.0,0.0,0.0
352,1778658662.9394128,-0.5090416,-1.3887458,0.04920765,0.0,0.0,0.0
353,1778658662.9494388,-0.5090416,-1.3887458,0.04920765,0.0,0.0,0.0
354,1778658662.9594405,-0.5090416,-1.3887458,0.04920765,0.0,0.0,0.0
355,1778658662.969442,-0.5090416,-1.3887458,0.04920765,0.0,0.0,0.0
356,1778658662.9794438,-0.5090416,-1.3887458,0.04920765,0.0,0.0,0.0
357,1778658662.9894457,-0.3255115,-1.6894248,0.22102378,0.0,0.0,0.0
358,1778658662.9994469,-0.3255115,-1.6894248,0.22102378,0.0,0.0,0.0
359,1778658663.009448,-0.3255115,-1.6894248,0.22102378,0.0,0.0,0.0
360,1778658663.0194492,-0.3255115,-1.6894248,0.22102378,0.0,0.0,0.0
361,1778658663.029451,-0.3255115,-1.6894248,0.22102378,0.0,0.0,0.0
362,1778658663.0394514,-0.3255115,-1.6894248,0.22102378,0.0,0.0,0.0
363,1778658663.0494528,-0.25522307,-1.732378,0.22102378,0.0,0.0,0.0
364,1778658663.0594537,-0.25522307,-1.732378,0.22102378,0.0,0.0,0.0
365,1778658663.0694547,-0.25522307,-1.732378,0.22102378,0.0,0.0,0.0
366,1778658663.079456,-0.25522307,-1.732378,0.22102378,0.0,0.0,0.0
367,1778658663.0894566,-0.25522307,-1.732378,0.22102378,0.0,0.0,0.0
368,1778658663.099458,-0.25522307,-1.732378,0.22102378,0.0,0.0,0.0
369,1778658663.1094596,-0.3255115,-1.6894248,0.22102378,0.0,0.0,0.0
370,1778658663.119461,-0.3255115,-1.6894248,0.22102378,0.0,0.0,0.0
371,1778658663.1294627,-0.3255115,-1.6894248,0.22102378,0.0,0.0,0.0
372,1778658663.1394641,-0.3255115,-1.6894248,0.22102378,0.0,0.0,0.0
373,1778658663.1494646,-0.3255115,-1.6894248,0.22102378,0.0,0.0,0.0
374,1778658663.1594658,-0.3255115,-1.6894248,0.22102378,0.0,0.0,0.0
375,1778658663.1694667,-0.3255115,-1.6894248,0.22102378,0.0,0.0,0.0
376,1778658663.1794677,-0.3255115,-1.6894248,0.22102378,0.0,0.0,0.0
377,1778658663.1894689,-0.3255115,-1.6894248,0.22102378,0.0,0.0,0.0
378,1778658663.1994698,-0.3255115,-1.6894248,0.22102378,0.0,0.0,0.0
379,1778658663.2094712,-0.3255115,-1.6894248,0.22102378,0.0,0.0,0.0
380,1778658663.2194717,-0.3255115,-1.6894248,0.22102378,0.0,0.0,0.0
381,1778658663.2294729,-0.3255115,-1.6894248,0.22102378,0.0,0.0,0.0
382,1778658663.239474,-0.3255115,-1.6894248,0.22102378,0.0,0.0,0.0
383,1778658663.2494752,-0.3255115,-1.6894248,0.22102378,0.0,0.0,0.0
384,1778658663.2594762,-0.3255115,-1.6894248,0.22102378,0.0,0.0,0.0
385,1778658663.269478,-0.024832472,-1.7519033,0.23664343,0.0,0.0,0.0
386,1778658663.2794788,-0.024832472,-1.7519033,0.23664343,0.0,0.0,0.0
387,1778658663.2894797,-0.024832472,-1.7519033,0.23664343,0.0,0.0,0.0
388,1778658663.2994812,-0.024832472,-1.7519033,0.23664343,0.0,0.0,0.0
389,1778658663.309482,-0.024832472,-1.7519033,0.23664343,0.0,0.0,0.0
390,1778658663.3194838,-0.024832472,-1.7519033,0.23664343,0.0,0.0,0.0
391,1778658663.329485,-0.024832472,-1.7519033,0.23664343,0.0,0.0,0.0
392,1778658663.3394864,-0.024832472,-1.7519033,0.23664343,0.0,0.0,0.0
393,1778658663.3494878,-0.024832472,-1.7519033,0.23664343,0.0,0.0,0.0
394,1778658663.3594902,-0.024832472,-1.7519033,0.23664343,0.0,0.0,0.0
395,1778658663.369491,-0.024832472,-1.7519033,0.23664343,0.0,0.0,0.0
396,1778658663.3794918,-0.024832472,-1.7519033,0.23664343,0.0,0.0,0.0
397,1778658663.3894925,-0.024832472,-1.7519033,0.23664343,0.0,0.0,0.0
398,1778658663.399494,0.22898759,-1.4121752,0.26788273,0.0,0.0,0.0
399,1778658663.409495,0.22898759,-1.4121752,0.26788273,0.0,0.0,0.0
400,1778658663.4194963,0.22898759,-1.4121752,0.26788273,0.0,0.0,0.0
401,1778658663.4295,0.22898759,-1.4121752,0.26788273,0.0,0.0,0.0
402,1778658663.4395022,0.22898759,-1.4121752,0.26788273,0.0,0.0,0.0
403,1778658663.449504,0.22898759,-1.4121752,0.26788273,0.0,0.0,0.0
404,1778658663.459506,0.27584654,-1.3614106,0.25226307,0.0,0.0,0.0
405,1778658663.4695072,0.27584654,-1.3614106,0.25226307,0.0,0.0,0.0
406,1778658663.4795082,0.27584654,-1.3614106,0.25226307,0.0,0.0,0.0
407,1778658663.489509,0.27584654,-1.3614106,0.25226307,0.0,0.0,0.0
408,1778658663.4995098,0.27584654,-1.3614106,0.25226307,0.0,0.0,0.0
409,1778658663.5095115,0.27584654,-1.3614106,0.25226307,0.0,0.0,0.0
410,1778658663.5195122,0.27584654,-1.3614106,0.25226307,0.0,0.0,0.0
411,1778658663.529513,0.27584654,-1.3614106,0.25226307,0.0,0.0,0.0
412,1778658663.539514,0.27584654,-1.3614106,0.25226307,0.0,0.0,0.0
413,1778658663.5495152,0.27584654,-1.3614106,0.25226307,0.0,0.0,0.0
414,1778658663.559516,0.27584654,-1.3614106,0.25226307,0.0,0.0,0.0
415,1778658663.5695179,0.27584654,-1.3614106,0.25226307,0.0,0.0,0.0
416,1778658663.5795197,0.27584654,-1.3614106,0.25226307,0.0,0.0,0.0
417,1778658663.589521,0.27584654,-1.3614106,0.25226307,0.0,0.0,0.0
418,1778658663.5995224,0.27584654,-1.3614106,0.25226307,0.0,0.0,0.0
419,1778658663.6095243,0.27584654,-1.3614106,0.25226307,0.0,0.0,0.0
420,1778658663.6195257,0.27584654,-1.3614106,0.25226307,0.0,0.0,0.0
421,1778658663.629527,0.27584654,-1.3614106,0.25226307,0.0,0.0,0.0
422,1778658663.6395283,0.27584654,-1.3614106,0.25226307,0.0,0.0,0.0
423,1778658663.649529,0.27584654,-1.3614106,0.25226307,0.0,0.0,0.0
424,1778658663.65953,0.27584654,-1.3614106,0.25226307,0.0,0.0,0.0
425,1778658663.6695309,0.27584654,-1.3614106,0.25226307,0.0,0.0,0.0
426,1778658663.679532,0.27584654,-1.3614106,0.25226307,0.0,0.0,0.0
427,1778658663.6895342,0.27584654,-1.3614106,0.25226307,0.0,0.0,0.0
428,1778658663.6995351,0.27584654,-1.3614106,0.25226307,0.0,0.0,0.0
429,1778658663.709536,0.27584654,-1.3614106,0.25226307,0.0,0.0,0.0
430,1778658663.7195382,0.27584654,-1.3614106,0.25226307,0.0,0.0,0.0
431,1778658663.7295392,0.27584654,-1.3614106,0.25226307,0.0,0.0,0.0
432,1778658663.7395418,0.27584654,-1.3614106,0.25226307,0.0,0.0,0.0
433,1778658663.7495441,0.36956444,-1.2091198,0.2015,0.0,0.0,0.0
434,1778658663.759545,0.36956444,-1.2091198,0.2015,0.0,0.0,0.0
435,1778658663.769547,0.36956444,-1.2091198,0.2015,0.0,0.0,0.0
436,1778658663.7795482,0.36956444,-1.2091198,0.2015,0.0,0.0,0.0
437,1778658663.7895494,0.36956444,-1.2091198,0.2015,0.0,0.0,0.0
438,1778658663.799551,0.36956444,-1.2091198,0.2015,0.0,0.0,0.0
439,1778658663.809552,0.36956444,-1.2091198,0.2015,0.0,0.0,0.0
440,1778658663.8195531,0.36956444,-1.2091198,0.2015,0.0,0.0,0.0
441,1778658663.8295555,0.3929939,-1.1466411,0.17807053,0.0,0.0,0.0
442,1778658663.8395567,0.3929939,-1.1466411,0.17807053,0.0,0.0,0.0
443,1778658663.849558,0.3929939,-1.1466411,0.17807053,0.0,0.0,0.0
444,1778658663.8595605,0.3929939,-1.1466411,0.17807053,0.0,0.0,0.0
445,1778658663.8695617,0.3929939,-1.1466411,0.17807053,0.0,0.0,0.0
446,1778658663.879563,0.3929939,-1.1466411,0.17807053,0.0,0.0,0.0
447,1778658663.8895638,0.3929939,-1.1466411,0.17807053,0.0,0.0,0.0
448,1778658663.8995652,0.3929939,-1.1466411,0.17807053,0.0,0.0,0.0
449,1778658663.9095662,0.3929939,-1.1466411,0.17807053,0.0,0.0,0.0
450,1778658663.9195685,0.3929939,-1.1466411,0.17807053,0.0,0.0,0.0
451,1778658663.92957,0.3929939,-1.1466411,0.17807053,0.0,0.0,0.0
452,1778658663.9395719,0.3929939,-1.1466411,0.17807053,0.0,0.0,0.0
453,1778658663.949573,0.3929939,-1.1466411,0.17807053,0.0,0.0,0.0
454,1778658663.959576,0.3929939,-1.1466411,0.17807053,0.0,0.0,0.0
455,1778658663.9695773,0.3929939,-1.1466411,0.17807053,0.0,0.0,0.0
456,1778658663.9795787,0.3929939,-1.1466411,0.17807053,0.0,0.0,0.0
457,1778658663.989583,0.3929939,-1.1466411,0.17807053,0.0,0.0,0.0
458,1778658663.999585,0.3929939,-1.1466411,0.17807053,0.0,0.0,0.0
459,1778658664.0095875,0.3929939,-1.1466411,0.17807053,0.0,0.0,0.0
460,1778658664.019589,0.3929939,-1.1466411,0.17807053,0.0,0.0,0.0
461,1778658664.0295901,0.3929939,-1.1466411,0.17807053,0.0,0.0,0.0
462,1778658664.0395923,0.3929939,-1.1466411,0.17807053,0.0,0.0,0.0
463,1778658664.0495954,0.3929939,-1.1466411,0.17807053,0.0,0.0,0.0
464,1778658664.0595973,0.3929939,-1.1466411,0.17807053,0.0,0.0,0.0
465,1778658664.0695987,0.3929939,-1.1466411,0.17807053,0.0,0.0,0.0
466,1778658664.0795994,0.3929939,-1.1466411,0.17807053,0.0,0.0,0.0
467,1778658664.0896013,0.3929939,-1.1466411,0.17807053,0.0,0.0,0.0
468,1778658664.0996025,0.3929939,-1.1466411,0.17807053,0.0,0.0,0.0
469,1778658664.1096034,0.3929939,-1.1466411,0.17807053,0.0,0.0,0.0
470,1778658664.119606,0.3929939,-1.1466411,0.17807053,0.0,0.0,0.0
471,1778658664.129607,0.3929939,-1.1466411,0.17807053,0.0,0.0,0.0
472,1778658664.1396081,0.3929939,-1.1466411,0.17807053,0.0,0.0,0.0
473,1778658664.1496098,0.3929939,-1.1466411,0.17807053,0.0,0.0,0.0
474,1778658664.1596115,0.3929939,-1.1466411,0.17807053,0.0,0.0,0.0
475,1778658664.1696131,0.3929939,-1.1466411,0.17807053,0.0,0.0,0.0
476,1778658664.1796148,0.3929939,-1.1466411,0.17807053,0.0,0.0,0.0
477,1778658664.1896152,0.3929939,-1.1466411,0.17807053,0.0,0.0,0.0
478,1778658664.1996167,0.3929939,-1.1466411,0.17807053,0.0,0.0,0.0
479,1778658664.2096179,0.47109213,-1.0373037,0.15073536,0.0,0.0,0.0
480,1778658664.2196188,0.47109213,-1.0373037,0.15073536,0.0,0.0,0.0
481,1778658664.2296197,0.47109213,-1.0373037,0.15073536,0.0,0.0,0.0
482,1778658664.2396212,0.47109213,-1.0373037,0.15073536,0.0,0.0,0.0
483,1778658664.2496223,0.47109213,-1.0373037,0.15073536,0.0,0.0,0.0
484,1778658664.2596238,0.47109213,-1.0373037,0.15073536,0.0,0.0,0.0
485,1778658664.2696257,0.47109213,-1.0373037,0.15073536,0.0,0.0,0.0
486,1778658664.2796283,0.47109213,-1.0373037,0.15073536,0.0,0.0,0.0
487,1778658664.28963,0.47109213,-1.0373037,0.15073536,0.0,0.0,0.0
488,1778658664.2996306,0.47109213,-1.0373037,0.15073536,0.0,0.0,0.0
489,1778658664.309633,0.47109213,-1.0373037,0.15073536,0.0,0.0,0.0
490,1778658664.3196344,0.47109213,-0.9709194,0.13121158,0.0,0.0,0.0
491,1778658664.329635,0.47109213,-0.9709194,0.13121158,0.0,0.0,0.0
492,1778658664.3396358,0.47109213,-0.9709194,0.13121158,0.0,0.0,0.0
493,1778658664.349638,0.47109213,-0.9709194,0.13121158,0.0,0.0,0.0
494,1778658664.3596396,0.47109213,-0.9709194,0.13121158,0.0,0.0,0.0
495,1778658664.3696406,0.47109213,-0.9709194,0.13121158,0.0,0.0,0.0
496,1778658664.3796413,0.47109213,-0.9709194,0.13121158,0.0,0.0,0.0
497,1778658664.389643,0.47109213,-0.9709194,0.13121158,0.0,0.0,0.0
498,1778658664.399644,0.47109213,-0.9709194,0.13121158,0.0,0.0,0.0
499,1778658664.4096446,0.47109213,-0.9709194,0.13121158,0.0,0.0,0.0
500,1778658664.4196465,0.47109213,-0.9709194,0.13121158,0.0,0.0,0.0
501,1778658664.4296477,0.47109213,-0.9709194,0.13121158,0.0,0.0,0.0
502,1778658664.4396489,0.47109213,-0.9709194,0.13121158,0.0,0.0,0.0
503,1778658664.4496522,0.47109213,-0.9709194,0.13121158,0.0,0.0,0.0
504,1778658664.4596534,0.47109213,-0.9709194,0.13121158,0.0,0.0,0.0
505,1778658664.4696565,0.47109213,-0.9709194,0.13121158,0.0,0.0,0.0
506,1778658664.4796598,0.47109213,-0.9709194,0.13121158,0.0,0.0,0.0
507,1778658664.4896612,0.47109213,-0.9709194,0.13121158,0.0,0.0,0.0
508,1778658664.499663,0.47109213,-0.9709194,0.13121158,0.0,0.0,0.0
509,1778658664.5096664,0.46328232,-0.88501126,0.115591936,0.0,0.0,0.0
510,1778658664.5196705,0.46328232,-0.88501126,0.115591936,0.0,0.0,0.0
511,1778658664.529673,0.46328232,-0.88501126,0.115591936,0.0,0.0,0.0
512,1778658664.5396755,0.46328232,-0.88501126,0.115591936,0.0,0.0,0.0
513,1778658664.549677,0.46328232,-0.88501126,0.115591936,0.0,0.0,0.0
514,1778658664.5596795,0.46328232,-0.88501126,0.115591936,0.0,0.0,0.0
515,1778658664.569681,0.46328232,-0.88501126,0.115591936,0.0,0.0,0.0
516,1778658664.5796838,0.46328232,-0.88501126,0.115591936,0.0,0.0,0.0
517,1778658664.589685,0.46328232,-0.88501126,0.115591936,0.0,0.0,0.0
518,1778658664.5996857,0.46328232,-0.88501126,0.115591936,0.0,0.0,0.0
519,1778658664.6096878,0.46328232,-0.88501126,0.115591936,0.0,0.0,0.0
520,1778658664.6196892,0.46328232,-0.88501126,0.115591936,0.0,0.0,0.0
521,1778658664.629693,0.46328232,-0.88501126,0.115591936,0.0,0.0,0.0
522,1778658664.639697,0.46328232,-0.88501126,0.115591936,0.0,0.0,0.0
523,1778658664.649698,0.46328232,-0.88501126,0.115591936,0.0,0.0,0.0
524,1778658664.6596994,0.46328232,-0.88501126,0.115591936,0.0,0.0,0.0
525,1778658664.669701,0.46328232,-0.88501126,0.115591936,0.0,0.0,0.0
526,1778658664.679702,0.46328232,-0.88501126,0.115591936,0.0,0.0,0.0
527,1778658664.6897037,0.46328232,-0.88501126,0.115591936,0.0,0.0,0.0
528,1778658664.6997051,0.46328232,-0.88501126,0.115591936,0.0,0.0,0.0
529,1778658664.709706,0.46328232,-0.88501126,0.115591936,0.0,0.0,0.0
530,1778658664.7197082,0.46328232,-0.88501126,0.115591936,0.0,0.0,0.0
531,1778658664.72971,0.46328232,-0.88501126,0.115591936,0.0,0.0,0.0
532,1778658664.7397115,0.46328232,-0.88501126,0.115591936,0.0,0.0,0.0
533,1778658664.7497127,0.49061593,-0.6468109,0.12340175,0.0,0.0,0.0
534,1778658664.759715,0.49061593,-0.6468109,0.12340175,0.0,0.0,0.0
535,1778658664.7697165,0.49061593,-0.6468109,0.12340175,0.0,0.0,0.0
536,1778658664.779718,0.5140454,-0.20555657,0.010158527,0.0,0.0,0.0
537,1778658664.7897189,0.5140454,-0.20555657,0.010158527,0.0,0.0,0.0
538,1778658664.7997203,0.5140454,-0.20555657,0.010158527,0.0,0.0,0.0
539,1778658664.8097222,0.4125177,-0.11574281,0.08044694,0.0,0.0,0.0
540,1778658664.8197236,0.4125177,-0.11574281,0.08044694,0.0,0.0,0.0
541,1778658664.8297248,0.4125177,-0.11574281,0.08044694,0.0,0.0,0.0
542,1778658664.8397272,0.4125177,-0.11574281,0.08044694,0.0,0.0,0.0
543,1778658664.8497286,0.4125177,-0.11574281,0.08044694,0.0,0.0,0.0
544,1778658664.8597307,0.4125177,-0.11574281,0.08044694,0.0,0.0,0.0
545,1778658664.8697324,0.5140454,-0.20555657,0.010158527,0.0,0.0,0.0
546,1778658664.8797333,0.5140454,-0.20555657,0.010158527,0.0,0.0,0.0
547,1778658664.8897345,0.5140454,-0.20555657,0.010158527,0.0,0.0,0.0
548,1778658664.8997355,0.5140454,-0.20555657,0.010158527,0.0,0.0,0.0
549,1778658664.9097366,0.5140454,-0.20555657,0.010158527,0.0,0.0,0.0
550,1778658664.9197378,0.5140454,-0.20555657,0.010158527,0.0,0.0,0.0
551,1778658664.9297385,0.5140454,-0.20555657,0.010158527,0.0,0.0,0.0
552,1778658664.93974,0.5140454,-0.20555657,0.010158527,0.0,0.0,0.0
553,1778658664.9497411,0.5140454,-0.20555657,0.010158527,0.0,0.0,0.0
554,1778658664.959742,0.5140454,-0.20555657,0.010158527,0.0,0.0,0.0
555,1778658664.969744,0.5140454,-0.20555657,0.010158527,0.0,0.0,0.0
556,1778658664.9797456,0.5140454,-0.20555657,0.010158527,0.0,0.0,0.0
557,1778658664.9897466,0.5140454,-0.20555657,0.010158527,0.0,0.0,0.0
558,1778658664.9997487,0.5140454,-0.20555657,0.010158527,0.0,0.0,0.0
559,1778658665.0097492,0.5140454,-0.20555657,0.010158527,0.0,0.0,0.0
560,1778658665.0197504,0.5140454,-0.20555657,0.010158527,0.0,0.0,0.0
561,1778658665.0297515,0.5140454,-0.20555657,0.010158527,0.0,0.0,0.0
562,1778658665.039753,0.5140454,-0.20555657,0.010158527,0.0,0.0,0.0
563,1778658665.0497549,0.5140454,-0.20555657,0.010158527,0.0,0.0,0.0
564,1778658665.0597563,0.5140454,-0.20555657,0.010158527,0.0,0.0,0.0
565,1778658665.0697572,0.5140454,-0.20555657,0.010158527,0.0,0.0,0.0
566,1778658665.0797591,0.5140454,-0.20555657,0.010158527,0.0,0.0,0.0
567,1778658665.0897613,0.37346858,-0.014215093,0.19759431,0.0,0.0,0.0
568,1778658665.0997632,0.37346858,-0.014215093,0.19759431,0.0,0.0,0.0
569,1778658665.109764,0.37346858,-0.014215093,0.19759431,0.0,0.0,0.0
570,1778658665.119765,0.37346858,-0.014215093,0.19759431,0.0,0.0,0.0
571,1778658665.129767,0.37346858,-0.014215093,0.19759431,0.0,0.0,0.0
572,1778658665.1397684,0.37346858,-0.014215093,0.19759431,0.0,0.0,0.0
573,1778658665.1497693,0.37346858,-0.014215093,0.19759431,0.0,0.0,0.0
574,1778658665.159771,0.37346858,-0.014215093,0.19759431,0.0,0.0,0.0
575,1778658665.1697721,0.37346858,-0.014215093,0.19759431,0.0,0.0,0.0
576,1778658665.179773,0.37346858,-0.014215093,0.19759431,0.0,0.0,0.0
577,1778658665.189774,0.37346858,-0.014215093,0.19759431,0.0,0.0,0.0
578,1778658665.199775,0.37346858,-0.014215093,0.19759431,0.0,0.0,0.0
579,1778658665.2097762,0.37346858,-0.014215093,0.19759431,0.0,0.0,0.0
580,1778658665.2197783,0.37346858,-0.014215093,0.19759431,0.0,0.0,0.0
581,1778658665.2297792,0.37346858,-0.014215093,0.19759431,0.0,0.0,0.0
582,1778658665.2397811,0.37346858,-0.014215093,0.19759431,0.0,0.0,0.0
583,1778658665.249783,0.37346858,-0.014215093,0.19759431,0.0,0.0,0.0
584,1778658665.2597837,0.37346858,-0.014215093,0.19759431,0.0,0.0,0.0
585,1778658665.2697852,0.37346858,-0.014215093,0.19759431,0.0,0.0,0.0
586,1778658665.2797868,0.37346858,-0.014215093,0.19759431,0.0,0.0,0.0
587,1778658665.289788,0.37346858,-0.014215093,0.19759431,0.0,0.0,0.0
588,1778658665.2997897,0.37346858,-0.014215093,0.19759431,0.0,0.0,0.0
589,1778658665.3097916,0.37346858,-0.014215093,0.19759431,0.0,0.0,0.0
590,1778658665.3197927,0.37346858,-0.014215093,0.19759431,0.0,0.0,0.0
591,1778658665.3297937,0.37346858,-0.014215093,0.19759431,0.0,0.0,0.0
592,1778658665.3397942,0.37346858,-0.014215093,0.19759431,0.0,0.0,0.0
593,1778658665.3497977,0.37346858,-0.014215093,0.19759431,0.0,0.0,0.0
594,1778658665.3598003,0.1977483,0.12636174,0.08825677,0.0,0.0,0.0
595,1778658665.3698013,0.1977483,0.12636174,0.08825677,0.0,0.0,0.0
596,1778658665.3798027,0.1977483,0.12636174,0.08825677,0.0,0.0,0.0
597,1778658665.389804,0.1977483,0.12636174,0.08825677,0.0,0.0,0.0
598,1778658665.3998048,0.1977483,0.12636174,0.08825677,0.0,0.0,0.0
599,1778658665.4098058,0.1977483,0.12636174,0.08825677,0.0,0.0,0.0
600,1778658665.419807,0.1977483,0.12636174,0.08825677,0.0,0.0,0.0
601,1778658665.429808,0.1977483,0.12636174,0.08825677,0.0,0.0,0.0
602,1778658665.439809,0.11184023,0.15369691,0.006254392,0.0,0.0,0.0
603,1778658665.4498107,0.11184023,0.15369691,0.006254392,0.0,0.0,0.0
604,1778658665.4598122,0.11184023,0.15369691,0.006254392,0.0,0.0,0.0
605,1778658665.4698138,0.11184023,0.15369691,0.006254392,0.0,0.0,0.0
606,1778658665.4798155,0.11184023,0.15369691,0.006254392,0.0,0.0,0.0
607,1778658665.489817,0.11184023,0.15369691,0.006254392,0.0,0.0,0.0
608,1778658665.4998186,0.11184023,0.15369691,0.006254392,0.0,0.0,0.0
609,1778658665.5098197,0.11184023,0.15369691,0.006254392,0.0,0.0,0.0
610,1778658665.5198214,0.11184023,0.15369691,0.006254392,0.0,0.0,0.0
611,1778658665.5298228,0.11184023,0.15369691,0.006254392,0.0,0.0,0.0
612,1778658665.539824,0.11184023,0.15369691,0.006254392,0.0,0.0,0.0
613,1778658665.5498254,0.11184023,0.15369691,0.006254392,0.0,0.0,0.0
614,1778658665.5598269,0.11184023,0.15369691,0.006254392,0.0,0.0,0.0
615,1778658665.5698287,0.11184023,0.15369691,0.006254392,0.0,0.0,0.0
616,1778658665.5798306,0.12745988,-2.2946854,1.4940267,0.0,0.0,0.0
617,1778658665.589831,0.12745988,-2.2946854,1.4940267,0.0,0.0,0.0
618,1778658665.5998323,0.12745988,-2.2946854,1.4940267,0.0,0.0,0.0
619,1778658665.6098335,0.12745988,-2.2946854,1.4940267,0.0,0.0,0.0
620,1778658665.6198344,0.12745988,-2.2946854,1.4940267,0.0,0.0,0.0
621,1778658665.6298363,0.27584654,-2.5328858,1.5408857,0.0,0.0,0.0
622,1778658665.6398373,0.27584654,-2.5328858,1.5408857,0.0,0.0,0.0
623,1778658665.6498377,0.27584654,-2.5328858,1.5408857,0.0,0.0,0.0
624,1778658665.6598387,0.27584654,-2.5328858,1.5408857,0.0,0.0,0.0
625,1778658665.6698408,0.27584654,-2.5328858,1.5408857,0.0,0.0,0.0
626,1778658665.6798427,0.27584654,-2.5328858,1.5408857,0.0,0.0,0.0
627,1778658665.6898444,0.27584654,-2.5328858,1.5408857,0.0,0.0,0.0
628,1778658665.699847,0.27584654,-2.5328858,1.5408857,0.0,0.0,0.0
629,1778658665.7098486,0.27584654,-2.5328858,1.5408857,0.0,0.0,0.0
630,1778658665.719849,0.27584654,-2.5328858,1.5408857,0.0,0.0,0.0
631,1778658665.7298496,0.27584654,-2.5328858,1.5408857,0.0,0.0,0.0
632,1778658665.7398515,0.27584654,-2.5328858,1.5408857,0.0,0.0,0.0
633,1778658665.7498522,0.27584654,-2.5328858,1.5408857,0.0,0.0,0.0
634,1778658665.7598531,0.27584654,-2.5328858,1.5408857,0.0,0.0,0.0
635,1778658665.769855,0.27584654,-2.5328858,1.5408857,0.0,0.0,0.0
636,1778658665.7798576,0.6390026,-2.9780457,1.490121,0.0,0.0,0.0
637,1778658665.7898607,0.6390026,-2.9780457,1.490121,0.0,0.0,0.0
638,1778658665.7998629,0.6390026,-2.9780457,1.490121,0.0,0.0,0.0
639,1778658665.8098645,0.6390026,-2.9780457,1.490121,0.0,0.0,0.0
640,1778658665.819867,0.6390026,-2.9780457,1.490121,0.0,0.0,0.0
641,1778658665.8298678,0.6390026,-2.9780457,1.490121,0.0,0.0,0.0
642,1778658665.8398688,0.6390026,-2.9780457,1.490121,0.0,0.0,0.0
643,1778658665.8498697,0.6390026,-2.9780457,1.490121,0.0,0.0,0.0
644,1778658665.859871,0.6390026,-2.9780457,1.490121,0.0,0.0,0.0
645,1778658665.8698716,0.6390026,-2.9780457,1.490121,0.0,0.0,0.0
646,1778658665.8798733,0.576524,-2.9741416,1.5096463,0.0,0.0,0.0
647,1778658665.889874,0.576524,-2.9741416,1.5096463,0.0,0.0,0.0
648,1778658665.8998752,0.576524,-2.9741416,1.5096463,0.0,0.0,0.0
649,1778658665.909877,0.576524,-2.9741416,1.5096463,0.0,0.0,0.0
650,1778658665.9198775,0.576524,-2.9741416,1.5096463,0.0,0.0,0.0
651,1778658665.92988,0.576524,-2.9741416,1.5096463,0.0,0.0,0.0
652,1778658665.939882,0.576524,-2.9741416,1.5096463,0.0,0.0,0.0
653,1778658665.9498835,0.576524,-2.9741416,1.5096463,0.0,0.0,0.0
654,1778658665.9598846,0.576524,-2.9741416,1.5096463,0.0,0.0,0.0
655,1778658665.969887,0.576524,-2.9741416,1.5096463,0.0,0.0,0.0
656,1778658665.9798887,0.576524,-2.9741416,1.5096463,0.0,0.0,0.0
657,1778658665.98989,0.576524,-2.9741416,1.5096463,0.0,0.0,0.0
658,1778658665.999891,0.576524,-2.9741416,1.5096463,0.0,0.0,0.0
659,1778658666.0098925,0.5999535,-2.9507122,1.4705973,0.0,0.0,0.0
660,1778658666.0198934,0.5999535,-2.9507122,1.4705973,0.0,0.0,0.0
661,1778658666.0298939,0.5999535,-2.9507122,1.4705973,0.0,0.0,0.0
662,1778658666.0398958,0.5374749,-2.6890821,1.5057406,0.0,0.0,0.0
663,1778658666.0498972,0.5374749,-2.6890821,1.5057406,0.0,0.0,0.0
664,1778658666.0598977,0.5374749,-2.6890821,1.5057406,0.0,0.0,0.0
665,1778658666.0698993,0.5374749,-2.6890821,1.5057406,0.0,0.0,0.0
666,1778658666.0799012,0.5374749,-2.6890821,1.5057406,0.0,0.0,0.0
667,1778658666.0899024,0.5374749,-2.6890821,1.5057406,0.0,0.0,0.0
668,1778658666.099904,0.5374749,-2.6890821,1.5057406,0.0,0.0,0.0
669,1778658666.1099045,0.5374749,-2.6890821,1.5057406,0.0,0.0,0.0
670,1778658666.1199057,0.5374749,-2.6890821,1.5057406,0.0,0.0,0.0
671,1778658666.1299076,0.5804297,-2.1931577,1.490121,0.0,0.0,0.0
672,1778658666.1399088,0.5804297,-2.1931577,1.490121,0.0,0.0,0.0
673,1778658666.1499124,0.5804297,-2.1931577,1.490121,0.0,0.0,0.0
674,1778658666.1599152,0.5804297,-2.1931577,1.490121,0.0,0.0,0.0
675,1778658666.1699164,0.5804297,-2.1931577,1.490121,0.0,0.0,0.0
676,1778658666.1799173,0.5804297,-2.1931577,1.490121,0.0,0.0,0.0
677,1778658666.1899211,0.5804297,-2.1931577,1.490121,0.0,0.0,0.0
678,1778658666.1999254,0.5804297,-2.1931577,1.490121,0.0,0.0,0.0
679,1778658666.2099278,0.5804297,-2.1931577,1.490121,0.0,0.0,0.0
680,1778658666.2199285,0.5804297,-2.1931577,1.490121,0.0,0.0,0.0
681,1778658666.2299294,0.5804297,-2.1931577,1.490121,0.0,0.0,0.0
682,1778658666.2399304,0.5804297,-2.1931577,1.490121,0.0,0.0,0.0
683,1778658666.249931,0.5804297,-2.1931577,1.490121,0.0,0.0,0.0
684,1778658666.2599342,0.5804297,-2.1931577,1.490121,0.0,0.0,0.0
685,1778658666.2699358,0.5804297,-2.1931577,1.490121,0.0,0.0,0.0
686,1778658666.2799373,0.5804297,-2.1931577,1.490121,0.0,0.0,0.0
687,1778658666.2899387,0.5804297,-2.1931577,1.490121,0.0,0.0,0.0
688,1778658666.2999403,0.5804297,-2.1931577,1.490121,0.0,0.0,0.0
689,1778658666.3099418,0.5804297,-2.1931577,1.490121,0.0,0.0,0.0
690,1778658666.319943,0.5804297,-2.1931577,1.490121,0.0,0.0,0.0
691,1778658666.3299444,0.5804297,-2.1931577,1.490121,0.0,0.0,0.0
692,1778658666.3399453,0.5804297,-2.1931577,1.490121,0.0,0.0,0.0
693,1778658666.3499463,0.6155731,-1.9666728,1.4237382,0.0,0.0,0.0
694,1778658666.3599472,0.6155731,-1.9666728,1.4237382,0.0,0.0,0.0
695,1778658666.3699484,0.6155731,-1.9666728,1.4237382,0.0,0.0,0.0
696,1778658666.3799496,0.6155731,-1.9666728,1.4237382,0.0,0.0,0.0
697,1778658666.3899505,0.6155731,-1.9666728,1.4237382,0.0,0.0,0.0
698,1778658666.3999515,0.6155731,-1.9666728,1.4237382,0.0,0.0,0.0
699,1778658666.4099522,0.6155731,-1.9666728,1.4237382,0.0,0.0,0.0
700,1778658666.4199529,0.6155731,-1.9666728,1.4237382,0.0,0.0,0.0
701,1778658666.429954,0.6155731,-1.9666728,1.4237382,0.0,0.0,0.0
702,1778658666.4400172,0.63119274,-1.7519033,1.3417344,0.0,0.0,0.0
703,1778658666.4500191,0.63119274,-1.7519033,1.3417344,0.0,0.0,0.0
704,1778658666.460021,0.63119274,-1.7519033,1.3417344,0.0,0.0,0.0
705,1778658666.4700222,0.63119274,-1.7519033,1.3417344,0.0,0.0,0.0
706,1778658666.4800234,0.63119274,-1.7519033,1.3417344,0.0,0.0,0.0
707,1778658666.4900248,0.63119274,-1.7519033,1.3417344,0.0,0.0,0.0
708,1778658666.5000253,0.63119274,-1.7519033,1.3417344,0.0,0.0,0.0
709,1778658666.5100265,0.63119274,-1.7519033,1.3417344,0.0,0.0,0.0
710,1778658666.5200279,0.63119274,-1.7519033,1.3417344,0.0,0.0,0.0
711,1778658666.5300286,0.63119274,-1.7519033,1.3417344,0.0,0.0,0.0
712,1778658666.5400295,0.63119274,-1.7519033,1.3417344,0.0,0.0,0.0
713,1778658666.55003,0.63119274,-1.7519033,1.3417344,0.0,0.0,0.0
714,1778658666.5600307,0.63119274,-1.7519033,1.3417344,0.0,0.0,0.0
715,1778658666.5700316,0.63119274,-1.7519033,1.3417344,0.0,0.0,0.0
716,1778658666.5800328,0.63119274,-1.7519033,1.3417344,0.0,0.0,0.0
717,1778658666.5900338,0.63119274,-1.7519033,1.3417344,0.0,0.0,0.0
718,1778658666.6000354,0.63119274,-1.7519033,1.3417344,0.0,0.0,0.0
719,1778658666.6100364,0.63119274,-1.7519033,1.3417344,0.0,0.0,0.0
720,1778658666.6200385,0.63119274,-1.7519033,1.3417344,0.0,0.0,0.0
721,1778658666.6300404,0.63119274,-1.7519033,1.3417344,0.0,0.0,0.0
722,1778658666.6400416,0.63119274,-1.7519033,1.3417344,0.0,0.0,0.0
723,1778658666.6500435,0.63119274,-1.7519033,1.3417344,0.0,0.0,0.0
724,1778658666.6600451,0.63119274,-1.7519033,1.3417344,0.0,0.0,0.0
725,1778658666.670046,0.63119274,-1.7519033,1.3417344,0.0,0.0,0.0
726,1778658666.6800475,0.69367135,-1.3809359,1.1699182,0.0,0.0,0.0
727,1778658666.6900492,0.69367135,-1.3809359,1.1699182,0.0,0.0,0.0
728,1778658666.7000504,0.69367135,-1.3809359,1.1699182,0.0,0.0,0.0
729,1778658666.7100515,0.69367135,-1.3809359,1.1699182,0.0,0.0,0.0
730,1778658666.720052,0.69367135,-1.3809359,1.1699182,0.0,0.0,0.0
731,1778658666.730053,0.69367135,-1.3809359,1.1699182,0.0,0.0,0.0
732,1778658666.7400553,0.69367135,-1.3809359,1.1699182,0.0,0.0,0.0
733,1778658666.7500598,0.69367135,-1.3809359,1.1699182,0.0,0.0,0.0
734,1778658666.7600615,0.7210065,-1.2325492,1.0722961,0.0,0.0,0.0
735,1778658666.7700632,0.7210065,-1.2325492,1.0722961,0.0,0.0,0.0
736,1778658666.7800636,0.7210065,-1.2325492,1.0722961,0.0,0.0,0.0
737,1778658666.7900648,0.7873893,-0.9943488,0.87314487,0.0,0.0,0.0
738,1778658666.8000662,0.7873893,-0.9943488,0.87314487,0.0,0.0,0.0
739,1778658666.810067,0.7873893,-0.9943488,0.87314487,0.0,0.0,0.0
740,1778658666.820068,0.7873893,-0.9943488,0.87314487,0.0,0.0,0.0
741,1778658666.8300688,0.7873893,-0.9943488,0.87314487,0.0,0.0,0.0
742,1778658666.8400705,0.7873893,-0.9943488,0.87314487,0.0,0.0,0.0
743,1778658666.8500721,0.7873893,-0.9943488,0.87314487,0.0,0.0,0.0
744,1778658666.8600729,0.7873893,-0.9943488,0.87314487,0.0,0.0,0.0
745,1778658666.8700755,0.7873893,-0.9943488,0.87314487,0.0,0.0,0.0
746,1778658666.8800774,0.7873893,-0.9943488,0.87314487,0.0,0.0,0.0
747,1778658666.8900785,0.7873893,-0.9943488,0.87314487,0.0,0.0,0.0
748,1778658666.9000802,0.7873893,-0.9943488,0.87314487,0.0,0.0,0.0
749,1778658666.9100814,0.7873893,-0.9943488,0.87314487,0.0,0.0,0.0
750,1778658666.9200823,0.7873893,-0.9943488,0.87314487,0.0,0.0,0.0
751,1778658666.9300838,0.7873893,-0.9943488,0.87314487,0.0,0.0,0.0
752,1778658666.9400845,0.7873893,-0.9943488,0.87314487,0.0,0.0,0.0
753,1778658666.9500856,0.7873893,-0.9943488,0.87314487,0.0,0.0,0.0
754,1778658666.960087,0.92406195,-0.8967268,0.71304274,0.0,0.0,0.0
755,1778658666.9700878,0.92406195,-0.8967268,0.71304274,0.0,0.0,0.0
756,1778658666.9800909,0.92406195,-0.8967268,0.71304274,0.0,0.0,0.0
757,1778658666.9900925,0.92406195,-0.8967268,0.71304274,0.0,0.0,0.0
758,1778658667.0000958,0.92406195,-0.8967268,0.71304274,0.0,0.0,0.0
759,1778658667.0100968,0.86158335,-1.0529233,0.6818034,0.0,0.0,0.0
760,1778658667.0200982,0.86158335,-1.0529233,0.6818034,0.0,0.0,0.0
761,1778658667.030102,0.86158335,-1.0529233,0.6818034,0.0,0.0,0.0
762,1778658667.0401042,0.86158335,-1.0529233,0.6818034,0.0,0.0,0.0
763,1778658667.0501046,0.86158335,-1.0529233,0.6818034,0.0,0.0,0.0
764,1778658667.0601058,0.86158335,-1.0529233,0.6818034,0.0,0.0,0.0
765,1778658667.070108,0.86158335,-1.0529233,0.6818034,0.0,0.0,0.0
766,1778658667.080109,0.86158335,-1.0529233,0.6818034,0.0,0.0,0.0
767,1778658667.0901105,0.86158335,-1.0529233,0.6818034,0.0,0.0,0.0
768,1778658667.100113,0.86158335,-1.0529233,0.6818034,0.0,0.0,0.0
769,1778658667.1101139,0.86158335,-1.0529233,0.6818034,0.0,0.0,0.0
770,1778658667.1201155,0.86158335,-1.0529233,0.6818034,0.0,0.0,0.0
771,1778658667.1301167,0.86158335,-1.0529233,0.6818034,0.0,0.0,0.0
772,1778658667.1401181,0.86158335,-1.0529233,0.6818034,0.0,0.0,0.0
773,1778658667.150119,0.86158335,-1.0529233,0.6818034,0.0,0.0,0.0
774,1778658667.16012,0.86158335,-1.0529233,0.6818034,0.0,0.0,0.0
775,1778658667.1701207,0.86158335,-1.0529233,0.6818034,0.0,0.0,0.0
776,1778658667.1801229,0.9318718,-0.96310955,0.6818034,0.0,0.0,0.0
777,1778658667.1901238,0.9318718,-0.96310955,0.6818034,0.0,0.0,0.0
778,1778658667.200125,0.9318718,-0.96310955,0.6818034,0.0,0.0,0.0
779,1778658667.2101264,0.9318718,-0.96310955,0.6818034,0.0,0.0,0.0
780,1778658667.2201269,0.9318718,-0.96310955,0.6818034,0.0,0.0,0.0
781,1778658667.2301295,0.9318718,-0.96310955,0.6818034,0.0,0.0,0.0
782,1778658667.2401323,0.92406195,-0.8967268,0.71304274,0.0,0.0,0.0
783,1778658667.250134,0.92406195,-0.8967268,0.71304274,0.0,0.0,0.0
784,1778658667.260135,0.92406195,-0.8967268,0.71304274,0.0,0.0,0.0
785,1778658667.2701356,0.92406195,-0.8967268,0.71304274,0.0,0.0,0.0
786,1778658667.2801366,0.92406195,-0.8967268,0.71304274,0.0,0.0,0.0
787,1778658667.290138,0.92406195,-0.8967268,0.71304274,0.0,0.0,0.0
788,1778658667.3001385,0.92406195,-0.8967268,0.71304274,0.0,0.0,0.0
789,1778658667.3101401,0.92406195,-0.8967268,0.71304274,0.0,0.0,0.0
790,1778658667.3201408,0.92406195,-0.8967268,0.71304274,0.0,0.0,0.0
791,1778658667.3301418,0.92406195,-0.8967268,0.71304274,0.0,0.0,0.0
792,1778658667.3401432,0.92406195,-0.8967268,0.71304274,0.0,0.0,0.0
793,1778658667.350144,0.92406195,-0.8967268,0.71304274,0.0,0.0,0.0
794,1778658667.360145,0.92406195,-0.8967268,0.71304274,0.0,0.0,0.0
795,1778658667.3701482,0.92406195,-0.8967268,0.71304274,0.0,0.0,0.0
796,1778658667.3801496,0.92406195,-0.8967268,0.71304274,0.0,0.0,0.0
797,1778658667.3901517,0.92406195,-0.8967268,0.71304274,0.0,0.0,0.0
798,1778658667.4001536,0.92406195,-0.8967268,0.71304274,0.0,0.0,0.0
799,1778658667.4101548,0.92406195,-0.8967268,0.71304274,0.0,0.0,0.0
800,1778658667.4201581,0.92406195,-0.8967268,0.71304274,0.0,0.0,0.0
801,1778658667.43016,0.92406195,-0.8967268,0.71304274,0.0,0.0,0.0
802,1778658667.440161,0.92406195,-0.8967268,0.71304274,0.0,0.0,0.0
803,1778658667.4501648,0.92406195,-0.8967268,0.71304274,0.0,0.0,0.0
804,1778658667.4601672,0.92406195,-0.8967268,0.71304274,0.0,0.0,0.0
805,1778658667.4701688,0.92406195,-0.8967268,0.71304274,0.0,0.0,0.0
806,1778658667.4801712,0.75614995,-1.1466411,0.6857091,0.0,0.0,0.0
807,1778658667.4901724,0.75614995,-1.1466411,0.6857091,0.0,0.0,0.0
808,1778658667.5001736,0.75614995,-1.1466411,0.6857091,0.0,0.0,0.0
809,1778658667.510175,0.75614995,-1.1466411,0.6857091,0.0,0.0,0.0
810,1778658667.5201762,0.75614995,-1.1466411,0.6857091,0.0,0.0,0.0
811,1778658667.530177,0.75614995,-1.1466411,0.6857091,0.0,0.0,0.0
812,1778658667.5401797,0.75614995,-1.1466411,0.6857091,0.0,0.0,0.0
813,1778658667.5501814,0.75614995,-1.1466411,0.6857091,0.0,0.0,0.0
814,1778658667.560182,0.75614995,-1.1466411,0.6857091,0.0,0.0,0.0
815,1778658667.5701838,0.75614995,-1.1466411,0.6857091,0.0,0.0,0.0
816,1778658667.5801868,0.75614995,-1.1466411,0.6857091,0.0,0.0,0.0
817,1778658667.590188,0.75614995,-1.1466411,0.6857091,0.0,0.0,0.0
818,1778658667.6001897,0.75614995,-1.1466411,0.6857091,0.0,0.0,0.0
819,1778658667.6101906,0.75614995,-1.1466411,0.6857091,0.0,0.0,0.0
820,1778658667.620192,0.75614995,-1.1466411,0.6857091,0.0,0.0,0.0
821,1778658667.630194,0.6585279,-1.248169,0.6857091,0.0,0.0,0.0
822,1778658667.6401947,0.6585279,-1.248169,0.6857091,0.0,0.0,0.0
823,1778658667.6501956,0.6585279,-1.248169,0.6857091,0.0,0.0,0.0
824,1778658667.6601973,0.6585279,-1.248169,0.6857091,0.0,0.0,0.0
825,1778658667.6701987,0.6585279,-1.248169,0.6857091,0.0,0.0,0.0
826,1778658667.6802003,0.6585279,-1.248169,0.6857091,0.0,0.0,0.0
827,1778658667.690202,0.6585279,-1.248169,0.6857091,0.0,0.0,0.0
828,1778658667.7002048,0.6585279,-1.248169,0.6857091,0.0,0.0,0.0
829,1778658667.7102063,0.6585279,-1.248169,0.6857091,0.0,0.0,0.0
830,1778658667.7202072,0.6585279,-1.248169,0.6857091,0.0,0.0,0.0
831,1778658667.7302089,0.6585279,-1.248169,0.6857091,0.0,0.0,0.0
832,1778658667.740211,0.6585279,-1.248169,0.6857091,0.0,0.0,0.0
833,1778658667.7502122,0.6585279,-1.248169,0.6857091,0.0,0.0,0.0
834,1778658667.7602139,0.6585279,-1.248169,0.6857091,0.0,0.0,0.0
835,1778658667.7702148,0.6585279,-1.248169,0.6857091,0.0,0.0,0.0
836,1778658667.7802155,0.6585279,-1.248169,0.6857091,0.0,0.0,0.0
837,1778658667.790217,0.49061593,-1.4238892,0.7052329,0.0,0.0,0.0
838,1778658667.8002179,0.49061593,-1.4238892,0.7052329,0.0,0.0,0.0
839,1778658667.8102183,0.49061593,-1.4238892,0.7052329,0.0,0.0,0.0
840,1778658667.8202207,0.49061593,-1.4238892,0.7052329,0.0,0.0,0.0
841,1778658667.8302221,0.49061593,-1.4238892,0.7052329,0.0,0.0,0.0
842,1778658667.8402233,0.49061593,-1.4238892,0.7052329,0.0,0.0,0.0
843,1778658667.8502247,0.49061593,-1.4238892,0.7052329,0.0,0.0,0.0
844,1778658667.8602257,0.49061593,-1.4238892,0.7052329,0.0,0.0,0.0
845,1778658667.870227,0.49061593,-1.4238892,0.7052329,0.0,0.0,0.0
846,1778658667.8802295,0.49061593,-1.4238892,0.7052329,0.0,0.0,0.0
847,1778658667.890231,0.49061593,-1.4238892,0.7052329,0.0,0.0,0.0
848,1778658667.9002335,0.49061593,-1.4238892,0.7052329,0.0,0.0,0.0
849,1778658667.9102354,0.49061593,-1.4238892,0.7052329,0.0,0.0,0.0
850,1778658667.920238,0.49061593,-1.4238892,0.7052329,0.0,0.0,0.0
851,1778658667.9302402,0.49061593,-1.4238892,0.7052329,0.0,0.0,0.0
852,1778658667.9402425,0.49061593,-1.4238892,0.7052329,0.0,0.0,0.0
853,1778658667.9502435,0.49061593,-1.4238892,0.7052329,0.0,0.0,0.0
854,1778658667.960245,0.49061593,-1.4238892,0.7052329,0.0,0.0,0.0
855,1778658667.970247,0.49061593,-1.4238892,0.7052329,0.0,0.0,0.0
856,1778658667.980248,0.49061593,-1.4238892,0.7052329,0.0,0.0,0.0
857,1778658667.9902513,0.49061593,-1.4238892,0.7052329,0.0,0.0,0.0
858,1778658668.000253,0.40861356,-1.4746538,0.732568,0.0,0.0,0.0
859,1778658668.010254,0.40861356,-1.4746538,0.732568,0.0,0.0,0.0
860,1778658668.0202565,0.40861356,-1.4746538,0.732568,0.0,0.0,0.0
861,1778658668.0302613,0.40861356,-1.4746538,0.732568,0.0,0.0,0.0
862,1778658668.0402641,0.40861356,-1.4746538,0.732568,0.0,0.0,0.0
863,1778658668.0502656,0.40861356,-1.4746538,0.732568,0.0,0.0,0.0
864,1778658668.0602663,0.40861356,-1.4746538,0.732568,0.0,0.0,0.0
865,1778658668.070268,0.40861356,-1.4746538,0.732568,0.0,0.0,0.0
866,1778658668.0802693,0.40861356,-1.4746538,0.732568,0.0,0.0,0.0
867,1778658668.0902703,0.40861356,-1.4746538,0.732568,0.0,0.0,0.0
868,1778658668.1002724,0.40861356,-1.4746538,0.732568,0.0,0.0,0.0
869,1778658668.1102734,0.40861356,-1.4746538,0.732568,0.0,0.0,0.0
870,1778658668.120275,0.40861356,-1.4746538,0.732568,0.0,0.0,0.0
871,1778658668.1302772,0.40861356,-1.4746538,0.732568,0.0,0.0,0.0
872,1778658668.1402783,0.40861356,-1.4746538,0.732568,0.0,0.0,0.0
873,1778658668.1502793,0.40861356,-1.4746538,0.732568,0.0,0.0,0.0
874,1778658668.1602812,0.40861356,-1.4746538,0.732568,0.0,0.0,0.0
875,1778658668.1702836,0.40861356,-1.4746538,0.732568,0.0,0.0,0.0
876,1778658668.1802864,0.28365636,-1.4863677,0.779427,0.0,0.0,0.0
877,1778658668.1902878,0.28365636,-1.4863677,0.779427,0.0,0.0,0.0
878,1778658668.2002888,0.28365636,-1.4863677,0.779427,0.0,0.0,0.0
879,1778658668.2102907,0.28365636,-1.4863677,0.779427,0.0,0.0,0.0
880,1778658668.2202916,0.28365636,-1.4863677,0.779427,0.0,0.0,0.0
881,1778658668.230293,0.28365636,-1.4863677,0.779427,0.0,0.0,0.0
882,1778658668.240295,0.40861356,-1.4746538,0.732568,0.0,0.0,0.0
883,1778658668.2502964,0.40861356,-1.4746538,0.732568,0.0,0.0,0.0
884,1778658668.2602973,0.40861356,-1.4746538,0.732568,0.0,0.0,0.0
885,1778658668.270299,0.40861356,-1.4746538,0.732568,0.0,0.0,0.0
886,1778658668.2802994,0.40861356,-1.4746538,0.732568,0.0,0.0,0.0
887,1778658668.2903006,0.40861356,-1.4746538,0.732568,0.0,0.0,0.0
888,1778658668.3003016,0.40861356,-1.4746538,0.732568,0.0,0.0,0.0
889,1778658668.310302,0.40861356,-1.4746538,0.732568,0.0,0.0,0.0
890,1778658668.3203046,0.40861356,-1.4746538,0.732568,0.0,0.0,0.0
891,1778658668.3303058,0.40861356,-1.4746538,0.732568,0.0,0.0,0.0
892,1778658668.3403065,0.40861356,-1.4746538,0.732568,0.0,0.0,0.0
893,1778658668.3503082,0.40861356,-1.4746538,0.732568,0.0,0.0,0.0
894,1778658668.3603096,0.40861356,-1.4746538,0.732568,0.0,0.0,0.0
895,1778658668.3703103,0.40861356,-1.4746538,0.732568,0.0,0.0,0.0
896,1778658668.3803115,0.40861356,-1.4746538,0.732568,0.0,0.0,0.0
897,1778658668.3903122,0.40861356,-1.4746538,0.732568,0.0,0.0,0.0
898,1778658668.4003136,0.40861356,-1.4746538,0.732568,0.0,0.0,0.0
899,1778658668.4103148,0.40861356,-1.4746538,0.732568,0.0,0.0,0.0
900,1778658668.4203157,0.40861356,-1.4746538,0.732568,0.0,0.0,0.0
901,1778658668.430318,0.40861356,-1.4746538,0.732568,0.0,0.0,0.0
902,1778658668.4403195,0.40861356,-1.4746538,0.732568,0.0,0.0,0.0
903,1778658668.450321,0.40861356,-1.4746538,0.732568,0.0,0.0,0.0
904,1778658668.4603226,0.40861356,-1.4746538,0.732568,0.0,0.0,0.0
905,1778658668.4703245,0.40861356,-1.4746538,0.732568,0.0,0.0,0.0
906,1778658668.4803257,0.40861356,-1.4746538,0.732568,0.0,0.0,0.0
907,1778658668.490327,0.40861356,-1.4746538,0.732568,0.0,0.0,0.0
908,1778658668.5003288,0.40861356,-1.4746538,0.732568,0.0,0.0,0.0
909,1778658668.51033,0.40861356,-1.4746538,0.732568,0.0,0.0,0.0
910,1778658668.5203307,0.40861356,-1.4746538,0.732568,0.0,0.0,0.0
911,1778658668.5303311,0.40861356,-1.4746538,0.732568,0.0,0.0,0.0
912,1778658668.540334,0.40861356,-1.4746538,0.732568,0.0,0.0,0.0
913,1778658668.550337,0.40861356,-1.4746538,0.732568,0.0,0.0,0.0
914,1778658668.5603385,0.40861356,-1.4746538,0.732568,0.0,0.0,0.0
915,1778658668.5703413,0.40861356,-1.4746538,0.732568,0.0,0.0,0.0
916,1778658668.5803435,0.40861356,-1.4746538,0.732568,0.0,0.0,0.0
917,1778658668.5903454,0.40861356,-1.4746538,0.732568,0.0,0.0,0.0
918,1778658668.6003478,0.40861356,-1.4746538,0.732568,0.0,0.0,0.0
919,1778658668.6103497,0.40861356,-1.4746538,0.732568,0.0,0.0,0.0
920,1778658668.620351,0.40861356,-1.4746538,0.732568,0.0,0.0,0.0
921,1778658668.630354,0.40861356,-1.4746538,0.732568,0.0,0.0,0.0
922,1778658668.640355,0.40861356,-1.4746538,0.732568,0.0,0.0,0.0
923,1778658668.6503565,0.40861356,-1.4746538,0.732568,0.0,0.0,0.0
924,1778658668.6603587,0.40861356,-1.4746538,0.732568,0.0,0.0,0.0
925,1778658668.6703596,0.40861356,-1.4746538,0.732568,0.0,0.0,0.0
926,1778658668.6803608,0.40861356,-1.4746538,0.732568,0.0,0.0,0.0
927,1778658668.6903625,0.40861356,-1.4746538,0.732568,0.0,0.0,0.0
928,1778658668.7003636,0.40861356,-1.4746538,0.732568,0.0,0.0,0.0
929,1778658668.7103658,0.40861356,-1.4746538,0.732568,0.0,0.0,0.0
930,1778658668.720368,0.40861356,-1.4746538,0.732568,0.0,0.0,0.0
931,1778658668.7303689,0.40861356,-1.4746538,0.732568,0.0,0.0,0.0
932,1778658668.7403703,0.40861356,-1.4746538,0.732568,0.0,0.0,0.0
933,1778658668.7503748,0.40861356,-1.4746538,0.732568,0.0,0.0,0.0
934,1778658668.7603784,0.40861356,-1.4746538,0.732568,0.0,0.0,0.0
935,1778658668.7703807,0.40861356,-1.4746538,0.732568,0.0,0.0,0.0
936,1778658668.7803822,0.40861356,-1.4746538,0.732568,0.0,0.0,0.0
937,1778658668.790383,0.40861356,-1.4746538,0.732568,0.0,0.0,0.0
938,1778658668.8003838,0.40861356,-1.4746538,0.732568,0.0,0.0,0.0
939,1778658668.8103843,0.40861356,-1.4746538,0.732568,0.0,0.0,0.0
940,1778658668.820387,0.23679742,-1.4160793,0.779427,0.0,0.0,0.0
941,1778658668.830389,0.23679742,-1.4160793,0.779427,0.0,0.0,0.0
942,1778658668.84039,0.23679742,-1.4160793,0.779427,0.0,0.0,0.0
943,1778658668.8503923,0.23679742,-1.4160793,0.779427,0.0,0.0,0.0
944,1778658668.860395,0.1626033,-1.2833123,0.65056413,0.0,0.0,0.0
945,1778658668.8703969,0.1626033,-1.2833123,0.65056413,0.0,0.0,0.0
946,1778658668.8803983,0.23679742,-1.4160793,0.779427,0.0,0.0,0.0
947,1778658668.8903995,0.23679742,-1.4160793,0.779427,0.0,0.0,0.0
948,1778658668.9004,0.23679742,-1.4160793,0.779427,0.0,0.0,0.0
949,1778658668.9104016,0.23679742,-1.4160793,0.779427,0.0,0.0,0.0
950,1778658668.9204025,0.23679742,-1.4160793,0.779427,0.0,0.0,0.0
951,1778658668.930405,0.23679742,-1.4160793,0.779427,0.0,0.0,0.0
952,1778658668.9404063,0.1626033,-1.2833123,0.65056413,0.0,0.0,0.0
953,1778658668.9504075,0.1626033,-1.2833123,0.65056413,0.0,0.0,0.0
954,1778658668.96041,0.1626033,-1.2833123,0.65056413,0.0,0.0,0.0
955,1778658668.9704115,0.1626033,-1.2833123,0.65056413,0.0,0.0,0.0
956,1778658668.9804127,0.1626033,-1.2833123,0.65056413,0.0,0.0,0.0
957,1778658668.990417,0.1626033,-1.2833123,0.65056413,0.0,0.0,0.0
958,1778658669.0004187,0.1626033,-1.2833123,0.65056413,0.0,0.0,0.0
959,1778658669.0104191,0.1626033,-1.2833123,0.65056413,0.0,0.0,0.0
960,1778658669.0204206,0.1626033,-1.2833123,0.65056413,0.0,0.0,0.0
961,1778658669.0304213,0.1626033,-1.2833123,0.65056413,0.0,0.0,0.0
962,1778658669.040423,0.1626033,-1.2833123,0.65056413,0.0,0.0,0.0
963,1778658669.050424,0.1626033,-1.2833123,0.65056413,0.0,0.0,0.0
964,1778658669.0604248,0.1626033,-1.2833123,0.65056413,0.0,0.0,0.0
965,1778658669.0704262,0.1626033,-1.2833123,0.65056413,0.0,0.0,0.0
966,1778658669.0804284,0.1626033,-1.2833123,0.65056413,0.0,0.0,0.0
967,1778658669.090429,0.1626033,-1.2833123,0.65056413,0.0,0.0,0.0
968,1778658669.1004303,0.1626033,-1.2833123,0.65056413,0.0,0.0,0.0
969,1778658669.1104321,0.13136402,-1.2286435,0.58418137,0.0,0.0,0.0
970,1778658669.1204343,0.13136402,-1.2286435,0.58418137,0.0,0.0,0.0
971,1778658669.1304364,0.13136402,-1.2286435,0.58418137,0.0,0.0,0.0
972,1778658669.1404388,0.13136402,-1.2286435,0.58418137,0.0,0.0,0.0
973,1778658669.150443,0.13136402,-1.2286435,0.58418137,0.0,0.0,0.0
974,1778658669.1604464,0.13136402,-1.2286435,0.58418137,0.0,0.0,0.0
975,1778658669.170447,0.13136402,-1.2286435,0.58418137,0.0,0.0,0.0
976,1778658669.1804497,0.13136402,-1.2286435,0.58418137,0.0,0.0,0.0
977,1778658669.1904514,0.13136402,-1.2286435,0.58418137,0.0,0.0,0.0
978,1778658669.200452,0.13136402,-1.2286435,0.58418137,0.0,0.0,0.0
979,1778658669.2104552,0.13136402,-1.2286435,0.58418137,0.0,0.0,0.0
980,1778658669.2204573,0.13136402,-1.2286435,0.58418137,0.0,0.0,0.0
981,1778658669.2304595,0.13136402,-1.2286435,0.58418137,0.0,0.0,0.0
982,1778658669.2404618,0.13136402,-1.2286435,0.58418137,0.0,0.0,0.0
983,1778658669.2504635,0.13136402,-1.2286435,0.58418137,0.0,0.0,0.0
984,1778658669.2604666,0.13136402,-1.2286435,0.58418137,0.0,0.0,0.0
985,1778658669.270469,0.13136402,-1.2286435,0.58418137,0.0,0.0,0.0
986,1778658669.2804701,0.13136402,-1.2286435,0.58418137,0.0,0.0,0.0
987,1778658669.2904713,0.13136402,-1.2286435,0.58418137,0.0,0.0,0.0
988,1778658669.3004737,0.13136402,-1.2286435,0.58418137,0.0,0.0,0.0
989,1778658669.3104742,0.13136402,-1.2286435,0.58418137,0.0,0.0,0.0
990,1778658669.3204753,0.13136402,-1.2286435,0.58418137,0.0,0.0,0.0
991,1778658669.330477,0.13136402,-1.2286435,0.58418137,0.0,0.0,0.0
992,1778658669.340478,0.13136402,-1.2286435,0.58418137,0.0,0.0,0.0
993,1778658669.3504798,0.13136402,-1.2286435,0.58418137,0.0,0.0,0.0
994,1778658669.3604808,0.13136402,-1.2286435,0.58418137,0.0,0.0,0.0
995,1778658669.3704815,0.13136402,-1.2286435,0.58418137,0.0,0.0,0.0
996,1778658669.3804836,0.037646122,-0.9943488,0.3850301,0.0,0.0,0.0
997,1778658669.3904848,0.037646122,-0.9943488,0.3850301,0.0,0.0,0.0
998,1778658669.4004855,0.037646122,-0.9943488,0.3850301,0.0,0.0,0.0
999,1778658669.4104867,0.037646122,-0.9943488,0.3850301,0.0,0.0,0.0
1000,1778658669.4204884,0.037646122,-0.9943488,0.3850301,0.0,0.0,0.0
