id,timestamp,acc_x,acc_y,acc_z,gyro_x,gyro_y,gyro_z
1,1778655887.8047402,0.8811087,0.23179515,0.060923163,0.0,0.0,0.0
2,1778655887.854744,0.8811087,0.23179515,0.060923163,0.0,0.0,0.0
3,1778655887.9047468,0.8732989,0.27084428,0.14683123,0.0,0.0,0.0
4,1778655887.9547489,0.8732989,0.27084428,0.14683123,0.0,0.0,0.0
5,1778655888.0047514,0.5570002,0.2161755,0.02187404,0.0,0.0,0.0
6,1778655888.0547535,0.49061593,0.23960498,0.025778176,0.0,0.0,0.0
7,1778655888.1047554,0.49061593,0.23960498,0.025778176,0.0,0.0,0.0
8,1778655888.1547596,1.1466427,0.4934235,0.5177971,0.0,0.0,0.0
9,1778655888.204765,1.1466427,0.4934235,0.5177971,0.0,0.0,0.0
10,1778655888.254769,1.5800872,0.54418814,0.6271346,0.0,0.0,0.0
11,1778655888.3047721,0.37737426,0.4621842,0.25226307,0.0,0.0,0.0
12,1778655888.3547745,0.43594715,0.47780383,0.25226307,0.0,0.0,0.0
13,1778655888.4047775,0.43594715,0.47780383,0.25226307,0.0,0.0,0.0
14,1778655888.4547799,0.70148116,0.5793316,0.4240792,0.0,0.0,0.0
15,1778655888.5047827,0.7131967,0.6261905,0.47093818,0.0,0.0,0.0
16,1778655888.5547853,0.6429083,0.67695516,0.48265368,0.0,0.0,0.0
17,1778655888.604788,0.6429083,0.67695516,0.48265368,0.0,0.0,0.0
18,1778655888.6547914,0.52185524,0.7745787,0.478748,0.0,0.0,0.0
19,1778655888.704794,0.52185524,0.7745787,0.478748,0.0,0.0,0.0
20,1778655888.7547967,0.65462226,1.0674464,0.43969887,0.0,0.0,0.0
21,1778655888.8047996,0.98654056,1.2744075,0.47484386,0.0,0.0,0.0
22,1778655888.8548021,0.98654056,1.2744075,0.47484386,0.0,0.0,0.0
23,1778655888.9048047,1.091974,1.3290763,0.49436763,0.0,0.0,0.0
24,1778655888.954807,1.2169311,1.4266983,0.44360456,0.0,0.0,0.0
25,1778655889.004809,1.2169311,1.4266983,0.44360456,0.0,0.0,0.0
26,1778655889.054812,1.2169311,1.4266983,0.44360456,0.0,0.0,0.0
27,1778655889.1048138,1.2169311,1.4266983,0.44360456,0.0,0.0,0.0
28,1778655889.154816,1.1193075,1.3954589,0.35769647,0.0,0.0,0.0
29,1778655889.2048185,1.0607346,1.2978369,0.31083754,0.0,0.0,0.0
30,1778655889.2548203,0.9396816,1.2197387,0.2952179,0.0,0.0,0.0
31,1778655889.304822,0.9396816,1.2197387,0.2952179,0.0,0.0,0.0
32,1778655889.3548243,0.5882395,1.1572601,0.36941046,0.0,0.0,0.0
33,1778655889.4048283,1.2130255,1.2470723,0.9160997,0.0,0.0,0.0
34,1778655889.4548314,1.3145531,1.2353584,0.9395292,0.0,0.0,0.0
35,1778655889.5048344,1.3301728,1.1572601,0.7364722,0.0,0.0,0.0
36,1778655889.5548368,1.1739763,1.0674464,0.4904635,0.0,0.0,0.0
37,1778655889.6048386,1.0021602,0.93858504,0.24054912,0.0,0.0,0.0
38,1778655889.6548405,0.6741476,0.7355296,-0.013270946,0.0,0.0,0.0
39,1778655889.7048428,0.6741476,0.7355296,-0.013270946,0.0,0.0,0.0
40,1778655889.7548451,0.68976724,0.5324726,0.27959824,0.0,0.0,0.0
41,1778655889.8048482,0.68976724,0.5324726,0.27959824,0.0,0.0,0.0
42,1778655889.8548508,0.744436,0.3684663,0.38112596,0.0,0.0,0.0
43,1778655889.9048533,0.744436,0.3684663,0.38112596,0.0,0.0,0.0
44,1778655889.9548554,0.744436,0.3684663,0.38112596,0.0,0.0,0.0
45,1778655890.0048568,0.80691457,0.20445998,0.24054912,0.0,0.0,0.0
46,1778655890.0548584,0.7951991,0.25522462,0.31864735,0.0,0.0,0.0
47,1778655890.10486,0.7951991,0.25522462,0.31864735,0.0,0.0,0.0
48,1778655890.1548615,0.7873893,0.16541086,0.17807053,0.0,0.0,0.0
49,1778655890.2048638,0.74834013,0.11074209,0.08044694,0.0,0.0,0.0
50,1778655890.2548654,0.74834013,0.11074209,0.08044694,0.0,0.0,0.0
51,1778655890.304867,0.7405303,-0.13917229,0.27569255,0.0,0.0,0.0
52,1778655890.3548684,0.7405303,-0.13917229,0.27569255,0.0,0.0,0.0
53,1778655890.4048715,0.7405303,-0.13917229,0.27569255,0.0,0.0,0.0
54,1778655890.4548733,0.7405303,-0.13917229,0.27569255,0.0,0.0,0.0
55,1778655890.5048745,0.6819574,0.013120069,0.31864735,0.0,0.0,0.0
56,1778655890.5548766,0.7327205,0.056073327,0.18588035,0.0,0.0,0.0
57,1778655890.6048787,0.69757706,0.11464778,-0.052320067,0.0,0.0,0.0
58,1778655890.65488,0.8498679,0.19274603,-0.103084706,0.0,0.0,0.0
59,1778655890.7048817,0.8498679,0.19274603,-0.103084706,0.0,0.0,0.0
60,1778655890.7548833,0.7951991,0.18103051,-0.009366812,0.0,0.0,0.0
61,1778655890.804885,0.7951991,0.18103051,-0.009366812,0.0,0.0,0.0
62,1778655890.8548868,0.3812784,0.20445998,0.111686245,0.0,0.0,0.0
63,1778655890.9048886,0.3812784,0.20445998,0.111686245,0.0,0.0,0.0
64,1778655890.95489,0.79910475,0.41923094,0.4279849,0.0,0.0,0.0
65,1778655891.0048923,0.79910475,0.41923094,0.4279849,0.0,0.0,0.0
66,1778655891.054894,0.79910475,0.41923094,0.4279849,0.0,0.0,0.0
67,1778655891.1048956,1.4746554,0.4934235,0.6700895,0.0,0.0,0.0
68,1778655891.1548972,1.4785595,0.47780383,0.46312833,0.0,0.0,0.0
69,1778655891.2048988,1.4785595,0.47780383,0.46312833,0.0,0.0,0.0
70,1778655891.2549458,1.0841641,0.38408595,0.084352635,0.0,0.0,0.0
71,1778655891.3049476,1.0841641,0.38408595,0.084352635,0.0,0.0,0.0
72,1778655891.3549492,1.1154034,0.337227,0.41236526,0.0,0.0,0.0
73,1778655891.404951,1.1154034,0.337227,0.41236526,0.0,0.0,0.0
74,1778655891.4549527,1.3457925,0.59885687,0.732568,0.0,0.0,0.0
75,1778655891.5049543,0.92015785,0.5871414,0.4475087,0.0,0.0,0.0
76,1778655891.5549562,0.92015785,0.5871414,0.4475087,0.0,0.0,0.0
77,1778655891.6049595,0.92015785,0.5871414,0.4475087,0.0,0.0,0.0
78,1778655891.6549609,0.58433384,0.516853,0.27569255,0.0,0.0,0.0
79,1778655891.7049727,0.59214365,0.505139,0.27178842,0.0,0.0,0.0
80,1778655891.7549736,0.62728864,0.469994,0.24835895,0.0,0.0,0.0
81,1778655891.804975,0.62728864,0.469994,0.24835895,0.0,0.0,0.0
82,1778655891.8549774,0.57261986,0.4621842,0.2288336,0.0,0.0,0.0
83,1778655891.9049804,0.9474914,0.96591866,0.4553185,0.0,0.0,0.0
84,1778655891.9549818,1.1271174,1.2002133,0.35769647,0.0,0.0,0.0
85,1778655892.004983,1.1271174,1.2002133,0.35769647,0.0,0.0,0.0
86,1778655892.0549843,1.2169311,1.3525057,0.34988666,0.0,0.0,0.0
87,1778655892.1049857,1.1895959,1.3329804,0.47093818,0.0,0.0,0.0
88,1778655892.1549919,1.1622623,1.3173608,0.4904635,0.0,0.0,0.0
89,1778655892.2049932,0.97873074,1.1767839,0.5529421,0.0,0.0,0.0
90,1778655892.2549949,0.97873074,1.1767839,0.5529421,0.0,0.0,0.0
91,1778655892.3049963,1.2169311,1.1884995,0.16245088,0.0,0.0,0.0
92,1778655892.354998,1.0685445,0.98544395,0.0023487024,0.0,0.0,0.0
93,1778655892.4050016,1.0685445,0.98544395,0.0023487024,0.0,0.0,0.0
94,1778655892.455004,0.8889185,0.71990997,0.03749369,0.0,0.0,0.0
95,1778655892.5050056,0.8889185,0.71990997,0.03749369,0.0,0.0,0.0
96,1778655892.5550075,0.86548907,0.45828006,0.4162694,0.0,0.0,0.0
97,1778655892.605009,0.79910475,0.20445998,0.40455544,0.0,0.0,0.0
98,1778655892.6550107,0.79910475,0.20445998,0.40455544,0.0,0.0,0.0
99,1778655892.7050123,0.74834013,0.09902814,0.34207684,0.0,0.0,0.0
100,1778655892.7550135,0.7327205,0.03264385,0.26788273,0.0,0.0,0.0
101,1778655892.8050158,0.6233829,-0.12745832,0.068732984,0.0,0.0,0.0
102,1778655892.8550174,0.6233829,-0.12745832,0.068732984,0.0,0.0,0.0
103,1778655892.9050193,0.64681244,-0.107932985,0.12340175,0.0,0.0,0.0
104,1778655892.9550204,0.64681244,-0.107932985,0.12340175,0.0,0.0,0.0
105,1778655893.0050228,0.81862855,-0.06107404,0.25616878,0.0,0.0,0.0
106,1778655893.0550241,0.82253426,-0.06107404,0.27178842,0.0,0.0,0.0
107,1778655893.1050258,0.82253426,-0.06107404,0.27178842,0.0,0.0,0.0
108,1778655893.1550272,0.744436,-0.022024918,0.24445325,0.0,0.0,0.0
109,1778655893.2050307,0.7249107,0.10683796,0.17416483,0.0,0.0,0.0
110,1778655893.2550335,0.8498679,0.15760104,0.1702607,0.0,0.0,0.0
111,1778655893.3050358,0.76005566,0.06388315,0.10778211,0.0,0.0,0.0
112,1778655893.3550372,0.6819574,0.056073327,0.096066594,0.0,0.0,0.0
113,1778655893.405039,0.3500391,0.28255823,0.18978448,0.0,0.0,0.0
114,1778655893.4550424,0.3500391,0.28255823,0.18978448,0.0,0.0,0.0
115,1778655893.5050454,0.5491904,0.35284665,0.29912204,0.0,0.0,0.0
116,1778655893.5551424,0.5491904,0.35284665,0.29912204,0.0,0.0,0.0
117,1778655893.605144,1.2481705,0.34894252,0.5217028,0.0,0.0,0.0
118,1778655893.6551454,1.2481705,0.34894252,0.5217028,0.0,0.0,0.0
119,1778655893.705147,1.2481705,0.34894252,0.5217028,0.0,0.0,0.0
120,1778655893.7551491,1.4512259,0.31770322,0.3850301,0.0,0.0,0.0
121,1778655893.8051517,1.4512259,0.31770322,0.3850301,0.0,0.0,0.0
122,1778655893.8551536,1.0646389,0.2474148,0.10778211,0.0,0.0,0.0
123,1778655893.9051561,1.0646389,0.2474148,0.10778211,0.0,0.0,0.0
124,1778655893.955157,1.0646389,0.2474148,0.10778211,0.0,0.0,0.0
125,1778655894.0051582,1.0646389,0.2474148,0.10778211,0.0,0.0,0.0
126,1778655894.05516,0.6663377,0.17712638,-0.017176636,0.0,0.0,0.0
127,1778655894.105162,0.6780517,0.34894252,0.38112596,0.0,0.0,0.0
128,1778655894.155164,0.8576777,0.39189577,0.4865578,0.0,0.0,0.0
129,1778655894.2051678,1.357508,0.47780383,0.6544698,0.0,0.0,0.0
130,1778655894.2551706,1.357508,0.47780383,0.6544698,0.0,0.0,0.0
131,1778655894.3051724,1.2598844,0.55199796,0.53732246,0.0,0.0,0.0
132,1778655894.3551838,1.0021602,0.52856845,0.36941046,0.0,0.0,0.0
133,1778655894.4051857,1.0021602,0.52856845,0.36941046,0.0,0.0,0.0
134,1778655894.4551866,0.45937663,0.40361127,0.096066594,0.0,0.0,0.0
135,1778655894.5051885,0.44766268,0.36065647,0.18588035,0.0,0.0,0.0
136,1778655894.5551918,0.44766268,0.36065647,0.18588035,0.0,0.0,0.0
137,1778655894.605194,0.51014125,0.36456215,0.27959824,0.0,0.0,0.0
138,1778655894.6551955,0.59214365,0.4934235,0.40064976,0.0,0.0,0.0
139,1778655894.705197,0.59214365,0.4934235,0.40064976,0.0,0.0,0.0
140,1778655894.7551994,0.59214365,0.4934235,0.40064976,0.0,0.0,0.0
141,1778655894.805202,0.86939317,0.9307752,0.38893577,0.0,0.0,0.0
142,1778655894.8552039,0.9006325,0.9815383,0.3850301,0.0,0.0,0.0
143,1778655894.9052057,0.9006325,0.9815383,0.3850301,0.0,0.0,0.0
144,1778655894.955207,1.1075937,1.3446959,0.3928399,0.0,0.0,0.0
145,1778655895.0052085,1.1075937,1.3446959,0.3928399,0.0,0.0,0.0
146,1778655895.0552096,1.1075937,1.3446959,0.3928399,0.0,0.0,0.0
147,1778655895.1052122,1.1075937,1.3446959,0.3928399,0.0,0.0,0.0
148,1778655895.1552143,1.2403606,1.4071745,0.4553185,0.0,0.0,0.0
149,1778655895.2052188,1.2872195,1.442318,0.6271346,0.0,0.0,0.0
150,1778655895.255222,1.2872195,1.442318,0.6271346,0.0,0.0,0.0
151,1778655895.3052235,1.0021602,1.4032688,0.98638815,0.0,0.0,0.0
152,1778655895.355225,0.96701676,1.3876492,1.0332471,0.0,0.0,0.0
153,1778655895.4052262,0.88501287,1.4110786,1.0762004,0.0,0.0,0.0
154,1778655895.455228,0.88501287,1.4110786,1.0762004,0.0,0.0,0.0
155,1778655895.5052302,1.5683732,1.4071745,0.7520918,0.0,0.0,0.0
156,1778655895.5552325,1.5527536,1.3095509,0.51389295,0.0,0.0,0.0
157,1778655895.6052344,1.1856918,1.0166832,0.02187404,0.0,0.0,0.0
158,1778655895.655236,1.1856918,1.0166832,0.02187404,0.0,0.0,0.0
159,1778655895.7052379,0.9631111,0.8097221,-0.017176636,0.0,0.0,0.0
160,1778655895.75524,0.9631111,0.8097221,-0.017176636,0.0,0.0,0.0
161,1778655895.8052416,0.7834851,0.6340003,0.08825677,0.0,0.0,0.0
162,1778655895.855243,0.7327205,0.58323723,0.14292555,0.0,0.0,0.0
163,1778655895.9052448,0.7327205,0.58323723,0.14292555,0.0,0.0,0.0
164,1778655895.9552464,0.7327205,0.58323723,0.14292555,0.0,0.0,0.0
165,1778655896.0053146,0.73662615,0.45437437,0.40064976,0.0,0.0,0.0
166,1778655896.0553167,0.75614995,0.43485057,0.4553185,0.0,0.0,0.0
167,1778655896.1053178,0.8030089,0.372372,0.5177971,0.0,0.0,0.0
168,1778655896.1553202,0.8303441,0.25912875,0.37722027,0.0,0.0,0.0
169,1778655896.2053218,0.8303441,0.25912875,0.37722027,0.0,0.0,0.0
170,1778655896.2553232,0.79129493,0.059979014,0.0023487024,0.0,0.0,0.0
171,1778655896.3053243,0.73662615,0.020929893,-0.009366812,0.0,0.0,0.0
172,1778655896.3553257,0.73662615,0.020929893,-0.009366812,0.0,0.0,0.0
173,1778655896.4053292,0.7951991,-0.010309404,0.11949607,0.0,0.0,0.0
174,1778655896.4553328,0.7951991,-0.010309404,0.11949607,0.0,0.0,0.0
175,1778655896.5053353,0.8576777,-0.022024918,0.24054912,0.0,0.0,0.0
176,1778655896.555337,0.8576777,-0.022024918,0.24054912,0.0,0.0,0.0
177,1778655896.6053386,0.842058,-0.068883866,0.23664343,0.0,0.0,0.0
178,1778655896.6553402,0.842058,-0.068883866,0.23664343,0.0,0.0,0.0
179,1778655896.7053416,0.82253426,-0.053264216,0.19759431,0.0,0.0,0.0
180,1778655896.755344,0.79910475,-0.018119227,0.13121158,0.0,0.0,0.0
181,1778655896.805346,0.79910475,-0.018119227,0.13121158,0.0,0.0,0.0
182,1778655896.8553476,0.8928227,0.14588708,0.13902141,0.0,0.0,0.0
183,1778655896.9053497,0.8928227,0.14588708,0.13902141,0.0,0.0,0.0
184,1778655896.9553525,0.8928227,0.14588708,0.13902141,0.0,0.0,0.0
185,1778655897.005354,0.877203,0.15760104,0.12340175,0.0,0.0,0.0
186,1778655897.055355,0.877203,0.15760104,0.12340175,0.0,0.0,0.0
187,1778655897.1053562,0.877203,0.18103051,0.099972285,0.0,0.0,0.0
188,1778655897.1553576,0.877203,0.18103051,0.099972285,0.0,0.0,0.0
189,1778655897.2053595,0.8889185,0.20055585,0.12340175,0.0,0.0,0.0
190,1778655897.2553613,0.89672834,0.20836568,0.14292555,0.0,0.0,0.0
191,1778655897.305363,0.89672834,0.20836568,0.14292555,0.0,0.0,0.0
192,1778655897.3553648,0.8732989,0.18103051,0.14683123,0.0,0.0,0.0
193,1778655897.4053662,0.7873893,0.13026744,0.13511571,0.0,0.0,0.0
194,1778655897.4553683,0.70148116,0.09902814,0.13121158,0.0,0.0,0.0
195,1778655897.5053701,0.4749963,0.12636174,0.14292555,0.0,0.0,0.0
196,1778655897.5553715,0.4749963,0.12636174,0.14292555,0.0,0.0,0.0
197,1778655897.6053734,0.82643837,0.39189577,0.4553185,0.0,0.0,0.0
198,1778655897.6553748,0.52185524,0.3411327,0.3225515,0.0,0.0,0.0
199,1778655897.7053766,1.142737,0.43485057,0.58808553,0.0,0.0,0.0
200,1778655897.7553785,1.142737,0.43485057,0.58808553,0.0,0.0,0.0
