id,timestamp,acc_x,acc_y,acc_z,gyro_x,gyro_y,gyro_z
1,1778659419.7294984,0.041550256,-0.3773727,-0.25147137,0.0,0.0,0.0
2,1778659419.7395031,0.041550256,-0.3773727,-0.25147137,0.0,0.0,0.0
3,1778659419.749506,0.041550256,-0.3773727,-0.25147137,0.0,0.0,0.0
4,1778659419.7595081,0.041550256,-0.3773727,-0.25147137,0.0,0.0,0.0
5,1778659419.7695105,0.041550256,-0.3773727,-0.25147137,0.0,0.0,0.0
6,1778659419.7795117,0.0064068246,-0.373467,-0.22804189,0.0,0.0,0.0
7,1778659419.7895129,0.0064068246,-0.373467,-0.22804189,0.0,0.0,0.0
8,1778659419.7995155,0.0064068246,-0.373467,-0.22804189,0.0,0.0,0.0
9,1778659419.8095179,0.0064068246,-0.373467,-0.22804189,0.0,0.0,0.0
10,1778659419.8195188,0.0064068246,-0.373467,-0.22804189,0.0,0.0,0.0
11,1778659419.8295207,0.0064068246,-0.373467,-0.22804189,0.0,0.0,0.0
12,1778659419.8395224,0.0064068246,-0.373467,-0.22804189,0.0,0.0,0.0
13,1778659419.8495233,0.0064068246,-0.373467,-0.22804189,0.0,0.0,0.0
14,1778659419.859525,0.0064068246,-0.373467,-0.22804189,0.0,0.0,0.0
15,1778659419.8695266,0.0064068246,-0.373467,-0.22804189,0.0,0.0,0.0
16,1778659419.8795273,0.0064068246,-0.373467,-0.22804189,0.0,0.0,0.0
17,1778659419.8895311,0.0064068246,-0.373467,-0.22804189,0.0,0.0,0.0
18,1778659419.8995323,0.0064068246,-0.373467,-0.22804189,0.0,0.0,0.0
19,1778659419.9095356,0.0064068246,-0.373467,-0.22804189,0.0,0.0,0.0
20,1778659419.9195392,0.0064068246,-0.373467,-0.22804189,0.0,0.0,0.0
21,1778659419.9295423,0.0064068246,-0.373467,-0.22804189,0.0,0.0,0.0
22,1778659419.939546,0.0064068246,-0.373467,-0.22804189,0.0,0.0,0.0
23,1778659419.9495475,0.0064068246,-0.373467,-0.22804189,0.0,0.0,0.0
24,1778659419.9595487,0.0064068246,-0.373467,-0.22804189,0.0,0.0,0.0
25,1778659419.9695523,0.0064068246,-0.373467,-0.22804189,0.0,0.0,0.0
26,1778659419.9795537,0.0064068246,-0.373467,-0.22804189,0.0,0.0,0.0
27,1778659419.9895546,0.0064068246,-0.373467,-0.22804189,0.0,0.0,0.0
28,1778659419.999557,0.0064068246,-0.373467,-0.22804189,0.0,0.0,0.0
29,1778659420.009558,0.0064068246,-0.373467,-0.22804189,0.0,0.0,0.0
30,1778659420.0195591,0.0064068246,-0.373467,-0.22804189,0.0,0.0,0.0
31,1778659420.029561,-0.14978966,-0.35394323,-0.15384778,0.0,0.0,0.0
32,1778659420.0395644,-0.14978966,-0.35394323,-0.15384778,0.0,0.0,0.0
33,1778659420.049567,-0.14978966,-0.35394323,-0.15384778,0.0,0.0,0.0
34,1778659420.0595706,-0.14978966,-0.35394323,-0.15384778,0.0,0.0,0.0
35,1778659420.0695739,-0.14978966,-0.35394323,-0.15384778,0.0,0.0,0.0
36,1778659420.0795748,-0.14978966,-0.35394323,-0.15384778,0.0,0.0,0.0
37,1778659420.0895758,-0.14978966,-0.35394323,-0.15384778,0.0,0.0,0.0
38,1778659420.0995774,-0.14978966,-0.35394323,-0.15384778,0.0,0.0,0.0
39,1778659420.1095788,-0.14978966,-0.35394323,-0.15384778,0.0,0.0,0.0
40,1778659420.1195793,-0.14978966,-0.35394323,-0.15384778,0.0,0.0,0.0
41,1778659420.1295807,-0.14978966,-0.35394323,-0.15384778,0.0,0.0,0.0
42,1778659420.1395814,-0.14978966,-0.35394323,-0.15384778,0.0,0.0,0.0
43,1778659420.149582,-0.14978966,-0.35394323,-0.15384778,0.0,0.0,0.0
44,1778659420.1595845,-0.14978966,-0.35394323,-0.15384778,0.0,0.0,0.0
45,1778659420.1695857,-0.14978966,-0.35394323,-0.15384778,0.0,0.0,0.0
46,1778659420.179587,-0.14978966,-0.35394323,-0.15384778,0.0,0.0,0.0
47,1778659420.1895883,-0.14978966,-0.35394323,-0.15384778,0.0,0.0,0.0
48,1778659420.199589,-0.14978966,-0.35394323,-0.15384778,0.0,0.0,0.0
49,1778659420.2095907,-0.14978966,-0.35394323,-0.15384778,0.0,0.0,0.0
50,1778659420.2195928,-0.23960342,-0.34222773,-0.14603797,0.0,0.0,0.0
51,1778659420.2295933,-0.23960342,-0.34222773,-0.14603797,0.0,0.0,0.0
52,1778659420.2395945,-0.23960342,-0.34222773,-0.14603797,0.0,0.0,0.0
53,1778659420.249597,-0.23960342,-0.34222773,-0.14603797,0.0,0.0,0.0
54,1778659420.2595987,-0.23960342,-0.34222773,-0.14603797,0.0,0.0,0.0
55,1778659420.2696,-0.23960342,-0.34222773,-0.14603797,0.0,0.0,0.0
56,1778659420.2796018,-0.63399875,-0.24460569,-0.18899277,0.0,0.0,0.0
57,1778659420.289603,-0.63399875,-0.24460569,-0.18899277,0.0,0.0,0.0
58,1778659420.299604,-0.63399875,-0.24460569,-0.18899277,0.0,0.0,0.0
59,1778659420.309627,-0.63399875,-0.24460569,-0.18899277,0.0,0.0,0.0
60,1778659420.3196282,-0.63399875,-0.24460569,-0.18899277,0.0,0.0,0.0
61,1778659420.3296294,-0.23960342,-0.34222773,-0.14603797,0.0,0.0,0.0
62,1778659420.3396301,-0.23960342,-0.34222773,-0.14603797,0.0,0.0,0.0
63,1778659420.3496313,-0.23960342,-0.34222773,-0.14603797,0.0,0.0,0.0
64,1778659420.3596325,-0.76286167,-0.19774674,-0.20461242,0.0,0.0,0.0
65,1778659420.3696358,-0.76286167,-0.19774674,-0.20461242,0.0,0.0,0.0
66,1778659420.3796372,-0.76286167,-0.19774674,-0.20461242,0.0,0.0,0.0
67,1778659420.389639,-0.76286167,-0.19774674,-0.20461242,0.0,0.0,0.0
68,1778659420.39964,-0.76286167,-0.19774674,-0.20461242,0.0,0.0,0.0
69,1778659420.4096434,-0.76286167,-0.19774674,-0.20461242,0.0,0.0,0.0
70,1778659420.4196446,-0.76286167,-0.19774674,-0.20461242,0.0,0.0,0.0
71,1778659420.4296453,-0.76286167,-0.19774674,-0.20461242,0.0,0.0,0.0
72,1778659420.4396467,-0.76286167,-0.19774674,-0.20461242,0.0,0.0,0.0
73,1778659420.4496477,-0.76286167,-0.19774674,-0.20461242,0.0,0.0,0.0
74,1778659420.4596486,-0.76286167,-0.19774674,-0.20461242,0.0,0.0,0.0
75,1778659420.4696512,-0.76286167,-0.19774674,-0.20461242,0.0,0.0,0.0
76,1778659420.479652,-0.76286167,-0.19774674,-0.20461242,0.0,0.0,0.0
77,1778659420.4896555,-0.76286167,-0.19774674,-0.20461242,0.0,0.0,0.0
78,1778659420.4996572,-0.76286167,-0.19774674,-0.20461242,0.0,0.0,0.0
79,1778659420.5096593,-0.76286167,-0.19774674,-0.20461242,0.0,0.0,0.0
80,1778659420.519661,-0.76286167,-0.19774674,-0.20461242,0.0,0.0,0.0
81,1778659420.5296621,-0.76286167,-0.19774674,-0.20461242,0.0,0.0,0.0
82,1778659420.5396633,-0.76286167,-0.19774674,-0.20461242,0.0,0.0,0.0
83,1778659420.5496652,-0.76286167,-0.19774674,-0.20461242,0.0,0.0,0.0
84,1778659420.5596662,-0.76286167,-0.19774674,-0.20461242,0.0,0.0,0.0
85,1778659420.5696673,-0.76286167,-0.19774674,-0.20461242,0.0,0.0,0.0
86,1778659420.5796685,-0.76286167,-0.19774674,-0.20461242,0.0,0.0,0.0
87,1778659420.5896695,-0.76286167,-0.19774674,-0.20461242,0.0,0.0,0.0
88,1778659420.5996704,-0.76286167,-0.19774674,-0.20461242,0.0,0.0,0.0
89,1778659420.6096728,-0.76286167,-0.19774674,-0.20461242,0.0,0.0,0.0
90,1778659420.6196735,-0.76286167,-0.19774674,-0.20461242,0.0,0.0,0.0
91,1778659420.6296744,-0.76286167,-0.19774674,-0.20461242,0.0,0.0,0.0
92,1778659420.6396754,-0.76286167,-0.19774674,-0.20461242,0.0,0.0,0.0
93,1778659420.6496782,-0.76286167,-0.19774674,-0.20461242,0.0,0.0,0.0
94,1778659420.6596804,-0.76286167,-0.19774674,-0.20461242,0.0,0.0,0.0
95,1778659420.6696808,-0.76286167,-0.19774674,-0.20461242,0.0,0.0,0.0
96,1778659420.6796815,-0.76286167,-0.19774674,-0.20461242,0.0,0.0,0.0
97,1778659420.6896832,-0.76286167,-0.19774674,-0.20461242,0.0,0.0,0.0
98,1778659420.6996837,-0.76286167,-0.19774674,-0.20461242,0.0,0.0,0.0
99,1778659420.7096848,-0.76286167,-0.19774674,-0.20461242,0.0,0.0,0.0
100,1778659420.7196858,-0.76286167,-0.19774674,-0.20461242,0.0,0.0,0.0
101,1778659420.7296865,-0.76286167,-0.19774674,-0.20461242,0.0,0.0,0.0
102,1778659420.7396882,-0.76286167,-0.19774674,-0.20461242,0.0,0.0,0.0
103,1778659420.749689,-0.76286167,-0.19774674,-0.20461242,0.0,0.0,0.0
104,1778659420.7596898,-0.76286167,-0.19774674,-0.20461242,0.0,0.0,0.0
105,1778659420.7696915,-0.76286167,-0.19774674,-0.20461242,0.0,0.0,0.0
106,1778659420.7796922,-0.76286167,-0.19774674,-0.20461242,0.0,0.0,0.0
107,1778659420.7896936,-0.76286167,-0.19774674,-0.20461242,0.0,0.0,0.0
108,1778659420.7996957,-0.76286167,-0.19774674,-0.20461242,0.0,0.0,0.0
109,1778659420.809699,-0.76286167,-0.19774674,-0.20461242,0.0,0.0,0.0
110,1778659420.8197007,-0.76286167,-0.19774674,-0.20461242,0.0,0.0,0.0
111,1778659420.8297021,-0.42313352,-0.123552635,-0.021080771,0.0,0.0,0.0
112,1778659420.8397028,-0.42313352,-0.123552635,-0.021080771,0.0,0.0,0.0
113,1778659420.849704,-0.42313352,-0.123552635,-0.021080771,0.0,0.0,0.0
114,1778659420.8597057,-0.42313352,-0.123552635,-0.021080771,0.0,0.0,0.0
115,1778659420.8697076,-0.42313352,-0.123552635,-0.021080771,0.0,0.0,0.0
116,1778659420.8797092,-0.42313352,-0.123552635,-0.021080771,0.0,0.0,0.0
117,1778659420.8897104,-0.42313352,-0.123552635,-0.021080771,0.0,0.0,0.0
118,1778659420.899712,0.9513971,0.13417158,0.10778211,0.0,0.0,0.0
119,1778659420.9097133,0.9513971,0.13417158,0.10778211,0.0,0.0,0.0
120,1778659420.9197142,0.9513971,0.13417158,0.10778211,0.0,0.0,0.0
121,1778659420.9297166,0.9513971,0.13417158,0.10778211,0.0,0.0,0.0
122,1778659420.9397187,0.9513971,0.13417158,0.10778211,0.0,0.0,0.0
123,1778659420.94972,0.9513971,0.13417158,0.10778211,0.0,0.0,0.0
124,1778659420.9597206,0.9513971,0.13417158,0.10778211,0.0,0.0,0.0
125,1778659420.9697216,0.9513971,0.13417158,0.10778211,0.0,0.0,0.0
126,1778659420.9797237,0.9513971,0.13417158,0.10778211,0.0,0.0,0.0
127,1778659420.9897246,0.9513971,0.13417158,0.10778211,0.0,0.0,0.0
128,1778659420.9997258,0.9513971,0.13417158,0.10778211,0.0,0.0,0.0
129,1778659421.0097284,0.9435873,0.13026744,0.16245088,0.0,0.0,0.0
130,1778659421.0197303,0.9435873,0.13026744,0.16245088,0.0,0.0,0.0
131,1778659421.0297313,0.9435873,0.13026744,0.16245088,0.0,0.0,0.0
132,1778659421.0397325,0.9435873,0.13026744,0.16245088,0.0,0.0,0.0
133,1778659421.0497334,0.9435873,0.13026744,0.16245088,0.0,0.0,0.0
134,1778659421.0597348,0.9435873,0.13026744,0.16245088,0.0,0.0,0.0
135,1778659421.0697362,0.9435873,0.13026744,0.16245088,0.0,0.0,0.0
136,1778659421.0797374,0.9435873,0.13026744,0.16245088,0.0,0.0,0.0
137,1778659421.089738,0.9435873,0.13026744,0.16245088,0.0,0.0,0.0
138,1778659421.0997398,0.9435873,0.13026744,0.16245088,0.0,0.0,0.0
139,1778659421.1097403,0.9435873,0.13026744,0.16245088,0.0,0.0,0.0
140,1778659421.119742,0.9435873,0.13026744,0.16245088,0.0,0.0,0.0
141,1778659421.130082,0.9435873,0.13026744,0.16245088,0.0,0.0,0.0
142,1778659421.1400838,0.9435873,0.13026744,0.16245088,0.0,0.0,0.0
143,1778659421.150085,0.9435873,0.13026744,0.16245088,0.0,0.0,0.0
144,1778659421.160086,0.9435873,0.13026744,0.16245088,0.0,0.0,0.0
145,1778659421.170087,0.9435873,0.13026744,0.16245088,0.0,0.0,0.0
146,1778659421.180088,0.9435873,0.13026744,0.16245088,0.0,0.0,0.0
147,1778659421.1900887,0.9435873,0.13026744,0.16245088,0.0,0.0,0.0
148,1778659421.2000895,0.9435873,0.13026744,0.16245088,0.0,0.0,0.0
149,1778659421.210095,0.9435873,0.13026744,0.16245088,0.0,0.0,0.0
150,1778659421.2200968,0.9435873,0.13026744,0.16245088,0.0,0.0,0.0
151,1778659421.2300987,0.99044627,0.13417158,0.31864735,0.0,0.0,0.0
152,1778659421.2401,0.99044627,0.13417158,0.31864735,0.0,0.0,0.0
153,1778659421.2501004,0.99044627,0.13417158,0.31864735,0.0,0.0,0.0
154,1778659421.260103,0.99044627,0.13417158,0.31864735,0.0,0.0,0.0
155,1778659421.2701051,0.99044627,0.13417158,0.31864735,0.0,0.0,0.0
156,1778659421.280106,0.99044627,0.13417158,0.31864735,0.0,0.0,0.0
157,1778659421.290108,0.99044627,0.13417158,0.31864735,0.0,0.0,0.0
158,1778659421.3001091,0.99044627,0.13417158,0.31864735,0.0,0.0,0.0
159,1778659421.3101106,0.99044627,0.13417158,0.31864735,0.0,0.0,0.0
160,1778659421.3201122,1.0099701,0.1419814,0.34598097,0.0,0.0,0.0
161,1778659421.3301144,1.0099701,0.1419814,0.34598097,0.0,0.0,0.0
162,1778659421.340116,1.0099701,0.1419814,0.34598097,0.0,0.0,0.0
163,1778659421.3501174,1.0099701,0.1419814,0.34598097,0.0,0.0,0.0
164,1778659421.3601189,1.0099701,0.1419814,0.34598097,0.0,0.0,0.0
165,1778659421.3701208,1.0099701,0.1419814,0.34598097,0.0,0.0,0.0
166,1778659421.380122,1.0099701,0.1419814,0.34598097,0.0,0.0,0.0
167,1778659421.3901238,1.0099701,0.1419814,0.34598097,0.0,0.0,0.0
168,1778659421.4001253,1.0099701,0.1419814,0.34598097,0.0,0.0,0.0
169,1778659421.4101267,1.0099701,0.1419814,0.34598097,0.0,0.0,0.0
170,1778659421.4201276,1.0099701,0.1419814,0.34598097,0.0,0.0,0.0
171,1778659421.4301288,1.0099701,0.1419814,0.34598097,0.0,0.0,0.0
172,1778659421.4401293,1.0099701,0.1419814,0.34598097,0.0,0.0,0.0
173,1778659421.450134,1.0099701,0.1419814,0.34598097,0.0,0.0,0.0
174,1778659421.4601364,1.0099701,0.1419814,0.34598097,0.0,0.0,0.0
175,1778659421.4701378,1.0099701,0.1419814,0.34598097,0.0,0.0,0.0
176,1778659421.4801385,1.0099701,0.1419814,0.34598097,0.0,0.0,0.0
177,1778659421.4901395,1.0099701,0.1419814,0.34598097,0.0,0.0,0.0
178,1778659421.500141,1.1271174,0.13417158,0.36550632,0.0,0.0,0.0
179,1778659421.5101423,1.1271174,0.13417158,0.36550632,0.0,0.0,0.0
180,1778659421.520143,1.1271174,0.13417158,0.36550632,0.0,0.0,0.0
181,1778659421.5301442,1.1271174,0.13417158,0.36550632,0.0,0.0,0.0
182,1778659421.5401452,1.1271174,0.13417158,0.36550632,0.0,0.0,0.0
183,1778659421.5501463,1.1271174,0.13417158,0.36550632,0.0,0.0,0.0
184,1778659421.5601482,1.3457925,0.16931656,0.34207684,0.0,0.0,0.0
185,1778659421.5701492,1.3457925,0.16931656,0.34207684,0.0,0.0,0.0
186,1778659421.5801508,1.3457925,0.16931656,0.34207684,0.0,0.0,0.0
187,1778659421.5901527,1.3457925,0.16931656,0.34207684,0.0,0.0,0.0
188,1778659421.6001534,1.3457925,0.16931656,0.34207684,0.0,0.0,0.0
189,1778659421.6101544,1.3457925,0.16931656,0.34207684,0.0,0.0,0.0
190,1778659421.6201556,1.3457925,0.16931656,0.34207684,0.0,0.0,0.0
191,1778659421.6301563,1.3457925,0.16931656,0.34207684,0.0,0.0,0.0
192,1778659421.6401577,1.3457925,0.16931656,0.34207684,0.0,0.0,0.0
193,1778659421.6501584,1.3457925,0.16931656,0.34207684,0.0,0.0,0.0
194,1778659421.6601593,1.3457925,0.16931656,0.34207684,0.0,0.0,0.0
195,1778659421.6701605,1.3457925,0.16931656,0.34207684,0.0,0.0,0.0
196,1778659421.6801622,1.3457925,0.16931656,0.34207684,0.0,0.0,0.0
197,1778659421.6901643,1.3457925,0.16931656,0.34207684,0.0,0.0,0.0
198,1778659421.7001653,1.3457925,0.16931656,0.34207684,0.0,0.0,0.0
199,1778659421.7101662,1.3457925,0.16931656,0.34207684,0.0,0.0,0.0
200,1778659421.7201676,1.3457925,0.16931656,0.34207684,0.0,0.0,0.0
201,1778659421.7301712,1.3457925,0.16931656,0.34207684,0.0,0.0,0.0
202,1778659421.7401729,1.3457925,0.16931656,0.34207684,0.0,0.0,0.0
203,1778659421.7501738,1.3457925,0.16931656,0.34207684,0.0,0.0,0.0
204,1778659421.7601764,1.3457925,0.16931656,0.34207684,0.0,0.0,0.0
205,1778659421.7701774,1.3457925,0.16931656,0.34207684,0.0,0.0,0.0
206,1778659421.7801788,1.3457925,0.16931656,0.34207684,0.0,0.0,0.0
207,1778659421.7901793,1.3457925,0.16931656,0.34207684,0.0,0.0,0.0
208,1778659421.8001812,1.3457925,0.16931656,0.34207684,0.0,0.0,0.0
209,1778659421.8101835,1.3457925,0.16931656,0.34207684,0.0,0.0,0.0
210,1778659421.8201842,1.3457925,0.16931656,0.34207684,0.0,0.0,0.0
211,1778659421.8301852,1.3457925,0.16931656,0.34207684,0.0,0.0,0.0
212,1778659421.840186,1.3457925,0.16931656,0.34207684,0.0,0.0,0.0
213,1778659421.8501866,1.3457925,0.16931656,0.34207684,0.0,0.0,0.0
214,1778659421.8601885,1.3457925,0.16931656,0.34207684,0.0,0.0,0.0
215,1778659421.8701897,1.3457925,0.16931656,0.34207684,0.0,0.0,0.0
216,1778659421.8801901,1.3457925,0.16931656,0.34207684,0.0,0.0,0.0
217,1778659421.8901916,1.3457925,0.16931656,0.34207684,0.0,0.0,0.0
218,1778659421.900192,1.3457925,0.16931656,0.34207684,0.0,0.0,0.0
219,1778659421.910193,1.3457925,0.16931656,0.34207684,0.0,0.0,0.0
220,1778659421.9201963,1.3457925,0.16931656,0.34207684,0.0,0.0,0.0
221,1778659421.9301972,1.3457925,0.16931656,0.34207684,0.0,0.0,0.0
222,1778659421.9401991,1.3457925,0.16931656,0.34207684,0.0,0.0,0.0
223,1778659421.9502003,1.3457925,0.16931656,0.34207684,0.0,0.0,0.0
224,1778659421.960201,1.3457925,0.16931656,0.34207684,0.0,0.0,0.0
225,1778659421.9702022,1.3457925,0.16931656,0.34207684,0.0,0.0,0.0
226,1778659421.9802027,1.3457925,0.16931656,0.34207684,0.0,0.0,0.0
227,1778659421.9902043,1.4277964,0.43485057,0.30302772,0.0,0.0,0.0
228,1778659422.0002062,1.4277964,0.43485057,0.30302772,0.0,0.0,0.0
229,1778659422.0102084,1.4277964,0.43485057,0.30302772,0.0,0.0,0.0
230,1778659422.0202093,1.4277964,0.43485057,0.30302772,0.0,0.0,0.0
231,1778659422.03021,1.4277964,0.43485057,0.30302772,0.0,0.0,0.0
232,1778659422.0402107,1.4277964,0.43485057,0.30302772,0.0,0.0,0.0
233,1778659422.0502143,1.4277964,0.43485057,0.30302772,0.0,0.0,0.0
234,1778659422.060216,1.4277964,0.43485057,0.30302772,0.0,0.0,0.0
235,1778659422.0702171,1.4277964,0.43485057,0.30302772,0.0,0.0,0.0
236,1778659422.0802217,1.4277964,0.43485057,0.30302772,0.0,0.0,0.0
237,1778659422.0902228,1.4277964,0.43485057,0.30302772,0.0,0.0,0.0
238,1778659422.100224,1.4277964,0.43485057,0.30302772,0.0,0.0,0.0
239,1778659422.110225,1.4277964,0.43485057,0.30302772,0.0,0.0,0.0
240,1778659422.1202254,1.4277964,0.43485057,0.30302772,0.0,0.0,0.0
241,1778659422.130228,1.4277964,0.43485057,0.30302772,0.0,0.0,0.0
242,1778659422.1402304,1.4277964,0.43485057,0.30302772,0.0,0.0,0.0
243,1778659422.1502311,1.4277964,0.43485057,0.30302772,0.0,0.0,0.0
244,1778659422.1602323,1.4277964,0.43485057,0.30302772,0.0,0.0,0.0
245,1778659422.1702335,1.4277964,0.43485057,0.30302772,0.0,0.0,0.0
246,1778659422.180235,1.4277964,0.43485057,0.30302772,0.0,0.0,0.0
247,1778659422.1902366,1.4277964,0.43485057,0.30302772,0.0,0.0,0.0
248,1778659422.2002375,1.4277964,0.43485057,0.30302772,0.0,0.0,0.0
249,1778659422.210239,1.4277964,0.43485057,0.30302772,0.0,0.0,0.0
250,1778659422.2202399,1.4277964,0.43485057,0.30302772,0.0,0.0,0.0
251,1778659422.2302406,1.4277964,0.43485057,0.30302772,0.0,0.0,0.0
252,1778659422.2402425,1.2130255,0.5871414,0.20930983,0.0,0.0,0.0
253,1778659422.2502449,1.2130255,0.5871414,0.20930983,0.0,0.0,0.0
254,1778659422.2602475,1.2130255,0.5871414,0.20930983,0.0,0.0,0.0
255,1778659422.270249,1.2130255,0.5871414,0.20930983,0.0,0.0,0.0
256,1778659422.2802496,1.2130255,0.5871414,0.20930983,0.0,0.0,0.0
257,1778659422.2902505,1.2130255,0.5871414,0.20930983,0.0,0.0,0.0
258,1778659422.3002522,1.2130255,0.5871414,0.20930983,0.0,0.0,0.0
259,1778659422.3102531,1.2130255,0.5871414,0.20930983,0.0,0.0,0.0
260,1778659422.3202548,1.2130255,0.5871414,0.20930983,0.0,0.0,0.0
261,1778659422.330256,1.2130255,0.5871414,0.20930983,0.0,0.0,0.0
262,1778659422.340257,1.2130255,0.5871414,0.20930983,0.0,0.0,0.0
263,1778659422.350258,1.2130255,0.5871414,0.20930983,0.0,0.0,0.0
264,1778659422.360259,1.2130255,0.5871414,0.20930983,0.0,0.0,0.0
265,1778659422.370261,1.2130255,0.5871414,0.20930983,0.0,0.0,0.0
266,1778659422.3802624,1.2130255,0.5871414,0.20930983,0.0,0.0,0.0
267,1778659422.390263,1.2130255,0.5871414,0.20930983,0.0,0.0,0.0
268,1778659422.4002638,1.2130255,0.5871414,0.20930983,0.0,0.0,0.0
269,1778659422.4102669,1.1661665,0.6261905,0.18197466,0.0,0.0,0.0
270,1778659422.4202688,1.1661665,0.6261905,0.18197466,0.0,0.0,0.0
271,1778659422.4302697,1.1661665,0.6261905,0.18197466,0.0,0.0,0.0
272,1778659422.4402707,1.1661665,0.6261905,0.18197466,0.0,0.0,0.0
273,1778659422.450272,1.1661665,0.6261905,0.18197466,0.0,0.0,0.0
274,1778659422.4602742,1.1661665,0.6261905,0.18197466,0.0,0.0,0.0
275,1778659422.4702752,1.1661665,0.6261905,0.18197466,0.0,0.0,0.0
276,1778659422.4802775,1.1935017,0.7003846,0.096066594,0.0,0.0,0.0
277,1778659422.4902792,1.1935017,0.7003846,0.096066594,0.0,0.0,0.0
278,1778659422.5002804,1.1935017,0.7003846,0.096066594,0.0,0.0,0.0
279,1778659422.5102837,1.1935017,0.7003846,0.096066594,0.0,0.0,0.0
280,1778659422.5202851,1.1935017,0.7003846,0.096066594,0.0,0.0,0.0
281,1778659422.530286,1.1935017,0.7003846,0.096066594,0.0,0.0,0.0
282,1778659422.540287,1.1935017,0.7003846,0.096066594,0.0,0.0,0.0
283,1778659422.550288,1.1935017,0.7003846,0.096066594,0.0,0.0,0.0
284,1778659422.5602894,1.1935017,0.7003846,0.096066594,0.0,0.0,0.0
285,1778659422.5702908,1.1935017,0.7003846,0.096066594,0.0,0.0,0.0
286,1778659422.5802913,1.1935017,0.7003846,0.096066594,0.0,0.0,0.0
287,1778659422.5902927,1.1935017,0.7003846,0.096066594,0.0,0.0,0.0
288,1778659422.6002936,1.1935017,0.7003846,0.096066594,0.0,0.0,0.0
289,1778659422.6102943,1.1935017,0.7003846,0.096066594,0.0,0.0,0.0
290,1778659422.6202972,1.1935017,0.7003846,0.096066594,0.0,0.0,0.0
291,1778659422.6302984,1.1935017,0.7003846,0.096066594,0.0,0.0,0.0
292,1778659422.6403,1.1935017,0.7003846,0.096066594,0.0,0.0,0.0
293,1778659422.6503012,1.1935017,0.7003846,0.096066594,0.0,0.0,0.0
294,1778659422.6603022,1.1935017,0.7003846,0.096066594,0.0,0.0,0.0
295,1778659422.6703038,1.1935017,0.7003846,0.096066594,0.0,0.0,0.0
296,1778659422.6803052,1.2442647,0.7238141,0.07263712,0.0,0.0,0.0
297,1778659422.6903062,1.2442647,0.7238141,0.07263712,0.0,0.0,0.0
298,1778659422.7003076,1.2442647,0.7238141,0.07263712,0.0,0.0,0.0
299,1778659422.7103105,1.2442647,0.7238141,0.07263712,0.0,0.0,0.0
300,1778659422.7203119,1.2442647,0.7238141,0.07263712,0.0,0.0,0.0
301,1778659422.7303126,1.2442647,0.7238141,0.07263712,0.0,0.0,0.0
302,1778659422.7403152,1.2442647,0.7238141,0.07263712,0.0,0.0,0.0
303,1778659422.7503176,1.2442647,0.7238141,0.07263712,0.0,0.0,0.0
304,1778659422.760319,1.2442647,0.7238141,0.07263712,0.0,0.0,0.0
305,1778659422.77032,1.2442647,0.7238141,0.07263712,0.0,0.0,0.0
306,1778659422.7803233,1.2442647,0.7238141,0.07263712,0.0,0.0,0.0
307,1778659422.7903244,1.2442647,0.7238141,0.07263712,0.0,0.0,0.0
308,1778659422.8003254,1.2442647,0.7238141,0.07263712,0.0,0.0,0.0
309,1778659422.8103304,1.2442647,0.7238141,0.07263712,0.0,0.0,0.0
310,1778659422.8203328,1.2442647,0.7238141,0.07263712,0.0,0.0,0.0
311,1778659422.8303337,1.2442647,0.7238141,0.07263712,0.0,0.0,0.0
312,1778659422.8403358,1.2442647,0.7238141,0.07263712,0.0,0.0,0.0
313,1778659422.850337,1.2442647,0.7238141,0.07263712,0.0,0.0,0.0
314,1778659422.860339,1.2442647,0.7238141,0.07263712,0.0,0.0,0.0
315,1778659422.8703415,1.2442647,0.7238141,0.07263712,0.0,0.0,0.0
316,1778659422.880345,1.2442647,0.7238141,0.07263712,0.0,0.0,0.0
317,1778659422.8903472,1.2442647,0.7238141,0.07263712,0.0,0.0,0.0
318,1778659422.9003482,1.2442647,0.7238141,0.07263712,0.0,0.0,0.0
319,1778659422.910349,1.2442647,0.7238141,0.07263712,0.0,0.0,0.0
320,1778659422.9203508,1.2442647,0.7238141,0.07263712,0.0,0.0,0.0
321,1778659422.9303517,1.2442647,0.7238141,0.07263712,0.0,0.0,0.0
322,1778659422.940353,1.2442647,0.7238141,0.07263712,0.0,0.0,0.0
323,1778659422.9503546,1.3770318,0.7901984,0.04920765,0.0,0.0,0.0
324,1778659422.9603555,1.3770318,0.7901984,0.04920765,0.0,0.0,0.0
325,1778659422.970357,1.3770318,0.7901984,0.04920765,0.0,0.0,0.0
326,1778659422.9803584,1.3067434,0.7472436,0.060923163,0.0,0.0,0.0
327,1778659422.990359,1.3067434,0.7472436,0.060923163,0.0,0.0,0.0
328,1778659423.0003603,1.3067434,0.7472436,0.060923163,0.0,0.0,0.0
329,1778659423.0103612,1.3067434,0.7472436,0.060923163,0.0,0.0,0.0
330,1778659423.0203617,1.3067434,0.7472436,0.060923163,0.0,0.0,0.0
331,1778659423.030363,1.3067434,0.7472436,0.060923163,0.0,0.0,0.0
332,1778659423.0403955,1.3067434,0.7472436,0.060923163,0.0,0.0,0.0
333,1778659423.0503962,1.3067434,0.7472436,0.060923163,0.0,0.0,0.0
334,1778659423.0603974,1.3067434,0.7472436,0.060923163,0.0,0.0,0.0
335,1778659423.070398,1.3067434,0.7472436,0.060923163,0.0,0.0,0.0
336,1778659423.0803993,1.3067434,0.7472436,0.060923163,0.0,0.0,0.0
337,1778659423.0904002,1.3067434,0.7472436,0.060923163,0.0,0.0,0.0
338,1778659423.100401,1.3067434,0.7472436,0.060923163,0.0,0.0,0.0
339,1778659423.1104023,1.3067434,0.7472436,0.060923163,0.0,0.0,0.0
340,1778659423.1204035,1.3067434,0.7472436,0.060923163,0.0,0.0,0.0
341,1778659423.1304042,1.3067434,0.7472436,0.060923163,0.0,0.0,0.0
342,1778659423.1404054,1.3067434,0.7472436,0.060923163,0.0,0.0,0.0
343,1778659423.150406,1.3067434,0.7472436,0.060923163,0.0,0.0,0.0
344,1778659423.1604064,1.3067434,0.7472436,0.060923163,0.0,0.0,0.0
345,1778659423.1704075,1.3067434,0.7472436,0.060923163,0.0,0.0,0.0
346,1778659423.1804082,1.3067434,0.7472436,0.060923163,0.0,0.0,0.0
347,1778659423.1904097,1.3067434,0.7472436,0.060923163,0.0,0.0,0.0
348,1778659423.200411,1.3770318,0.8019123,0.053113338,0.0,0.0,0.0
349,1778659423.2104127,1.3770318,0.8019123,0.053113338,0.0,0.0,0.0
350,1778659423.2204142,1.3770318,0.8019123,0.053113338,0.0,0.0,0.0
351,1778659423.2304146,1.3770318,0.8019123,0.053113338,0.0,0.0,0.0
352,1778659423.2404165,1.3770318,0.8019123,0.053113338,0.0,0.0,0.0
353,1778659423.2504203,1.3770318,0.8019123,0.053113338,0.0,0.0,0.0
354,1778659423.260422,1.3770318,0.8019123,0.053113338,0.0,0.0,0.0
355,1778659423.270424,1.3770318,0.8019123,0.053113338,0.0,0.0,0.0
356,1778659423.2804306,1.3770318,0.8019123,0.053113338,0.0,0.0,0.0
357,1778659423.2904313,1.3770318,0.8019123,0.053113338,0.0,0.0,0.0
358,1778659423.3004327,1.3770318,0.8019123,0.053113338,0.0,0.0,0.0
359,1778659423.3104339,1.3770318,0.8019123,0.053113338,0.0,0.0,0.0
360,1778659423.3204353,1.3770318,0.8019123,0.053113338,0.0,0.0,0.0
361,1778659423.3304367,1.3770318,0.8019123,0.053113338,0.0,0.0,0.0
362,1778659423.3404374,1.3770318,0.8019123,0.053113338,0.0,0.0,0.0
363,1778659423.3504393,1.3770318,0.8019123,0.053113338,0.0,0.0,0.0
364,1778659423.3604407,1.3770318,0.8019123,0.053113338,0.0,0.0,0.0
365,1778659423.3704417,1.3770318,0.8019123,0.053113338,0.0,0.0,0.0
366,1778659423.380443,1.3770318,0.8019123,0.053113338,0.0,0.0,0.0
367,1778659423.3904452,1.3770318,0.8019123,0.053113338,0.0,0.0,0.0
368,1778659423.4004464,1.3770318,0.8019123,0.053113338,0.0,0.0,0.0
369,1778659423.4104478,1.357508,0.8019123,0.045303512,0.0,0.0,0.0
370,1778659423.4204485,1.357508,0.8019123,0.045303512,0.0,0.0,0.0
371,1778659423.4304512,1.357508,0.8019123,0.045303512,0.0,0.0,0.0
372,1778659423.4404542,1.357508,0.8019123,0.045303512,0.0,0.0,0.0
373,1778659423.450455,1.357508,0.8019123,0.045303512,0.0,0.0,0.0
374,1778659423.4604557,1.357508,0.8019123,0.045303512,0.0,0.0,0.0
375,1778659423.4704576,1.357508,0.8019123,0.045303512,0.0,0.0,0.0
376,1778659423.4804592,1.357508,0.8019123,0.045303512,0.0,0.0,0.0
377,1778659423.4904602,1.357508,0.8019123,0.045303512,0.0,0.0,0.0
378,1778659423.5004625,1.3028392,0.8019123,0.033588,0.0,0.0,0.0
379,1778659423.510464,1.3028392,0.8019123,0.033588,0.0,0.0,0.0
380,1778659423.5204647,1.3028392,0.8019123,0.033588,0.0,0.0,0.0
381,1778659423.5304654,1.3028392,0.8019123,0.033588,0.0,0.0,0.0
382,1778659423.5404668,1.3028392,0.8019123,0.033588,0.0,0.0,0.0
383,1778659423.5504675,1.3028392,0.8019123,0.033588,0.0,0.0,0.0
384,1778659423.560468,1.3028392,0.8019123,0.033588,0.0,0.0,0.0
385,1778659423.5704691,1.1466427,0.7901984,0.014064217,0.0,0.0,0.0
386,1778659423.5804703,1.1466427,0.7901984,0.014064217,0.0,0.0,0.0
387,1778659423.590471,1.1466427,0.7901984,0.014064217,0.0,0.0,0.0
388,1778659423.6004727,1.1466427,0.7901984,0.014064217,0.0,0.0,0.0
389,1778659423.6104734,1.1466427,0.7901984,0.014064217,0.0,0.0,0.0
390,1778659423.6204736,1.1466427,0.7901984,0.014064217,0.0,0.0,0.0
391,1778659423.6304755,1.1466427,0.7901984,0.014064217,0.0,0.0,0.0
392,1778659423.6404767,1.1466427,0.7901984,0.014064217,0.0,0.0,0.0
393,1778659423.6504776,1.1466427,0.7901984,0.014064217,0.0,0.0,0.0
394,1778659423.660479,1.1466427,0.7901984,0.014064217,0.0,0.0,0.0
395,1778659423.6704798,1.1466427,0.7901984,0.014064217,0.0,0.0,0.0
396,1778659423.680481,1.1466427,0.7901984,0.014064217,0.0,0.0,0.0
397,1778659423.6904821,1.1466427,0.7901984,0.014064217,0.0,0.0,0.0
398,1778659423.7004836,1.1466427,0.7901984,0.014064217,0.0,0.0,0.0
399,1778659423.710485,1.1466427,0.7901984,0.014064217,0.0,0.0,0.0
400,1778659423.7204864,1.1466427,0.7901984,0.014064217,0.0,0.0,0.0
401,1778659423.7304978,1.1466427,0.7901984,0.014064217,0.0,0.0,0.0
402,1778659423.7405005,1.1466427,0.7901984,0.014064217,0.0,0.0,0.0
403,1778659423.7505016,1.1466427,0.7901984,0.014064217,0.0,0.0,0.0
404,1778659423.7605028,1.1466427,0.7901984,0.014064217,0.0,0.0,0.0
405,1778659423.7705042,1.1466427,0.7901984,0.014064217,0.0,0.0,0.0
406,1778659423.7805052,1.1466427,0.7901984,0.014064217,0.0,0.0,0.0
407,1778659423.7905073,1.1466427,0.7901984,0.014064217,0.0,0.0,0.0
408,1778659423.8005097,1.1466427,0.7901984,0.014064217,0.0,0.0,0.0
409,1778659423.810514,1.1466427,0.7901984,0.014064217,0.0,0.0,0.0
410,1778659423.8205163,1.1466427,0.7901984,0.014064217,0.0,0.0,0.0
411,1778659423.8305175,1.1466427,0.7901984,0.014064217,0.0,0.0,0.0
412,1778659423.8405182,1.1466427,0.7901984,0.014064217,0.0,0.0,0.0
413,1778659423.8505201,1.1466427,0.7901984,0.014064217,0.0,0.0,0.0
414,1778659423.860521,1.1466427,0.7901984,0.014064217,0.0,0.0,0.0
415,1778659423.8705227,1.0802585,0.77848285,0.010158527,0.0,0.0,0.0
416,1778659423.880524,1.0802585,0.77848285,0.010158527,0.0,0.0,0.0
417,1778659423.8905249,1.0802585,0.77848285,0.010158527,0.0,0.0,0.0
418,1778659423.9005275,1.0802585,0.77848285,0.010158527,0.0,0.0,0.0
419,1778659423.9105287,1.0802585,0.77848285,0.010158527,0.0,0.0,0.0
420,1778659423.9205296,1.0802585,0.77848285,0.010158527,0.0,0.0,0.0
421,1778659423.9305317,1.0802585,0.77848285,0.010158527,0.0,0.0,0.0
422,1778659423.9405327,1.0802585,0.77848285,0.010158527,0.0,0.0,0.0
423,1778659423.9505339,1.0802585,0.77848285,0.010158527,0.0,0.0,0.0
424,1778659423.9605355,1.0802585,0.77848285,0.010158527,0.0,0.0,0.0
425,1778659423.9705365,1.0802585,0.77848285,0.010158527,0.0,0.0,0.0
426,1778659423.9805372,1.0802585,0.77848285,0.010158527,0.0,0.0,0.0
427,1778659423.9905386,1.0802585,0.77848285,0.010158527,0.0,0.0,0.0
428,1778659424.00054,1.0802585,0.77848285,0.010158527,0.0,0.0,0.0
429,1778659424.0105412,1.0802585,0.77848285,0.010158527,0.0,0.0,0.0
430,1778659424.0205421,1.0802585,0.77848285,0.010158527,0.0,0.0,0.0
431,1778659424.030543,1.0802585,0.77848285,0.010158527,0.0,0.0,0.0
432,1778659424.0405445,1.0802585,0.77848285,0.010158527,0.0,0.0,0.0
433,1778659424.0505455,1.0802585,0.77848285,0.010158527,0.0,0.0,0.0
434,1778659424.060547,0.9748266,0.7628632,-0.0015554321,0.0,0.0,0.0
435,1778659424.0705483,0.9748266,0.7628632,-0.0015554321,0.0,0.0,0.0
436,1778659424.0805488,0.9748266,0.7628632,-0.0015554321,0.0,0.0,0.0
437,1778659424.090551,0.9748266,0.7628632,-0.0015554321,0.0,0.0,0.0
438,1778659424.1005514,0.9748266,0.7628632,-0.0015554321,0.0,0.0,0.0
439,1778659424.110552,0.9748266,0.7628632,-0.0015554321,0.0,0.0,0.0
440,1778659424.120554,0.9748266,0.7628632,-0.0015554321,0.0,0.0,0.0
441,1778659424.1305547,0.9748266,0.7628632,-0.0015554321,0.0,0.0,0.0
442,1778659424.1405568,0.9748266,0.7628632,-0.0015554321,0.0,0.0,0.0
443,1778659424.1505587,0.9084423,0.7628632,-0.0015554321,0.0,0.0,0.0
444,1778659424.1605594,0.9084423,0.7628632,-0.0015554321,0.0,0.0,0.0
445,1778659424.1705606,0.9084423,0.7628632,-0.0015554321,0.0,0.0,0.0
446,1778659424.1805623,0.9084423,0.7628632,-0.0015554321,0.0,0.0,0.0
447,1778659424.190563,0.9084423,0.7628632,-0.0015554321,0.0,0.0,0.0
448,1778659424.2005637,0.9084423,0.7628632,-0.0015554321,0.0,0.0,0.0
449,1778659424.210565,0.9084423,0.7628632,-0.0015554321,0.0,0.0,0.0
450,1778659424.2205665,0.9084423,0.7628632,-0.0015554321,0.0,0.0,0.0
451,1778659424.2305672,0.9084423,0.7628632,-0.0015554321,0.0,0.0,0.0
452,1778659424.2405684,0.9084423,0.7628632,-0.0015554321,0.0,0.0,0.0
453,1778659424.2505705,0.9084423,0.7628632,-0.0015554321,0.0,0.0,0.0
454,1778659424.2605722,0.9318718,0.8019123,0.033588,0.0,0.0,0.0
455,1778659424.270573,0.9318718,0.8019123,0.033588,0.0,0.0,0.0
456,1778659424.280575,0.9318718,0.8019123,0.033588,0.0,0.0,0.0
457,1778659424.2905798,0.9318718,0.8019123,0.033588,0.0,0.0,0.0
458,1778659424.3005826,0.9318718,0.8019123,0.033588,0.0,0.0,0.0
459,1778659424.3105843,0.9318718,0.8019123,0.033588,0.0,0.0,0.0
460,1778659424.3205855,0.9318718,0.8019123,0.033588,0.0,0.0,0.0
461,1778659424.3305862,0.9318718,0.8019123,0.033588,0.0,0.0,0.0
462,1778659424.3405876,0.9318718,0.8019123,0.033588,0.0,0.0,0.0
463,1778659424.3505895,0.9318718,0.8019123,0.033588,0.0,0.0,0.0
464,1778659424.3605917,0.9318718,0.8019123,0.033588,0.0,0.0,0.0
465,1778659424.3705926,0.9318718,0.8019123,0.033588,0.0,0.0,0.0
466,1778659424.380594,0.9318718,0.8019123,0.033588,0.0,0.0,0.0
467,1778659424.3905954,0.9318718,0.8019123,0.033588,0.0,0.0,0.0
468,1778659424.4005973,0.9318718,0.8019123,0.033588,0.0,0.0,0.0
469,1778659424.4106,0.9318718,0.8019123,0.033588,0.0,0.0,0.0
470,1778659424.4206014,0.9084423,0.7628632,-0.0015554321,0.0,0.0,0.0
471,1778659424.430603,0.9084423,0.7628632,-0.0015554321,0.0,0.0,0.0
472,1778659424.4406092,0.9084423,0.7628632,-0.0015554321,0.0,0.0,0.0
473,1778659424.4506106,0.9084423,0.7628632,-0.0015554321,0.0,0.0,0.0
474,1778659424.4606118,0.9084423,0.7628632,-0.0015554321,0.0,0.0,0.0
475,1778659424.4706125,0.9084423,0.7628632,-0.0015554321,0.0,0.0,0.0
476,1778659424.4806142,0.9084423,0.7628632,-0.0015554321,0.0,0.0,0.0
477,1778659424.4906154,0.9084423,0.7628632,-0.0015554321,0.0,0.0,0.0
478,1778659424.5006168,0.9084423,0.7628632,-0.0015554321,0.0,0.0,0.0
479,1778659424.5106184,0.9084423,0.7628632,-0.0015554321,0.0,0.0,0.0
480,1778659424.52062,0.9084423,0.7628632,-0.0015554321,0.0,0.0,0.0
481,1778659424.5306222,0.9084423,0.7628632,-0.0015554321,0.0,0.0,0.0
482,1778659424.5406234,0.9084423,0.7628632,-0.0015554321,0.0,0.0,0.0
483,1778659424.5506244,0.9084423,0.7628632,-0.0015554321,0.0,0.0,0.0
484,1778659424.560626,0.9084423,0.7628632,-0.0015554321,0.0,0.0,0.0
485,1778659424.570627,0.9084423,0.7628632,-0.0015554321,0.0,0.0,0.0
486,1778659424.5806277,0.9084423,0.7628632,-0.0015554321,0.0,0.0,0.0
487,1778659424.5906289,0.9084423,0.7628632,-0.0015554321,0.0,0.0,0.0
488,1778659424.6006298,0.9084423,0.7628632,-0.0015554321,0.0,0.0,0.0
489,1778659424.610631,0.9084423,0.7628632,-0.0015554321,0.0,0.0,0.0
490,1778659424.6206338,0.96701676,0.83315164,0.05701747,0.0,0.0,0.0
491,1778659424.6306348,0.96701676,0.83315164,0.05701747,0.0,0.0,0.0
492,1778659424.6406364,1.7050459,1.3017411,0.33426702,0.0,0.0,0.0
493,1778659424.6506374,1.7050459,1.3017411,0.33426702,0.0,0.0,0.0
494,1778659424.660638,1.7050459,1.3017411,0.33426702,0.0,0.0,0.0
495,1778659424.6706402,1.7050459,1.3017411,0.33426702,0.0,0.0,0.0
496,1778659424.680641,1.7050459,1.3017411,0.33426702,0.0,0.0,0.0
497,1778659424.6906419,1.7050459,1.3017411,0.33426702,0.0,0.0,0.0
498,1778659424.7006428,1.7050459,1.3017411,0.33426702,0.0,0.0,0.0
499,1778659424.7106438,1.7050459,1.3017411,0.33426702,0.0,0.0,0.0
500,1778659424.720645,1.7050459,1.3017411,0.33426702,0.0,0.0,0.0
501,1778659424.7306466,1.7050459,1.3017411,0.33426702,0.0,0.0,0.0
502,1778659424.7406478,1.7050459,1.3017411,0.33426702,0.0,0.0,0.0
503,1778659424.7506487,1.7050459,1.3017411,0.33426702,0.0,0.0,0.0
504,1778659424.76065,1.7050459,1.3017411,0.33426702,0.0,0.0,0.0
505,1778659424.7706504,1.7050459,1.3017411,0.33426702,0.0,0.0,0.0
506,1778659424.7806518,1.7050459,1.3017411,0.33426702,0.0,0.0,0.0
507,1778659424.7906528,1.7050459,1.3017411,0.33426702,0.0,0.0,0.0
508,1778659424.800655,1.9002916,1.4657489,0.40455544,0.0,0.0,0.0
509,1778659424.8106568,1.9002916,1.4657489,0.40455544,0.0,0.0,0.0
510,1778659424.8206575,1.9002916,1.4657489,0.40455544,0.0,0.0,0.0
511,1778659424.8306618,1.9002916,1.4657489,0.40455544,0.0,0.0,0.0
512,1778659424.840663,1.9002916,1.4657489,0.40455544,0.0,0.0,0.0
513,1778659424.8506637,1.9002916,1.4657489,0.40455544,0.0,0.0,0.0
514,1778659424.8606656,1.9002916,1.4657489,0.40455544,0.0,0.0,0.0
515,1778659424.8706665,1.9002916,1.4657489,0.40455544,0.0,0.0,0.0
516,1778659424.8806689,1.9002916,1.4657489,0.40455544,0.0,0.0,0.0
517,1778659424.89067,1.9002916,1.4657489,0.40455544,0.0,0.0,0.0
518,1778659424.9006712,1.9002916,1.4657489,0.40455544,0.0,0.0,0.0
519,1778659424.910672,1.9002916,1.4657489,0.40455544,0.0,0.0,0.0
520,1778659424.9206734,1.9002916,1.4657489,0.40455544,0.0,0.0,0.0
521,1778659424.9306767,1.9002916,1.4657489,0.40455544,0.0,0.0,0.0
522,1778659424.9406798,1.9002916,1.4657489,0.40455544,0.0,0.0,0.0
523,1778659424.950681,1.9120055,1.504798,0.39674562,0.0,0.0,0.0
524,1778659424.9606814,1.9120055,1.504798,0.39674562,0.0,0.0,0.0
525,1778659424.9706836,1.9120055,1.504798,0.39674562,0.0,0.0,0.0
526,1778659424.980685,1.9120055,1.504798,0.39674562,0.0,0.0,0.0
527,1778659424.990687,1.9120055,1.504798,0.39674562,0.0,0.0,0.0
528,1778659425.0006888,1.9120055,1.504798,0.39674562,0.0,0.0,0.0
529,1778659425.0106947,1.9120055,1.504798,0.39674562,0.0,0.0,0.0
530,1778659425.020696,1.9120055,1.504798,0.39674562,0.0,0.0,0.0
531,1778659425.0306993,1.9120055,1.504798,0.39674562,0.0,0.0,0.0
532,1778659425.0407,1.9120055,1.504798,0.39674562,0.0,0.0,0.0
533,1778659425.050701,1.9120055,1.504798,0.39674562,0.0,0.0,0.0
534,1778659425.0607026,1.9120055,1.504798,0.39674562,0.0,0.0,0.0
535,1778659425.0707033,1.9120055,1.504798,0.39674562,0.0,0.0,0.0
536,1778659425.0807047,1.9120055,1.504798,0.39674562,0.0,0.0,0.0
537,1778659425.0907059,1.9120055,1.504798,0.39674562,0.0,0.0,0.0
538,1778659425.1007066,1.9120055,1.504798,0.39674562,0.0,0.0,0.0
539,1778659425.1107073,1.9120055,1.504798,0.39674562,0.0,0.0,0.0
540,1778659425.1207092,1.9120055,1.504798,0.39674562,0.0,0.0,0.0
541,1778659425.130711,1.9120055,1.504798,0.39674562,0.0,0.0,0.0
542,1778659425.140712,1.9120055,1.504798,0.39674562,0.0,0.0,0.0
543,1778659425.1507127,1.9120055,1.504798,0.39674562,0.0,0.0,0.0
544,1778659425.1607141,1.9120055,1.504798,0.39674562,0.0,0.0,0.0
545,1778659425.1707156,1.9120055,1.504798,0.39674562,0.0,0.0,0.0
546,1778659425.1807165,1.9120055,1.504798,0.39674562,0.0,0.0,0.0
547,1778659425.1907175,1.9120055,1.504798,0.39674562,0.0,0.0,0.0
548,1778659425.200719,1.9120055,1.504798,0.39674562,0.0,0.0,0.0
549,1778659425.21072,1.9120055,1.504798,0.39674562,0.0,0.0,0.0
550,1778659425.220723,1.9120055,1.504798,0.39674562,0.0,0.0,0.0
551,1778659425.2307246,1.9120055,1.504798,0.39674562,0.0,0.0,0.0
552,1778659425.240726,1.9120055,1.504798,0.39674562,0.0,0.0,0.0
553,1778659425.2507274,1.9120055,1.504798,0.39674562,0.0,0.0,0.0
554,1778659425.2607281,1.9120055,1.504798,0.39674562,0.0,0.0,0.0
555,1778659425.27073,1.9120055,1.504798,0.39674562,0.0,0.0,0.0
556,1778659425.2807312,1.9120055,1.504798,0.39674562,0.0,0.0,0.0
557,1778659425.2907317,1.9120055,1.504798,0.39674562,0.0,0.0,0.0
558,1778659425.3007338,1.8182876,1.5360373,0.19369018,0.0,0.0,0.0
559,1778659425.3107343,1.8182876,1.5360373,0.19369018,0.0,0.0,0.0
560,1778659425.3207352,1.8182876,1.5360373,0.19369018,0.0,0.0,0.0
561,1778659425.3307369,1.8182876,1.5360373,0.19369018,0.0,0.0,0.0
562,1778659425.3407378,1.8182876,1.5360373,0.19369018,0.0,0.0,0.0
563,1778659425.3507404,1.8182876,1.5360373,0.19369018,0.0,0.0,0.0
564,1778659425.3607423,1.8182876,1.5360373,0.19369018,0.0,0.0,0.0
565,1778659425.370743,1.8182876,1.5360373,0.19369018,0.0,0.0,0.0
566,1778659425.3807447,1.8182876,1.5360373,0.19369018,0.0,0.0,0.0
567,1778659425.3907459,1.8182876,1.5360373,0.19369018,0.0,0.0,0.0
568,1778659425.4007466,1.8182876,1.5360373,0.19369018,0.0,0.0,0.0
569,1778659425.410748,1.8182876,1.5360373,0.19369018,0.0,0.0,0.0
570,1778659425.4207501,1.8182876,1.5360373,0.19369018,0.0,0.0,0.0
571,1778659425.4307516,1.8182876,1.5360373,0.19369018,0.0,0.0,0.0
572,1778659425.4407535,1.8182876,1.5360373,0.19369018,0.0,0.0,0.0
573,1778659425.4507546,1.8182876,1.5360373,0.19369018,0.0,0.0,0.0
574,1778659425.4607563,1.8182876,1.5360373,0.19369018,0.0,0.0,0.0
575,1778659425.470758,1.8182876,1.5360373,0.19369018,0.0,0.0,0.0
576,1778659425.4807591,1.8182876,1.5360373,0.19369018,0.0,0.0,0.0
577,1778659425.4907606,1.8182876,1.5360373,0.19369018,0.0,0.0,0.0
578,1778659425.5007622,1.8182876,1.5360373,0.19369018,0.0,0.0,0.0
579,1778659425.5107627,1.8182876,1.5360373,0.19369018,0.0,0.0,0.0
580,1778659425.520765,1.8182876,1.5360373,0.19369018,0.0,0.0,0.0
581,1778659425.5307672,1.8182876,1.5360373,0.19369018,0.0,0.0,0.0
582,1778659425.540768,1.8182876,1.5360373,0.19369018,0.0,0.0,0.0
583,1778659425.5507686,1.8182876,1.5360373,0.19369018,0.0,0.0,0.0
584,1778659425.560769,1.8182876,1.5360373,0.19369018,0.0,0.0,0.0
585,1778659425.5707703,1.8182876,1.5360373,0.19369018,0.0,0.0,0.0
586,1778659425.5807714,1.8182876,1.5360373,0.19369018,0.0,0.0,0.0
587,1778659425.5907722,1.8182876,1.5360373,0.19369018,0.0,0.0,0.0
588,1778659425.6007733,1.8182876,1.5360373,0.19369018,0.0,0.0,0.0
589,1778659425.610774,1.8182876,1.5360373,0.19369018,0.0,0.0,0.0
590,1778659425.620775,1.8182876,1.5360373,0.19369018,0.0,0.0,0.0
591,1778659425.6307766,1.8182876,1.5360373,0.19369018,0.0,0.0,0.0
592,1778659425.6407776,1.8182876,1.5360373,0.19369018,0.0,0.0,0.0
593,1778659425.6507812,1.8182876,1.5360373,0.19369018,0.0,0.0,0.0
594,1778659425.6607845,1.8182876,1.5360373,0.19369018,0.0,0.0,0.0
595,1778659425.6707852,1.8182876,1.5360373,0.19369018,0.0,0.0,0.0
596,1778659425.6807864,1.669901,1.4930825,0.099972285,0.0,0.0,0.0
597,1778659425.6907873,1.669901,1.4930825,0.099972285,0.0,0.0,0.0
598,1778659425.7007892,1.669901,1.4930825,0.099972285,0.0,0.0,0.0
599,1778659425.7107909,1.669901,1.4930825,0.099972285,0.0,0.0,0.0
600,1778659425.7207918,1.669901,1.4930825,0.099972285,0.0,0.0,0.0
601,1778659425.7307925,1.669901,1.4930825,0.099972285,0.0,0.0,0.0
602,1778659425.7407954,1.669901,1.4930825,0.099972285,0.0,0.0,0.0
603,1778659425.7507963,1.669901,1.4930825,0.099972285,0.0,0.0,0.0
604,1778659425.760797,1.669901,1.4930825,0.099972285,0.0,0.0,0.0
605,1778659425.770799,1.5878971,1.4813685,0.060923163,0.0,0.0,0.0
606,1778659425.7808003,1.5878971,1.4813685,0.060923163,0.0,0.0,0.0
607,1778659425.7908015,1.5878971,1.4813685,0.060923163,0.0,0.0,0.0
608,1778659425.8008037,1.5878971,1.4813685,0.060923163,0.0,0.0,0.0
609,1778659425.810805,1.5878971,1.4813685,0.060923163,0.0,0.0,0.0
610,1778659425.8208287,1.5878971,1.4813685,0.060923163,0.0,0.0,0.0
611,1778659425.8308303,1.5176086,1.4696531,0.029683866,0.0,0.0,0.0
612,1778659425.840831,1.5176086,1.4696531,0.029683866,0.0,0.0,0.0
613,1778659425.8508327,1.5176086,1.4696531,0.029683866,0.0,0.0,0.0
614,1778659425.8608341,1.5176086,1.4696531,0.029683866,0.0,0.0,0.0
615,1778659425.8708348,1.5176086,1.4696531,0.029683866,0.0,0.0,0.0
616,1778659425.8808367,1.5176086,1.4696531,0.029683866,0.0,0.0,0.0
617,1778659425.8908374,1.5176086,1.4696531,0.029683866,0.0,0.0,0.0
618,1778659425.9008386,1.5176086,1.4696531,0.029683866,0.0,0.0,0.0
619,1778659425.9108398,1.5176086,1.4696531,0.029683866,0.0,0.0,0.0
620,1778659425.9208407,1.5176086,1.4696531,0.029683866,0.0,0.0,0.0
621,1778659425.9308424,1.5176086,1.4696531,0.029683866,0.0,0.0,0.0
622,1778659425.9408443,1.5176086,1.4696531,0.029683866,0.0,0.0,0.0
623,1778659425.9508457,1.5176086,1.4696531,0.029683866,0.0,0.0,0.0
624,1778659425.9608471,1.5176086,1.4696531,0.029683866,0.0,0.0,0.0
625,1778659425.9708488,1.5176086,1.4696531,0.029683866,0.0,0.0,0.0
626,1778659425.9808495,1.5176086,1.4696531,0.029683866,0.0,0.0,0.0
627,1778659425.9908512,1.5176086,1.4696531,0.029683866,0.0,0.0,0.0
628,1778659426.0008519,1.5176086,1.4696531,0.029683866,0.0,0.0,0.0
629,1778659426.0108526,1.5176086,1.4696531,0.029683866,0.0,0.0,0.0
630,1778659426.0208535,1.3731276,1.4110786,0.060923163,0.0,0.0,0.0
631,1778659426.0308545,1.3731276,1.4110786,0.060923163,0.0,0.0,0.0
632,1778659426.040856,1.3731276,1.4110786,0.060923163,0.0,0.0,0.0
633,1778659426.0508573,1.3731276,1.4110786,0.060923163,0.0,0.0,0.0
634,1778659426.0608582,1.3731276,1.4110786,0.060923163,0.0,0.0,0.0
635,1778659426.0708604,1.3731276,1.4110786,0.060923163,0.0,0.0,0.0
636,1778659426.0808618,1.3731276,1.4110786,0.060923163,0.0,0.0,0.0
637,1778659426.0908625,1.3731276,1.4110786,0.060923163,0.0,0.0,0.0
638,1778659426.1008635,1.3731276,1.4110786,0.060923163,0.0,0.0,0.0
639,1778659426.1108649,1.3731276,1.4110786,0.060923163,0.0,0.0,0.0
640,1778659426.1208658,1.3731276,1.4110786,0.060923163,0.0,0.0,0.0
641,1778659426.130867,1.3731276,1.4110786,0.060923163,0.0,0.0,0.0
642,1778659426.1408694,1.3731276,1.4110786,0.060923163,0.0,0.0,0.0
643,1778659426.1508703,1.3731276,1.4110786,0.060923163,0.0,0.0,0.0
644,1778659426.1608717,1.3731276,1.4110786,0.060923163,0.0,0.0,0.0
645,1778659426.1708732,1.3731276,1.4110786,0.060923163,0.0,0.0,0.0
646,1778659426.1808748,1.3731276,1.4110786,0.060923163,0.0,0.0,0.0
647,1778659426.1908767,1.3731276,1.4110786,0.060923163,0.0,0.0,0.0
648,1778659426.200878,1.3731276,1.4110786,0.060923163,0.0,0.0,0.0
649,1778659426.2108793,1.3262687,1.4071745,0.09216246,0.0,0.0,0.0
650,1778659426.2208803,1.3262687,1.4071745,0.09216246,0.0,0.0,0.0
651,1778659426.2308805,1.3262687,1.4071745,0.09216246,0.0,0.0,0.0
652,1778659426.240882,1.5176086,1.4696531,0.029683866,0.0,0.0,0.0
653,1778659426.250883,1.5176086,1.4696531,0.029683866,0.0,0.0,0.0
654,1778659426.260884,1.5176086,1.4696531,0.029683866,0.0,0.0,0.0
655,1778659426.2708855,1.5176086,1.4696531,0.029683866,0.0,0.0,0.0
656,1778659426.2808862,1.5176086,1.4696531,0.029683866,0.0,0.0,0.0
657,1778659426.2908876,1.5176086,1.4696531,0.029683866,0.0,0.0,0.0
658,1778659426.3008893,1.5176086,1.4696531,0.029683866,0.0,0.0,0.0
659,1778659426.310891,1.5176086,1.4696531,0.029683866,0.0,0.0,0.0
660,1778659426.3208923,1.5176086,1.4696531,0.029683866,0.0,0.0,0.0
661,1778659426.3308933,1.5176086,1.4696531,0.029683866,0.0,0.0,0.0
662,1778659426.340894,1.5176086,1.4696531,0.029683866,0.0,0.0,0.0
663,1778659426.3508961,1.5176086,1.4696531,0.029683866,0.0,0.0,0.0
664,1778659426.3608973,1.5176086,1.4696531,0.029683866,0.0,0.0,0.0
665,1778659426.3708982,1.5176086,1.4696531,0.029683866,0.0,0.0,0.0
666,1778659426.3808994,1.5176086,1.4696531,0.029683866,0.0,0.0,0.0
667,1778659426.390902,1.5137044,1.6531848,0.4162694,0.0,0.0,0.0
668,1778659426.4009035,1.5137044,1.6531848,0.4162694,0.0,0.0,0.0
669,1778659426.4109113,1.5137044,1.6531848,0.4162694,0.0,0.0,0.0
670,1778659426.4209146,1.5137044,1.6531848,0.4162694,0.0,0.0,0.0
671,1778659426.4309165,1.5137044,1.6531848,0.4162694,0.0,0.0,0.0
672,1778659426.440918,1.5137044,1.6531848,0.4162694,0.0,0.0,0.0
673,1778659426.4509284,1.5137044,1.6531848,0.4162694,0.0,0.0,0.0
674,1778659426.460931,1.5137044,1.6531848,0.4162694,0.0,0.0,0.0
675,1778659426.4709327,1.6620911,1.6883281,0.43579474,0.0,0.0,0.0
676,1778659426.4809337,1.6620911,1.6883281,0.43579474,0.0,0.0,0.0
677,1778659426.4909346,1.6620911,1.6883281,0.43579474,0.0,0.0,0.0
678,1778659426.500936,1.6620911,1.6883281,0.43579474,0.0,0.0,0.0
679,1778659426.510937,1.6620911,1.6883281,0.43579474,0.0,0.0,0.0
680,1778659426.5209382,1.6620911,1.6883281,0.43579474,0.0,0.0,0.0
681,1778659426.5309398,1.6620911,1.6883281,0.43579474,0.0,0.0,0.0
682,1778659426.5409415,1.6620911,1.6883281,0.43579474,0.0,0.0,0.0
683,1778659426.5509422,1.6620911,1.6883281,0.43579474,0.0,0.0,0.0
684,1778659426.560944,1.6620911,1.6883281,0.43579474,0.0,0.0,0.0
685,1778659426.5709448,1.6620911,1.6883281,0.43579474,0.0,0.0,0.0
686,1778659426.5809455,1.6620911,1.6883281,0.43579474,0.0,0.0,0.0
687,1778659426.590946,1.6620911,1.6883281,0.43579474,0.0,0.0,0.0
688,1778659426.6009471,1.6620911,1.6883281,0.43579474,0.0,0.0,0.0
689,1778659426.6109483,1.6620911,1.6883281,0.43579474,0.0,0.0,0.0
690,1778659426.6209493,1.6620911,1.6883281,0.43579474,0.0,0.0,0.0
691,1778659426.630951,1.9510547,1.7117577,0.43188903,0.0,0.0,0.0
692,1778659426.6409519,1.6620911,1.6883281,0.43579474,0.0,0.0,0.0
693,1778659426.6509535,1.6620911,1.6883281,0.43579474,0.0,0.0,0.0
694,1778659426.6609557,1.6620911,1.6883281,0.43579474,0.0,0.0,0.0
695,1778659426.6709564,1.6620911,1.6883281,0.43579474,0.0,0.0,0.0
696,1778659426.6809578,1.6620911,1.6883281,0.43579474,0.0,0.0,0.0
697,1778659426.6909587,1.6620911,1.6883281,0.43579474,0.0,0.0,0.0
698,1778659426.70096,1.6620911,1.6883281,0.43579474,0.0,0.0,0.0
699,1778659426.710961,1.6620911,1.6883281,0.43579474,0.0,0.0,0.0
700,1778659426.7209625,2.0955372,1.6805184,0.3616006,0.0,0.0,0.0
701,1778659426.730963,2.0955372,1.6805184,0.3616006,0.0,0.0,0.0
702,1778659426.7409644,2.0955372,1.6805184,0.3616006,0.0,0.0,0.0
703,1778659426.750966,2.0955372,1.6805184,0.3616006,0.0,0.0,0.0
704,1778659426.7609665,2.0955372,1.6805184,0.3616006,0.0,0.0,0.0
705,1778659426.7709675,2.0955372,1.6805184,0.3616006,0.0,0.0,0.0
706,1778659426.7809684,2.0955372,1.6805184,0.3616006,0.0,0.0,0.0
707,1778659426.7909694,2.0955372,1.6805184,0.3616006,0.0,0.0,0.0
708,1778659426.8009708,2.0955372,1.6805184,0.3616006,0.0,0.0,0.0
709,1778659426.8109715,2.0955372,1.6805184,0.3616006,0.0,0.0,0.0
710,1778659426.8209727,2.0955372,1.6805184,0.3616006,0.0,0.0,0.0
711,1778659426.830974,2.0955372,1.6805184,0.3616006,0.0,0.0,0.0
712,1778659426.8409746,2.0955372,1.6805184,0.3616006,0.0,0.0,0.0
713,1778659426.850976,2.0955372,1.6805184,0.3616006,0.0,0.0,0.0
714,1778659426.8609767,2.0955372,1.6805184,0.3616006,0.0,0.0,0.0
715,1778659426.8709772,2.0955372,1.6805184,0.3616006,0.0,0.0,0.0
716,1778659426.880979,2.0955372,1.6805184,0.3616006,0.0,0.0,0.0
717,1778659426.8909802,2.0955372,1.6805184,0.3616006,0.0,0.0,0.0
718,1778659426.900981,2.0955372,1.6805184,0.3616006,0.0,0.0,0.0
719,1778659426.9109821,2.0955372,1.6805184,0.3616006,0.0,0.0,0.0
720,1778659426.9209833,2.0369627,1.6141356,0.21711965,0.0,0.0,0.0
721,1778659426.9309843,2.0369627,1.6141356,0.21711965,0.0,0.0,0.0
722,1778659426.9409857,2.0369627,1.6141356,0.21711965,0.0,0.0,0.0
723,1778659426.9509864,2.0369627,1.6141356,0.21711965,0.0,0.0,0.0
724,1778659426.9609869,2.0369627,1.6141356,0.21711965,0.0,0.0,0.0
725,1778659426.9709883,2.0369627,1.6141356,0.21711965,0.0,0.0,0.0
726,1778659426.9809887,2.0369627,1.6141356,0.21711965,0.0,0.0,0.0
727,1778659426.9909909,1.9549603,1.5594668,0.13511571,0.0,0.0,0.0
728,1778659427.0009923,1.9549603,1.5594668,0.13511571,0.0,0.0,0.0
729,1778659427.0109935,1.9549603,1.5594668,0.13511571,0.0,0.0,0.0
730,1778659427.0209951,1.9549603,1.5594668,0.13511571,0.0,0.0,0.0
731,1778659427.0309968,1.9549603,1.5594668,0.13511571,0.0,0.0,0.0
732,1778659427.040998,1.9549603,1.5594668,0.13511571,0.0,0.0,0.0
733,1778659427.0509996,1.9549603,1.5594668,0.13511571,0.0,0.0,0.0
734,1778659427.0610018,1.8690523,1.5008924,0.045303512,0.0,0.0,0.0
735,1778659427.071003,1.8690523,1.5008924,0.045303512,0.0,0.0,0.0
736,1778659427.0810044,1.8690523,1.5008924,0.045303512,0.0,0.0,0.0
737,1778659427.091005,1.8690523,1.5008924,0.045303512,0.0,0.0,0.0
738,1778659427.101006,1.8690523,1.5008924,0.045303512,0.0,0.0,0.0
739,1778659427.1110072,1.8690523,1.5008924,0.045303512,0.0,0.0,0.0
740,1778659427.121008,1.8690523,1.5008924,0.045303512,0.0,0.0,0.0
741,1778659427.1310096,1.8690523,1.5008924,0.045303512,0.0,0.0,0.0
742,1778659427.141011,1.8690523,1.5008924,0.045303512,0.0,0.0,0.0
743,1778659427.151012,1.8690523,1.5008924,0.045303512,0.0,0.0,0.0
744,1778659427.161013,1.8690523,1.5008924,0.045303512,0.0,0.0,0.0
745,1778659427.1710143,1.8690523,1.5008924,0.045303512,0.0,0.0,0.0
746,1778659427.1810153,1.8690523,1.5008924,0.045303512,0.0,0.0,0.0
747,1778659427.191016,1.8690523,1.5008924,0.045303512,0.0,0.0,0.0
748,1778659427.2010167,1.8690523,1.5008924,0.045303512,0.0,0.0,0.0
749,1778659427.2110188,1.8690523,1.5008924,0.045303512,0.0,0.0,0.0
750,1778659427.22102,1.8690523,1.5008924,0.045303512,0.0,0.0,0.0
751,1778659427.2310207,1.8690523,1.5008924,0.045303512,0.0,0.0,0.0
752,1778659427.241022,1.8690523,1.5008924,0.045303512,0.0,0.0,0.0
753,1778659427.251023,1.8690523,1.5008924,0.045303512,0.0,0.0,0.0
754,1778659427.2610238,1.8690523,1.5008924,0.045303512,0.0,0.0,0.0
755,1778659427.2710247,1.7011403,1.3681253,-0.071845405,0.0,0.0,0.0
756,1778659427.281026,1.7011403,1.3681253,-0.071845405,0.0,0.0,0.0
757,1778659427.291026,1.7011403,1.3681253,-0.071845405,0.0,0.0,0.0
758,1778659427.3010275,1.7011403,1.3681253,-0.071845405,0.0,0.0,0.0
759,1778659427.311028,1.7011403,1.3681253,-0.071845405,0.0,0.0,0.0
760,1778659427.3210292,1.7011403,1.3681253,-0.071845405,0.0,0.0,0.0
761,1778659427.3310385,1.7011403,1.3681253,-0.071845405,0.0,0.0,0.0
762,1778659427.3410406,1.7011403,1.3681253,-0.071845405,0.0,0.0,0.0
763,1778659427.3510418,1.7011403,1.3681253,-0.071845405,0.0,0.0,0.0
764,1778659427.3610427,1.7011403,1.3681253,-0.071845405,0.0,0.0,0.0
765,1778659427.3710446,1.7011403,1.3681253,-0.071845405,0.0,0.0,0.0
766,1778659427.3810465,1.6347575,1.2978369,-0.11089453,0.0,0.0,0.0
767,1778659427.3910477,1.6347575,1.2978369,-0.11089453,0.0,0.0,0.0
768,1778659427.4010487,1.6347575,1.2978369,-0.11089453,0.0,0.0,0.0
769,1778659427.4110498,1.6347575,1.2978369,-0.11089453,0.0,0.0,0.0
770,1778659427.421074,1.6347575,1.2978369,-0.11089453,0.0,0.0,0.0
771,1778659427.4310753,1.6347575,1.2978369,-0.11089453,0.0,0.0,0.0
772,1778659427.4410765,1.6347575,1.2978369,-0.11089453,0.0,0.0,0.0
773,1778659427.4510775,1.6347575,1.2978369,-0.11089453,0.0,0.0,0.0
774,1778659427.461079,1.6347575,1.2978369,-0.11089453,0.0,0.0,0.0
775,1778659427.471082,1.6347575,1.2978369,-0.11089453,0.0,0.0,0.0
776,1778659427.481083,1.6347575,1.2978369,-0.11089453,0.0,0.0,0.0
777,1778659427.491088,1.6347575,1.2978369,-0.11089453,0.0,0.0,0.0
778,1778659427.5010893,1.6347575,1.2978369,-0.11089453,0.0,0.0,0.0
779,1778659427.5110903,1.6347575,1.2978369,-0.11089453,0.0,0.0,0.0
780,1778659427.5210917,1.5800872,1.2314527,-0.13822813,0.0,0.0,0.0
781,1778659427.5310926,1.5800872,1.2314527,-0.13822813,0.0,0.0,0.0
782,1778659427.541093,1.5800872,1.2314527,-0.13822813,0.0,0.0,0.0
783,1778659427.5510943,1.5800872,1.168974,-0.15384778,0.0,0.0,0.0
784,1778659427.5610952,1.5800872,1.168974,-0.15384778,0.0,0.0,0.0
785,1778659427.5710962,1.5800872,1.168974,-0.15384778,0.0,0.0,0.0
786,1778659427.581097,1.5800872,1.168974,-0.15384778,0.0,0.0,0.0
787,1778659427.5910976,1.5800872,1.168974,-0.15384778,0.0,0.0,0.0
788,1778659427.6011014,1.5800872,1.168974,-0.15384778,0.0,0.0,0.0
789,1778659427.6111038,1.5800872,1.168974,-0.15384778,0.0,0.0,0.0
790,1778659427.6211047,1.5800872,1.168974,-0.15384778,0.0,0.0,0.0
791,1778659427.6311061,1.5800872,1.168974,-0.15384778,0.0,0.0,0.0
792,1778659427.641108,1.4238907,1.0440168,-0.14603797,0.0,0.0,0.0
793,1778659427.651109,1.4238907,1.0440168,-0.14603797,0.0,0.0,0.0
794,1778659427.6611102,1.3809375,0.9698243,-0.12260849,0.0,0.0,0.0
795,1778659427.671111,1.3809375,0.9698243,-0.12260849,0.0,0.0,0.0
796,1778659427.6811118,1.3809375,0.9698243,-0.12260849,0.0,0.0,0.0
797,1778659427.6911132,1.3809375,0.9698243,-0.12260849,0.0,0.0,0.0
798,1778659427.7011147,1.3809375,0.9698243,-0.12260849,0.0,0.0,0.0
799,1778659427.7111154,1.3809375,0.9698243,-0.12260849,0.0,0.0,0.0
800,1778659427.7211168,1.1232133,0.040453676,0.25226307,0.0,0.0,0.0
801,1778659427.7311177,1.1232133,0.040453676,0.25226307,0.0,0.0,0.0
802,1778659427.7411194,1.1232133,0.040453676,0.25226307,0.0,0.0,0.0
803,1778659427.7511206,1.1232133,0.040453676,0.25226307,0.0,0.0,0.0
804,1778659427.7611213,1.1232133,0.040453676,0.25226307,0.0,0.0,0.0
805,1778659427.7711227,1.1232133,0.040453676,0.25226307,0.0,0.0,0.0
806,1778659427.7811239,1.1232133,0.040453676,0.25226307,0.0,0.0,0.0
807,1778659427.7911248,1.1232133,0.040453676,0.25226307,0.0,0.0,0.0
808,1778659427.8011255,1.1232133,0.040453676,0.25226307,0.0,0.0,0.0
809,1778659427.8111436,1.1232133,0.040453676,0.25226307,0.0,0.0,0.0
810,1778659427.8211443,1.1232133,0.040453676,0.25226307,0.0,0.0,0.0
811,1778659427.8311458,1.1232133,0.040453676,0.25226307,0.0,0.0,0.0
812,1778659427.8411472,1.1232133,0.040453676,0.25226307,0.0,0.0,0.0
813,1778659427.8511486,1.1232133,0.040453676,0.25226307,0.0,0.0,0.0
814,1778659427.8611505,1.1232133,0.040453676,0.25226307,0.0,0.0,0.0
815,1778659427.8711553,1.1232133,0.040453676,0.25226307,0.0,0.0,0.0
816,1778659427.8811574,1.1232133,0.040453676,0.25226307,0.0,0.0,0.0
817,1778659427.8911588,1.1232133,0.040453676,0.25226307,0.0,0.0,0.0
818,1778659427.9011595,1.1232133,0.040453676,0.25226307,0.0,0.0,0.0
819,1778659427.9111612,1.1232133,0.040453676,0.25226307,0.0,0.0,0.0
820,1778659427.9211626,1.1232133,0.040453676,0.25226307,0.0,0.0,0.0
821,1778659427.9311635,1.1232133,0.040453676,0.25226307,0.0,0.0,0.0
822,1778659427.9411652,1.1232133,0.040453676,0.25226307,0.0,0.0,0.0
823,1778659427.9511666,1.1232133,0.040453676,0.25226307,0.0,0.0,0.0
824,1778659427.961169,1.1232133,0.040453676,0.25226307,0.0,0.0,0.0
825,1778659427.9711707,1.1232133,0.040453676,0.25226307,0.0,0.0,0.0
826,1778659427.981172,1.1232133,0.040453676,0.25226307,0.0,0.0,0.0
827,1778659427.9911737,1.1232133,0.040453676,0.25226307,0.0,0.0,0.0
828,1778659428.0011764,1.0841641,-0.053264216,0.21711965,0.0,0.0,0.0
829,1778659428.0111783,1.0841641,-0.053264216,0.21711965,0.0,0.0,0.0
830,1778659428.021179,1.0841641,-0.053264216,0.21711965,0.0,0.0,0.0
831,1778659428.0311809,1.0841641,-0.053264216,0.21711965,0.0,0.0,0.0
832,1778659428.0411823,1.0841641,-0.053264216,0.21711965,0.0,0.0,0.0
833,1778659428.0511837,1.0841641,-0.053264216,0.21711965,0.0,0.0,0.0
834,1778659428.0611858,1.0841641,-0.053264216,0.21711965,0.0,0.0,0.0
835,1778659428.071188,1.0841641,-0.053264216,0.21711965,0.0,0.0,0.0
836,1778659428.0811896,1.0841641,-0.053264216,0.21711965,0.0,0.0,0.0
837,1778659428.0911903,1.0841641,-0.053264216,0.21711965,0.0,0.0,0.0
838,1778659428.1011908,1.0841641,-0.053264216,0.21711965,0.0,0.0,0.0
839,1778659428.1111925,1.0841641,-0.053264216,0.21711965,0.0,0.0,0.0
840,1778659428.1211934,1.0841641,-0.053264216,0.21711965,0.0,0.0,0.0
841,1778659428.1311948,1.0841641,-0.053264216,0.21711965,0.0,0.0,0.0
842,1778659428.1411953,1.0841641,-0.053264216,0.21711965,0.0,0.0,0.0
843,1778659428.1511972,1.0841641,-0.053264216,0.21711965,0.0,0.0,0.0
844,1778659428.1611984,1.0841641,-0.053264216,0.21711965,0.0,0.0,0.0
845,1778659428.1711996,1.0841641,-0.053264216,0.21711965,0.0,0.0,0.0
846,1778659428.181202,1.056829,-0.12745832,0.18978448,0.0,0.0,0.0
847,1778659428.1912034,1.056829,-0.12745832,0.18978448,0.0,0.0,0.0
848,1778659428.2012045,1.056829,-0.12745832,0.18978448,0.0,0.0,0.0
849,1778659428.2112055,1.056829,-0.12745832,0.18978448,0.0,0.0,0.0
850,1778659428.2212064,1.056829,-0.12745832,0.18978448,0.0,0.0,0.0
851,1778659428.2312071,1.056829,-0.12745832,0.18978448,0.0,0.0,0.0
852,1778659428.2412088,1.0646389,-0.33441788,0.006254392,0.0,0.0,0.0
853,1778659428.2512093,1.0646389,-0.33441788,0.006254392,0.0,0.0,0.0
854,1778659428.2612119,1.0646389,-0.33441788,0.006254392,0.0,0.0,0.0
855,1778659428.2712133,1.0646389,-0.33441788,0.006254392,0.0,0.0,0.0
856,1778659428.281214,1.0646389,-0.33441788,0.006254392,0.0,0.0,0.0
857,1778659428.2912157,1.0646389,-0.33441788,0.006254392,0.0,0.0,0.0
858,1778659428.301218,1.0646389,-0.33441788,0.006254392,0.0,0.0,0.0
859,1778659428.3112192,1.0646389,-0.33441788,0.006254392,0.0,0.0,0.0
860,1778659428.3212206,1.0646389,-0.33441788,0.006254392,0.0,0.0,0.0
861,1778659428.331226,1.0646389,-0.33441788,0.006254392,0.0,0.0,0.0
862,1778659428.3412302,1.0646389,-0.33441788,0.006254392,0.0,0.0,0.0
863,1778659428.3512313,1.0646389,-0.33441788,0.006254392,0.0,0.0,0.0
864,1778659428.3612316,1.0646389,-0.33441788,0.006254392,0.0,0.0,0.0
865,1778659428.3712325,1.0646389,-0.33441788,0.006254392,0.0,0.0,0.0
866,1778659428.3812337,1.0646389,-0.33441788,0.006254392,0.0,0.0,0.0
867,1778659428.3912346,1.0646389,-0.33441788,0.006254392,0.0,0.0,0.0
868,1778659428.4012363,1.0646389,-0.33441788,0.006254392,0.0,0.0,0.0
869,1778659428.411238,1.0646389,-0.33441788,0.006254392,0.0,0.0,0.0
870,1778659428.4212399,1.0646389,-0.33441788,0.006254392,0.0,0.0,0.0
871,1778659428.4312413,1.0646389,-0.33441788,0.006254392,0.0,0.0,0.0
872,1778659428.4412422,1.0646389,-0.33441788,0.006254392,0.0,0.0,0.0
873,1778659428.4512436,1.0646389,-0.33441788,0.006254392,0.0,0.0,0.0
874,1778659428.4612448,1.0646389,-0.33441788,0.006254392,0.0,0.0,0.0
875,1778659428.4712458,1.0646389,-0.33441788,0.006254392,0.0,0.0,0.0
876,1778659428.4812474,1.0646389,-0.33441788,0.006254392,0.0,0.0,0.0
877,1778659428.4912493,1.0490191,-0.35003754,0.017968351,0.0,0.0,0.0
878,1778659428.5012507,1.0490191,-0.35003754,0.017968351,0.0,0.0,0.0
879,1778659428.5112517,1.0333995,-0.36175305,0.025778176,0.0,0.0,0.0
880,1778659428.5212529,1.0333995,-0.36175305,0.025778176,0.0,0.0,0.0
881,1778659428.531254,1.0333995,-0.36175305,0.025778176,0.0,0.0,0.0
882,1778659428.5412555,1.0333995,-0.36175305,0.025778176,0.0,0.0,0.0
883,1778659428.5512562,1.0333995,-0.36175305,0.025778176,0.0,0.0,0.0
884,1778659428.5612578,1.0333995,-0.36175305,0.025778176,0.0,0.0,0.0
885,1778659428.571259,1.0333995,-0.36175305,0.025778176,0.0,0.0,0.0
886,1778659428.5812602,1.0333995,-0.36175305,0.025778176,0.0,0.0,0.0
887,1778659428.5912614,1.0333995,-0.36175305,0.025778176,0.0,0.0,0.0
888,1778659428.6012623,1.0333995,-0.36175305,0.025778176,0.0,0.0,0.0
889,1778659428.6112628,1.0333995,-0.36175305,0.025778176,0.0,0.0,0.0
890,1778659428.6212645,0.9943504,-0.40080217,0.045303512,0.0,0.0,0.0
891,1778659428.631265,0.9943504,-0.40080217,0.045303512,0.0,0.0,0.0
892,1778659428.6412654,0.9943504,-0.40080217,0.045303512,0.0,0.0,0.0
893,1778659428.651267,0.9943504,-0.40080217,0.045303512,0.0,0.0,0.0
894,1778659428.6612685,0.9943504,-0.40080217,0.045303512,0.0,0.0,0.0
895,1778659428.671269,0.9943504,-0.40080217,0.045303512,0.0,0.0,0.0
896,1778659428.6812706,0.9943504,-0.40080217,0.045303512,0.0,0.0,0.0
897,1778659428.6912718,0.9943504,-0.40080217,0.045303512,0.0,0.0,0.0
898,1778659428.7012732,0.9943504,-0.40080217,0.045303512,0.0,0.0,0.0
899,1778659428.7112749,0.9943504,-0.40080217,0.045303512,0.0,0.0,0.0
900,1778659428.7212758,0.9943504,-0.40080217,0.045303512,0.0,0.0,0.0
901,1778659428.731277,0.9943504,-0.40080217,0.045303512,0.0,0.0,0.0
902,1778659428.7412782,0.9943504,-0.40080217,0.045303512,0.0,0.0,0.0
903,1778659428.7512789,0.9943504,-0.40080217,0.045303512,0.0,0.0,0.0
904,1778659428.7612805,0.91625214,-0.4359456,0.053113338,0.0,0.0,0.0
905,1778659428.7712867,0.91625214,-0.4359456,0.053113338,0.0,0.0,0.0
906,1778659428.7812912,0.91625214,-0.4359456,0.053113338,0.0,0.0,0.0
907,1778659428.7912936,0.91625214,-0.4359456,0.053113338,0.0,0.0,0.0
908,1778659428.8012946,0.91625214,-0.4359456,0.053113338,0.0,0.0,0.0
909,1778659428.811295,0.91625214,-0.4359456,0.053113338,0.0,0.0,0.0
910,1778659428.8212974,0.91625214,-0.4359456,0.053113338,0.0,0.0,0.0
911,1778659428.831298,0.91625214,-0.4359456,0.053113338,0.0,0.0,0.0
912,1778659428.8412993,0.91625214,-0.4359456,0.053113338,0.0,0.0,0.0
913,1778659428.8513002,0.20946226,-0.15869762,-0.0015554321,0.0,0.0,0.0
914,1778659428.861301,0.20946226,-0.15869762,-0.0015554321,0.0,0.0,0.0
915,1778659428.8713017,0.20946226,-0.15869762,-0.0015554321,0.0,0.0,0.0
916,1778659428.8813038,0.20946226,-0.15869762,-0.0015554321,0.0,0.0,0.0
917,1778659428.8913052,0.20946226,-0.15869762,-0.0015554321,0.0,0.0,0.0
918,1778659428.9013069,0.20946226,-0.15869762,-0.0015554321,0.0,0.0,0.0
919,1778659428.9113076,0.20946226,-0.15869762,-0.0015554321,0.0,0.0,0.0
920,1778659428.9213088,0.20946226,-0.15869762,-0.0015554321,0.0,0.0,0.0
921,1778659428.93131,0.20946226,-0.15869762,-0.0015554321,0.0,0.0,0.0
922,1778659428.9413106,0.20946226,-0.15869762,-0.0015554321,0.0,0.0,0.0
923,1778659428.9513123,0.20946226,-0.15869762,-0.0015554321,0.0,0.0,0.0
924,1778659428.9613132,0.20946226,-0.15869762,-0.0015554321,0.0,0.0,0.0
925,1778659428.971314,0.20946226,-0.15869762,-0.0015554321,0.0,0.0,0.0
926,1778659428.9813151,0.20946226,-0.15869762,-0.0015554321,0.0,0.0,0.0
927,1778659428.991316,0.20946226,-0.15869762,-0.0015554321,0.0,0.0,0.0
928,1778659429.0013173,0.20946226,-0.15869762,-0.0015554321,0.0,0.0,0.0
929,1778659429.01132,0.20946226,-0.15869762,-0.0015554321,0.0,0.0,0.0
930,1778659429.021321,0.20946226,-0.15869762,-0.0015554321,0.0,0.0,0.0
931,1778659429.0313268,0.20946226,-0.15869762,-0.0015554321,0.0,0.0,0.0
932,1778659429.041329,0.20946226,-0.15869762,-0.0015554321,0.0,0.0,0.0
933,1778659429.0513296,0.20946226,-0.15869762,-0.0015554321,0.0,0.0,0.0
934,1778659429.0613313,0.20946226,-0.15869762,-0.0015554321,0.0,0.0,0.0
935,1778659429.0713327,0.20946226,-0.15869762,-0.0015554321,0.0,0.0,0.0
936,1778659429.0813332,0.20946226,-0.15869762,-0.0015554321,0.0,0.0,0.0
937,1778659429.0913355,0.20946226,-0.15869762,-0.0015554321,0.0,0.0,0.0
938,1778659429.1013367,0.14698367,-0.15869762,-0.009366812,0.0,0.0,0.0
939,1778659429.1113381,0.14698367,-0.15869762,-0.009366812,0.0,0.0,0.0
940,1778659429.1213388,0.15479349,-0.15479194,-0.005461122,0.0,0.0,0.0
941,1778659429.1313396,0.15479349,-0.15479194,-0.005461122,0.0,0.0,0.0
942,1778659429.1413412,0.15479349,-0.15479194,-0.005461122,0.0,0.0,0.0
943,1778659429.151343,0.15479349,-0.15479194,-0.005461122,0.0,0.0,0.0
944,1778659429.1613436,0.15479349,-0.15479194,-0.005461122,0.0,0.0,0.0
945,1778659429.1713455,0.1352697,-0.15869762,-0.009366812,0.0,0.0,0.0
946,1778659429.1813467,0.1352697,-0.15869762,-0.009366812,0.0,0.0,0.0
947,1778659429.1913471,0.1352697,-0.15869762,-0.009366812,0.0,0.0,0.0
948,1778659429.2013485,0.1352697,-0.15869762,-0.009366812,0.0,0.0,0.0
949,1778659429.2113495,0.1352697,-0.15869762,-0.009366812,0.0,0.0,0.0
950,1778659429.22135,0.1352697,-0.15869762,-0.009366812,0.0,0.0,0.0
951,1778659429.2313516,0.1352697,-0.15869762,-0.009366812,0.0,0.0,0.0
952,1778659429.241354,0.1352697,-0.15869762,-0.009366812,0.0,0.0,0.0
953,1778659429.2513564,0.1352697,-0.15869762,-0.009366812,0.0,0.0,0.0
954,1778659429.2613578,0.1352697,-0.15869762,-0.009366812,0.0,0.0,0.0
955,1778659429.2713587,0.1352697,-0.15869762,-0.009366812,0.0,0.0,0.0
956,1778659429.2813597,0.1352697,-0.15869762,-0.009366812,0.0,0.0,0.0
957,1778659429.291361,0.1352697,-0.15869762,-0.009366812,0.0,0.0,0.0
958,1778659429.3013616,0.1352697,-0.15869762,-0.009366812,0.0,0.0,0.0
959,1778659429.3113625,0.1352697,-0.15869762,-0.009366812,0.0,0.0,0.0
960,1778659429.3213637,0.13136402,-0.1196485,-0.013270946,0.0,0.0,0.0
961,1778659429.3313644,0.13136402,-0.1196485,-0.013270946,0.0,0.0,0.0
962,1778659429.3413653,0.13136402,-0.1196485,-0.013270946,0.0,0.0,0.0
963,1778659429.3513675,0.13136402,-0.1196485,-0.013270946,0.0,0.0,0.0
964,1778659429.3613684,0.13136402,-0.1196485,-0.013270946,0.0,0.0,0.0
965,1778659429.3713691,0.13136402,-0.1196485,-0.013270946,0.0,0.0,0.0
966,1778659429.3813715,0.13136402,-0.1196485,-0.013270946,0.0,0.0,0.0
967,1778659429.3913732,0.13136402,-0.1196485,-0.013270946,0.0,0.0,0.0
968,1778659429.401374,0.13136402,-0.1196485,-0.013270946,0.0,0.0,0.0
969,1778659429.4113746,0.13136402,-0.1196485,-0.013270946,0.0,0.0,0.0
970,1778659429.4213762,0.13136402,-0.1196485,-0.013270946,0.0,0.0,0.0
971,1778659429.431378,0.13136402,-0.1196485,-0.013270946,0.0,0.0,0.0
972,1778659429.4413786,0.13136402,-0.1196485,-0.013270946,0.0,0.0,0.0
973,1778659429.4513886,0.13136402,-0.1196485,-0.013270946,0.0,0.0,0.0
974,1778659429.4613934,0.13136402,-0.1196485,-0.013270946,0.0,0.0,0.0
975,1778659429.471394,0.13136402,-0.1196485,-0.013270946,0.0,0.0,0.0
976,1778659429.4813962,0.13136402,-0.1196485,-0.013270946,0.0,0.0,0.0
977,1778659429.4913983,0.13136402,-0.1196485,-0.013270946,0.0,0.0,0.0
978,1778659429.5013993,0.13136402,-0.1196485,-0.013270946,0.0,0.0,0.0
979,1778659429.5114002,0.13136402,-0.1196485,-0.013270946,0.0,0.0,0.0
980,1778659429.5214024,0.13136402,-0.1196485,-0.013270946,0.0,0.0,0.0
981,1778659429.531403,0.13136402,-0.1196485,-0.013270946,0.0,0.0,0.0
982,1778659429.541405,0.13136402,-0.1196485,-0.013270946,0.0,0.0,0.0
983,1778659429.551406,0.13136402,-0.1196485,-0.013270946,0.0,0.0,0.0
984,1778659429.5614073,0.13136402,-0.1196485,-0.013270946,0.0,0.0,0.0
985,1778659429.5714092,0.13136402,-0.1196485,-0.013270946,0.0,0.0,0.0
986,1778659429.58141,0.13136402,-0.1196485,-0.013270946,0.0,0.0,0.0
987,1778659429.5914106,0.13136402,-0.1196485,-0.013270946,0.0,0.0,0.0
988,1778659429.6014125,0.13917384,-0.111838676,-0.017176636,0.0,0.0,0.0
989,1778659429.6114135,0.13917384,-0.111838676,-0.017176636,0.0,0.0,0.0
990,1778659429.6214147,0.13917384,-0.111838676,-0.017176636,0.0,0.0,0.0
991,1778659429.6314154,0.13917384,-0.111838676,-0.017176636,0.0,0.0,0.0
992,1778659429.641416,0.13917384,-0.111838676,-0.017176636,0.0,0.0,0.0
993,1778659429.651417,-0.28255668,0.09512245,-0.013270946,0.0,0.0,0.0
994,1778659429.6614175,-0.28255668,0.09512245,-0.013270946,0.0,0.0,0.0
995,1778659429.6714187,-0.28255668,0.09512245,-0.013270946,0.0,0.0,0.0
996,1778659429.6814198,-0.27865255,0.13807726,0.014064217,0.0,0.0,0.0
997,1778659429.6914203,-0.27865255,0.13807726,0.014064217,0.0,0.0,0.0
998,1778659429.7014213,-0.27865255,0.13807726,0.014064217,0.0,0.0,0.0
