id,timestamp,acc_x,acc_y,acc_z,gyro_x,gyro_y,gyro_z
1,1778658347.5290096,0.30708584,-0.5648085,0.15073536,0.0,0.0,0.0
2,1778658347.5390115,0.30708584,-0.5648085,0.15073536,0.0,0.0,0.0
3,1778658347.5490131,0.30708584,-0.5648085,0.15073536,0.0,0.0,0.0
4,1778658347.5590158,0.30708584,-0.5648085,0.15073536,0.0,0.0,0.0
5,1778658347.5690184,0.30708584,-0.5648085,0.15073536,0.0,0.0,0.0
6,1778658347.5790205,0.30708584,-0.5648085,0.15073536,0.0,0.0,0.0
7,1778658347.5890229,0.30708584,-0.5648085,0.15073536,0.0,0.0,0.0
8,1778658347.5990243,0.30708584,-0.5648085,0.15073536,0.0,0.0,0.0
9,1778658347.6090257,0.30708584,-0.5648085,0.15073536,0.0,0.0,0.0
10,1778658347.619027,0.30708584,-0.5648085,0.15073536,0.0,0.0,0.0
11,1778658347.6290283,-0.06778728,-0.38518253,-0.052320067,0.0,0.0,0.0
12,1778658347.6390333,-0.06778728,-0.38518253,-0.052320067,0.0,0.0,0.0
13,1778658347.6490345,-0.06778728,-0.38518253,-0.052320067,0.0,0.0,0.0
14,1778658347.659035,-0.06778728,-0.38518253,-0.052320067,0.0,0.0,0.0
15,1778658347.6690361,-0.06778728,-0.38518253,-0.052320067,0.0,0.0,0.0
16,1778658347.6790373,-0.06778728,-0.38518253,-0.052320067,0.0,0.0,0.0
17,1778658347.6890395,-0.06778728,-0.38518253,-0.052320067,0.0,0.0,0.0
18,1778658347.6990411,-0.06778728,-0.38518253,-0.052320067,0.0,0.0,0.0
19,1778658347.7090428,-0.06778728,-0.38518253,-0.052320067,0.0,0.0,0.0
20,1778658347.7190442,-0.06778728,-0.38518253,-0.052320067,0.0,0.0,0.0
21,1778658347.7290452,-0.06778728,-0.38518253,-0.052320067,0.0,0.0,0.0
22,1778658347.739047,-0.06778728,-0.38518253,-0.052320067,0.0,0.0,0.0
23,1778658347.749049,-0.06778728,-0.38518253,-0.052320067,0.0,0.0,0.0
24,1778658347.7590494,-0.06778728,-0.38518253,-0.052320067,0.0,0.0,0.0
25,1778658347.7690513,-0.06778728,-0.38518253,-0.052320067,0.0,0.0,0.0
26,1778658347.7790525,-0.06778728,-0.38518253,-0.052320067,0.0,0.0,0.0
27,1778658347.789054,-0.06778728,-0.38518253,-0.052320067,0.0,0.0,0.0
28,1778658347.7990553,-0.06778728,-0.38518253,-0.052320067,0.0,0.0,0.0
29,1778658347.8090568,-0.06778728,-0.38518253,-0.052320067,0.0,0.0,0.0
30,1778658347.8190577,-0.06778728,-0.38518253,-0.052320067,0.0,0.0,0.0
31,1778658347.829059,-0.06778728,-0.38518253,-0.052320067,0.0,0.0,0.0
32,1778658347.8390598,-0.06778728,-0.38518253,-0.052320067,0.0,0.0,0.0
33,1778658347.8490615,-0.06778728,-0.38518253,-0.052320067,0.0,0.0,0.0
34,1778658347.8590631,-0.06778728,-0.38518253,-0.052320067,0.0,0.0,0.0
35,1778658347.8690639,-0.06778728,-0.38518253,-0.052320067,0.0,0.0,0.0
36,1778658347.8790648,-0.06778728,-0.38518253,-0.052320067,0.0,0.0,0.0
37,1778658347.8890655,-0.06778728,-0.38518253,-0.052320067,0.0,0.0,0.0
38,1778658347.899067,-0.06778728,-0.38518253,-0.052320067,0.0,0.0,0.0
39,1778658347.9090679,-0.06778728,-0.38518253,-0.052320067,0.0,0.0,0.0
40,1778658347.9190693,-0.06778728,-0.38518253,-0.052320067,0.0,0.0,0.0
41,1778658347.9290714,-0.23569773,-0.111838676,0.017968351,0.0,0.0,0.0
42,1778658347.939073,-0.16150518,-0.275845,-0.052320067,0.0,0.0,0.0
43,1778658347.9490743,-0.16150518,-0.275845,-0.052320067,0.0,0.0,0.0
44,1778658347.9590757,-0.16150518,-0.275845,-0.052320067,0.0,0.0,0.0
45,1778658347.9690766,-0.16150518,-0.275845,-0.052320067,0.0,0.0,0.0
46,1778658347.9790773,-0.16150518,-0.275845,-0.052320067,0.0,0.0,0.0
47,1778658347.989078,-0.16150518,-0.275845,-0.052320067,0.0,0.0,0.0
48,1778658347.9990788,-0.16150518,-0.275845,-0.052320067,0.0,0.0,0.0
49,1778658348.0090797,-0.16150518,-0.275845,-0.052320067,0.0,0.0,0.0
50,1778658348.0190806,-0.16150518,-0.275845,-0.052320067,0.0,0.0,0.0
51,1778658348.0290813,-0.16150518,-0.275845,-0.052320067,0.0,0.0,0.0
52,1778658348.0390823,-0.16150518,-0.275845,-0.052320067,0.0,0.0,0.0
53,1778658348.0490847,-0.16150518,-0.275845,-0.052320067,0.0,0.0,0.0
54,1778658348.0590863,-0.16150518,-0.275845,-0.052320067,0.0,0.0,0.0
55,1778658348.0690873,-0.16150518,-0.275845,-0.052320067,0.0,0.0,0.0
56,1778658348.0790884,-0.16150518,-0.275845,-0.052320067,0.0,0.0,0.0
57,1778658348.0890899,-0.16150518,-0.275845,-0.052320067,0.0,0.0,0.0
58,1778658348.0990906,-0.16150518,-0.275845,-0.052320067,0.0,0.0,0.0
59,1778658348.1090915,-0.16150518,-0.275845,-0.052320067,0.0,0.0,0.0
60,1778658348.1190932,-0.28646237,-0.037644565,0.033588,0.0,0.0,0.0
61,1778658348.1290944,-0.28646237,-0.037644565,0.033588,0.0,0.0,0.0
62,1778658348.1390948,-0.28646237,-0.037644565,0.033588,0.0,0.0,0.0
63,1778658348.1490967,-0.28646237,-0.037644565,0.033588,0.0,0.0,0.0
64,1778658348.1590986,-0.28646237,-0.037644565,0.033588,0.0,0.0,0.0
65,1778658348.1691022,-0.28646237,-0.037644565,0.033588,0.0,0.0,0.0
66,1778658348.179104,-0.28646237,-0.037644565,0.033588,0.0,0.0,0.0
67,1778658348.1891048,-0.28646237,-0.037644565,0.033588,0.0,0.0,0.0
68,1778658348.1991057,-0.28646237,-0.037644565,0.033588,0.0,0.0,0.0
69,1778658348.209107,-0.28646237,-0.037644565,0.033588,0.0,0.0,0.0
70,1778658348.2191074,-0.28646237,-0.037644565,0.033588,0.0,0.0,0.0
71,1778658348.2291086,-0.28646237,-0.037644565,0.033588,0.0,0.0,0.0
72,1778658348.2391095,-0.28646237,-0.037644565,0.033588,0.0,0.0,0.0
73,1778658348.2491102,-0.28646237,-0.037644565,0.033588,0.0,0.0,0.0
74,1778658348.259112,-0.28646237,-0.037644565,0.033588,0.0,0.0,0.0
75,1778658348.269116,-0.28646237,-0.037644565,0.033588,0.0,0.0,0.0
76,1778658348.279117,-0.28646237,-0.037644565,0.033588,0.0,0.0,0.0
77,1778658348.2891204,-0.28646237,-0.037644565,0.033588,0.0,0.0,0.0
78,1778658348.299123,-0.28646237,-0.037644565,0.033588,0.0,0.0,0.0
79,1778658348.3091245,-0.28646237,-0.037644565,0.033588,0.0,0.0,0.0
80,1778658348.3191254,-0.28646237,-0.037644565,0.033588,0.0,0.0,0.0
81,1778658348.3291264,-0.28646237,-0.037644565,0.033588,0.0,0.0,0.0
82,1778658348.339129,-0.28646237,-0.037644565,0.033588,0.0,0.0,0.0
83,1778658348.3491316,-0.28646237,-0.037644565,0.033588,0.0,0.0,0.0
84,1778658348.3591328,-0.28646237,-0.037644565,0.033588,0.0,0.0,0.0
85,1778658348.3691337,-0.28646237,-0.037644565,0.033588,0.0,0.0,0.0
86,1778658348.3791342,-0.28646237,-0.037644565,0.033588,0.0,0.0,0.0
87,1778658348.3891356,-0.24741325,0.1732207,0.10387642,0.0,0.0,0.0
88,1778658348.399137,-0.24741325,0.1732207,0.10387642,0.0,0.0,0.0
89,1778658348.4091384,-0.24741325,0.1732207,0.10387642,0.0,0.0,0.0
90,1778658348.4191396,-0.24741325,0.1732207,0.10387642,0.0,0.0,0.0
91,1778658348.4291406,-0.24741325,0.1732207,0.10387642,0.0,0.0,0.0
92,1778658348.439141,-0.24741325,0.1732207,0.10387642,0.0,0.0,0.0
93,1778658348.449144,-0.24741325,0.1732207,0.10387642,0.0,0.0,0.0
94,1778658348.459147,-0.24741325,0.1732207,0.10387642,0.0,0.0,0.0
95,1778658348.469148,-0.24741325,0.1732207,0.10387642,0.0,0.0,0.0
96,1778658348.4791489,-0.24741325,0.1732207,0.10387642,0.0,0.0,0.0
97,1778658348.4891498,-0.24741325,0.1732207,0.10387642,0.0,0.0,0.0
98,1778658348.4991515,-0.24741325,0.1732207,0.10387642,0.0,0.0,0.0
99,1778658348.5091524,-0.24741325,0.1732207,0.10387642,0.0,0.0,0.0
100,1778658348.5191534,-0.24741325,0.1732207,0.10387642,0.0,0.0,0.0
101,1778658348.5291538,-0.24741325,0.1732207,0.10387642,0.0,0.0,0.0
102,1778658348.539155,-0.12245605,0.32941717,0.16635501,0.0,0.0,0.0
103,1778658348.5491562,-0.12245605,0.32941717,0.16635501,0.0,0.0,0.0
104,1778658348.559157,-0.12245605,0.32941717,0.16635501,0.0,0.0,0.0
105,1778658348.56916,-0.12245605,0.32941717,0.16635501,0.0,0.0,0.0
106,1778658348.5791616,-0.12245605,0.32941717,0.16635501,0.0,0.0,0.0
107,1778658348.5891626,-0.12245605,0.32941717,0.16635501,0.0,0.0,0.0
108,1778658348.5991633,-0.12245605,0.32941717,0.16635501,0.0,0.0,0.0
109,1778658348.6091664,-0.12245605,0.32941717,0.16635501,0.0,0.0,0.0
110,1778658348.619168,-0.12245605,0.32941717,0.16635501,0.0,0.0,0.0
111,1778658348.629169,-0.12245605,0.32941717,0.16635501,0.0,0.0,0.0
112,1778658348.6391704,-0.12245605,0.32941717,0.16635501,0.0,0.0,0.0
113,1778658348.6491718,-0.07559711,0.38408595,0.2288336,0.0,0.0,0.0
114,1778658348.6591723,-0.07559711,0.38408595,0.2288336,0.0,0.0,0.0
115,1778658348.6691737,-0.07559711,0.38408595,0.2288336,0.0,0.0,0.0
116,1778658348.6791744,-0.07559711,0.38408595,0.2288336,0.0,0.0,0.0
117,1778658348.6891758,-0.07559711,0.38408595,0.2288336,0.0,0.0,0.0
118,1778658348.6991768,-0.07559711,0.38408595,0.2288336,0.0,0.0,0.0
119,1778658348.7091775,-0.07559711,0.38408595,0.2288336,0.0,0.0,0.0
120,1778658348.7191787,-0.07559711,0.38408595,0.2288336,0.0,0.0,0.0
121,1778658348.7291799,-0.07559711,0.38408595,0.2288336,0.0,0.0,0.0
122,1778658348.7391808,-0.07559711,0.38408595,0.2288336,0.0,0.0,0.0
123,1778658348.7491822,-0.07559711,0.38408595,0.2288336,0.0,0.0,0.0
124,1778658348.7591832,-0.07559711,0.38408595,0.2288336,0.0,0.0,0.0
125,1778658348.769184,-0.07559711,0.38408595,0.2288336,0.0,0.0,0.0
126,1778658348.779185,-0.07559711,0.38408595,0.2288336,0.0,0.0,0.0
127,1778658348.7891858,-0.07559711,0.38408595,0.2288336,0.0,0.0,0.0
128,1778658348.7991862,-0.07559711,0.38408595,0.2288336,0.0,0.0,0.0
129,1778658348.809189,-0.03654799,0.5871414,0.33817115,0.0,0.0,0.0
130,1778658348.8191905,-0.03654799,0.5871414,0.33817115,0.0,0.0,0.0
131,1778658348.8291912,-0.03654799,0.5871414,0.33817115,0.0,0.0,0.0
132,1778658348.8391926,-0.03654799,0.5871414,0.33817115,0.0,0.0,0.0
133,1778658348.8491936,-0.03654799,0.5871414,0.33817115,0.0,0.0,0.0
134,1778658348.8591943,-0.03654799,0.5871414,0.33817115,0.0,0.0,0.0
135,1778658348.8691967,-0.05997746,0.61057085,0.33426702,0.0,0.0,0.0
136,1778658348.8791983,-0.05997746,0.61057085,0.33426702,0.0,0.0,0.0
137,1778658348.889199,-0.05997746,0.61057085,0.33426702,0.0,0.0,0.0
138,1778658348.8992014,-0.05997746,0.61057085,0.33426702,0.0,0.0,0.0
139,1778658348.9092026,-0.05997746,0.61057085,0.33426702,0.0,0.0,0.0
140,1778658348.9192035,-0.05997746,0.61057085,0.33426702,0.0,0.0,0.0
141,1778658348.9292045,-0.05997746,0.61057085,0.33426702,0.0,0.0,0.0
142,1778658348.9392054,-0.10683641,0.6261905,0.30302772,0.0,0.0,0.0
143,1778658348.9492066,-0.10683641,0.6261905,0.30302772,0.0,0.0,0.0
144,1778658348.959207,-0.10683641,0.6261905,0.30302772,0.0,0.0,0.0
145,1778658348.9692085,-0.10683641,0.6261905,0.30302772,0.0,0.0,0.0
146,1778658348.9792094,-0.10683641,0.6261905,0.30302772,0.0,0.0,0.0
147,1778658348.9892104,-0.10683641,0.6261905,0.30302772,0.0,0.0,0.0
148,1778658348.999215,-0.10683641,0.6261905,0.30302772,0.0,0.0,0.0
149,1778658349.0092185,-0.10683641,0.6261905,0.30302772,0.0,0.0,0.0
150,1778658349.0192199,-0.10683641,0.6261905,0.30302772,0.0,0.0,0.0
151,1778658349.0292206,-0.15759948,0.516853,0.18978448,0.0,0.0,0.0
152,1778658349.0392213,-0.15759948,0.516853,0.18978448,0.0,0.0,0.0
153,1778658349.0492227,-0.15759948,0.516853,0.18978448,0.0,0.0,0.0
154,1778658349.059224,-0.15759948,0.516853,0.18978448,0.0,0.0,0.0
155,1778658349.0692244,-0.15759948,0.516853,0.18978448,0.0,0.0,0.0
156,1778658349.0792255,-0.15759948,0.516853,0.18978448,0.0,0.0,0.0
157,1778658349.0892272,-0.15759948,0.516853,0.18978448,0.0,0.0,0.0
158,1778658349.0992281,-0.15759948,0.516853,0.18978448,0.0,0.0,0.0
159,1778658349.10923,-0.15759948,0.516853,0.18978448,0.0,0.0,0.0
160,1778658349.119231,-0.15759948,0.516853,0.18978448,0.0,0.0,0.0
161,1778658349.1292315,-0.15759948,0.516853,0.18978448,0.0,0.0,0.0
162,1778658349.139233,-0.15759948,0.516853,0.18978448,0.0,0.0,0.0
163,1778658349.1492343,-0.15759948,0.516853,0.18978448,0.0,0.0,0.0
164,1778658349.1592348,-0.15759948,0.516853,0.18978448,0.0,0.0,0.0
165,1778658349.1692364,-0.20445843,0.4738997,0.13902141,0.0,0.0,0.0
166,1778658349.1792374,-0.20445843,0.4738997,0.13902141,0.0,0.0,0.0
167,1778658349.1892383,-0.20445843,0.4738997,0.13902141,0.0,0.0,0.0
168,1778658349.1992393,-0.20445843,0.4738997,0.13902141,0.0,0.0,0.0
169,1778658349.2092404,-0.20445843,0.4738997,0.13902141,0.0,0.0,0.0
170,1778658349.219241,-0.20445843,0.4738997,0.13902141,0.0,0.0,0.0
171,1778658349.2292433,-0.20445843,0.4738997,0.13902141,0.0,0.0,0.0
172,1778658349.2392445,-0.20445843,0.4738997,0.13902141,0.0,0.0,0.0
173,1778658349.2492483,-0.20445843,0.4738997,0.13902141,0.0,0.0,0.0
174,1778658349.25925,-0.20445843,0.4738997,0.13902141,0.0,0.0,0.0
175,1778658349.2692506,-0.20445843,0.4738997,0.13902141,0.0,0.0,0.0
176,1778658349.2792528,-0.23569773,0.4309449,0.09216246,0.0,0.0,0.0
177,1778658349.2892537,-0.23569773,0.4309449,0.09216246,0.0,0.0,0.0
178,1778658349.2992554,-0.23569773,0.4309449,0.09216246,0.0,0.0,0.0
179,1778658349.3092577,-0.16150518,0.35284665,-0.005461122,0.0,0.0,0.0
180,1778658349.319259,-0.16150518,0.35284665,-0.005461122,0.0,0.0,0.0
181,1778658349.3292596,-0.16150518,0.35284665,-0.005461122,0.0,0.0,0.0
182,1778658349.3392618,-0.16150518,0.35284665,-0.005461122,0.0,0.0,0.0
183,1778658349.3492632,-0.03654799,0.16541086,-0.11870435,0.0,0.0,0.0
184,1778658349.359264,-0.03654799,0.16541086,-0.11870435,0.0,0.0,0.0
185,1778658349.3692648,-0.03654799,0.16541086,-0.11870435,0.0,0.0,0.0
186,1778658349.3792663,-0.03654799,0.16541086,-0.11870435,0.0,0.0,0.0
187,1778658349.3892674,-0.03654799,0.16541086,-0.11870435,0.0,0.0,0.0
188,1778658349.399268,-0.03654799,0.16541086,-0.11870435,0.0,0.0,0.0
189,1778658349.409269,-0.03654799,0.16541086,-0.11870435,0.0,0.0,0.0
190,1778658349.41927,-0.03654799,0.16541086,-0.11870435,0.0,0.0,0.0
191,1778658349.4292705,-0.03654799,0.16541086,-0.11870435,0.0,0.0,0.0
192,1778658349.4392717,-0.03654799,0.16541086,-0.11870435,0.0,0.0,0.0
193,1778658349.4492724,-0.03654799,0.16541086,-0.11870435,0.0,0.0,0.0
194,1778658349.4592738,-0.03654799,0.16541086,-0.11870435,0.0,0.0,0.0
195,1778658349.4692755,0.04936008,0.11074209,-0.114798665,0.0,0.0,0.0
196,1778658349.4792767,0.04936008,0.11074209,-0.114798665,0.0,0.0,0.0
197,1778658349.4892783,0.04936008,0.11074209,-0.114798665,0.0,0.0,0.0
198,1778658349.4992793,0.04936008,0.11074209,-0.114798665,0.0,0.0,0.0
199,1778658349.50928,0.04936008,0.11074209,-0.114798665,0.0,0.0,0.0
200,1778658349.5192807,0.04936008,0.11074209,-0.114798665,0.0,0.0,0.0
201,1778658349.5292857,0.04936008,0.11074209,-0.114798665,0.0,0.0,0.0
202,1778658349.539288,0.04936008,0.11074209,-0.114798665,0.0,0.0,0.0
203,1778658349.549289,0.04936008,0.11074209,-0.114798665,0.0,0.0,0.0
204,1778658349.5592897,0.04936008,0.11074209,-0.114798665,0.0,0.0,0.0
205,1778658349.569291,0.04936008,0.11074209,-0.114798665,0.0,0.0,0.0
206,1778658349.579292,0.04936008,0.11074209,-0.114798665,0.0,0.0,0.0
207,1778658349.589293,0.04936008,0.11074209,-0.114798665,0.0,0.0,0.0
208,1778658349.599295,0.20946226,-0.20555657,0.02187404,0.0,0.0,0.0
209,1778658349.6092963,0.20946226,-0.20555657,0.02187404,0.0,0.0,0.0
210,1778658349.6192973,0.20946226,-0.20555657,0.02187404,0.0,0.0,0.0
211,1778658349.629298,0.20946226,-0.20555657,0.02187404,0.0,0.0,0.0
212,1778658349.6393003,0.20946226,-0.20555657,0.02187404,0.0,0.0,0.0
213,1778658349.6493013,0.20946226,-0.20555657,0.02187404,0.0,0.0,0.0
214,1778658349.659302,0.20946226,-0.20555657,0.02187404,0.0,0.0,0.0
215,1778658349.669303,0.20946226,-0.20555657,0.02187404,0.0,0.0,0.0
216,1778658349.679304,0.20946226,-0.20555657,0.02187404,0.0,0.0,0.0
217,1778658349.689305,0.20946226,-0.20555657,0.02187404,0.0,0.0,0.0
218,1778658349.6993055,0.20946226,-0.20555657,0.02187404,0.0,0.0,0.0
219,1778658349.709307,0.20946226,-0.20555657,0.02187404,0.0,0.0,0.0
220,1778658349.7193081,0.20946226,-0.20555657,0.02187404,0.0,0.0,0.0
221,1778658349.729309,0.20946226,-0.20555657,0.02187404,0.0,0.0,0.0
222,1778658349.7393103,0.20946226,-0.20555657,0.02187404,0.0,0.0,0.0
223,1778658349.749311,0.20946226,-0.20555657,0.02187404,0.0,0.0,0.0
224,1778658349.759312,0.17041314,-0.24460569,0.07654281,0.0,0.0,0.0
225,1778658349.769313,0.17041314,-0.24460569,0.07654281,0.0,0.0,0.0
226,1778658349.7793143,0.17041314,-0.24460569,0.07654281,0.0,0.0,0.0
227,1778658349.7893157,0.17041314,-0.24460569,0.07654281,0.0,0.0,0.0
228,1778658349.799317,0.17041314,-0.24460569,0.07654281,0.0,0.0,0.0
229,1778658349.8093185,0.17041314,-0.24460569,0.07654281,0.0,0.0,0.0
230,1778658349.8193202,0.17041314,-0.24460569,0.07654281,0.0,0.0,0.0
231,1778658349.8293211,0.17041314,-0.24460569,0.07654281,0.0,0.0,0.0
232,1778658349.8393223,0.17041314,-0.24460569,0.07654281,0.0,0.0,0.0
233,1778658349.8493288,0.17041314,-0.24460569,0.07654281,0.0,0.0,0.0
234,1778658349.8593323,0.17041314,-0.24460569,0.07654281,0.0,0.0,0.0
235,1778658349.8693337,0.17041314,-0.24460569,0.07654281,0.0,0.0,0.0
236,1778658349.879335,0.17041314,-0.24460569,0.07654281,0.0,0.0,0.0
237,1778658349.8893356,0.17041314,-0.24460569,0.07654281,0.0,0.0,0.0
238,1778658349.8993363,0.17041314,-0.24460569,0.07654281,0.0,0.0,0.0
239,1778658349.9093366,0.17041314,-0.24460569,0.07654281,0.0,0.0,0.0
240,1778658349.9193373,0.17041314,-0.24460569,0.07654281,0.0,0.0,0.0
241,1778658349.9293387,0.1938426,-0.22898604,0.033588,0.0,0.0,0.0
242,1778658349.9393399,0.1938426,-0.22898604,0.033588,0.0,0.0,0.0
243,1778658349.9493413,0.1938426,-0.22898604,0.033588,0.0,0.0,0.0
244,1778658349.9593446,0.28365636,-0.28755894,0.15073536,0.0,0.0,0.0
245,1778658349.9693456,0.28365636,-0.28755894,0.15073536,0.0,0.0,0.0
246,1778658349.9793465,0.28365636,-0.28755894,0.15073536,0.0,0.0,0.0
247,1778658349.9893482,0.28365636,-0.28755894,0.15073536,0.0,0.0,0.0
248,1778658349.9993489,0.28365636,-0.28755894,0.15073536,0.0,0.0,0.0
249,1778658350.0093496,0.28365636,-0.28755894,0.15073536,0.0,0.0,0.0
250,1778658350.0193503,0.28365636,-0.28755894,0.15073536,0.0,0.0,0.0
251,1778658350.029351,0.28365636,-0.28755894,0.15073536,0.0,0.0,0.0
252,1778658350.0393522,0.28365636,-0.28755894,0.15073536,0.0,0.0,0.0
253,1778658350.0493531,0.28365636,-0.28755894,0.15073536,0.0,0.0,0.0
254,1778658350.0593543,0.28365636,-0.28755894,0.15073536,0.0,0.0,0.0
255,1778658350.069355,0.33051533,-0.3070843,0.1702607,0.0,0.0,0.0
256,1778658350.0793557,0.33051533,-0.3070843,0.1702607,0.0,0.0,0.0
257,1778658350.0893571,0.33051533,-0.3070843,0.1702607,0.0,0.0,0.0
258,1778658350.0993586,0.33051533,-0.3070843,0.1702607,0.0,0.0,0.0
259,1778658350.10936,0.33051533,-0.3070843,0.1702607,0.0,0.0,0.0
260,1778658350.119361,0.33051533,-0.3070843,0.1702607,0.0,0.0,0.0
261,1778658350.1293623,0.33051533,-0.3070843,0.1702607,0.0,0.0,0.0
262,1778658350.139363,0.33051533,-0.3070843,0.1702607,0.0,0.0,0.0
263,1778658350.1493645,0.3890882,-0.33441788,0.1702607,0.0,0.0,0.0
264,1778658350.1593654,0.3890882,-0.33441788,0.1702607,0.0,0.0,0.0
265,1778658350.1693664,0.3890882,-0.33441788,0.1702607,0.0,0.0,0.0
266,1778658350.1793678,0.3890882,-0.33441788,0.1702607,0.0,0.0,0.0
267,1778658350.1893682,0.3890882,-0.33441788,0.1702607,0.0,0.0,0.0
268,1778658350.199369,0.3890882,-0.33441788,0.1702607,0.0,0.0,0.0
269,1778658350.2093735,0.3890882,-0.33441788,0.1702607,0.0,0.0,0.0
270,1778658350.2193756,0.3890882,-0.33441788,0.1702607,0.0,0.0,0.0
271,1778658350.2293766,0.3890882,-0.33441788,0.1702607,0.0,0.0,0.0
272,1778658350.2393787,0.3890882,-0.33441788,0.1702607,0.0,0.0,0.0
273,1778658350.2493804,0.3890882,-0.33441788,0.1702607,0.0,0.0,0.0
274,1778658350.259381,0.3890882,-0.33441788,0.1702607,0.0,0.0,0.0
275,1778658350.269382,0.3890882,-0.33441788,0.1702607,0.0,0.0,0.0
276,1778658350.2793832,0.3890882,-0.33441788,0.1702607,0.0,0.0,0.0
277,1778658350.2893841,0.3890882,-0.33441788,0.1702607,0.0,0.0,0.0
278,1778658350.299385,0.3890882,-0.33441788,0.1702607,0.0,0.0,0.0
279,1778658350.309387,0.3890882,-0.33441788,0.1702607,0.0,0.0,0.0
280,1778658350.3193882,0.3890882,-0.33441788,0.1702607,0.0,0.0,0.0
281,1778658350.3293886,0.3890882,-0.33441788,0.1702607,0.0,0.0,0.0
282,1778658350.33939,0.4867118,-0.35394323,0.16635501,0.0,0.0,0.0
283,1778658350.3493915,0.4867118,-0.35394323,0.16635501,0.0,0.0,0.0
284,1778658350.3593922,0.4867118,-0.35394323,0.16635501,0.0,0.0,0.0
285,1778658350.3693933,0.4867118,-0.35394323,0.16635501,0.0,0.0,0.0
286,1778658350.3793945,0.4867118,-0.35394323,0.16635501,0.0,0.0,0.0
287,1778658350.3893952,0.4867118,-0.35394323,0.16635501,0.0,0.0,0.0
288,1778658350.3993967,0.4867118,-0.35394323,0.16635501,0.0,0.0,0.0
289,1778658350.4093978,0.4867118,-0.35394323,0.16635501,0.0,0.0,0.0
290,1778658350.4194,0.4867118,-0.35394323,0.16635501,0.0,0.0,0.0
291,1778658350.4294016,0.4867118,-0.35394323,0.16635501,0.0,0.0,0.0
292,1778658350.4394028,0.4867118,-0.35394323,0.16635501,0.0,0.0,0.0
293,1778658350.4494033,0.4867118,-0.35394323,0.16635501,0.0,0.0,0.0
294,1778658350.459405,0.4867118,-0.35394323,0.16635501,0.0,0.0,0.0
295,1778658350.4694061,0.4867118,-0.35394323,0.16635501,0.0,0.0,0.0
296,1778658350.4794066,0.4867118,-0.35394323,0.16635501,0.0,0.0,0.0
297,1778658350.4894085,0.4867118,-0.35394323,0.16635501,0.0,0.0,0.0
298,1778658350.49941,0.4867118,-0.35394323,0.16635501,0.0,0.0,0.0
299,1778658350.509411,0.4867118,-0.35394323,0.16635501,0.0,0.0,0.0
300,1778658350.5194128,0.4867118,-0.35394323,0.16635501,0.0,0.0,0.0
301,1778658350.5294135,0.4867118,-0.35394323,0.16635501,0.0,0.0,0.0
302,1778658350.5394156,0.5374749,-0.36175305,0.17807053,0.0,0.0,0.0
303,1778658350.549417,0.5374749,-0.36175305,0.17807053,0.0,0.0,0.0
304,1778658350.5594184,0.5374749,-0.36175305,0.17807053,0.0,0.0,0.0
305,1778658350.5694206,0.5374749,-0.36175305,0.17807053,0.0,0.0,0.0
306,1778658350.5794215,0.5374749,-0.36175305,0.17807053,0.0,0.0,0.0
307,1778658350.589422,0.5374749,-0.36175305,0.17807053,0.0,0.0,0.0
308,1778658350.5994225,0.5374749,-0.36175305,0.17807053,0.0,0.0,0.0
309,1778658350.609426,0.5374749,-0.36175305,0.17807053,0.0,0.0,0.0
310,1778658350.619428,0.5374749,-0.36175305,0.17807053,0.0,0.0,0.0
311,1778658350.6294298,0.5374749,-0.36175305,0.17807053,0.0,0.0,0.0
312,1778658350.6394322,0.5374749,-0.36175305,0.17807053,0.0,0.0,0.0
313,1778658350.649434,0.5374749,-0.36175305,0.17807053,0.0,0.0,0.0
314,1778658350.6594353,0.5374749,-0.36175305,0.17807053,0.0,0.0,0.0
315,1778658350.6694365,0.5374749,-0.36175305,0.17807053,0.0,0.0,0.0
316,1778658350.6794386,0.5374749,-0.36175305,0.17807053,0.0,0.0,0.0
317,1778658350.6894398,0.5374749,-0.36175305,0.17807053,0.0,0.0,0.0
318,1778658350.6994407,0.5374749,-0.36175305,0.17807053,0.0,0.0,0.0
319,1778658350.709442,0.5374749,-0.36175305,0.17807053,0.0,0.0,0.0
320,1778658350.719443,0.69367135,-0.49452007,0.22102378,0.0,0.0,0.0
321,1778658350.7294445,0.69367135,-0.49452007,0.22102378,0.0,0.0,0.0
322,1778658350.7394454,0.69367135,-0.49452007,0.22102378,0.0,0.0,0.0
323,1778658350.7494464,0.69367135,-0.49452007,0.22102378,0.0,0.0,0.0
324,1778658350.7594478,0.69367135,-0.49452007,0.22102378,0.0,0.0,0.0
325,1778658350.7694488,0.69367135,-0.49452007,0.22102378,0.0,0.0,0.0
326,1778658350.779451,0.69367135,-0.49452007,0.22102378,0.0,0.0,0.0
327,1778658350.7894523,0.69367135,-0.49452007,0.22102378,0.0,0.0,0.0
328,1778658350.799453,0.69367135,-0.49452007,0.22102378,0.0,0.0,0.0
329,1778658350.8094547,0.69367135,-0.49452007,0.22102378,0.0,0.0,0.0
330,1778658350.8194563,0.72881633,-0.5687126,0.24835895,0.0,0.0,0.0
331,1778658350.8294575,0.72881633,-0.5687126,0.24835895,0.0,0.0,0.0
332,1778658350.8394587,0.72881633,-0.5687126,0.24835895,0.0,0.0,0.0
333,1778658350.8494594,0.72881633,-0.5687126,0.24835895,0.0,0.0,0.0
334,1778658350.8594604,0.72881633,-0.5687126,0.24835895,0.0,0.0,0.0
335,1778658350.8694615,0.72881633,-0.5687126,0.24835895,0.0,0.0,0.0
336,1778658350.879463,0.72881633,-0.5687126,0.24835895,0.0,0.0,0.0
337,1778658350.8894646,0.72881633,-0.5687126,0.24835895,0.0,0.0,0.0
338,1778658350.8994658,0.72881633,-0.5687126,0.24835895,0.0,0.0,0.0
339,1778658350.9094665,0.72881633,-0.5687126,0.24835895,0.0,0.0,0.0
340,1778658350.9194674,0.72881633,-0.5687126,0.24835895,0.0,0.0,0.0
341,1778658350.9294684,0.72881633,-0.5687126,0.24835895,0.0,0.0,0.0
342,1778658350.939469,0.72881633,-0.5687126,0.24835895,0.0,0.0,0.0
343,1778658350.9494708,0.72881633,-0.5687126,0.24835895,0.0,0.0,0.0
344,1778658350.9594722,0.72881633,-0.5687126,0.24835895,0.0,0.0,0.0
345,1778658350.9694731,0.72881633,-0.5687126,0.24835895,0.0,0.0,0.0
346,1778658350.9794745,0.72881633,-0.5687126,0.24835895,0.0,0.0,0.0
347,1778658350.9894755,0.72881633,-0.5687126,0.24835895,0.0,0.0,0.0
348,1778658350.999476,0.72881633,-0.5687126,0.24835895,0.0,0.0,0.0
349,1778658351.0094771,0.72881633,-0.5687126,0.24835895,0.0,0.0,0.0
350,1778658351.019478,0.72881633,-0.5687126,0.24835895,0.0,0.0,0.0
351,1778658351.029479,0.72881633,-0.5687126,0.24835895,0.0,0.0,0.0
352,1778658351.0394795,0.72881633,-0.5687126,0.24835895,0.0,0.0,0.0
353,1778658351.0494826,0.72881633,-0.5687126,0.24835895,0.0,0.0,0.0
354,1778658351.0594845,0.72881633,-0.5687126,0.24835895,0.0,0.0,0.0
355,1778658351.0694854,0.72881633,-0.5687126,0.24835895,0.0,0.0,0.0
356,1778658351.0794861,0.72881633,-0.5687126,0.24835895,0.0,0.0,0.0
357,1778658351.0894878,0.72881633,-0.5687126,0.24835895,0.0,0.0,0.0
358,1778658351.099489,0.72881633,-0.5687126,0.24835895,0.0,0.0,0.0
359,1778658351.1094906,0.842058,-0.853772,0.34988666,0.0,0.0,0.0
360,1778658351.1194916,0.842058,-0.853772,0.34988666,0.0,0.0,0.0
361,1778658351.129492,0.842058,-0.853772,0.34988666,0.0,0.0,0.0
362,1778658351.139494,0.7249107,-1.3028376,0.2327393,0.0,0.0,0.0
363,1778658351.1494944,0.7249107,-1.3028376,0.2327393,0.0,0.0,0.0
364,1778658351.1594956,0.7249107,-1.3028376,0.2327393,0.0,0.0,0.0
365,1778658351.169497,0.7249107,-1.3028376,0.2327393,0.0,0.0,0.0
366,1778658351.1794977,0.7249107,-1.3028376,0.2327393,0.0,0.0,0.0
367,1778658351.1894987,0.7249107,-1.3028376,0.2327393,0.0,0.0,0.0
368,1778658351.1994998,0.7249107,-1.3028376,0.2327393,0.0,0.0,0.0
369,1778658351.2095008,0.7249107,-1.3028376,0.2327393,0.0,0.0,0.0
370,1778658351.2195017,0.7249107,-1.3028376,0.2327393,0.0,0.0,0.0
371,1778658351.2295027,0.7249107,-1.3028376,0.2327393,0.0,0.0,0.0
372,1778658351.2395039,0.7249107,-1.3028376,0.2327393,0.0,0.0,0.0
373,1778658351.2495053,0.7249107,-1.3028376,0.2327393,0.0,0.0,0.0
374,1778658351.259506,0.7249107,-1.3028376,0.2327393,0.0,0.0,0.0
375,1778658351.2695072,0.7249107,-1.3028376,0.2327393,0.0,0.0,0.0
376,1778658351.2795079,0.7249107,-1.3028376,0.2327393,0.0,0.0,0.0
377,1778658351.2895083,0.7249107,-1.3028376,0.2327393,0.0,0.0,0.0
378,1778658351.2995093,0.7210065,-1.8104762,-0.040606108,0.0,0.0,0.0
379,1778658351.3095102,0.7210065,-1.8104762,-0.040606108,0.0,0.0,0.0
380,1778658351.3195107,0.7210065,-1.8104762,-0.040606108,0.0,0.0,0.0
381,1778658351.3295114,0.7249107,-1.3028376,0.2327393,0.0,0.0,0.0
382,1778658351.339512,0.7249107,-1.3028376,0.2327393,0.0,0.0,0.0
383,1778658351.3495133,0.7249107,-1.3028376,0.2327393,0.0,0.0,0.0
384,1778658351.3595147,0.9748266,-2.4235482,-0.2241362,0.0,0.0,0.0
385,1778658351.3695152,0.9748266,-2.4235482,-0.2241362,0.0,0.0,0.0
386,1778658351.379516,0.9748266,-2.4235482,-0.2241362,0.0,0.0,0.0
387,1778658351.389517,0.9748266,-2.4235482,-0.2241362,0.0,0.0,0.0
388,1778658351.3995187,0.9748266,-2.4235482,-0.2241362,0.0,0.0,0.0
389,1778658351.40952,0.9748266,-2.4235482,-0.2241362,0.0,0.0,0.0
390,1778658351.4195213,0.9748266,-2.4235482,-0.2241362,0.0,0.0,0.0
391,1778658351.4295223,0.9748266,-2.4235482,-0.2241362,0.0,0.0,0.0
392,1778658351.4395232,0.9748266,-2.4235482,-0.2241362,0.0,0.0,0.0
393,1778658351.4495242,0.9748266,-2.4235482,-0.2241362,0.0,0.0,0.0
394,1778658351.4595275,0.9748266,-2.4235482,-0.2241362,0.0,0.0,0.0
395,1778658351.4695508,0.9748266,-2.4235482,-0.2241362,0.0,0.0,0.0
396,1778658351.4795518,0.9748266,-2.4235482,-0.2241362,0.0,0.0,0.0
397,1778658351.489553,0.9748266,-2.4235482,-0.2241362,0.0,0.0,0.0
398,1778658351.499556,0.9748266,-2.4235482,-0.2241362,0.0,0.0,0.0
399,1778658351.5095577,0.9748266,-2.4235482,-0.2241362,0.0,0.0,0.0
400,1778658351.519559,0.9748266,-2.4235482,-0.2241362,0.0,0.0,0.0
401,1778658351.5295618,0.9748266,-2.4235482,-0.2241362,0.0,0.0,0.0
402,1778658351.5395668,0.9748266,-2.4235482,-0.2241362,0.0,0.0,0.0
403,1778658351.549568,0.9748266,-2.4235482,-0.2241362,0.0,0.0,0.0
404,1778658351.5595684,0.9748266,-2.4235482,-0.2241362,0.0,0.0,0.0
405,1778658351.5695698,1.4629399,-3.536449,-0.044510245,0.0,0.0,0.0
406,1778658351.5795712,1.4629399,-3.536449,-0.044510245,0.0,0.0,0.0
407,1778658351.5895722,1.4629399,-3.536449,-0.044510245,0.0,0.0,0.0
408,1778658351.5995736,1.4629399,-3.536449,-0.044510245,0.0,0.0,0.0
409,1778658351.6095748,1.310649,-3.7707436,0.017968351,0.0,0.0,0.0
410,1778658351.6195793,1.310649,-3.7707436,0.017968351,0.0,0.0,0.0
411,1778658351.6295803,1.310649,-3.7707436,0.017968351,0.0,0.0,0.0
412,1778658351.639581,1.310649,-3.7707436,0.017968351,0.0,0.0,0.0
413,1778658351.649582,1.310649,-3.7707436,0.017968351,0.0,0.0,0.0
414,1778658351.659583,1.310649,-3.7707436,0.017968351,0.0,0.0,0.0
415,1778658351.669584,1.310649,-3.7707436,0.017968351,0.0,0.0,0.0
416,1778658351.6795852,1.310649,-3.7707436,0.017968351,0.0,0.0,0.0
417,1778658351.6895862,1.310649,-3.7707436,0.017968351,0.0,0.0,0.0
418,1778658351.6995876,1.310649,-3.7707436,0.017968351,0.0,0.0,0.0
419,1778658351.7095885,1.310649,-3.7707436,0.017968351,0.0,0.0,0.0
420,1778658351.71959,1.310649,-3.7707436,0.017968351,0.0,0.0,0.0
421,1778658351.7295911,1.310649,-3.7707436,0.017968351,0.0,0.0,0.0
422,1778658351.739592,1.310649,-3.7707436,0.017968351,0.0,0.0,0.0
423,1778658351.749593,1.310649,-3.7707436,0.017968351,0.0,0.0,0.0
424,1778658351.759594,1.310649,-3.7707436,0.017968351,0.0,0.0,0.0
425,1778658351.769595,1.310649,-3.7707436,0.017968351,0.0,0.0,0.0
426,1778658351.7795956,1.310649,-3.7707436,0.017968351,0.0,0.0,0.0
427,1778658351.7895973,1.310649,-3.7707436,0.017968351,0.0,0.0,0.0
428,1778658351.7995987,1.310649,-3.7707436,0.017968351,0.0,0.0,0.0
429,1778658351.8095994,1.310649,-3.7707436,0.017968351,0.0,0.0,0.0
430,1778658351.8196006,1.310649,-3.7707436,0.017968351,0.0,0.0,0.0
431,1778658351.8296018,1.310649,-3.7707436,0.017968351,0.0,0.0,0.0
432,1778658351.8396022,1.310649,-3.7707436,0.017968351,0.0,0.0,0.0
433,1778658351.8496034,1.310649,-3.7707436,0.017968351,0.0,0.0,0.0
434,1778658351.8596041,1.310649,-3.7707436,0.017968351,0.0,0.0,0.0
435,1778658351.8696055,1.310649,-3.7707436,0.017968351,0.0,0.0,0.0
436,1778658351.879607,1.310649,-3.7707436,0.017968351,0.0,0.0,0.0
437,1778658351.8896074,1.310649,-3.7707436,0.017968351,0.0,0.0,0.0
438,1778658351.8996084,1.310649,-3.7707436,0.017968351,0.0,0.0,0.0
439,1778658351.9096096,1.310649,-3.7707436,0.017968351,0.0,0.0,0.0
440,1778658351.91961,1.310649,-3.7707436,0.017968351,0.0,0.0,0.0
441,1778658351.929611,1.310649,-3.7707436,0.017968351,0.0,0.0,0.0
442,1778658351.9396398,1.310649,-3.7707436,0.017968351,0.0,0.0,0.0
443,1778658351.9496422,1.310649,-3.7707436,0.017968351,0.0,0.0,0.0
444,1778658351.9596434,1.310649,-3.7707436,0.017968351,0.0,0.0,0.0
445,1778658351.9696443,1.310649,-3.7707436,0.017968351,0.0,0.0,0.0
446,1778658351.979645,1.310649,-3.7707436,0.017968351,0.0,0.0,0.0
447,1778658351.9896464,1.310649,-3.7707436,0.017968351,0.0,0.0,0.0
448,1778658351.9996474,1.310649,-3.7707436,0.017968351,0.0,0.0,0.0
449,1778658352.009648,1.310649,-3.7707436,0.017968351,0.0,0.0,0.0
450,1778658352.0196493,1.310649,-3.7707436,0.017968351,0.0,0.0,0.0
451,1778658352.02965,1.310649,-3.7707436,0.017968351,0.0,0.0,0.0
452,1778658352.0396507,1.310649,-3.7707436,0.017968351,0.0,0.0,0.0
453,1778658352.0496523,1.310649,-3.7707436,0.017968351,0.0,0.0,0.0
454,1778658352.0596535,1.310649,-3.7707436,0.017968351,0.0,0.0,0.0
455,1778658352.0696547,1.310649,-3.7707436,0.017968351,0.0,0.0,0.0
456,1778658352.0796554,1.310649,-3.7707436,0.017968351,0.0,0.0,0.0
457,1778658352.089658,1.310649,-3.7707436,0.017968351,0.0,0.0,0.0
458,1778658352.0996604,1.310649,-3.7707436,0.017968351,0.0,0.0,0.0
459,1778658352.1096609,1.310649,-3.7707436,0.017968351,0.0,0.0,0.0
460,1778658352.119663,1.310649,-3.7707436,0.017968351,0.0,0.0,0.0
461,1778658352.1296654,1.0138757,-3.2865345,1.2909713,0.0,0.0,0.0
462,1778658352.1396668,1.0138757,-3.2865345,1.2909713,0.0,0.0,0.0
463,1778658352.1496677,1.0138757,-3.2865345,1.2909713,0.0,0.0,0.0
464,1778658352.159669,1.0138757,-3.2865345,1.2909713,0.0,0.0,0.0
465,1778658352.1696703,1.0138757,-3.2865345,1.2909713,0.0,0.0,0.0
466,1778658352.1796713,1.0138757,-3.2865345,1.2909713,0.0,0.0,0.0
467,1778658352.1896734,1.0138757,-3.2865345,1.2909713,0.0,0.0,0.0
468,1778658352.1996746,1.0138757,-3.2865345,1.2909713,0.0,0.0,0.0
469,1778658352.2096753,0.9826364,-3.1147184,1.4081186,0.0,0.0,0.0
470,1778658352.2196765,0.9826364,-3.1147184,1.4081186,0.0,0.0,0.0
471,1778658352.2296777,0.9826364,-3.1147184,1.4081186,0.0,0.0,0.0
472,1778658352.23968,0.9826364,-3.1147184,1.4081186,0.0,0.0,0.0
473,1778658352.249681,0.9826364,-3.1147184,1.4081186,0.0,0.0,0.0
474,1778658352.2596815,0.9826364,-3.1147184,1.4081186,0.0,0.0,0.0
475,1778658352.2696826,0.9826364,-3.1147184,1.4081186,0.0,0.0,0.0
476,1778658352.279683,0.9826364,-3.1147184,1.4081186,0.0,0.0,0.0
477,1778658352.2896845,0.9826364,-3.1147184,1.4081186,0.0,0.0,0.0
478,1778658352.299686,0.9826364,-3.1147184,1.4081186,0.0,0.0,0.0
479,1778658352.3096874,0.9826364,-3.1147184,1.4081186,0.0,0.0,0.0
480,1778658352.3196895,0.9826364,-3.1147184,1.4081186,0.0,0.0,0.0
481,1778658352.3296907,0.9826364,-3.1147184,1.4081186,0.0,0.0,0.0
482,1778658352.3396916,0.9826364,-3.1147184,1.4081186,0.0,0.0,0.0
483,1778658352.3496933,0.9826364,-3.1147184,1.4081186,0.0,0.0,0.0
484,1778658352.359694,0.9826364,-3.1147184,1.4081186,0.0,0.0,0.0
485,1778658352.3696947,0.9826364,-3.1147184,1.4081186,0.0,0.0,0.0
486,1778658352.379696,0.9826364,-3.1147184,1.4081186,0.0,0.0,0.0
487,1778658352.3896966,0.9826364,-3.1147184,1.4081186,0.0,0.0,0.0
488,1778658352.3996983,0.9826364,-3.1147184,1.4081186,0.0,0.0,0.0
489,1778658352.4096994,0.9826364,-3.1147184,1.4081186,0.0,0.0,0.0
490,1778658352.4197006,0.9826364,-3.1147184,1.4081186,0.0,0.0,0.0
491,1778658352.429702,0.82253426,-2.825755,1.0332471,0.0,0.0,0.0
492,1778658352.439703,0.82253426,-2.825755,1.0332471,0.0,0.0,0.0
493,1778658352.4497037,0.82253426,-2.825755,1.0332471,0.0,0.0,0.0
494,1778658352.459705,0.82253426,-2.825755,1.0332471,0.0,0.0,0.0
495,1778658352.469706,0.82253426,-2.825755,1.0332471,0.0,0.0,0.0
496,1778658352.4797075,0.82253426,-2.825755,1.0332471,0.0,0.0,0.0
497,1778658352.4897113,0.82253426,-2.825755,1.0332471,0.0,0.0,0.0
498,1778658352.4997132,0.82253426,-2.825755,1.0332471,0.0,0.0,0.0
499,1778658352.509714,0.82253426,-2.825755,1.0332471,0.0,0.0,0.0
500,1778658352.5197158,0.82253426,-2.825755,1.0332471,0.0,0.0,0.0
501,1778658352.529717,0.82253426,-2.825755,1.0332471,0.0,0.0,0.0
502,1778658352.5397182,0.82253426,-2.825755,1.0332471,0.0,0.0,0.0
503,1778658352.5497186,0.82253426,-2.825755,1.0332471,0.0,0.0,0.0
504,1778658352.55972,0.82253426,-2.825755,1.0332471,0.0,0.0,0.0
505,1778658352.5697215,0.82253426,-2.825755,1.0332471,0.0,0.0,0.0
506,1778658352.5797288,0.82253426,-2.825755,1.0332471,0.0,0.0,0.0
507,1778658352.5897293,0.82253426,-2.825755,1.0332471,0.0,0.0,0.0
508,1778658352.599731,0.9748266,-2.564125,0.5099873,0.0,0.0,0.0
509,1778658352.6097317,0.9748266,-2.564125,0.5099873,0.0,0.0,0.0
510,1778658352.6197324,0.9748266,-2.564125,0.5099873,0.0,0.0,0.0
511,1778658352.6297338,1.2598844,-2.872614,0.27178842,0.0,0.0,0.0
512,1778658352.6397345,1.2598844,-2.872614,0.27178842,0.0,0.0,0.0
513,1778658352.6497355,1.2598844,-2.872614,0.27178842,0.0,0.0,0.0
514,1778658352.6597364,1.2598844,-2.872614,0.27178842,0.0,0.0,0.0
515,1778658352.669738,1.2598844,-2.872614,0.27178842,0.0,0.0,0.0
516,1778658352.679739,1.2598844,-2.872614,0.27178842,0.0,0.0,0.0
517,1778658352.6897397,1.2598844,-2.872614,0.27178842,0.0,0.0,0.0
518,1778658352.6997411,1.2598844,-2.872614,0.27178842,0.0,0.0,0.0
519,1778658352.7097428,1.2598844,-2.872614,0.27178842,0.0,0.0,0.0
520,1778658352.7197435,1.2598844,-2.872614,0.27178842,0.0,0.0,0.0
521,1778658352.7297466,1.2598844,-2.872614,0.27178842,0.0,0.0,0.0
522,1778658352.7397497,1.2598844,-2.872614,0.27178842,0.0,0.0,0.0
523,1778658352.7497513,1.2598844,-2.872614,0.27178842,0.0,0.0,0.0
524,1778658352.7597528,1.2598844,-2.872614,0.27178842,0.0,0.0,0.0
525,1778658352.7697544,1.2598844,-2.872614,0.27178842,0.0,0.0,0.0
526,1778658352.7797554,1.2598844,-2.872614,0.27178842,0.0,0.0,0.0
527,1778658352.7897563,1.2598844,-2.872614,0.27178842,0.0,0.0,0.0
528,1778658352.7997572,1.2598844,-2.872614,0.27178842,0.0,0.0,0.0
529,1778658352.8097587,1.2598844,-2.872614,0.27178842,0.0,0.0,0.0
530,1778658352.81976,1.1739763,-3.0170949,0.47093818,0.0,0.0,0.0
531,1778658352.829761,1.1739763,-3.0170949,0.47093818,0.0,0.0,0.0
532,1778658352.839762,1.1739763,-3.0170949,0.47093818,0.0,0.0,0.0
533,1778658352.8497643,1.1739763,-3.0170949,0.47093818,0.0,0.0,0.0
534,1778658352.8597658,1.1739763,-3.0170949,0.47093818,0.0,0.0,0.0
535,1778658352.8697667,1.1739763,-3.0170949,0.47093818,0.0,0.0,0.0
536,1778658352.8797684,1.1739763,-3.0170949,0.47093818,0.0,0.0,0.0
537,1778658352.8897696,1.1739763,-3.0170949,0.47093818,0.0,0.0,0.0
538,1778658352.8997707,1.1739763,-3.0170949,0.47093818,0.0,0.0,0.0
539,1778658352.9097714,1.1739763,-3.0170949,0.47093818,0.0,0.0,0.0
540,1778658352.9197726,1.1739763,-3.0170949,0.47093818,0.0,0.0,0.0
541,1778658352.9297745,1.1739763,-3.0170949,0.47093818,0.0,0.0,0.0
542,1778658352.9397757,1.1739763,-3.0170949,0.47093818,0.0,0.0,0.0
543,1778658352.949777,1.1739763,-3.0170949,0.47093818,0.0,0.0,0.0
544,1778658352.9597774,1.1739763,-3.0170949,0.47093818,0.0,0.0,0.0
545,1778658352.9697785,1.1739763,-3.0170949,0.47093818,0.0,0.0,0.0
546,1778658352.9797795,1.1739763,-3.0170949,0.47093818,0.0,0.0,0.0
547,1778658352.98978,1.1739763,-3.0170949,0.47093818,0.0,0.0,0.0
548,1778658352.999781,0.99044627,-2.7671804,0.3264572,0.0,0.0,0.0
549,1778658353.0097833,0.99044627,-2.7671804,0.3264572,0.0,0.0,0.0
550,1778658353.0197852,0.99044627,-2.7671804,0.3264572,0.0,0.0,0.0
551,1778658353.0297866,0.99044627,-2.7671804,0.3264572,0.0,0.0,0.0
552,1778658353.0397875,0.99044627,-2.7671804,0.3264572,0.0,0.0,0.0
553,1778658353.0497887,0.99044627,-2.7671804,0.3264572,0.0,0.0,0.0
554,1778658353.0597928,0.99044627,-2.7671804,0.3264572,0.0,0.0,0.0
555,1778658353.0697954,0.99044627,-2.7671804,0.3264572,0.0,0.0,0.0
556,1778658353.0797975,0.99044627,-2.7671804,0.3264572,0.0,0.0,0.0
557,1778658353.0898004,0.99044627,-2.7671804,0.3264572,0.0,0.0,0.0
558,1778658353.0998044,0.99044627,-2.7671804,0.3264572,0.0,0.0,0.0
559,1778658353.1098077,0.99044627,-2.7671804,0.3264572,0.0,0.0,0.0
560,1778658353.119811,1.1739763,-3.0170949,0.47093818,0.0,0.0,0.0
561,1778658353.129815,1.1739763,-3.0170949,0.47093818,0.0,0.0,0.0
562,1778658353.1398191,1.1739763,-3.0170949,0.47093818,0.0,0.0,0.0
563,1778658353.1498218,0.9631111,-2.5953643,0.23664343,0.0,0.0,0.0
564,1778658353.1598246,0.9631111,-2.5953643,0.23664343,0.0,0.0,0.0
565,1778658353.169827,0.9631111,-2.5953643,0.23664343,0.0,0.0,0.0
566,1778658353.17983,0.9631111,-2.5953643,0.23664343,0.0,0.0,0.0
567,1778658353.1898339,0.9631111,-2.5953643,0.23664343,0.0,0.0,0.0
568,1778658353.1998377,0.9631111,-2.5953643,0.23664343,0.0,0.0,0.0
569,1778658353.2098405,0.9631111,-2.5953643,0.23664343,0.0,0.0,0.0
570,1778658353.219844,0.9631111,-2.5953643,0.23664343,0.0,0.0,0.0
571,1778658353.2298467,0.9631111,-2.5953643,0.23664343,0.0,0.0,0.0
572,1778658353.2398477,0.9631111,-2.5953643,0.23664343,0.0,0.0,0.0
573,1778658353.2498517,0.9631111,-2.5953643,0.23664343,0.0,0.0,0.0
574,1778658353.2598548,0.9631111,-2.5953643,0.23664343,0.0,0.0,0.0
575,1778658353.2698562,0.9631111,-2.5953643,0.23664343,0.0,0.0,0.0
576,1778658353.2798598,0.9631111,-2.5953643,0.23664343,0.0,0.0,0.0
577,1778658353.2898617,0.9631111,-2.5953643,0.23664343,0.0,0.0,0.0
578,1778658353.2998626,0.9631111,-2.5953643,0.23664343,0.0,0.0,0.0
579,1778658353.3098655,0.9631111,-2.5953643,0.23664343,0.0,0.0,0.0
580,1778658353.3198702,0.9631111,-2.5953643,0.23664343,0.0,0.0,0.0
581,1778658353.3298721,0.9631111,-2.5953643,0.23664343,0.0,0.0,0.0
582,1778658353.3398733,0.9631111,-2.5953643,0.23664343,0.0,0.0,0.0
583,1778658353.3498747,0.9631111,-2.5953643,0.23664343,0.0,0.0,0.0
584,1778658353.3598778,0.9631111,-2.5953643,0.23664343,0.0,0.0,0.0
585,1778658353.3698807,0.8576777,-2.2400167,0.0648273,0.0,0.0,0.0
586,1778658353.379883,0.8576777,-2.2400167,0.0648273,0.0,0.0,0.0
587,1778658353.3898845,0.8576777,-2.2400167,0.0648273,0.0,0.0,0.0
588,1778658353.3998861,0.8576777,-2.2400167,0.0648273,0.0,0.0,0.0
589,1778658353.4098868,0.8576777,-2.2400167,0.0648273,0.0,0.0,0.0
590,1778658353.4198875,0.8576777,-2.2400167,0.0648273,0.0,0.0,0.0
591,1778658353.4298897,0.8576777,-2.2400167,0.0648273,0.0,0.0,0.0
592,1778658353.4398909,0.8576777,-2.2400167,0.0648273,0.0,0.0,0.0
593,1778658353.4498944,0.8576777,-2.2400167,0.0648273,0.0,0.0,0.0
594,1778658353.4598966,0.8576777,-2.2400167,0.0648273,0.0,0.0,0.0
595,1778658353.4698975,0.8576777,-2.2400167,0.0648273,0.0,0.0,0.0
596,1778658353.4798992,0.8576777,-2.2400167,0.0648273,0.0,0.0,0.0
597,1778658353.4899013,0.82253426,-2.0564864,0.010158527,0.0,0.0,0.0
598,1778658353.4999027,0.82253426,-2.0564864,0.010158527,0.0,0.0,0.0
599,1778658353.509904,0.82253426,-2.0564864,0.010158527,0.0,0.0,0.0
600,1778658353.5199049,0.82253426,-2.0564864,0.010158527,0.0,0.0,0.0
601,1778658353.5299065,0.82253426,-2.0564864,0.010158527,0.0,0.0,0.0
602,1778658353.5399082,0.82253426,-2.0564864,0.010158527,0.0,0.0,0.0
603,1778658353.5499096,0.82253426,-2.0564864,0.010158527,0.0,0.0,0.0
604,1778658353.559911,0.82253426,-2.0564864,0.010158527,0.0,0.0,0.0
605,1778658353.569913,0.82253426,-2.0564864,0.010158527,0.0,0.0,0.0
606,1778658353.5799148,0.82253426,-2.0564864,0.010158527,0.0,0.0,0.0
607,1778658353.5899172,0.82253426,-2.0564864,0.010158527,0.0,0.0,0.0
608,1778658353.5999186,0.82253426,-2.0564864,0.010158527,0.0,0.0,0.0
609,1778658353.6099198,0.82253426,-2.0564864,0.010158527,0.0,0.0,0.0
610,1778658353.6199214,0.7756753,-1.8729548,-0.017176636,0.0,0.0,0.0
611,1778658353.6299222,0.7756753,-1.8729548,-0.017176636,0.0,0.0,0.0
612,1778658353.6399238,0.7756753,-1.8729548,-0.017176636,0.0,0.0,0.0
613,1778658353.6499257,0.7756753,-1.8729548,-0.017176636,0.0,0.0,0.0
614,1778658353.6599264,0.7756753,-1.8729548,-0.017176636,0.0,0.0,0.0
615,1778658353.6699276,0.7756753,-1.8729548,-0.017176636,0.0,0.0,0.0
616,1778658353.6799285,0.7756753,-1.8729548,-0.017176636,0.0,0.0,0.0
617,1778658353.689929,0.7756753,-1.8729548,-0.017176636,0.0,0.0,0.0
618,1778658353.6999302,0.7756753,-1.8729548,-0.017176636,0.0,0.0,0.0
619,1778658353.7099319,0.7756753,-1.8729548,-0.017176636,0.0,0.0,0.0
620,1778658353.7199326,0.7756753,-1.8729548,-0.017176636,0.0,0.0,0.0
621,1778658353.7299345,0.7756753,-1.8729548,-0.017176636,0.0,0.0,0.0
622,1778658353.7399356,0.7756753,-1.8729548,-0.017176636,0.0,0.0,0.0
623,1778658353.7499363,0.7756753,-1.8729548,-0.017176636,0.0,0.0,0.0
624,1778658353.7599382,0.7756753,-1.8729548,-0.017176636,0.0,0.0,0.0
625,1778658353.7699394,0.7756753,-1.8729548,-0.017176636,0.0,0.0,0.0
626,1778658353.779941,0.7756753,-1.8729548,-0.017176636,0.0,0.0,0.0
627,1778658353.7899418,0.7756753,-1.8729548,-0.017176636,0.0,0.0,0.0
628,1778658353.7999427,0.7756753,-1.8729548,-0.017176636,0.0,0.0,0.0
629,1778658353.809944,0.7756753,-1.8729548,-0.017176636,0.0,0.0,0.0
630,1778658353.8199446,0.7756753,-1.8729548,-0.017176636,0.0,0.0,0.0
631,1778658353.829945,0.7756753,-1.8729548,-0.017176636,0.0,0.0,0.0
632,1778658353.8399463,0.6624321,-1.552752,-0.048415933,0.0,0.0,0.0
633,1778658353.8499472,0.6624321,-1.552752,-0.048415933,0.0,0.0,0.0
634,1778658353.8599484,0.6624321,-1.552752,-0.048415933,0.0,0.0,0.0
635,1778658353.8699496,0.6624321,-1.552752,-0.048415933,0.0,0.0,0.0
636,1778658353.879951,0.6624321,-1.552752,-0.048415933,0.0,0.0,0.0
637,1778658353.889952,0.7756753,-1.8729548,-0.017176636,0.0,0.0,0.0
638,1778658353.8999534,0.7756753,-1.8729548,-0.017176636,0.0,0.0,0.0
639,1778658353.9099538,0.7756753,-1.8729548,-0.017176636,0.0,0.0,0.0
640,1778658353.919955,0.7756753,-1.8729548,-0.017176636,0.0,0.0,0.0
641,1778658353.9299562,0.7756753,-1.8729548,-0.017176636,0.0,0.0,0.0
642,1778658353.9399593,0.7756753,-1.8729548,-0.017176636,0.0,0.0,0.0
643,1778658353.949962,0.7756753,-1.8729548,-0.017176636,0.0,0.0,0.0
644,1778658353.9599633,0.7756753,-1.8729548,-0.017176636,0.0,0.0,0.0
645,1778658353.9699652,0.7756753,-1.8729548,-0.017176636,0.0,0.0,0.0
646,1778658353.979968,0.7756753,-1.8729548,-0.017176636,0.0,0.0,0.0
647,1778658353.9899695,0.7756753,-1.8729548,-0.017176636,0.0,0.0,0.0
648,1778658353.9999719,0.7756753,-1.8729548,-0.017176636,0.0,0.0,0.0
649,1778658354.009975,0.7756753,-1.8729548,-0.017176636,0.0,0.0,0.0
650,1778658354.019978,0.7756753,-1.8729548,-0.017176636,0.0,0.0,0.0
651,1778658354.0299804,0.7756753,-1.8729548,-0.017176636,0.0,0.0,0.0
652,1778658354.0399816,0.7756753,-1.8729548,-0.017176636,0.0,0.0,0.0
653,1778658354.0499842,0.57261986,-1.2755024,-0.017176636,0.0,0.0,0.0
654,1778658354.0599878,0.57261986,-1.2755024,-0.017176636,0.0,0.0,0.0
655,1778658354.0699914,0.57261986,-1.2755024,-0.017176636,0.0,0.0,0.0
656,1778658354.0799942,0.57261986,-1.2755024,-0.017176636,0.0,0.0,0.0
657,1778658354.0899959,0.57261986,-1.2755024,-0.017176636,0.0,0.0,0.0
658,1778658354.0999966,0.57261986,-1.2755024,-0.017176636,0.0,0.0,0.0
659,1778658354.109998,0.57261986,-1.2755024,-0.017176636,0.0,0.0,0.0
660,1778658354.119999,0.57261986,-1.2755024,-0.017176636,0.0,0.0,0.0
661,1778658354.1299996,0.57261986,-1.2755024,-0.017176636,0.0,0.0,0.0
662,1778658354.140002,0.57261986,-1.2755024,-0.017176636,0.0,0.0,0.0
663,1778658354.1500037,0.57261986,-1.2755024,-0.017176636,0.0,0.0,0.0
664,1778658354.1600063,0.57261986,-1.2755024,-0.017176636,0.0,0.0,0.0
665,1778658354.1700084,0.57261986,-1.2755024,-0.017176636,0.0,0.0,0.0
666,1778658354.180011,0.57261986,-1.2755024,-0.017176636,0.0,0.0,0.0
667,1778658354.1900144,0.443757,-0.9318702,0.03749369,0.0,0.0,0.0
668,1778658354.2000165,0.443757,-0.9318702,0.03749369,0.0,0.0,0.0
669,1778658354.2100172,0.443757,-0.9318702,0.03749369,0.0,0.0,0.0
670,1778658354.220019,0.443757,-0.9318702,0.03749369,0.0,0.0,0.0
671,1778658354.23002,0.443757,-0.9318702,0.03749369,0.0,0.0,0.0
672,1778658354.2400208,0.443757,-0.9318702,0.03749369,0.0,0.0,0.0
673,1778658354.2500274,0.3890882,-0.8498663,0.068732984,0.0,0.0,0.0
674,1778658354.2600305,0.3890882,-0.8498663,0.068732984,0.0,0.0,0.0
675,1778658354.2700334,0.3890882,-0.8498663,0.068732984,0.0,0.0,0.0
676,1778658354.280035,0.3890882,-0.8498663,0.068732984,0.0,0.0,0.0
677,1778658354.2900362,0.3890882,-0.8498663,0.068732984,0.0,0.0,0.0
678,1778658354.3000371,0.3890882,-0.8498663,0.068732984,0.0,0.0,0.0
679,1778658354.3100388,0.3890882,-0.8498663,0.068732984,0.0,0.0,0.0
680,1778658354.3200397,0.3890882,-0.8498663,0.068732984,0.0,0.0,0.0
681,1778658354.3300407,0.3890882,-0.8498663,0.068732984,0.0,0.0,0.0
682,1778658354.3400416,0.3890882,-0.8498663,0.068732984,0.0,0.0,0.0
683,1778658354.3500428,0.3890882,-0.8498663,0.068732984,0.0,0.0,0.0
684,1778658354.360044,0.3890882,-0.8498663,0.068732984,0.0,0.0,0.0
685,1778658354.370045,0.3890882,-0.8498663,0.068732984,0.0,0.0,0.0
686,1778658354.3800461,0.3890882,-0.8498663,0.068732984,0.0,0.0,0.0
687,1778658354.3900473,0.3890882,-0.8498663,0.068732984,0.0,0.0,0.0
688,1778658354.400048,0.3890882,-0.8498663,0.068732984,0.0,0.0,0.0
689,1778658354.410051,0.13136402,-0.3773727,0.19759431,0.0,0.0,0.0
690,1778658354.4200525,0.13136402,-0.3773727,0.19759431,0.0,0.0,0.0
691,1778658354.430057,0.13136402,-0.3773727,0.19759431,0.0,0.0,0.0
692,1778658354.4400604,0.13136402,-0.3773727,0.19759431,0.0,0.0,0.0
693,1778658354.4500618,0.13136402,-0.3773727,0.19759431,0.0,0.0,0.0
694,1778658354.4600632,0.13136402,-0.3773727,0.19759431,0.0,0.0,0.0
695,1778658354.4700646,0.13136402,-0.3773727,0.19759431,0.0,0.0,0.0
696,1778658354.4800653,0.13136402,-0.3773727,0.19759431,0.0,0.0,0.0
697,1778658354.4900663,0.13136402,-0.3773727,0.19759431,0.0,0.0,0.0
698,1778658354.5000675,0.13136402,-0.3773727,0.19759431,0.0,0.0,0.0
699,1778658354.5100682,0.13136402,-0.3773727,0.19759431,0.0,0.0,0.0
700,1778658354.520069,0.13136402,-0.3773727,0.19759431,0.0,0.0,0.0
701,1778658354.5300696,0.13136402,-0.3773727,0.19759431,0.0,0.0,0.0
702,1778658354.540071,0.13136402,-0.3773727,0.19759431,0.0,0.0,0.0
703,1778658354.550073,0.13136402,-0.3773727,0.19759431,0.0,0.0,0.0
704,1778658354.560074,0.13136402,-0.3773727,0.19759431,0.0,0.0,0.0
705,1778658354.5700772,0.12355419,-0.22898604,0.26007292,0.0,0.0,0.0
706,1778658354.5800786,0.12355419,-0.22898604,0.26007292,0.0,0.0,0.0
707,1778658354.5900798,0.12355419,-0.22898604,0.26007292,0.0,0.0,0.0
708,1778658354.6000822,0.12355419,-0.22898604,0.26007292,0.0,0.0,0.0
709,1778658354.6100833,0.12355419,-0.22898604,0.26007292,0.0,0.0,0.0
710,1778658354.620086,0.12355419,-0.22898604,0.26007292,0.0,0.0,0.0
711,1778658354.6300895,0.12355419,-0.22898604,0.26007292,0.0,0.0,0.0
712,1778658354.6400907,0.12355419,-0.22898604,0.26007292,0.0,0.0,0.0
713,1778658354.6500933,0.12355419,-0.22898604,0.26007292,0.0,0.0,0.0
714,1778658354.6600957,0.12355419,-0.22898604,0.26007292,0.0,0.0,0.0
715,1778658354.6700966,0.12355419,-0.22898604,0.26007292,0.0,0.0,0.0
716,1778658354.680098,0.12355419,-0.22898604,0.26007292,0.0,0.0,0.0
717,1778658354.6900995,0.12355419,-0.22898604,0.26007292,0.0,0.0,0.0
718,1778658354.7001007,0.12355419,-0.22898604,0.26007292,0.0,0.0,0.0
719,1778658354.7101018,0.12355419,-0.22898604,0.26007292,0.0,0.0,0.0
720,1778658354.7201025,0.12355419,-0.22898604,0.26007292,0.0,0.0,0.0
721,1778658354.7301042,0.12355419,-0.22898604,0.26007292,0.0,0.0,0.0
722,1778658354.7401056,0.12355419,-0.22898604,0.26007292,0.0,0.0,0.0
723,1778658354.7501066,0.12355419,-0.22898604,0.26007292,0.0,0.0,0.0
724,1778658354.7601075,0.12355419,-0.22898604,0.26007292,0.0,0.0,0.0
725,1778658354.7701087,0.12355419,-0.22898604,0.26007292,0.0,0.0,0.0
726,1778658354.78011,0.12355419,-0.22898604,0.26007292,0.0,0.0,0.0
727,1778658354.7901132,0.12355419,-0.22898604,0.26007292,0.0,0.0,0.0
728,1778658354.8001142,0.12355419,-0.22898604,0.26007292,0.0,0.0,0.0
729,1778658354.810115,0.12355419,-0.22898604,0.26007292,0.0,0.0,0.0
730,1778658354.820117,0.12355419,-0.22898604,0.26007292,0.0,0.0,0.0
731,1778658354.8301175,0.12355419,-0.22898604,0.26007292,0.0,0.0,0.0
732,1778658354.8401182,0.12355419,-0.22898604,0.26007292,0.0,0.0,0.0
733,1778658354.8501208,0.11184023,-0.1782214,0.28740805,0.0,0.0,0.0
734,1778658354.8601222,0.11184023,-0.1782214,0.28740805,0.0,0.0,0.0
735,1778658354.8701236,0.11184023,-0.1782214,0.28740805,0.0,0.0,0.0
736,1778658354.8801258,0.10793454,-0.07669369,0.34988666,0.0,0.0,0.0
737,1778658354.8901277,0.10793454,-0.07669369,0.34988666,0.0,0.0,0.0
738,1778658354.900129,0.10793454,-0.07669369,0.34988666,0.0,0.0,0.0
739,1778658354.9101303,0.10793454,-0.07669369,0.34988666,0.0,0.0,0.0
740,1778658354.9201334,0.10793454,-0.07669369,0.34988666,0.0,0.0,0.0
741,1778658354.9301343,0.10793454,-0.07669369,0.34988666,0.0,0.0,0.0
742,1778658354.940135,0.10793454,-0.07669369,0.34988666,0.0,0.0,0.0
743,1778658354.950136,0.10793454,-0.07669369,0.34988666,0.0,0.0,0.0
744,1778658354.9601378,0.10793454,-0.07669369,0.34988666,0.0,0.0,0.0
745,1778658354.9701385,0.10793454,-0.07669369,0.34988666,0.0,0.0,0.0
746,1778658354.9801397,0.10793454,-0.07669369,0.34988666,0.0,0.0,0.0
747,1778658354.9901407,0.10793454,-0.07669369,0.34988666,0.0,0.0,0.0
748,1778658355.000142,0.10793454,-0.07669369,0.34988666,0.0,0.0,0.0
749,1778658355.0101435,0.10793454,-0.07669369,0.34988666,0.0,0.0,0.0
750,1778658355.020145,0.10793454,-0.07669369,0.34988666,0.0,0.0,0.0
751,1778658355.030146,0.10793454,-0.07669369,0.34988666,0.0,0.0,0.0
752,1778658355.0401466,0.10793454,-0.07669369,0.34988666,0.0,0.0,0.0
753,1778658355.050147,0.10793454,-0.07669369,0.34988666,0.0,0.0,0.0
754,1778658355.0601475,0.10793454,-0.07669369,0.34988666,0.0,0.0,0.0
755,1778658355.0701492,0.10793454,-0.07669369,0.34988666,0.0,0.0,0.0
756,1778658355.0801506,0.10793454,-0.07669369,0.34988666,0.0,0.0,0.0
757,1778658355.0901513,0.10793454,-0.07669369,0.34988666,0.0,0.0,0.0
758,1778658355.1001525,0.10793454,-0.07669369,0.34988666,0.0,0.0,0.0
759,1778658355.1101534,0.10793454,-0.07669369,0.34988666,0.0,0.0,0.0
760,1778658355.1201546,0.10793454,-0.07669369,0.34988666,0.0,0.0,0.0
761,1778658355.1301582,0.10793454,-0.07669369,0.34988666,0.0,0.0,0.0
762,1778658355.1401613,0.10793454,-0.07669369,0.34988666,0.0,0.0,0.0
763,1778658355.150163,0.10793454,-0.07669369,0.34988666,0.0,0.0,0.0
764,1778658355.1601636,0.10793454,-0.07669369,0.34988666,0.0,0.0,0.0
765,1778658355.1701648,0.10793454,-0.07669369,0.34988666,0.0,0.0,0.0
766,1778658355.180167,0.10793454,-0.07669369,0.34988666,0.0,0.0,0.0
767,1778658355.1901681,0.10793454,-0.07669369,0.34988666,0.0,0.0,0.0
768,1778658355.20017,0.10793454,-0.07669369,0.34988666,0.0,0.0,0.0
769,1778658355.2101705,0.10793454,-0.07669369,0.34988666,0.0,0.0,0.0
770,1778658355.220173,0.10793454,-0.07669369,0.34988666,0.0,0.0,0.0
771,1778658355.2301733,0.10793454,-0.07669369,0.34988666,0.0,0.0,0.0
772,1778658355.240174,0.10793454,-0.07669369,0.34988666,0.0,0.0,0.0
773,1778658355.2501752,0.07278956,-0.0415487,0.31474167,0.0,0.0,0.0
774,1778658355.2601767,0.07278956,-0.0415487,0.31474167,0.0,0.0,0.0
775,1778658355.2701774,0.07278956,-0.0415487,0.31474167,0.0,0.0,0.0
776,1778658355.2801795,0.07278956,-0.0415487,0.31474167,0.0,0.0,0.0
777,1778658355.290181,0.07278956,-0.0415487,0.31474167,0.0,0.0,0.0
778,1778658355.300182,0.07278956,-0.0415487,0.31474167,0.0,0.0,0.0
779,1778658355.3101835,0.07278956,-0.0415487,0.31474167,0.0,0.0,0.0
780,1778658355.3201842,0.07278956,-0.0415487,0.31474167,0.0,0.0,0.0
781,1778658355.3301854,0.08841076,0.00921438,0.2327393,0.0,0.0,0.0
782,1778658355.340187,0.08841076,0.00921438,0.2327393,0.0,0.0,0.0
783,1778658355.3501883,0.08841076,0.00921438,0.2327393,0.0,0.0,0.0
784,1778658355.3601897,0.08841076,0.00921438,0.2327393,0.0,0.0,0.0
785,1778658355.3701906,0.08841076,0.00921438,0.2327393,0.0,0.0,0.0
786,1778658355.3801916,0.08841076,0.00921438,0.2327393,0.0,0.0,0.0
787,1778658355.390193,0.08841076,0.00921438,0.2327393,0.0,0.0,0.0
788,1778658355.4001937,0.08841076,0.00921438,0.2327393,0.0,0.0,0.0
789,1778658355.4101949,0.08841076,0.00921438,0.2327393,0.0,0.0,0.0
790,1778658355.420196,0.08841076,0.00921438,0.2327393,0.0,0.0,0.0
791,1778658355.4301968,0.08841076,0.00921438,0.2327393,0.0,0.0,0.0
792,1778658355.4401977,0.08841076,0.00921438,0.2327393,0.0,0.0,0.0
793,1778658355.450199,0.08841076,0.00921438,0.2327393,0.0,0.0,0.0
794,1778658355.4602003,0.08841076,0.00921438,0.2327393,0.0,0.0,0.0
795,1778658355.470201,0.08841076,0.00921438,0.2327393,0.0,0.0,0.0
796,1778658355.4802015,0.08841076,0.00921438,0.2327393,0.0,0.0,0.0
797,1778658355.490202,0.08841076,0.00921438,0.2327393,0.0,0.0,0.0
798,1778658355.500203,0.08841076,0.00921438,0.2327393,0.0,0.0,0.0
799,1778658355.510204,0.08841076,0.00921438,0.2327393,0.0,0.0,0.0
800,1778658355.5202048,0.08841076,0.00921438,0.2327393,0.0,0.0,0.0
801,1778658355.5302067,0.08841076,0.00921438,0.2327393,0.0,0.0,0.0
802,1778658355.5402074,0.08841076,0.00921438,0.2327393,0.0,0.0,0.0
803,1778658355.550208,0.08841076,0.00921438,0.2327393,0.0,0.0,0.0
804,1778658355.5602098,0.08841076,0.00921438,0.2327393,0.0,0.0,0.0
805,1778658355.570211,0.08841076,0.00921438,0.2327393,0.0,0.0,0.0
806,1778658355.5802128,0.08841076,0.00921438,0.2327393,0.0,0.0,0.0
807,1778658355.5902154,0.08841076,0.00921438,0.2327393,0.0,0.0,0.0
808,1778658355.6002169,0.08841076,0.00921438,0.2327393,0.0,0.0,0.0
809,1778658355.6102178,0.08841076,0.00921438,0.2327393,0.0,0.0,0.0
810,1778658355.6202183,0.08841076,0.00921438,0.2327393,0.0,0.0,0.0
811,1778658355.630219,0.08841076,0.00921438,0.2327393,0.0,0.0,0.0
812,1778658355.6402202,0.025930608,0.052169193,0.115591936,0.0,0.0,0.0
813,1778658355.6502209,0.025930608,0.052169193,0.115591936,0.0,0.0,0.0
814,1778658355.6602235,0.025930608,0.052169193,0.115591936,0.0,0.0,0.0
815,1778658355.6702259,0.025930608,0.052169193,0.115591936,0.0,0.0,0.0
816,1778658355.6802275,0.025930608,0.052169193,0.115591936,0.0,0.0,0.0
817,1778658355.6902285,0.025930608,0.052169193,0.115591936,0.0,0.0,0.0
818,1778658355.7002292,0.025930608,0.052169193,0.115591936,0.0,0.0,0.0
819,1778658355.7102318,0.08841076,0.00921438,0.2327393,0.0,0.0,0.0
820,1778658355.720234,0.08841076,0.00921438,0.2327393,0.0,0.0,0.0
821,1778658355.7302349,0.08841076,0.00921438,0.2327393,0.0,0.0,0.0
822,1778658355.7402377,0.08841076,0.00921438,0.2327393,0.0,0.0,0.0
823,1778658355.7502394,0.08841076,0.00921438,0.2327393,0.0,0.0,0.0
824,1778658355.7602403,0.08841076,0.00921438,0.2327393,0.0,0.0,0.0
825,1778658355.7702425,0.08841076,0.00921438,0.2327393,0.0,0.0,0.0
826,1778658355.780245,0.08841076,0.00921438,0.2327393,0.0,0.0,0.0
827,1778658355.7902489,0.08841076,0.00921438,0.2327393,0.0,0.0,0.0
828,1778658355.8002515,0.08841076,0.00921438,0.2327393,0.0,0.0,0.0
829,1778658355.8102534,0.08841076,0.00921438,0.2327393,0.0,0.0,0.0
830,1778658355.820257,0.08841076,0.00921438,0.2327393,0.0,0.0,0.0
831,1778658355.8302586,0.08841076,0.00921438,0.2327393,0.0,0.0,0.0
832,1778658355.8402615,0.08841076,0.00921438,0.2327393,0.0,0.0,0.0
833,1778658355.8502645,0.08841076,0.00921438,0.2327393,0.0,0.0,0.0
834,1778658355.8602664,0.08841076,0.00921438,0.2327393,0.0,0.0,0.0
835,1778658355.8702674,0.08841076,0.00921438,0.2327393,0.0,0.0,0.0
836,1778658355.8802695,0.08841076,0.00921438,0.2327393,0.0,0.0,0.0
837,1778658355.8902714,0.08841076,0.00921438,0.2327393,0.0,0.0,0.0
838,1778658355.9002752,0.08841076,0.00921438,0.2327393,0.0,0.0,0.0
839,1778658355.9102767,0.08841076,0.00921438,0.2327393,0.0,0.0,0.0
840,1778658355.920278,0.08841076,0.00921438,0.2327393,0.0,0.0,0.0
841,1778658355.9302812,0.08841076,0.00921438,0.2327393,0.0,0.0,0.0
842,1778658355.9402823,0.08841076,0.00921438,0.2327393,0.0,0.0,0.0
843,1778658355.950283,0.08841076,0.00921438,0.2327393,0.0,0.0,0.0
844,1778658355.960286,0.08841076,0.00921438,0.2327393,0.0,0.0,0.0
845,1778658355.9702895,0.08841076,0.00921438,0.2327393,0.0,0.0,0.0
846,1778658355.9802914,0.08841076,0.00921438,0.2327393,0.0,0.0,0.0
847,1778658355.990293,-0.052167635,0.07169297,0.111686245,0.0,0.0,0.0
848,1778658356.0002942,-0.052167635,0.07169297,0.111686245,0.0,0.0,0.0
849,1778658356.0102947,-0.052167635,0.07169297,0.111686245,0.0,0.0,0.0
850,1778658356.0202959,-0.052167635,0.07169297,0.111686245,0.0,0.0,0.0
851,1778658356.0302968,-0.052167635,0.07169297,0.111686245,0.0,0.0,0.0
852,1778658356.0402982,-0.052167635,0.07169297,0.111686245,0.0,0.0,0.0
853,1778658356.0503001,-0.052167635,0.07169297,0.111686245,0.0,0.0,0.0
854,1778658356.0603013,-0.052167635,0.07169297,0.111686245,0.0,0.0,0.0
855,1778658356.0703025,-0.052167635,0.07169297,0.111686245,0.0,0.0,0.0
856,1778658356.0803063,-0.052167635,0.07169297,0.111686245,0.0,0.0,0.0
857,1778658356.0903094,-0.052167635,0.07169297,0.111686245,0.0,0.0,0.0
858,1778658356.1003113,-0.052167635,0.07169297,0.111686245,0.0,0.0,0.0
859,1778658356.110314,-0.052167635,0.07169297,0.111686245,0.0,0.0,0.0
860,1778658356.120317,-0.052167635,0.07169297,0.111686245,0.0,0.0,0.0
861,1778658356.1303225,-0.052167635,0.07169297,0.111686245,0.0,0.0,0.0
862,1778658356.1403253,-0.052167635,0.07169297,0.111686245,0.0,0.0,0.0
863,1778658356.150327,-0.052167635,0.07169297,0.111686245,0.0,0.0,0.0
864,1778658356.1603281,-0.052167635,0.07169297,0.111686245,0.0,0.0,0.0
865,1778658356.1703293,-0.052167635,0.07169297,0.111686245,0.0,0.0,0.0
866,1778658356.1803305,-0.052167635,0.07169297,0.111686245,0.0,0.0,0.0
867,1778658356.1903324,-0.052167635,0.07169297,0.111686245,0.0,0.0,0.0
868,1778658356.2003338,-0.052167635,0.07169297,0.111686245,0.0,0.0,0.0
869,1778658356.2103355,-0.052167635,0.07169297,0.111686245,0.0,0.0,0.0
870,1778658356.2203379,-0.052167635,0.07169297,0.111686245,0.0,0.0,0.0
871,1778658356.2303388,-0.052167635,0.07169297,0.111686245,0.0,0.0,0.0
872,1778658356.2403412,-0.052167635,0.07169297,0.111686245,0.0,0.0,0.0
873,1778658356.2503424,-0.052167635,0.07169297,0.111686245,0.0,0.0,0.0
874,1778658356.2603433,-0.052167635,0.07169297,0.111686245,0.0,0.0,0.0
875,1778658356.2703447,-0.052167635,0.07169297,0.111686245,0.0,0.0,0.0
876,1778658356.2803464,-0.09512089,0.07169297,0.13121158,0.0,0.0,0.0
877,1778658356.2903476,-0.09512089,0.07169297,0.13121158,0.0,0.0,0.0
878,1778658356.3003485,-0.09512089,0.07169297,0.13121158,0.0,0.0,0.0
879,1778658356.310349,-0.09512089,0.07169297,0.13121158,0.0,0.0,0.0
880,1778658356.320351,-0.09512089,0.07169297,0.13121158,0.0,0.0,0.0
881,1778658356.3303516,-0.09512089,0.07169297,0.13121158,0.0,0.0,0.0
882,1778658356.340352,-0.09512089,0.07169297,0.13121158,0.0,0.0,0.0
883,1778658356.3503547,-0.09512089,0.07169297,0.13121158,0.0,0.0,0.0
884,1778658356.360356,-0.09512089,0.07169297,0.13121158,0.0,0.0,0.0
885,1778658356.370357,-0.09512089,0.07169297,0.13121158,0.0,0.0,0.0
886,1778658356.3803585,-0.09512089,0.07169297,0.13121158,0.0,0.0,0.0
887,1778658356.3903594,-0.09512089,0.07169297,0.13121158,0.0,0.0,0.0
888,1778658356.40036,-0.09512089,0.07169297,0.13121158,0.0,0.0,0.0
889,1778658356.4103613,-0.09121676,0.075598665,0.15073536,0.0,0.0,0.0
890,1778658356.4203625,-0.09121676,0.075598665,0.15073536,0.0,0.0,0.0
891,1778658356.4303634,-0.09121676,0.075598665,0.15073536,0.0,0.0,0.0
892,1778658356.440365,-0.09121676,0.075598665,0.15073536,0.0,0.0,0.0
893,1778658356.450366,-0.09121676,0.075598665,0.15073536,0.0,0.0,0.0
894,1778658356.4603674,-0.09121676,0.075598665,0.15073536,0.0,0.0,0.0
895,1778658356.4703698,-0.09121676,0.075598665,0.15073536,0.0,0.0,0.0
896,1778658356.4803708,-0.09121676,0.075598665,0.15073536,0.0,0.0,0.0
897,1778658356.490371,-0.09121676,0.075598665,0.15073536,0.0,0.0,0.0
898,1778658356.5003717,-0.09121676,0.075598665,0.15073536,0.0,0.0,0.0
899,1778658356.5103729,-0.09121676,0.075598665,0.15073536,0.0,0.0,0.0
900,1778658356.5203745,-0.09121676,0.075598665,0.15073536,0.0,0.0,0.0
901,1778658356.5303755,-0.09121676,0.075598665,0.15073536,0.0,0.0,0.0
902,1778658356.5403771,-0.09121676,0.075598665,0.15073536,0.0,0.0,0.0
903,1778658356.5503786,-0.09121676,0.075598665,0.15073536,0.0,0.0,0.0
904,1778658356.56038,-0.09121676,0.075598665,0.15073536,0.0,0.0,0.0
905,1778658356.5703819,-0.09121676,0.075598665,0.15073536,0.0,0.0,0.0
906,1778658356.5803835,-0.09121676,0.075598665,0.15073536,0.0,0.0,0.0
907,1778658356.5903845,-0.09121676,0.075598665,0.15073536,0.0,0.0,0.0
908,1778658356.6003866,-0.09121676,0.06778884,0.18197466,0.0,0.0,0.0
909,1778658356.6103878,-0.09121676,0.06778884,0.18197466,0.0,0.0,0.0
910,1778658356.6203895,-0.09121676,0.06778884,0.18197466,0.0,0.0,0.0
911,1778658356.6303918,-0.09121676,0.06778884,0.18197466,0.0,0.0,0.0
912,1778658356.6403928,-0.09121676,0.06778884,0.18197466,0.0,0.0,0.0
913,1778658356.650395,-0.09121676,0.06778884,0.18197466,0.0,0.0,0.0
914,1778658356.6603973,-0.09121676,0.06778884,0.18197466,0.0,0.0,0.0
915,1778658356.6703987,-0.09121676,0.06778884,0.18197466,0.0,0.0,0.0
916,1778658356.6804004,-0.09121676,0.06778884,0.18197466,0.0,0.0,0.0
917,1778658356.6904025,-0.09121676,0.06778884,0.18197466,0.0,0.0,0.0
918,1778658356.700404,-0.09121676,0.06778884,0.18197466,0.0,0.0,0.0
919,1778658356.7104044,-0.09121676,0.06778884,0.18197466,0.0,0.0,0.0
920,1778658356.720405,-0.09121676,0.06778884,0.18197466,0.0,0.0,0.0
921,1778658356.730407,-0.09121676,0.06778884,0.18197466,0.0,0.0,0.0
922,1778658356.740409,-0.09121676,0.06778884,0.18197466,0.0,0.0,0.0
923,1778658356.7504103,-0.09121676,0.06778884,0.18197466,0.0,0.0,0.0
924,1778658356.760412,-0.09121676,0.06778884,0.18197466,0.0,0.0,0.0
925,1778658356.7704134,-0.09121676,0.06778884,0.18197466,0.0,0.0,0.0
926,1778658356.7804148,-0.09121676,0.06778884,0.18197466,0.0,0.0,0.0
927,1778658356.7904174,-0.09121676,0.06778884,0.18197466,0.0,0.0,0.0
928,1778658356.8004394,-0.06778728,0.0482635,0.19369018,0.0,0.0,0.0
929,1778658356.8104405,-0.06778728,0.0482635,0.19369018,0.0,0.0,0.0
930,1778658356.8204424,-0.06778728,0.0482635,0.19369018,0.0,0.0,0.0
931,1778658356.8304436,-0.06778728,0.0482635,0.19369018,0.0,0.0,0.0
932,1778658356.8404446,-0.06778728,0.0482635,0.19369018,0.0,0.0,0.0
933,1778658356.8504457,-0.06778728,0.0482635,0.19369018,0.0,0.0,0.0
934,1778658356.8604467,-0.06778728,0.0482635,0.19369018,0.0,0.0,0.0
935,1778658356.8704479,-0.06778728,0.0482635,0.19369018,0.0,0.0,0.0
936,1778658356.880449,-0.06778728,0.0482635,0.19369018,0.0,0.0,0.0
937,1778658356.890452,-0.06778728,0.0482635,0.19369018,0.0,0.0,0.0
938,1778658356.9004536,-0.05997746,0.044359367,0.19759431,0.0,0.0,0.0
939,1778658356.9104545,-0.05997746,0.044359367,0.19759431,0.0,0.0,0.0
940,1778658356.9204557,-0.05997746,0.044359367,0.19759431,0.0,0.0,0.0
941,1778658356.930458,-0.05997746,0.044359367,0.19759431,0.0,0.0,0.0
942,1778658356.9404585,-0.05997746,0.044359367,0.19759431,0.0,0.0,0.0
943,1778658356.9504595,-0.05997746,0.044359367,0.19759431,0.0,0.0,0.0
944,1778658356.9604614,-0.05997746,0.044359367,0.19759431,0.0,0.0,0.0
945,1778658356.9704626,-0.05997746,0.044359367,0.19759431,0.0,0.0,0.0
946,1778658356.9804633,-0.05997746,0.044359367,0.19759431,0.0,0.0,0.0
947,1778658356.9904644,-0.05997746,0.044359367,0.19759431,0.0,0.0,0.0
948,1778658357.0004652,-0.05997746,0.044359367,0.19759431,0.0,0.0,0.0
949,1778658357.0104663,-0.05997746,0.044359367,0.19759431,0.0,0.0,0.0
950,1778658357.0204678,-0.05997746,0.044359367,0.19759431,0.0,0.0,0.0
951,1778658357.0304692,-0.05997746,0.044359367,0.19759431,0.0,0.0,0.0
952,1778658357.0404706,-0.05997746,0.044359367,0.19759431,0.0,0.0,0.0
953,1778658357.050472,-0.05607177,0.044359367,0.17416483,0.0,0.0,0.0
954,1778658357.0604727,-0.05607177,0.044359367,0.17416483,0.0,0.0,0.0
955,1778658357.0704732,-0.05607177,0.044359367,0.17416483,0.0,0.0,0.0
956,1778658357.080474,-0.05607177,0.044359367,0.17416483,0.0,0.0,0.0
957,1778658357.0904748,-0.05607177,0.044359367,0.17416483,0.0,0.0,0.0
958,1778658357.1004763,-0.05607177,0.044359367,0.17416483,0.0,0.0,0.0
959,1778658357.110477,-0.05607177,0.044359367,0.17416483,0.0,0.0,0.0
960,1778658357.1204777,-0.05607177,0.044359367,0.17416483,0.0,0.0,0.0
961,1778658357.130479,-0.05607177,0.044359367,0.17416483,0.0,0.0,0.0
962,1778658357.1404808,-0.05607177,0.044359367,0.17416483,0.0,0.0,0.0
963,1778658357.150482,-0.05607177,0.044359367,0.17416483,0.0,0.0,0.0
964,1778658357.1604843,-0.05607177,0.044359367,0.17416483,0.0,0.0,0.0
965,1778658357.1704855,-0.05607177,0.044359367,0.17416483,0.0,0.0,0.0
966,1778658357.1804867,-0.05607177,0.044359367,0.17416483,0.0,0.0,0.0
967,1778658357.1904874,-0.05607177,0.044359367,0.17416483,0.0,0.0,0.0
968,1778658357.200488,-0.05607177,0.044359367,0.17416483,0.0,0.0,0.0
969,1778658357.2104888,-0.05607177,0.044359367,0.17416483,0.0,0.0,0.0
970,1778658357.2204895,-0.05607177,0.044359367,0.17416483,0.0,0.0,0.0
971,1778658357.2304914,-0.05607177,0.044359367,0.17416483,0.0,0.0,0.0
972,1778658357.2404926,-0.05607177,0.044359367,0.17416483,0.0,0.0,0.0
973,1778658357.250496,-0.05607177,0.044359367,0.17416483,0.0,0.0,0.0
974,1778658357.260499,-0.05607177,0.044359367,0.17416483,0.0,0.0,0.0
975,1778658357.270501,-0.05607177,0.044359367,0.17416483,0.0,0.0,0.0
976,1778658357.2805016,-0.05607177,0.044359367,0.17416483,0.0,0.0,0.0
977,1778658357.2905025,-0.05607177,0.044359367,0.17416483,0.0,0.0,0.0
978,1778658357.3005037,-0.05607177,0.044359367,0.17416483,0.0,0.0,0.0
979,1778658357.3105044,-0.05607177,0.044359367,0.17416483,0.0,0.0,0.0
980,1778658357.3205054,-0.05607177,0.044359367,0.17416483,0.0,0.0,0.0
981,1778658357.330506,-0.05607177,0.044359367,0.17416483,0.0,0.0,0.0
982,1778658357.3405077,-0.05607177,0.044359367,0.17416483,0.0,0.0,0.0
983,1778658357.3505092,-0.05607177,0.044359367,0.17416483,0.0,0.0,0.0
984,1778658357.3605096,-0.05607177,0.044359367,0.17416483,0.0,0.0,0.0
985,1778658357.3705113,-0.05607177,0.044359367,0.17416483,0.0,0.0,0.0
986,1778658357.380513,-0.05607177,0.044359367,0.17416483,0.0,0.0,0.0
987,1778658357.390514,-0.05607177,0.044359367,0.17416483,0.0,0.0,0.0
988,1778658357.4005177,-0.05607177,0.044359367,0.17416483,0.0,0.0,0.0
989,1778658357.410519,-0.05607177,0.044359367,0.17416483,0.0,0.0,0.0
990,1778658357.4205196,-0.05607177,0.044359367,0.17416483,0.0,0.0,0.0
991,1778658357.4305203,-0.05607177,0.044359367,0.17416483,0.0,0.0,0.0
992,1778658357.4405208,-0.05607177,0.044359367,0.17416483,0.0,0.0,0.0
993,1778658357.450522,-0.05607177,0.044359367,0.17416483,0.0,0.0,0.0
994,1778658357.460523,-0.05607177,0.044359367,0.17416483,0.0,0.0,0.0
995,1778658357.4705236,-0.05607177,0.044359367,0.17416483,0.0,0.0,0.0
996,1778658357.480524,-0.05607177,0.044359367,0.17416483,0.0,0.0,0.0
997,1778658357.490525,-0.05607177,0.044359367,0.17416483,0.0,0.0,0.0
998,1778658357.5005267,-0.03654799,0.059979014,0.07654281,0.0,0.0,0.0
999,1778658357.5105286,-0.03654799,0.059979014,0.07654281,0.0,0.0,0.0
1000,1778658357.5205297,-0.03654799,0.059979014,0.07654281,0.0,0.0,0.0
