id,timestamp,acc_x,acc_y,acc_z,gyro_x,gyro_y,gyro_z
1,1778658711.779365,-0.26303288,-0.29927444,-0.18899277,0.0,0.0,0.0
2,1778658711.7893682,-0.26303288,-0.29927444,-0.18899277,0.0,0.0,0.0
3,1778658711.7993715,-0.26303288,-0.29927444,-0.18899277,0.0,0.0,0.0
4,1778658711.8094006,-0.26303288,-0.29927444,-0.18899277,0.0,0.0,0.0
5,1778658711.8194044,-0.26303288,-0.29927444,-0.18899277,0.0,0.0,0.0
6,1778658711.8294067,-0.26303288,-0.29927444,-0.18899277,0.0,0.0,0.0
7,1778658711.8394094,-0.23960342,-0.27974913,-0.20461242,0.0,0.0,0.0
8,1778658711.8494115,-0.23960342,-0.27974913,-0.20461242,0.0,0.0,0.0
9,1778658711.8594148,-0.23960342,-0.27974913,-0.20461242,0.0,0.0,0.0
10,1778658711.8694184,-0.23960342,-0.27974913,-0.20461242,0.0,0.0,0.0
11,1778658711.879422,-0.23960342,-0.27974913,-0.20461242,0.0,0.0,0.0
12,1778658711.8894248,-0.23960342,-0.27974913,-0.20461242,0.0,0.0,0.0
13,1778658711.8994262,-0.23960342,-0.27974913,-0.20461242,0.0,0.0,0.0
14,1778658711.9094281,-0.23960342,-0.27974913,-0.20461242,0.0,0.0,0.0
15,1778658711.9194307,-0.23960342,-0.27974913,-0.20461242,0.0,0.0,0.0
16,1778658711.929443,-0.23960342,-0.27974913,-0.20461242,0.0,0.0,0.0
17,1778658711.9394453,-0.23960342,-0.27974913,-0.20461242,0.0,0.0,0.0
18,1778658711.9494474,-0.23960342,-0.27974913,-0.20461242,0.0,0.0,0.0
19,1778658711.9594488,-0.23960342,-0.27974913,-0.20461242,0.0,0.0,0.0
20,1778658711.9694512,-0.23960342,-0.27974913,-0.20461242,0.0,0.0,0.0
21,1778658711.9794533,-0.23960342,-0.27974913,-0.20461242,0.0,0.0,0.0
22,1778658711.9894555,-0.23960342,-0.27974913,-0.20461242,0.0,0.0,0.0
23,1778658711.9994574,-0.23960342,-0.27974913,-0.20461242,0.0,0.0,0.0
24,1778658712.009459,-0.23960342,-0.27974913,-0.20461242,0.0,0.0,0.0
25,1778658712.019462,-0.23960342,-0.27974913,-0.20461242,0.0,0.0,0.0
26,1778658712.0294638,-0.23960342,-0.27974913,-0.20461242,0.0,0.0,0.0
27,1778658712.0394642,-0.23960342,-0.27974913,-0.20461242,0.0,0.0,0.0
28,1778658712.049466,-0.23960342,-0.27974913,-0.20461242,0.0,0.0,0.0
29,1778658712.0595665,-0.15759948,-0.22898604,-0.22804189,0.0,0.0,0.0
30,1778658712.0695677,-0.15759948,-0.22898604,-0.22804189,0.0,0.0,0.0
31,1778658712.0795693,-0.15759948,-0.22898604,-0.22804189,0.0,0.0,0.0
32,1778658712.0895708,-0.15759948,-0.22898604,-0.22804189,0.0,0.0,0.0
33,1778658712.0995724,-0.15759948,-0.22898604,-0.22804189,0.0,0.0,0.0
34,1778658712.1095753,-0.15759948,-0.22898604,-0.22804189,0.0,0.0,0.0
35,1778658712.1195786,-0.15759948,-0.22898604,-0.22804189,0.0,0.0,0.0
36,1778658712.1295795,-0.15759948,-0.22898604,-0.22804189,0.0,0.0,0.0
37,1778658712.1395812,-0.15759948,-0.22898604,-0.22804189,0.0,0.0,0.0
38,1778658712.1495821,-0.15759948,-0.22898604,-0.22804189,0.0,0.0,0.0
39,1778658712.159585,-0.15759948,-0.22898604,-0.22804189,0.0,0.0,0.0
40,1778658712.1695895,-0.15759948,-0.22898604,-0.22804189,0.0,0.0,0.0
41,1778658712.179592,-0.15759948,-0.22898604,-0.22804189,0.0,0.0,0.0
42,1778658712.189594,-0.15759948,-0.22898604,-0.22804189,0.0,0.0,0.0
43,1778658712.1995955,-0.15759948,-0.22898604,-0.22804189,0.0,0.0,0.0
44,1778658712.2095966,-0.15759948,-0.22898604,-0.22804189,0.0,0.0,0.0
45,1778658712.2195985,-0.08731107,-0.11574281,-0.2241362,0.0,0.0,0.0
46,1778658712.2296,-0.08731107,-0.11574281,-0.2241362,0.0,0.0,0.0
47,1778658712.2396011,-0.08731107,-0.11574281,-0.2241362,0.0,0.0,0.0
48,1778658712.2496028,-0.08731107,-0.11574281,-0.2241362,0.0,0.0,0.0
49,1778658712.259604,-0.08731107,-0.11574281,-0.2241362,0.0,0.0,0.0
50,1778658712.2696054,-0.08731107,-0.11574281,-0.2241362,0.0,0.0,0.0
51,1778658712.2796068,-0.08731107,-0.11574281,-0.2241362,0.0,0.0,0.0
52,1778658712.289608,-0.08731107,-0.11574281,-0.2241362,0.0,0.0,0.0
53,1778658712.2996106,-0.08731107,-0.11574281,-0.2241362,0.0,0.0,0.0
54,1778658712.3096128,-0.08731107,-0.11574281,-0.2241362,0.0,0.0,0.0
55,1778658712.3196156,-0.08731107,-0.11574281,-0.2241362,0.0,0.0,0.0
56,1778658712.3296182,-0.08731107,-0.11574281,-0.2241362,0.0,0.0,0.0
57,1778658712.3396204,-0.08731107,-0.11574281,-0.2241362,0.0,0.0,0.0
58,1778658712.3496215,-0.08731107,-0.11574281,-0.2241362,0.0,0.0,0.0
59,1778658712.3596244,-0.08731107,-0.11574281,-0.2241362,0.0,0.0,0.0
60,1778658712.369625,-0.08731107,-0.11574281,-0.2241362,0.0,0.0,0.0
61,1778658712.379628,-0.08731107,-0.11574281,-0.2241362,0.0,0.0,0.0
62,1778658712.3896308,-0.08731107,-0.11574281,-0.2241362,0.0,0.0,0.0
63,1778658712.3996327,-0.08731107,-0.11574281,-0.2241362,0.0,0.0,0.0
64,1778658712.409635,-0.08731107,-0.11574281,-0.2241362,0.0,0.0,0.0
65,1778658712.4196408,-0.08731107,-0.11574281,-0.2241362,0.0,0.0,0.0
66,1778658712.4296432,-0.08731107,-0.11574281,-0.2241362,0.0,0.0,0.0
67,1778658712.4396467,-0.08731107,-0.11574281,-0.2241362,0.0,0.0,0.0
68,1778658712.449649,-0.08731107,-0.11574281,-0.2241362,0.0,0.0,0.0
69,1778658712.4596524,-0.08731107,-0.11574281,-0.2241362,0.0,0.0,0.0
70,1778658712.4696553,-0.08731107,-0.11574281,-0.2241362,0.0,0.0,0.0
71,1778658712.4796581,-0.08731107,-0.11574281,-0.2241362,0.0,0.0,0.0
72,1778658712.4896603,-0.08731107,-0.11574281,-0.2241362,0.0,0.0,0.0
73,1778658712.499663,-0.08731107,-0.11574281,-0.2241362,0.0,0.0,0.0
74,1778658712.509666,-0.08731107,-0.11574281,-0.2241362,0.0,0.0,0.0
75,1778658712.5196688,-0.08731107,-0.11574281,-0.2241362,0.0,0.0,0.0
76,1778658712.529672,-0.08731107,-0.11574281,-0.2241362,0.0,0.0,0.0
77,1778658712.5396776,-0.08731107,-0.11574281,-0.2241362,0.0,0.0,0.0
78,1778658712.5496814,-0.052167635,0.020929893,-0.1616576,0.0,0.0,0.0
79,1778658712.5596838,-0.052167635,0.020929893,-0.1616576,0.0,0.0,0.0
80,1778658712.569687,-0.052167635,0.020929893,-0.1616576,0.0,0.0,0.0
81,1778658712.5796957,-0.052167635,0.020929893,-0.1616576,0.0,0.0,0.0
82,1778658712.5896988,-0.052167635,0.020929893,-0.1616576,0.0,0.0,0.0
83,1778658712.599701,-0.052167635,0.020929893,-0.1616576,0.0,0.0,0.0
84,1778658712.609705,-0.052167635,0.020929893,-0.1616576,0.0,0.0,0.0
85,1778658712.6197078,-0.052167635,0.020929893,-0.1616576,0.0,0.0,0.0
86,1778658712.6297114,-0.052167635,0.020929893,-0.1616576,0.0,0.0,0.0
87,1778658712.6397138,-0.052167635,0.020929893,-0.1616576,0.0,0.0,0.0
88,1778658712.6497154,-0.052167635,0.020929893,-0.1616576,0.0,0.0,0.0
89,1778658712.6597188,-0.052167635,0.020929893,-0.1616576,0.0,0.0,0.0
90,1778658712.6697211,-0.052167635,0.020929893,-0.1616576,0.0,0.0,0.0
91,1778658712.6797233,-0.052167635,0.020929893,-0.1616576,0.0,0.0,0.0
92,1778658712.6897252,-0.052167635,0.020929893,-0.1616576,0.0,0.0,0.0
93,1778658712.6997309,-0.040452123,0.0795028,-0.12651418,0.0,0.0,0.0
94,1778658712.7097344,-0.040452123,0.0795028,-0.12651418,0.0,0.0,0.0
95,1778658712.7197375,-0.040452123,0.0795028,-0.12651418,0.0,0.0,0.0
96,1778658712.7297404,-0.040452123,0.0795028,-0.12651418,0.0,0.0,0.0
97,1778658712.739743,-0.040452123,0.0795028,-0.12651418,0.0,0.0,0.0
98,1778658712.7497458,-0.040452123,0.0795028,-0.12651418,0.0,0.0,0.0
99,1778658712.759748,-0.040452123,0.0795028,-0.12651418,0.0,0.0,0.0
100,1778658712.7697494,-0.040452123,0.0795028,-0.12651418,0.0,0.0,0.0
101,1778658712.7797525,-0.040452123,0.0795028,-0.12651418,0.0,0.0,0.0
102,1778658712.7897542,-0.040452123,0.0795028,-0.12651418,0.0,0.0,0.0
103,1778658712.79976,-0.040452123,0.0795028,-0.12651418,0.0,0.0,0.0
104,1778658712.8097644,-0.040452123,0.0795028,-0.12651418,0.0,0.0,0.0
105,1778658712.8197663,-0.040452123,0.0795028,-0.12651418,0.0,0.0,0.0
106,1778658712.8297672,-0.040452123,0.0795028,-0.12651418,0.0,0.0,0.0
107,1778658712.8397706,-0.040452123,0.0795028,-0.12651418,0.0,0.0,0.0
108,1778658712.8497736,-0.040452123,0.0795028,-0.12651418,0.0,0.0,0.0
109,1778658712.859779,-0.040452123,0.0795028,-0.12651418,0.0,0.0,0.0
110,1778658712.8697827,-0.040452123,0.0795028,-0.12651418,0.0,0.0,0.0
111,1778658712.879784,-0.040452123,0.0795028,-0.12651418,0.0,0.0,0.0
112,1778658712.8897848,-0.040452123,0.0795028,-0.12651418,0.0,0.0,0.0
113,1778658712.8997865,-0.040452123,0.0795028,-0.12651418,0.0,0.0,0.0
114,1778658712.9097884,-0.040452123,0.0795028,-0.12651418,0.0,0.0,0.0
115,1778658712.9197896,-0.040452123,0.0795028,-0.12651418,0.0,0.0,0.0
116,1778658712.9297912,-0.040452123,0.0795028,-0.12651418,0.0,0.0,0.0
117,1778658712.9397929,-0.040452123,0.0795028,-0.12651418,0.0,0.0,0.0
118,1778658712.9497943,-0.040452123,0.0795028,-0.12651418,0.0,0.0,0.0
119,1778658712.9597976,-0.040452123,0.0795028,-0.12651418,0.0,0.0,0.0
120,1778658712.9697998,-0.040452123,0.0795028,-0.12651418,0.0,0.0,0.0
121,1778658712.9798021,-0.040452123,0.0795028,-0.12651418,0.0,0.0,0.0
122,1778658712.989804,-0.040452123,0.0795028,-0.12651418,0.0,0.0,0.0
123,1778658712.9998062,-0.040452123,0.0795028,-0.12651418,0.0,0.0,0.0
124,1778658713.0098085,-0.040452123,0.0795028,-0.12651418,0.0,0.0,0.0
125,1778658713.019811,-0.040452123,0.0795028,-0.12651418,0.0,0.0,0.0
126,1778658713.0298128,-0.040452123,0.0795028,-0.12651418,0.0,0.0,0.0
127,1778658713.0398147,-0.040452123,0.0795028,-0.12651418,0.0,0.0,0.0
128,1778658713.0498166,-0.040452123,0.0795028,-0.12651418,0.0,0.0,0.0
129,1778658713.059821,-0.040452123,0.0795028,-0.12651418,0.0,0.0,0.0
130,1778658713.0698235,-0.040452123,0.0795028,-0.12651418,0.0,0.0,0.0
131,1778658713.0798254,-0.040452123,0.0795028,-0.12651418,0.0,0.0,0.0
132,1778658713.0898268,0.10793454,0.20836568,0.010158527,0.0,0.0,0.0
133,1778658713.0998282,0.10793454,0.20836568,0.010158527,0.0,0.0,0.0
134,1778658713.1098294,0.10793454,0.20836568,0.010158527,0.0,0.0,0.0
135,1778658713.1198313,0.10793454,0.20836568,0.010158527,0.0,0.0,0.0
136,1778658713.1298327,0.10793454,0.20836568,0.010158527,0.0,0.0,0.0
137,1778658713.1398342,0.10793454,0.20836568,0.010158527,0.0,0.0,0.0
138,1778658713.149836,0.10793454,0.20836568,0.010158527,0.0,0.0,0.0
139,1778658713.1598368,0.10793454,0.20836568,0.010158527,0.0,0.0,0.0
140,1778658713.1698382,0.10793454,0.20836568,0.010158527,0.0,0.0,0.0
141,1778658713.17984,0.10793454,0.20836568,0.010158527,0.0,0.0,0.0
142,1778658713.1898417,0.10793454,0.20836568,0.010158527,0.0,0.0,0.0
143,1778658713.199843,0.10793454,0.20836568,0.010158527,0.0,0.0,0.0
144,1778658713.209845,0.10793454,0.20836568,0.010158527,0.0,0.0,0.0
145,1778658713.2198465,0.10793454,0.20836568,0.010158527,0.0,0.0,0.0
146,1778658713.2298484,0.10793454,0.20836568,0.010158527,0.0,0.0,0.0
147,1778658713.2398508,0.10793454,0.20836568,0.010158527,0.0,0.0,0.0
148,1778658713.2498524,0.10793454,0.20836568,0.010158527,0.0,0.0,0.0
149,1778658713.2598562,0.10793454,0.20836568,0.010158527,0.0,0.0,0.0
150,1778658713.2698588,0.10793454,0.20836568,0.010158527,0.0,0.0,0.0
151,1778658713.2798603,0.10793454,0.20836568,0.010158527,0.0,0.0,0.0
152,1778658713.2898614,0.10793454,0.20836568,0.010158527,0.0,0.0,0.0
153,1778658713.2998624,0.10793454,0.20836568,0.010158527,0.0,0.0,0.0
154,1778658713.3098636,0.10793454,0.23179515,0.053113338,0.0,0.0,0.0
155,1778658713.3198643,0.10793454,0.23179515,0.053113338,0.0,0.0,0.0
156,1778658713.329865,0.10793454,0.23179515,0.053113338,0.0,0.0,0.0
157,1778658713.3398664,0.05326577,0.25131893,0.07263712,0.0,0.0,0.0
158,1778658713.3498676,0.05326577,0.25131893,0.07263712,0.0,0.0,0.0
159,1778658713.3598688,0.05326577,0.25131893,0.07263712,0.0,0.0,0.0
160,1778658713.3698704,0.05326577,0.25131893,0.07263712,0.0,0.0,0.0
161,1778658713.3798718,0.05326577,0.25131893,0.07263712,0.0,0.0,0.0
162,1778658713.3898723,0.05326577,0.25131893,0.07263712,0.0,0.0,0.0
163,1778658713.3998733,0.05326577,0.25131893,0.07263712,0.0,0.0,0.0
164,1778658713.409875,0.05326577,0.25131893,0.07263712,0.0,0.0,0.0
165,1778658713.4198763,0.05326577,0.25131893,0.07263712,0.0,0.0,0.0
166,1778658713.4298778,0.05326577,0.25131893,0.07263712,0.0,0.0,0.0
167,1778658713.439879,0.05326577,0.25131893,0.07263712,0.0,0.0,0.0
168,1778658713.4498796,0.05326577,0.25131893,0.07263712,0.0,0.0,0.0
169,1778658713.4598815,0.05326577,0.25131893,0.07263712,0.0,0.0,0.0
170,1778658713.4698827,0.05326577,0.25131893,0.07263712,0.0,0.0,0.0
171,1778658713.4798837,0.05326577,0.25131893,0.07263712,0.0,0.0,0.0
172,1778658713.489885,0.05326577,0.25131893,0.07263712,0.0,0.0,0.0
173,1778658713.4998899,0.05326577,0.25131893,0.07263712,0.0,0.0,0.0
174,1778658713.5098915,0.05326577,0.25131893,0.07263712,0.0,0.0,0.0
175,1778658713.5198941,0.05326577,0.25131893,0.07263712,0.0,0.0,0.0
176,1778658713.5298977,0.05326577,0.25131893,0.07263712,0.0,0.0,0.0
177,1778658713.539899,0.05326577,0.25131893,0.07263712,0.0,0.0,0.0
178,1778658713.5499,0.05326577,0.25131893,0.07263712,0.0,0.0,0.0
179,1778658713.5599012,0.05326577,0.25131893,0.07263712,0.0,0.0,0.0
180,1778658713.5699022,0.05326577,0.25131893,0.07263712,0.0,0.0,0.0
181,1778658713.579903,0.05326577,0.25131893,0.07263712,0.0,0.0,0.0
182,1778658713.5899043,0.05326577,0.25131893,0.07263712,0.0,0.0,0.0
183,1778658713.599905,0.05326577,0.25131893,0.07263712,0.0,0.0,0.0
184,1778658713.6099062,0.05326577,0.25131893,0.07263712,0.0,0.0,0.0
185,1778658713.619908,-0.11464623,0.34894252,0.02187404,0.0,0.0,0.0
186,1778658713.6299086,-0.11464623,0.34894252,0.02187404,0.0,0.0,0.0
187,1778658713.6399093,-0.11464623,0.34894252,0.02187404,0.0,0.0,0.0
188,1778658713.649917,-0.11464623,0.34894252,0.02187404,0.0,0.0,0.0
189,1778658713.6599178,-0.11464623,0.34894252,0.02187404,0.0,0.0,0.0
190,1778658713.669919,-0.11464623,0.34894252,0.02187404,0.0,0.0,0.0
191,1778658713.6799204,-0.11464623,0.34894252,0.02187404,0.0,0.0,0.0
192,1778658713.6899226,-0.11464623,0.34894252,0.02187404,0.0,0.0,0.0
193,1778658713.6999238,-0.11464623,0.34894252,0.02187404,0.0,0.0,0.0
194,1778658713.7099254,-0.11464623,0.34894252,0.02187404,0.0,0.0,0.0
195,1778658713.7199268,-0.11464623,0.34894252,0.02187404,0.0,0.0,0.0
196,1778658713.7299283,-0.11464623,0.34894252,0.02187404,0.0,0.0,0.0
197,1778658713.7399297,-0.11464623,0.34894252,0.02187404,0.0,0.0,0.0
198,1778658713.7499313,-0.11464623,0.34894252,0.02187404,0.0,0.0,0.0
199,1778658713.759933,-0.11464623,0.34894252,0.02187404,0.0,0.0,0.0
200,1778658713.7699347,-0.11464623,0.34894252,0.02187404,0.0,0.0,0.0
201,1778658713.7799385,-0.11464623,0.34894252,0.02187404,0.0,0.0,0.0
202,1778658713.7899408,-0.11464623,0.34894252,0.02187404,0.0,0.0,0.0
203,1778658713.799943,0.0025011348,0.29036805,0.17807053,0.0,0.0,0.0
204,1778658713.8099444,0.0025011348,0.29036805,0.17807053,0.0,0.0,0.0
205,1778658713.8199456,0.0025011348,0.29036805,0.17807053,0.0,0.0,0.0
206,1778658713.829948,0.11965006,0.091218315,0.47484386,0.0,0.0,0.0
207,1778658713.8399494,0.11965006,0.091218315,0.47484386,0.0,0.0,0.0
208,1778658713.8499503,0.11965006,0.091218315,0.47484386,0.0,0.0,0.0
209,1778658713.8599517,0.0025011348,0.29036805,0.17807053,0.0,0.0,0.0
210,1778658713.8699524,0.0025011348,0.29036805,0.17807053,0.0,0.0,0.0
211,1778658713.8799558,0.0025011348,0.29036805,0.17807053,0.0,0.0,0.0
212,1778658713.889957,0.0025011348,0.29036805,0.17807053,0.0,0.0,0.0
213,1778658713.8999581,0.0025011348,0.29036805,0.17807053,0.0,0.0,0.0
214,1778658713.909959,0.0025011348,0.29036805,0.17807053,0.0,0.0,0.0
215,1778658713.9199595,0.0025011348,0.29036805,0.17807053,0.0,0.0,0.0
216,1778658713.9299607,0.0025011348,0.29036805,0.17807053,0.0,0.0,0.0
217,1778658713.9399617,0.0025011348,0.29036805,0.17807053,0.0,0.0,0.0
218,1778658713.9499629,0.0025011348,0.29036805,0.17807053,0.0,0.0,0.0
219,1778658713.9599638,0.0025011348,0.29036805,0.17807053,0.0,0.0,0.0
220,1778658713.9699652,0.0025011348,0.29036805,0.17807053,0.0,0.0,0.0
221,1778658713.979966,0.0025011348,0.29036805,0.17807053,0.0,0.0,0.0
222,1778658713.9899669,0.0025011348,0.29036805,0.17807053,0.0,0.0,0.0
223,1778658713.9999683,0.0025011348,0.29036805,0.17807053,0.0,0.0,0.0
224,1778658714.0099697,0.0025011348,0.29036805,0.17807053,0.0,0.0,0.0
225,1778658714.019973,0.0025011348,0.29036805,0.17807053,0.0,0.0,0.0
226,1778658714.0299745,0.0025011348,0.29036805,0.17807053,0.0,0.0,0.0
227,1778658714.0399754,0.0025011348,0.29036805,0.17807053,0.0,0.0,0.0
228,1778658714.0499766,0.0025011348,0.29036805,0.17807053,0.0,0.0,0.0
229,1778658714.0599782,0.0025011348,0.29036805,0.17807053,0.0,0.0,0.0
230,1778658714.069979,0.0025011348,0.29036805,0.17807053,0.0,0.0,0.0
231,1778658714.0799801,0.0025011348,0.29036805,0.17807053,0.0,0.0,0.0
232,1778658714.089981,0.15869917,-0.072788,0.66618377,0.0,0.0,0.0
233,1778658714.0999844,0.15869917,-0.072788,0.66618377,0.0,0.0,0.0
234,1778658714.1099868,0.15869917,-0.072788,0.66618377,0.0,0.0,0.0
235,1778658714.119988,0.15869917,-0.072788,0.66618377,0.0,0.0,0.0
236,1778658714.129989,0.15869917,-0.072788,0.66618377,0.0,0.0,0.0
237,1778658714.1399903,0.15869917,-0.072788,0.66618377,0.0,0.0,0.0
238,1778658714.1499918,0.15869917,-0.072788,0.66618377,0.0,0.0,0.0
239,1778658714.1599927,0.15869917,-0.072788,0.66618377,0.0,0.0,0.0
240,1778658714.1699936,0.15869917,-0.072788,0.66618377,0.0,0.0,0.0
241,1778658714.1799948,0.15869917,-0.072788,0.66618377,0.0,0.0,0.0
242,1778658714.1899955,0.15869917,-0.072788,0.66618377,0.0,0.0,0.0
243,1778658714.1999965,0.15869917,-0.072788,0.66618377,0.0,0.0,0.0
244,1778658714.2099977,0.15869917,-0.072788,0.66618377,0.0,0.0,0.0
245,1778658714.2199988,0.15869917,-0.072788,0.66618377,0.0,0.0,0.0
246,1778658714.2299995,0.15869917,-0.072788,0.66618377,0.0,0.0,0.0
247,1778658714.2400012,0.15869917,-0.072788,0.66618377,0.0,0.0,0.0
248,1778658714.2500045,0.15869917,-0.072788,0.66618377,0.0,0.0,0.0
249,1778658714.2600064,0.15869917,-0.072788,0.66618377,0.0,0.0,0.0
250,1778658714.270008,0.15869917,-0.072788,0.66618377,0.0,0.0,0.0
251,1778658714.280009,0.15869917,-0.072788,0.66618377,0.0,0.0,0.0
252,1778658714.2900105,0.15869917,-0.072788,0.66618377,0.0,0.0,0.0
253,1778658714.3000119,0.24460724,-0.25631964,0.6622796,0.0,0.0,0.0
254,1778658714.3100145,0.24460724,-0.25631964,0.6622796,0.0,0.0,0.0
255,1778658714.3200173,0.24460724,-0.25631964,0.6622796,0.0,0.0,0.0
256,1778658714.3300188,0.24460724,-0.25631964,0.6622796,0.0,0.0,0.0
257,1778658714.3400197,0.24460724,-0.25631964,0.6622796,0.0,0.0,0.0
258,1778658714.3500211,0.24460724,-0.25631964,0.6622796,0.0,0.0,0.0
259,1778658714.3600233,0.24460724,-0.25631964,0.6622796,0.0,0.0,0.0
260,1778658714.3700247,0.24460724,-0.25631964,0.6622796,0.0,0.0,0.0
261,1778658714.380026,0.24460724,-0.25631964,0.6622796,0.0,0.0,0.0
262,1778658714.3900275,0.24460724,-0.25631964,0.6622796,0.0,0.0,0.0
263,1778658714.400028,0.24460724,-0.25631964,0.6622796,0.0,0.0,0.0
264,1778658714.4100304,0.24460724,-0.25631964,0.6622796,0.0,0.0,0.0
265,1778658714.4200313,0.24460724,-0.25631964,0.6622796,0.0,0.0,0.0
266,1778658714.430032,0.24460724,-0.25631964,0.6622796,0.0,0.0,0.0
267,1778658714.4400349,0.24460724,-0.25631964,0.6622796,0.0,0.0,0.0
268,1778658714.4500363,0.24460724,-0.25631964,0.6622796,0.0,0.0,0.0
269,1778658714.460041,0.24460724,-0.25631964,0.6622796,0.0,0.0,0.0
270,1778658714.4700441,0.24460724,-0.25631964,0.6622796,0.0,0.0,0.0
271,1778658714.4800491,0.24460724,-0.25631964,0.6622796,0.0,0.0,0.0
272,1778658714.4900503,0.24460724,-0.25631964,0.6622796,0.0,0.0,0.0
273,1778658714.5000517,0.27584654,-0.33441788,0.5724659,0.0,0.0,0.0
274,1778658714.5100543,0.27584654,-0.33441788,0.5724659,0.0,0.0,0.0
275,1778658714.5200574,0.27584654,-0.33441788,0.5724659,0.0,0.0,0.0
276,1778658714.530059,0.27584654,-0.33441788,0.5724659,0.0,0.0,0.0
277,1778658714.5400624,0.27584654,-0.33441788,0.5724659,0.0,0.0,0.0
278,1778658714.5500636,0.27584654,-0.33441788,0.5724659,0.0,0.0,0.0
279,1778658714.5600648,0.27584654,-0.33441788,0.5724659,0.0,0.0,0.0
280,1778658714.5700665,0.27584654,-0.33441788,0.5724659,0.0,0.0,0.0
281,1778658714.5800674,0.27584654,-0.33441788,0.5724659,0.0,0.0,0.0
282,1778658714.5900683,0.27584654,-0.33441788,0.5724659,0.0,0.0,0.0
283,1778658714.6000707,0.27584654,-0.33441788,0.5724659,0.0,0.0,0.0
284,1778658714.6100724,0.27584654,-0.33441788,0.5724659,0.0,0.0,0.0
285,1778658714.6200745,0.27584654,-0.33441788,0.5724659,0.0,0.0,0.0
286,1778658714.6300755,0.27584654,-0.33441788,0.5724659,0.0,0.0,0.0
287,1778658714.6400764,0.27584654,-0.33441788,0.5724659,0.0,0.0,0.0
288,1778658714.6500773,0.27584654,-0.33441788,0.5724659,0.0,0.0,0.0
289,1778658714.6600816,0.27584654,-0.33441788,0.5724659,0.0,0.0,0.0
290,1778658714.6700828,0.27584654,-0.33441788,0.5724659,0.0,0.0,0.0
291,1778658714.680084,0.27584654,-0.33441788,0.5724659,0.0,0.0,0.0
292,1778658714.6901724,0.27584654,-0.33441788,0.5724659,0.0,0.0,0.0
293,1778658714.7001734,0.27584654,-0.33441788,0.5724659,0.0,0.0,0.0
294,1778658714.710176,0.27584654,-0.33441788,0.5724659,0.0,0.0,0.0
295,1778658714.720186,0.27975067,-0.36956286,0.47484386,0.0,0.0,0.0
296,1778658714.730187,0.27975067,-0.36956286,0.47484386,0.0,0.0,0.0
297,1778658714.740188,0.27975067,-0.36956286,0.47484386,0.0,0.0,0.0
298,1778658714.7501886,0.27975067,-0.36956286,0.47484386,0.0,0.0,0.0
299,1778658714.7601898,0.27975067,-0.36956286,0.47484386,0.0,0.0,0.0
300,1778658714.7701914,0.27975067,-0.36956286,0.47484386,0.0,0.0,0.0
301,1778658714.7801924,0.27975067,-0.36956286,0.47484386,0.0,0.0,0.0
302,1778658714.7901936,0.27975067,-0.36956286,0.47484386,0.0,0.0,0.0
303,1778658714.8001966,0.27975067,-0.36956286,0.47484386,0.0,0.0,0.0
304,1778658714.8101976,0.27975067,-0.36956286,0.47484386,0.0,0.0,0.0
305,1778658714.820199,0.27975067,-0.36956286,0.47484386,0.0,0.0,0.0
306,1778658714.830201,0.5999535,-0.7483386,0.779427,0.0,0.0,0.0
307,1778658714.840202,0.5999535,-0.7483386,0.779427,0.0,0.0,0.0
308,1778658714.850203,0.5999535,-0.7483386,0.779427,0.0,0.0,0.0
309,1778658714.8602061,0.5999535,-0.7483386,0.779427,0.0,0.0,0.0
310,1778658714.8702078,0.5999535,-0.7483386,0.779427,0.0,0.0,0.0
311,1778658714.880211,0.27975067,-0.36956286,0.47484386,0.0,0.0,0.0
312,1778658714.8902125,0.27975067,-0.36956286,0.47484386,0.0,0.0,0.0
313,1778658714.9002135,0.27975067,-0.36956286,0.47484386,0.0,0.0,0.0
314,1778658714.910216,0.27975067,-0.36956286,0.47484386,0.0,0.0,0.0
315,1778658714.9202178,0.27975067,-0.36956286,0.47484386,0.0,0.0,0.0
316,1778658714.9302182,0.27975067,-0.36956286,0.47484386,0.0,0.0,0.0
317,1778658714.94022,0.27975067,-0.36956286,0.47484386,0.0,0.0,0.0
318,1778658714.9502213,0.27975067,-0.36956286,0.47484386,0.0,0.0,0.0
319,1778658714.9602232,0.27975067,-0.36956286,0.47484386,0.0,0.0,0.0
320,1778658714.9702246,0.27975067,-0.36956286,0.47484386,0.0,0.0,0.0
321,1778658714.9802258,0.27975067,-0.36956286,0.47484386,0.0,0.0,0.0
322,1778658714.9902265,0.27975067,-0.36956286,0.47484386,0.0,0.0,0.0
323,1778658715.000228,0.27975067,-0.36956286,0.47484386,0.0,0.0,0.0
324,1778658715.0102296,0.27975067,-0.36956286,0.47484386,0.0,0.0,0.0
325,1778658715.0202303,0.27975067,-0.36956286,0.47484386,0.0,0.0,0.0
326,1778658715.030233,0.27975067,-0.36956286,0.47484386,0.0,0.0,0.0
327,1778658715.0402346,0.27975067,-0.36956286,0.47484386,0.0,0.0,0.0
328,1778658715.0502355,0.27975067,-0.36956286,0.47484386,0.0,0.0,0.0
329,1778658715.060238,0.27975067,-0.36956286,0.47484386,0.0,0.0,0.0
330,1778658715.0702393,0.27975067,-0.36956286,0.47484386,0.0,0.0,0.0
331,1778658715.08024,0.27975067,-0.36956286,0.47484386,0.0,0.0,0.0
332,1778658715.0902414,0.27975067,-0.36956286,0.47484386,0.0,0.0,0.0
333,1778658715.1002426,0.27975067,-0.36956286,0.47484386,0.0,0.0,0.0
334,1778658715.1102436,0.27975067,-0.36956286,0.47484386,0.0,0.0,0.0
335,1778658715.120245,0.27975067,-0.36956286,0.47484386,0.0,0.0,0.0
336,1778658715.130246,0.27975067,-0.36956286,0.47484386,0.0,0.0,0.0
337,1778658715.1402469,0.27975067,-0.36956286,0.47484386,0.0,0.0,0.0
338,1778658715.1502485,0.27975067,-0.36956286,0.47484386,0.0,0.0,0.0
339,1778658715.16025,0.79129493,-0.9670152,0.8223818,0.0,0.0,0.0
340,1778658715.1702516,0.79129493,-0.9670152,0.8223818,0.0,0.0,0.0
341,1778658715.1802533,0.79129493,-0.9670152,0.8223818,0.0,0.0,0.0
342,1778658715.1902559,0.79129493,-0.9670152,0.8223818,0.0,0.0,0.0
343,1778658715.2002575,0.79129493,-0.9670152,0.8223818,0.0,0.0,0.0
344,1778658715.2102602,0.79129493,-0.9670152,0.8223818,0.0,0.0,0.0
345,1778658715.2202628,0.79129493,-0.9670152,0.8223818,0.0,0.0,0.0
346,1778658715.230264,0.79129493,-0.9670152,0.8223818,0.0,0.0,0.0
347,1778658715.2402651,0.79129493,-0.9670152,0.8223818,0.0,0.0,0.0
348,1778658715.2502666,0.79129493,-0.9670152,0.8223818,0.0,0.0,0.0
349,1778658715.2602673,0.79129493,-0.9670152,0.8223818,0.0,0.0,0.0
350,1778658715.2702682,0.79129493,-0.9670152,0.8223818,0.0,0.0,0.0
351,1778658715.280269,0.79129493,-0.9670152,0.8223818,0.0,0.0,0.0
352,1778658715.29027,0.79129493,-0.9670152,0.8223818,0.0,0.0,0.0
353,1778658715.300277,0.79129493,-0.9670152,0.8223818,0.0,0.0,0.0
354,1778658715.3102787,0.79129493,-0.9670152,0.8223818,0.0,0.0,0.0
355,1778658715.3202806,0.79129493,-0.9670152,0.8223818,0.0,0.0,0.0
356,1778658715.3302817,0.79129493,-0.9670152,0.8223818,0.0,0.0,0.0
357,1778658715.3402824,0.79129493,-0.9670152,0.8223818,0.0,0.0,0.0
358,1778658715.350284,1.1622623,-1.7440935,-0.62243724,0.0,0.0,0.0
359,1778658715.3602867,1.1622623,-1.7440935,-0.62243724,0.0,0.0,0.0
360,1778658715.3702877,1.1622623,-1.7440935,-0.62243724,0.0,0.0,0.0
361,1778658715.3802896,1.3496982,-2.5836504,0.58808553,0.0,0.0,0.0
362,1778658715.3902905,1.3496982,-2.5836504,0.58808553,0.0,0.0,0.0
363,1778658715.4002914,1.3496982,-2.5836504,0.58808553,0.0,0.0,0.0
364,1778658715.4102924,1.3496982,-2.5836504,0.58808553,0.0,0.0,0.0
365,1778658715.4202933,1.3496982,-2.5836504,0.58808553,0.0,0.0,0.0
366,1778658715.4302945,1.3496982,-2.5836504,0.58808553,0.0,0.0,0.0
367,1778658715.440296,1.3496982,-2.5836504,0.58808553,0.0,0.0,0.0
368,1778658715.450297,1.3496982,-2.5836504,0.58808553,0.0,0.0,0.0
369,1778658715.4602993,1.3496982,-2.5836504,0.58808553,0.0,0.0,0.0
370,1778658715.4703004,1.3496982,-2.5836504,0.58808553,0.0,0.0,0.0
371,1778658715.4803016,1.3496982,-2.5836504,0.58808553,0.0,0.0,0.0
372,1778658715.4903052,1.3496982,-2.5836504,0.58808553,0.0,0.0,0.0
373,1778658715.500307,1.3496982,-2.5836504,0.58808553,0.0,0.0,0.0
374,1778658715.5103085,1.3496982,-2.5836504,0.58808553,0.0,0.0,0.0
375,1778658715.5203106,1.3496982,-2.5836504,0.58808553,0.0,0.0,0.0
376,1778658715.5303116,1.3496982,-2.5836504,0.58808553,0.0,0.0,0.0
377,1778658715.5403147,1.3496982,-2.5836504,0.58808553,0.0,0.0,0.0
378,1778658715.5503192,1.3496982,-2.5836504,0.58808553,0.0,0.0,0.0
379,1778658715.5603223,1.3496982,-2.5836504,0.58808553,0.0,0.0,0.0
380,1778658715.5703237,1.3496982,-2.5836504,0.58808553,0.0,0.0,0.0
381,1778658715.5803254,1.6972362,-3.4232073,0.35769647,0.0,0.0,0.0
382,1778658715.5903263,1.6972362,-3.4232073,0.35769647,0.0,0.0,0.0
383,1778658715.6003282,1.6816164,-3.7316947,0.34207684,0.0,0.0,0.0
384,1778658715.6103296,1.6816164,-3.7316947,0.34207684,0.0,0.0,0.0
385,1778658715.6203306,1.6816164,-3.7316947,0.34207684,0.0,0.0,0.0
386,1778658715.6303322,1.6816164,-3.7316947,0.34207684,0.0,0.0,0.0
387,1778658715.6403334,1.6816164,-3.7316947,0.34207684,0.0,0.0,0.0
388,1778658715.6503344,1.6816164,-3.7316947,0.34207684,0.0,0.0,0.0
389,1778658715.660336,1.6816164,-3.7316947,0.34207684,0.0,0.0,0.0
390,1778658715.6703367,1.6816164,-3.7316947,0.34207684,0.0,0.0,0.0
391,1778658715.6803374,1.6816164,-3.7316947,0.34207684,0.0,0.0,0.0
392,1778658715.6903384,1.6816164,-3.7316947,0.34207684,0.0,0.0,0.0
393,1778658715.7003388,1.6816164,-3.7316947,0.34207684,0.0,0.0,0.0
394,1778658715.7103395,1.6816164,-3.7316947,0.34207684,0.0,0.0,0.0
395,1778658715.720342,1.6816164,-3.7316947,0.34207684,0.0,0.0,0.0
396,1778658715.730345,1.6816164,-3.7316947,0.34207684,0.0,0.0,0.0
397,1778658715.740347,1.6816164,-3.7316947,0.34207684,0.0,0.0,0.0
398,1778658715.7503479,1.6816164,-3.7316947,0.34207684,0.0,0.0,0.0
399,1778658715.76035,1.6816164,-3.7316947,0.34207684,0.0,0.0,0.0
400,1778658715.7703514,1.6816164,-3.7316947,0.34207684,0.0,0.0,0.0
401,1778658715.7803566,1.6816164,-3.7316947,0.34207684,0.0,0.0,0.0
402,1778658715.7903588,1.6816164,-3.7316947,0.34207684,0.0,0.0,0.0
403,1778658715.8003595,1.6816164,-3.7316947,0.34207684,0.0,0.0,0.0
404,1778658715.8103604,1.6816164,-3.7316947,0.34207684,0.0,0.0,0.0
405,1778658715.8203616,1.6816164,-3.7316947,0.34207684,0.0,0.0,0.0
406,1778658715.8303628,1.6816164,-3.7316947,0.34207684,0.0,0.0,0.0
407,1778658715.840364,1.6816164,-3.7316947,0.34207684,0.0,0.0,0.0
408,1778658715.8503656,1.6816164,-3.7316947,0.34207684,0.0,0.0,0.0
409,1778658715.8603666,1.6816164,-3.7316947,0.34207684,0.0,0.0,0.0
410,1778658715.8703678,1.6816164,-3.7316947,0.34207684,0.0,0.0,0.0
411,1778658715.8803701,1.6816164,-3.7316947,0.34207684,0.0,0.0,0.0
412,1778658715.8903725,1.6816164,-3.7316947,0.34207684,0.0,0.0,0.0
413,1778658715.9003751,1.6816164,-3.7316947,0.34207684,0.0,0.0,0.0
414,1778658715.910377,1.6816164,-3.7316947,0.34207684,0.0,0.0,0.0
415,1778658715.9203782,1.6816164,-3.7316947,0.34207684,0.0,0.0,0.0
416,1778658715.930379,1.6816164,-3.7316947,0.34207684,0.0,0.0,0.0
417,1778658715.940383,1.6816164,-3.7316947,0.34207684,0.0,0.0,0.0
418,1778658715.950384,1.6816164,-3.7316947,0.34207684,0.0,0.0,0.0
419,1778658715.9603853,1.6816164,-3.7316947,0.34207684,0.0,0.0,0.0
420,1778658715.9703867,1.6816164,-3.7316947,0.34207684,0.0,0.0,0.0
421,1778658715.9803877,1.6816164,-3.7316947,0.34207684,0.0,0.0,0.0
422,1778658715.9903893,1.6816164,-3.7316947,0.34207684,0.0,0.0,0.0
423,1778658716.0003903,1.6816164,-3.7316947,0.34207684,0.0,0.0,0.0
424,1778658716.0103917,1.6816164,-3.7316947,0.34207684,0.0,0.0,0.0
425,1778658716.0203934,1.6816164,-3.7316947,0.34207684,0.0,0.0,0.0
426,1778658716.0303938,1.6816164,-3.7316947,0.34207684,0.0,0.0,0.0
427,1778658716.0403955,1.6816164,-3.7316947,0.34207684,0.0,0.0,0.0
428,1778658716.0503964,1.6816164,-3.7316947,0.34207684,0.0,0.0,0.0
429,1778658716.0603974,1.6816164,-3.7316947,0.34207684,0.0,0.0,0.0
430,1778658716.0703988,1.3145531,-3.6731217,0.34207684,0.0,0.0,0.0
431,1778658716.0804,1.3145531,-3.6731217,0.34207684,0.0,0.0,0.0
432,1778658716.090401,1.3145531,-3.6731217,0.34207684,0.0,0.0,0.0
433,1778658716.1004024,1.3145531,-3.6731217,0.34207684,0.0,0.0,0.0
434,1778658716.1104038,1.3145531,-3.6731217,0.34207684,0.0,0.0,0.0
435,1778658716.1204054,1.3145531,-3.6731217,0.34207684,0.0,0.0,0.0
436,1778658716.1304092,1.3145531,-3.6731217,0.34207684,0.0,0.0,0.0
437,1778658716.1404119,1.3145531,-3.6731217,0.34207684,0.0,0.0,0.0
438,1778658716.150413,1.3145531,-3.6731217,0.34207684,0.0,0.0,0.0
439,1778658716.1604145,1.3145531,-3.6731217,0.34207684,0.0,0.0,0.0
440,1778658716.1704154,1.3145531,-3.6731217,0.34207684,0.0,0.0,0.0
441,1778658716.180417,1.3145531,-3.6731217,0.34207684,0.0,0.0,0.0
442,1778658716.1904185,-0.13417001,-2.59927,0.42017508,0.0,0.0,0.0
443,1778658716.2004197,-0.13417001,-2.59927,0.42017508,0.0,0.0,0.0
444,1778658716.210421,-0.13417001,-2.59927,0.42017508,0.0,0.0,0.0
445,1778658716.2204227,-0.13417001,-2.59927,0.42017508,0.0,0.0,0.0
446,1778658716.2304237,-0.13417001,-2.59927,0.42017508,0.0,0.0,0.0
447,1778658716.2404246,-0.13417001,-2.59927,0.42017508,0.0,0.0,0.0
448,1778658716.2504253,-0.13417001,-2.59927,0.42017508,0.0,0.0,0.0
449,1778658716.2604272,1.3145531,-3.6731217,0.34207684,0.0,0.0,0.0
450,1778658716.2704284,1.3145531,-3.6731217,0.34207684,0.0,0.0,0.0
451,1778658716.2804294,1.3145531,-3.6731217,0.34207684,0.0,0.0,0.0
452,1778658716.2904315,1.3145531,-3.6731217,0.34207684,0.0,0.0,0.0
453,1778658716.3004324,1.3145531,-3.6731217,0.34207684,0.0,0.0,0.0
454,1778658716.3104334,1.3145531,-3.6731217,0.34207684,0.0,0.0,0.0
455,1778658716.3204358,1.3145531,-3.6731217,0.34207684,0.0,0.0,0.0
456,1778658716.3304372,1.3145531,-3.6731217,0.34207684,0.0,0.0,0.0
457,1778658716.3404412,1.3145531,-3.6731217,0.34207684,0.0,0.0,0.0
458,1778658716.350444,1.3145531,-3.6731217,0.34207684,0.0,0.0,0.0
459,1778658716.3604457,1.3145531,-3.6731217,0.34207684,0.0,0.0,0.0
460,1778658716.370447,1.3145531,-3.6731217,0.34207684,0.0,0.0,0.0
461,1778658716.3804493,-0.25522307,-2.3298304,0.43188903,0.0,0.0,0.0
462,1778658716.3904502,-0.25522307,-2.3298304,0.43188903,0.0,0.0,0.0
463,1778658716.4004514,-0.25522307,-2.3298304,0.43188903,0.0,0.0,0.0
464,1778658716.4104524,-0.25522307,-2.3298304,0.43188903,0.0,0.0,0.0
465,1778658716.420453,-0.25522307,-2.3298304,0.43188903,0.0,0.0,0.0
466,1778658716.4304535,-0.25522307,-2.3298304,0.43188903,0.0,0.0,0.0
467,1778658716.4404557,-0.25522307,-2.3298304,0.43188903,0.0,0.0,0.0
468,1778658716.4504573,-0.25522307,-2.3298304,0.43188903,0.0,0.0,0.0
469,1778658716.4604588,-0.25522307,-2.3298304,0.43188903,0.0,0.0,0.0
470,1778658716.4704595,-0.25522307,-2.3298304,0.43188903,0.0,0.0,0.0
471,1778658716.4804614,-0.25522307,-2.3298304,0.43188903,0.0,0.0,0.0
472,1778658716.4904628,-0.25522307,-2.3298304,0.43188903,0.0,0.0,0.0
473,1778658716.5004652,-0.25522307,-2.3298304,0.43188903,0.0,0.0,0.0
474,1778658716.5104668,-0.25522307,-2.3298304,0.43188903,0.0,0.0,0.0
475,1778658716.520471,-0.25522307,-2.3298304,0.43188903,0.0,0.0,0.0
476,1778658716.5304725,-0.25522307,-2.3298304,0.43188903,0.0,0.0,0.0
477,1778658716.540474,-0.25522307,-2.3298304,0.43188903,0.0,0.0,0.0
478,1778658716.5504746,-0.25522307,-2.3298304,0.43188903,0.0,0.0,0.0
479,1778658716.5604768,-0.25522307,-2.3298304,0.43188903,0.0,0.0,0.0
480,1778658716.5704777,-0.25522307,-2.3298304,0.43188903,0.0,0.0,0.0
481,1778658716.5804784,-0.25522307,-2.3298304,0.43188903,0.0,0.0,0.0
482,1778658716.5904799,-0.25522307,-2.3298304,0.43188903,0.0,0.0,0.0
483,1778658716.6004817,-0.25522307,-2.3298304,0.43188903,0.0,0.0,0.0
484,1778658716.6104836,-0.25522307,-2.3298304,0.43188903,0.0,0.0,0.0
485,1778658716.6204848,-0.25522307,-2.3298304,0.43188903,0.0,0.0,0.0
486,1778658716.6304858,-0.25522307,-2.3298304,0.43188903,0.0,0.0,0.0
487,1778658716.6404865,-0.25522307,-2.3298304,0.43188903,0.0,0.0,0.0
488,1778658716.6504877,-0.25522307,-2.3298304,0.43188903,0.0,0.0,0.0
489,1778658716.6604884,-0.25522307,-2.3298304,0.43188903,0.0,0.0,0.0
490,1778658716.670491,-0.25522307,-2.3298304,0.43188903,0.0,0.0,0.0
491,1778658716.680492,-0.25522307,-2.3298304,0.43188903,0.0,0.0,0.0
492,1778658716.6904933,-0.25522307,-2.3298304,0.43188903,0.0,0.0,0.0
493,1778658716.7004948,-0.25522307,-2.3298304,0.43188903,0.0,0.0,0.0
494,1778658716.710496,-0.25522307,-2.3298304,0.43188903,0.0,0.0,0.0
495,1778658716.7204967,-0.25522307,-2.3298304,0.43188903,0.0,0.0,0.0
496,1778658716.7304988,-0.25522307,-2.3298304,0.43188903,0.0,0.0,0.0
497,1778658716.7405007,-0.25522307,-2.3298304,0.43188903,0.0,0.0,0.0
498,1778658716.750502,-0.25522307,-2.3298304,0.43188903,0.0,0.0,0.0
499,1778658716.7605057,-0.25522307,-2.3298304,0.43188903,0.0,0.0,0.0
500,1778658716.7705073,-0.25522307,-2.3298304,0.43188903,0.0,0.0,0.0
501,1778658716.7805085,-0.25522307,-2.3298304,0.43188903,0.0,0.0,0.0
502,1778658716.790509,-0.25522307,-2.3298304,0.43188903,0.0,0.0,0.0
503,1778658716.8005097,-0.25522307,-2.3298304,0.43188903,0.0,0.0,0.0
504,1778658716.810511,-0.30598614,-1.8104762,0.40064976,0.0,0.0,0.0
505,1778658716.8205118,-0.30598614,-1.8104762,0.40064976,0.0,0.0,0.0
506,1778658716.8305163,-0.30598614,-1.8104762,0.40064976,0.0,0.0,0.0
507,1778658716.840518,-0.30598614,-1.8104762,0.40064976,0.0,0.0,0.0
508,1778658716.850519,-0.30598614,-1.8104762,0.40064976,0.0,0.0,0.0
509,1778658716.8605196,-0.30598614,-1.8104762,0.40064976,0.0,0.0,0.0
510,1778658716.8705227,-0.36846474,-1.7519033,0.38893577,0.0,0.0,0.0
511,1778658716.8805244,-0.36846474,-1.7519033,0.38893577,0.0,0.0,0.0
512,1778658716.8905268,-0.36846474,-1.7519033,0.38893577,0.0,0.0,0.0
513,1778658716.9005318,-0.4270392,-1.7128543,0.34598097,0.0,0.0,0.0
514,1778658716.9105332,-0.4270392,-1.7128543,0.34598097,0.0,0.0,0.0
515,1778658716.9205348,-0.4270392,-1.7128543,0.34598097,0.0,0.0,0.0
516,1778658716.9305363,-0.4270392,-1.7128543,0.34598097,0.0,0.0,0.0
517,1778658716.9405377,-0.4270392,-1.7128543,0.34598097,0.0,0.0,0.0
518,1778658716.950539,-0.4270392,-1.7128543,0.34598097,0.0,0.0,0.0
519,1778658716.960542,-0.4270392,-1.7128543,0.34598097,0.0,0.0,0.0
520,1778658716.9705431,-0.4270392,-1.7128543,0.34598097,0.0,0.0,0.0
521,1778658716.9805489,-0.4270392,-1.7128543,0.34598097,0.0,0.0,0.0
522,1778658716.9905517,-0.4270392,-1.7128543,0.34598097,0.0,0.0,0.0
523,1778658717.000553,-0.4270392,-1.7128543,0.34598097,0.0,0.0,0.0
524,1778658717.0105546,-0.4270392,-1.7128543,0.34598097,0.0,0.0,0.0
525,1778658717.020556,-0.45437282,-1.6386601,0.21321397,0.0,0.0,0.0
526,1778658717.0305572,-0.45437282,-1.6386601,0.21321397,0.0,0.0,0.0
527,1778658717.040559,-0.45437282,-1.6386601,0.21321397,0.0,0.0,0.0
528,1778658717.05056,-0.45437282,-1.6386601,0.21321397,0.0,0.0,0.0
529,1778658717.0605614,-0.45437282,-1.6386601,0.21321397,0.0,0.0,0.0
530,1778658717.0705628,-0.45437282,-1.6386601,0.21321397,0.0,0.0,0.0
531,1778658717.080564,-0.45437282,-1.6386601,0.21321397,0.0,0.0,0.0
532,1778658717.0905662,-0.45437282,-1.6386601,0.21321397,0.0,0.0,0.0
533,1778658717.1005673,-0.45437282,-1.6386601,0.21321397,0.0,0.0,0.0
534,1778658717.1105685,-0.45437282,-1.6386601,0.21321397,0.0,0.0,0.0
535,1778658717.12057,-0.45437282,-1.6386601,0.21321397,0.0,0.0,0.0
536,1778658717.1305711,-0.45437282,-1.6386601,0.21321397,0.0,0.0,0.0
537,1778658717.1405742,-0.43484902,-1.6152307,0.1585452,0.0,0.0,0.0
538,1778658717.1505756,-0.43484902,-1.6152307,0.1585452,0.0,0.0,0.0
539,1778658717.1605766,-0.43484902,-1.6152307,0.1585452,0.0,0.0,0.0
540,1778658717.170579,-0.43484902,-1.6152307,0.1585452,0.0,0.0,0.0
541,1778658717.1805801,-0.43484902,-1.6152307,0.1585452,0.0,0.0,0.0
542,1778658717.1905813,-0.43484902,-1.6152307,0.1585452,0.0,0.0,0.0
543,1778658717.2005844,-0.43484902,-1.6152307,0.1585452,0.0,0.0,0.0
544,1778658717.210586,-0.43484902,-1.6152307,0.1585452,0.0,0.0,0.0
545,1778658717.220587,-0.43484902,-1.6152307,0.1585452,0.0,0.0,0.0
546,1778658717.230588,-0.4192294,-1.6074208,0.14683123,0.0,0.0,0.0
547,1778658717.240589,-0.4192294,-1.6074208,0.14683123,0.0,0.0,0.0
548,1778658717.2505908,-0.4192294,-1.6074208,0.14683123,0.0,0.0,0.0
549,1778658717.2605927,-0.4192294,-1.6074208,0.14683123,0.0,0.0,0.0
550,1778658717.2705936,-0.4192294,-1.6074208,0.14683123,0.0,0.0,0.0
551,1778658717.2805943,-0.4192294,-1.6074208,0.14683123,0.0,0.0,0.0
552,1778658717.290596,-0.4192294,-1.6074208,0.14683123,0.0,0.0,0.0
553,1778658717.3005965,-0.4192294,-1.6074208,0.14683123,0.0,0.0,0.0
554,1778658717.310598,-0.4192294,-1.6074208,0.14683123,0.0,0.0,0.0
555,1778658717.3205986,-0.4192294,-1.6074208,0.14683123,0.0,0.0,0.0
556,1778658717.3306005,-0.4192294,-1.6074208,0.14683123,0.0,0.0,0.0
557,1778658717.3406022,-0.4192294,-1.6074208,0.14683123,0.0,0.0,0.0
558,1778658717.3506033,-0.4192294,-1.6074208,0.14683123,0.0,0.0,0.0
559,1778658717.3606062,-0.4192294,-1.6074208,0.14683123,0.0,0.0,0.0
560,1778658717.3706074,-0.39189422,-1.6191348,0.15464105,0.0,0.0,0.0
561,1778658717.3806083,-0.39189422,-1.6191348,0.15464105,0.0,0.0,0.0
562,1778658717.3906102,-0.39189422,-1.6191348,0.15464105,0.0,0.0,0.0
563,1778658717.4006116,-0.39189422,-1.6191348,0.15464105,0.0,0.0,0.0
564,1778658717.4106126,-0.39189422,-1.6191348,0.15464105,0.0,0.0,0.0
565,1778658717.420614,-0.39189422,-1.6191348,0.15464105,0.0,0.0,0.0
566,1778658717.4306157,-0.39189422,-1.6191348,0.15464105,0.0,0.0,0.0
567,1778658717.4406173,-0.39189422,-1.6191348,0.15464105,0.0,0.0,0.0
568,1778658717.4506185,-0.39189422,-1.6191348,0.15464105,0.0,0.0,0.0
569,1778658717.4606197,-0.39189422,-1.6191348,0.15464105,0.0,0.0,0.0
570,1778658717.470621,-0.39189422,-1.6191348,0.15464105,0.0,0.0,0.0
571,1778658717.4806223,-0.39189422,-1.6191348,0.15464105,0.0,0.0,0.0
572,1778658717.490623,-0.39189422,-1.6191348,0.15464105,0.0,0.0,0.0
573,1778658717.5006244,-0.39189422,-1.6191348,0.15464105,0.0,0.0,0.0
574,1778658717.5106258,-0.39189422,-1.6191348,0.15464105,0.0,0.0,0.0
575,1778658717.5206265,-0.39189422,-1.6191348,0.15464105,0.0,0.0,0.0
576,1778658717.5306292,-0.39189422,-1.6191348,0.15464105,0.0,0.0,0.0
577,1778658717.540631,-0.39189422,-1.6191348,0.15464105,0.0,0.0,0.0
578,1778658717.5506332,-0.39189422,-1.6191348,0.15464105,0.0,0.0,0.0
579,1778658717.560636,-0.39189422,-1.6191348,0.15464105,0.0,0.0,0.0
580,1778658717.5706372,-0.39189422,-1.6191348,0.15464105,0.0,0.0,0.0
581,1778658717.5806384,-0.29427218,-1.6503756,0.14292555,0.0,0.0,0.0
582,1778658717.59064,-0.29427218,-1.6503756,0.14292555,0.0,0.0,0.0
583,1778658717.6006489,-0.29427218,-1.6503756,0.14292555,0.0,0.0,0.0
584,1778658717.6106508,-0.29427218,-1.6503756,0.14292555,0.0,0.0,0.0
585,1778658717.6206524,-0.29427218,-1.6503756,0.14292555,0.0,0.0,0.0
586,1778658717.6306536,-0.29427218,-1.6503756,0.14292555,0.0,0.0,0.0
587,1778658717.6406543,-0.29427218,-1.6503756,0.14292555,0.0,0.0,0.0
588,1778658717.6506548,-0.29427218,-1.6503756,0.14292555,0.0,0.0,0.0
589,1778658717.660658,-0.29427218,-1.6503756,0.14292555,0.0,0.0,0.0
590,1778658717.6706593,-0.29427218,-1.6503756,0.14292555,0.0,0.0,0.0
591,1778658717.6806602,-0.29427218,-1.6503756,0.14292555,0.0,0.0,0.0
592,1778658717.6906624,-0.29427218,-1.6503756,0.14292555,0.0,0.0,0.0
593,1778658717.7006652,-0.29427218,-1.6503756,0.14292555,0.0,0.0,0.0
594,1778658717.7106678,-0.29427218,-1.6503756,0.14292555,0.0,0.0,0.0
595,1778658717.7206695,-0.29427218,-1.6503756,0.14292555,0.0,0.0,0.0
596,1778658717.730671,-0.29427218,-1.6503756,0.14292555,0.0,0.0,0.0
597,1778658717.7406726,-0.29427218,-1.6503756,0.14292555,0.0,0.0,0.0
598,1778658717.7506747,-0.29427218,-1.6503756,0.14292555,0.0,0.0,0.0
599,1778658717.760676,-0.29427218,-1.6503756,0.14292555,0.0,0.0,0.0
600,1778658717.7706788,-0.29427218,-1.6503756,0.14292555,0.0,0.0,0.0
601,1778658717.7806807,-0.29427218,-1.6503756,0.14292555,0.0,0.0,0.0
602,1778658717.7906818,-0.29427218,-1.6503756,0.14292555,0.0,0.0,0.0
603,1778658717.8006828,-0.29427218,-1.6503756,0.14292555,0.0,0.0,0.0
604,1778658717.8106842,-0.29427218,-1.6503756,0.14292555,0.0,0.0,0.0
605,1778658717.8206859,-0.29427218,-1.6503756,0.14292555,0.0,0.0,0.0
606,1778658717.8306873,-0.29427218,-1.6503756,0.14292555,0.0,0.0,0.0
607,1778658717.8406885,-0.29427218,-1.6503756,0.14292555,0.0,0.0,0.0
608,1778658717.8506904,-0.29427218,-1.6503756,0.14292555,0.0,0.0,0.0
609,1778658717.8606918,-0.29427218,-1.6503756,0.14292555,0.0,0.0,0.0
610,1778658717.870693,-0.29427218,-1.6503756,0.14292555,0.0,0.0,0.0
611,1778658717.8806949,-0.29427218,-1.6503756,0.14292555,0.0,0.0,0.0
612,1778658717.8906972,-0.29427218,-1.6503756,0.14292555,0.0,0.0,0.0
613,1778658717.9006991,-0.29427218,-1.6503756,0.14292555,0.0,0.0,0.0
614,1778658717.9107003,-0.29427218,-1.6503756,0.14292555,0.0,0.0,0.0
615,1778658717.920701,-0.29427218,-1.6503756,0.14292555,0.0,0.0,0.0
616,1778658717.9307027,0.025930608,-1.7401879,0.15073536,0.0,0.0,0.0
617,1778658717.9407043,0.025930608,-1.7401879,0.15073536,0.0,0.0,0.0
618,1778658717.9507048,0.025930608,-1.7401879,0.15073536,0.0,0.0,0.0
619,1778658717.9607065,0.025930608,-1.7401879,0.15073536,0.0,0.0,0.0
620,1778658717.970708,0.025930608,-1.7401879,0.15073536,0.0,0.0,0.0
621,1778658717.9807086,0.025930608,-1.7401879,0.15073536,0.0,0.0,0.0
622,1778658717.9907095,0.025930608,-1.7401879,0.15073536,0.0,0.0,0.0
623,1778658718.0007102,0.025930608,-1.7401879,0.15073536,0.0,0.0,0.0
624,1778658718.010713,0.025930608,-1.7401879,0.15073536,0.0,0.0,0.0
625,1778658718.020718,0.025930608,-1.7401879,0.15073536,0.0,0.0,0.0
626,1778658718.0307195,0.025930608,-1.7401879,0.15073536,0.0,0.0,0.0
627,1778658718.0407205,0.025930608,-1.7401879,0.15073536,0.0,0.0,0.0
628,1778658718.0507221,0.025930608,-1.7401879,0.15073536,0.0,0.0,0.0
629,1778658718.0607233,0.025930608,-1.7401879,0.15073536,0.0,0.0,0.0
630,1778658718.070724,0.025930608,-1.7401879,0.15073536,0.0,0.0,0.0
631,1778658718.0807254,0.025930608,-1.7401879,0.15073536,0.0,0.0,0.0
632,1778658718.0907264,0.025930608,-1.7401879,0.15073536,0.0,0.0,0.0
633,1778658718.100727,0.025930608,-1.7401879,0.15073536,0.0,0.0,0.0
634,1778658718.1107283,0.025930608,-1.7401879,0.15073536,0.0,0.0,0.0
635,1778658718.1207297,0.15479349,-1.7753328,0.18588035,0.0,0.0,0.0
636,1778658718.1307318,0.15479349,-1.7753328,0.18588035,0.0,0.0,0.0
637,1778658718.140733,0.15479349,-1.7753328,0.18588035,0.0,0.0,0.0
638,1778658718.1507363,0.15479349,-1.7753328,0.18588035,0.0,0.0,0.0
639,1778658718.1607378,0.15479349,-1.7753328,0.18588035,0.0,0.0,0.0
640,1778658718.1707385,0.15479349,-1.7753328,0.18588035,0.0,0.0,0.0
641,1778658718.18074,0.15479349,-1.7753328,0.18588035,0.0,0.0,0.0
642,1778658718.1907415,0.15479349,-1.7753328,0.18588035,0.0,0.0,0.0
643,1778658718.2007422,0.15479349,-1.7753328,0.18588035,0.0,0.0,0.0
644,1778658718.210744,0.15479349,-1.7753328,0.18588035,0.0,0.0,0.0
645,1778658718.2207448,0.15479349,-1.7753328,0.18588035,0.0,0.0,0.0
646,1778658718.2307458,0.15479349,-1.7753328,0.18588035,0.0,0.0,0.0
647,1778658718.2407472,0.15479349,-1.7753328,0.18588035,0.0,0.0,0.0
648,1778658718.2507489,0.15479349,-1.7753328,0.18588035,0.0,0.0,0.0
649,1778658718.260751,0.15479349,-1.7753328,0.18588035,0.0,0.0,0.0
650,1778658718.2707524,0.27194086,-1.7440935,0.17416483,0.0,0.0,0.0
651,1778658718.2807534,0.27194086,-1.7440935,0.17416483,0.0,0.0,0.0
652,1778658718.2907546,0.27194086,-1.7440935,0.17416483,0.0,0.0,0.0
653,1778658718.3007553,0.27194086,-1.7440935,0.17416483,0.0,0.0,0.0
654,1778658718.3107564,0.27194086,-1.7440935,0.17416483,0.0,0.0,0.0
655,1778658718.3207574,0.27194086,-1.7440935,0.17416483,0.0,0.0,0.0
656,1778658718.3307588,0.27194086,-1.7440935,0.17416483,0.0,0.0,0.0
657,1778658718.3407602,0.27194086,-1.7440935,0.17416483,0.0,0.0,0.0
658,1778658718.3507614,0.27194086,-1.7440935,0.17416483,0.0,0.0,0.0
659,1778658718.3607628,0.27194086,-1.7440935,0.17416483,0.0,0.0,0.0
660,1778658718.3707633,0.27194086,-1.7440935,0.17416483,0.0,0.0,0.0
661,1778658718.3807657,0.27194086,-1.7440935,0.17416483,0.0,0.0,0.0
662,1778658718.3908288,0.31098998,-1.6933289,0.17807053,0.0,0.0,0.0
663,1778658718.4008303,0.31098998,-1.6933289,0.17807053,0.0,0.0,0.0
664,1778658718.4108315,0.31098998,-1.6933289,0.17807053,0.0,0.0,0.0
665,1778658718.4208322,0.31098998,-1.6933289,0.17807053,0.0,0.0,0.0
666,1778658718.4308343,0.31098998,-1.6933289,0.17807053,0.0,0.0,0.0
667,1778658718.4408355,0.31098998,-1.6933289,0.17807053,0.0,0.0,0.0
668,1778658718.4508362,0.31098998,-1.6933289,0.17807053,0.0,0.0,0.0
669,1778658718.4608383,0.31098998,-1.6933289,0.17807053,0.0,0.0,0.0
670,1778658718.47084,0.31098998,-1.6933289,0.17807053,0.0,0.0,0.0
671,1778658718.4808416,0.31098998,-1.6933289,0.17807053,0.0,0.0,0.0
672,1778658718.4908433,0.31098998,-1.6933289,0.17807053,0.0,0.0,0.0
673,1778658718.5008478,0.31098998,-1.6933289,0.17807053,0.0,0.0,0.0
674,1778658718.5108497,0.31098998,-1.6933289,0.17807053,0.0,0.0,0.0
675,1778658718.5208516,0.31098998,-1.6933289,0.17807053,0.0,0.0,0.0
676,1778658718.5308526,0.31098998,-1.6933289,0.17807053,0.0,0.0,0.0
677,1778658718.5408542,0.31098998,-1.6933289,0.17807053,0.0,0.0,0.0
678,1778658718.5508552,0.31098998,-1.6933289,0.17807053,0.0,0.0,0.0
679,1778658718.5608559,0.31098998,-1.6933289,0.17807053,0.0,0.0,0.0
680,1778658718.570857,0.31098998,-1.6933289,0.17807053,0.0,0.0,0.0
681,1778658718.5808582,0.31098998,-1.6933289,0.17807053,0.0,0.0,0.0
682,1778658718.590859,0.31098998,-1.6933289,0.17807053,0.0,0.0,0.0
683,1778658718.6008599,0.31098998,-1.6933289,0.17807053,0.0,0.0,0.0
684,1778658718.6108608,0.31098998,-1.6933289,0.17807053,0.0,0.0,0.0
685,1778658718.6208615,0.31098998,-1.6933289,0.17807053,0.0,0.0,0.0
686,1778658718.6308632,0.31098998,-1.6933289,0.17807053,0.0,0.0,0.0
687,1778658718.6408656,0.4203275,-1.2676927,0.1585452,0.0,0.0,0.0
688,1778658718.650867,0.4203275,-1.2676927,0.1585452,0.0,0.0,0.0
689,1778658718.660868,0.4203275,-1.2676927,0.1585452,0.0,0.0,0.0
690,1778658718.6708684,0.4203275,-1.2676927,0.1585452,0.0,0.0,0.0
691,1778658718.6808696,0.4203275,-1.2676927,0.1585452,0.0,0.0,0.0
692,1778658718.6908703,0.4203275,-1.2676927,0.1585452,0.0,0.0,0.0
693,1778658718.7008712,0.4203275,-1.2676927,0.1585452,0.0,0.0,0.0
694,1778658718.7108727,0.4203275,-1.2676927,0.1585452,0.0,0.0,0.0
695,1778658718.720874,0.4203275,-1.2676927,0.1585452,0.0,0.0,0.0
696,1778658718.7308748,0.4203275,-1.2676927,0.1585452,0.0,0.0,0.0
697,1778658718.7408774,0.4203275,-1.2676927,0.1585452,0.0,0.0,0.0
698,1778658718.7508786,0.4203275,-1.2676927,0.1585452,0.0,0.0,0.0
699,1778658718.7608798,0.4203275,-1.2676927,0.1585452,0.0,0.0,0.0
700,1778658718.7708812,0.4203275,-1.2676927,0.1585452,0.0,0.0,0.0
701,1778658718.780882,0.4203275,-1.2676927,0.1585452,0.0,0.0,0.0
702,1778658718.7908833,0.4203275,-1.2676927,0.1585452,0.0,0.0,0.0
703,1778658718.800884,0.4203275,-1.2676927,0.1585452,0.0,0.0,0.0
704,1778658718.810885,0.4203275,-1.2676927,0.1585452,0.0,0.0,0.0
705,1778658718.8208866,0.4203275,-1.2676927,0.1585452,0.0,0.0,0.0
706,1778658718.8308878,0.4203275,-1.2676927,0.1585452,0.0,0.0,0.0
707,1778658718.8408887,0.4203275,-1.2676927,0.1585452,0.0,0.0,0.0
708,1778658718.8508904,0.4203275,-1.2676927,0.1585452,0.0,0.0,0.0
709,1778658718.8608916,0.4203275,-1.2676927,0.1585452,0.0,0.0,0.0
710,1778658718.8708928,0.4203275,-1.2676927,0.1585452,0.0,0.0,0.0
711,1778658718.8808937,0.4203275,-1.2676927,0.1585452,0.0,0.0,0.0
712,1778658718.8908942,0.4203275,-1.2676927,0.1585452,0.0,0.0,0.0
713,1778658718.900895,0.4203275,-1.2676927,0.1585452,0.0,0.0,0.0
714,1778658718.9108963,0.4203275,-1.2676927,0.1585452,0.0,0.0,0.0
715,1778658718.9208972,0.4203275,-1.2676927,0.1585452,0.0,0.0,0.0
716,1778658718.9308984,0.4203275,-1.2676927,0.1585452,0.0,0.0,0.0
717,1778658718.9409006,0.4242332,-1.2091198,0.16245088,0.0,0.0,0.0
718,1778658718.9509017,0.4242332,-1.2091198,0.16245088,0.0,0.0,0.0
719,1778658718.9609032,0.4242332,-1.2091198,0.16245088,0.0,0.0,0.0
720,1778658718.9709039,0.4242332,-1.2091198,0.16245088,0.0,0.0,0.0
721,1778658718.9809055,0.4242332,-1.2091198,0.16245088,0.0,0.0,0.0
722,1778658718.9909067,0.4242332,-1.2091198,0.16245088,0.0,0.0,0.0
723,1778658719.0009084,0.4242332,-1.2091198,0.16245088,0.0,0.0,0.0
724,1778658719.0109098,0.4242332,-1.2091198,0.16245088,0.0,0.0,0.0
725,1778658719.0209107,0.4242332,-1.2091198,0.16245088,0.0,0.0,0.0
726,1778658719.0309114,0.4242332,-1.2091198,0.16245088,0.0,0.0,0.0
727,1778658719.0409124,0.4242332,-1.2091198,0.16245088,0.0,0.0,0.0
728,1778658719.050913,0.4242332,-1.2091198,0.16245088,0.0,0.0,0.0
729,1778658719.0609148,0.4242332,-1.2091198,0.16245088,0.0,0.0,0.0
730,1778658719.0709157,0.4242332,-1.2091198,0.16245088,0.0,0.0,0.0
731,1778658719.0809164,0.4242332,-1.2091198,0.16245088,0.0,0.0,0.0
732,1778658719.0909169,0.4242332,-1.2091198,0.16245088,0.0,0.0,0.0
733,1778658719.1009178,0.47890198,-0.7288148,0.05701747,0.0,0.0,0.0
734,1778658719.110919,0.47890198,-0.7288148,0.05701747,0.0,0.0,0.0
735,1778658719.1209202,0.47890198,-0.7288148,0.05701747,0.0,0.0,0.0
736,1778658719.1309211,0.47890198,-0.7288148,0.05701747,0.0,0.0,0.0
737,1778658719.140922,0.47890198,-0.7288148,0.05701747,0.0,0.0,0.0
738,1778658719.150923,0.47890198,-0.7288148,0.05701747,0.0,0.0,0.0
739,1778658719.1609244,0.47890198,-0.7288148,0.05701747,0.0,0.0,0.0
740,1778658719.1709254,0.47890198,-0.7288148,0.05701747,0.0,0.0,0.0
741,1778658719.1809263,0.47890198,-0.7288148,0.05701747,0.0,0.0,0.0
742,1778658719.190927,0.47890198,-0.7288148,0.05701747,0.0,0.0,0.0
743,1778658719.200928,0.47890198,-0.7288148,0.05701747,0.0,0.0,0.0
744,1778658719.210929,0.47890198,-0.7288148,0.05701747,0.0,0.0,0.0
745,1778658719.2209296,0.47890198,-0.7288148,0.05701747,0.0,0.0,0.0
746,1778658719.230931,0.47890198,-0.7288148,0.05701747,0.0,0.0,0.0
747,1778658719.2409317,0.47890198,-0.7288148,0.05701747,0.0,0.0,0.0
748,1778658719.250933,0.47890198,-0.7288148,0.05701747,0.0,0.0,0.0
749,1778658719.260934,0.4554725,-0.57652247,-0.013270946,0.0,0.0,0.0
750,1778658719.2709348,0.4554725,-0.57652247,-0.013270946,0.0,0.0,0.0
751,1778658719.280936,0.4554725,-0.57652247,-0.013270946,0.0,0.0,0.0
752,1778658719.2909374,0.4554725,-0.57652247,-0.013270946,0.0,0.0,0.0
753,1778658719.3009386,0.4554725,-0.57652247,-0.013270946,0.0,0.0,0.0
754,1778658719.3109407,0.4554725,-0.57652247,-0.013270946,0.0,0.0,0.0
755,1778658719.3209434,0.4554725,-0.57652247,-0.013270946,0.0,0.0,0.0
756,1778658719.3309445,0.4554725,-0.57652247,-0.013270946,0.0,0.0,0.0
757,1778658719.3409455,0.4554725,-0.57652247,-0.013270946,0.0,0.0,0.0
758,1778658719.3509462,0.4554725,-0.57652247,-0.013270946,0.0,0.0,0.0
759,1778658719.3609476,0.40080374,-0.36956286,0.02187404,0.0,0.0,0.0
760,1778658719.3709497,0.4203275,-0.39299235,0.18197466,0.0,0.0,0.0
761,1778658719.3809547,0.4203275,-0.39299235,0.18197466,0.0,0.0,0.0
762,1778658719.3909578,0.4203275,-0.39299235,0.18197466,0.0,0.0,0.0
763,1778658719.4009604,0.4203275,-0.39299235,0.18197466,0.0,0.0,0.0
764,1778658719.4109623,0.4203275,-0.39299235,0.18197466,0.0,0.0,0.0
765,1778658719.4209647,0.4203275,-0.39299235,0.18197466,0.0,0.0,0.0
766,1778658719.4309673,0.4203275,-0.39299235,0.18197466,0.0,0.0,0.0
767,1778658719.4409704,0.4203275,-0.39299235,0.18197466,0.0,0.0,0.0
768,1778658719.450972,0.4203275,-0.39299235,0.18197466,0.0,0.0,0.0
769,1778658719.460973,0.4203275,-0.39299235,0.18197466,0.0,0.0,0.0
770,1778658719.4709742,0.4203275,-0.39299235,0.18197466,0.0,0.0,0.0
771,1778658719.4809763,0.4203275,-0.39299235,0.18197466,0.0,0.0,0.0
772,1778658719.4909778,0.4203275,-0.39299235,0.18197466,0.0,0.0,0.0
773,1778658719.5009792,0.4203275,-0.39299235,0.18197466,0.0,0.0,0.0
774,1778658719.5109804,0.4203275,-0.39299235,0.18197466,0.0,0.0,0.0
775,1778658719.5209813,0.4203275,-0.39299235,0.18197466,0.0,0.0,0.0
776,1778658719.530983,0.4203275,-0.39299235,0.18197466,0.0,0.0,0.0
777,1778658719.540984,0.4203275,-0.39299235,0.18197466,0.0,0.0,0.0
778,1778658719.5509849,0.4203275,-0.39299235,0.18197466,0.0,0.0,0.0
779,1778658719.5609858,0.4203275,-0.39299235,0.18197466,0.0,0.0,0.0
780,1778658719.5709867,0.4203275,-0.39299235,0.18197466,0.0,0.0,0.0
781,1778658719.5809884,0.4203275,-0.39299235,0.18197466,0.0,0.0,0.0
782,1778658719.5909894,0.4203275,-0.39299235,0.18197466,0.0,0.0,0.0
783,1778658719.6009903,0.4203275,-0.39299235,0.18197466,0.0,0.0,0.0
784,1778658719.6109915,0.4203275,-0.39299235,0.18197466,0.0,0.0,0.0
785,1778658719.6209924,0.4203275,-0.39299235,0.18197466,0.0,0.0,0.0
786,1778658719.6309931,0.4203275,-0.39299235,0.18197466,0.0,0.0,0.0
787,1778658719.6409945,0.4203275,-0.39299235,0.18197466,0.0,0.0,0.0
788,1778658719.6509953,0.4203275,-0.39299235,0.18197466,0.0,0.0,0.0
789,1778658719.6609962,0.4203275,-0.39299235,0.18197466,0.0,0.0,0.0
790,1778658719.670998,0.4203275,-0.39299235,0.18197466,0.0,0.0,0.0
791,1778658719.6810005,0.4203275,-0.39299235,0.18197466,0.0,0.0,0.0
792,1778658719.6910014,0.4203275,-0.39299235,0.18197466,0.0,0.0,0.0
793,1778658719.7010026,0.4203275,-0.39299235,0.18197466,0.0,0.0,0.0
794,1778658719.7110033,0.4203275,-0.39299235,0.18197466,0.0,0.0,0.0
795,1778658719.7210038,0.4203275,-0.39299235,0.18197466,0.0,0.0,0.0
796,1778658719.731005,0.45156682,-0.36956286,0.2913122,0.0,0.0,0.0
797,1778658719.741006,0.45156682,-0.36956286,0.2913122,0.0,0.0,0.0
798,1778658719.7510066,0.45156682,-0.36956286,0.2913122,0.0,0.0,0.0
799,1778658719.761007,0.45156682,-0.36956286,0.2913122,0.0,0.0,0.0
800,1778658719.771008,0.45156682,-0.36956286,0.2913122,0.0,0.0,0.0
801,1778658719.781009,0.45156682,-0.36956286,0.2913122,0.0,0.0,0.0
802,1778658719.7910101,0.45156682,-0.36956286,0.2913122,0.0,0.0,0.0
803,1778658719.8010118,0.45156682,-0.36956286,0.2913122,0.0,0.0,0.0
804,1778658719.8110132,0.45156682,-0.36956286,0.2913122,0.0,0.0,0.0
805,1778658719.8210142,0.45156682,-0.36956286,0.2913122,0.0,0.0,0.0
806,1778658719.8310153,0.4203275,-0.39299235,0.18197466,0.0,0.0,0.0
807,1778658719.841019,0.4203275,-0.39299235,0.18197466,0.0,0.0,0.0
808,1778658719.85102,0.4203275,-0.39299235,0.18197466,0.0,0.0,0.0
809,1778658719.8610218,0.4203275,-0.39299235,0.18197466,0.0,0.0,0.0
810,1778658719.8710227,0.4203275,-0.39299235,0.18197466,0.0,0.0,0.0
811,1778658719.8810232,0.4203275,-0.39299235,0.18197466,0.0,0.0,0.0
812,1778658719.8910246,0.4203275,-0.39299235,0.18197466,0.0,0.0,0.0
813,1778658719.9010253,0.4203275,-0.39299235,0.18197466,0.0,0.0,0.0
814,1778658719.9110267,0.4203275,-0.39299235,0.18197466,0.0,0.0,0.0
815,1778658719.921028,0.4203275,-0.39299235,0.18197466,0.0,0.0,0.0
816,1778658719.931029,0.4203275,-0.39299235,0.18197466,0.0,0.0,0.0
817,1778658719.9410298,0.4203275,-0.39299235,0.18197466,0.0,0.0,0.0
818,1778658719.9510303,0.4203275,-0.39299235,0.18197466,0.0,0.0,0.0
819,1778658719.961031,0.4203275,-0.39299235,0.18197466,0.0,0.0,0.0
820,1778658719.9710321,0.4203275,-0.39299235,0.18197466,0.0,0.0,0.0
821,1778658719.9810333,0.4203275,-0.39299235,0.18197466,0.0,0.0,0.0
822,1778658719.991035,0.4203275,-0.39299235,0.18197466,0.0,0.0,0.0
823,1778658720.001036,0.4203275,-0.39299235,0.18197466,0.0,0.0,0.0
824,1778658720.011037,0.4203275,-0.39299235,0.18197466,0.0,0.0,0.0
825,1778658720.0210407,0.4203275,-0.39299235,0.18197466,0.0,0.0,0.0
826,1778658720.0310423,0.4203275,-0.39299235,0.18197466,0.0,0.0,0.0
827,1778658720.0410435,0.4203275,-0.39299235,0.18197466,0.0,0.0,0.0
828,1778658720.0510447,0.4203275,-0.39299235,0.18197466,0.0,0.0,0.0
829,1778658720.0610454,0.4203275,-0.39299235,0.18197466,0.0,0.0,0.0
830,1778658720.0710478,0.5062356,-0.38127685,0.33817115,0.0,0.0,0.0
831,1778658720.0810492,0.5062356,-0.38127685,0.33817115,0.0,0.0,0.0
832,1778658720.0910501,0.5062356,-0.38127685,0.33817115,0.0,0.0,0.0
833,1778658720.1010513,0.5062356,-0.38127685,0.33817115,0.0,0.0,0.0
834,1778658720.1110518,0.5062356,-0.38127685,0.33817115,0.0,0.0,0.0
835,1778658720.1210525,0.5062356,-0.38127685,0.33817115,0.0,0.0,0.0
836,1778658720.131054,0.5062356,-0.38127685,0.33817115,0.0,0.0,0.0
837,1778658720.141056,0.5062356,-0.38127685,0.33817115,0.0,0.0,0.0
838,1778658720.151058,0.5062356,-0.38127685,0.33817115,0.0,0.0,0.0
839,1778658720.1610622,0.5062356,-0.38127685,0.33817115,0.0,0.0,0.0
840,1778658720.1710637,0.5062356,-0.38127685,0.33817115,0.0,0.0,0.0
841,1778658720.1810646,0.6390026,-0.34222773,0.24445325,0.0,0.0,0.0
842,1778658720.1910653,0.6390026,-0.34222773,0.24445325,0.0,0.0,0.0
843,1778658720.2010665,0.6390026,-0.34222773,0.24445325,0.0,0.0,0.0
844,1778658720.2110684,0.6390026,-0.34222773,0.24445325,0.0,0.0,0.0
845,1778658720.2210703,0.6390026,-0.34222773,0.24445325,0.0,0.0,0.0
846,1778658720.231071,0.6390026,-0.34222773,0.24445325,0.0,0.0,0.0
847,1778658720.2410724,0.6390026,-0.34222773,0.24445325,0.0,0.0,0.0
848,1778658720.251074,0.6233829,-0.29146463,0.16635501,0.0,0.0,0.0
849,1778658720.2610757,0.6233829,-0.29146463,0.16635501,0.0,0.0,0.0
850,1778658720.2710772,0.6233829,-0.29146463,0.16635501,0.0,0.0,0.0
851,1778658720.2810788,0.6233829,-0.29146463,0.16635501,0.0,0.0,0.0
852,1778658720.2910802,0.6233829,-0.29146463,0.16635501,0.0,0.0,0.0
853,1778658720.3010812,0.6233829,-0.29146463,0.16635501,0.0,0.0,0.0
854,1778658720.311082,0.6233829,-0.29146463,0.16635501,0.0,0.0,0.0
855,1778658720.3210828,0.6233829,-0.29146463,0.16635501,0.0,0.0,0.0
856,1778658720.3310843,0.6233829,-0.29146463,0.16635501,0.0,0.0,0.0
857,1778658720.341085,0.6233829,-0.29146463,0.16635501,0.0,0.0,0.0
858,1778658720.3510861,0.6233829,-0.29146463,0.16635501,0.0,0.0,0.0
859,1778658720.361087,0.6233829,-0.29146463,0.16635501,0.0,0.0,0.0
860,1778658720.371088,0.6233829,-0.29146463,0.16635501,0.0,0.0,0.0
861,1778658720.3810914,0.6233829,-0.29146463,0.16635501,0.0,0.0,0.0
862,1778658720.3910933,0.6233829,-0.29146463,0.16635501,0.0,0.0,0.0
863,1778658720.4010944,0.6233829,-0.29146463,0.16635501,0.0,0.0,0.0
864,1778658720.4110959,0.6233829,-0.29146463,0.16635501,0.0,0.0,0.0
865,1778658720.4210968,0.6233829,-0.29146463,0.16635501,0.0,0.0,0.0
866,1778658720.4310982,0.6233829,-0.29146463,0.16635501,0.0,0.0,0.0
867,1778658720.4410992,0.6233829,-0.29146463,0.16635501,0.0,0.0,0.0
868,1778658720.4510999,0.6233829,-0.29146463,0.16635501,0.0,0.0,0.0
869,1778658720.4611013,0.6233829,-0.29146463,0.16635501,0.0,0.0,0.0
870,1778658720.471102,0.6233829,-0.29146463,0.16635501,0.0,0.0,0.0
871,1778658720.481104,0.6233829,-0.29146463,0.16635501,0.0,0.0,0.0
872,1778658720.4911065,0.35394478,-0.08840764,0.029683866,0.0,0.0,0.0
873,1778658720.5011077,0.35394478,-0.08840764,0.029683866,0.0,0.0,0.0
874,1778658720.511109,0.35394478,-0.08840764,0.029683866,0.0,0.0,0.0
875,1778658720.5211103,0.35394478,-0.08840764,0.029683866,0.0,0.0,0.0
876,1778658720.5311112,0.35394478,-0.08840764,0.029683866,0.0,0.0,0.0
877,1778658720.541113,0.35394478,-0.08840764,0.029683866,0.0,0.0,0.0
878,1778658720.5511138,0.35394478,-0.08840764,0.029683866,0.0,0.0,0.0
879,1778658720.5611148,0.35394478,-0.08840764,0.029683866,0.0,0.0,0.0
880,1778658720.5711207,0.35394478,-0.08840764,0.029683866,0.0,0.0,0.0
881,1778658720.5811224,0.35394478,-0.08840764,0.029683866,0.0,0.0,0.0
882,1778658720.5911243,0.35394478,-0.08840764,0.029683866,0.0,0.0,0.0
883,1778658720.6011264,0.35394478,-0.08840764,0.029683866,0.0,0.0,0.0
884,1778658720.611128,0.35394478,-0.08840764,0.029683866,0.0,0.0,0.0
885,1778658720.6211295,0.35394478,-0.08840764,0.029683866,0.0,0.0,0.0
886,1778658720.6311307,0.35394478,-0.08840764,0.029683866,0.0,0.0,0.0
887,1778658720.6411319,0.35394478,-0.08840764,0.029683866,0.0,0.0,0.0
888,1778658720.6511333,0.35394478,-0.08840764,0.029683866,0.0,0.0,0.0
889,1778658720.6611345,0.35394478,-0.08840764,0.029683866,0.0,0.0,0.0
890,1778658720.6711352,0.35394478,-0.08840764,0.029683866,0.0,0.0,0.0
891,1778658720.6811364,0.35394478,-0.08840764,0.029683866,0.0,0.0,0.0
892,1778658720.6911368,0.35394478,-0.08840764,0.029683866,0.0,0.0,0.0
893,1778658720.701138,0.35394478,-0.08840764,0.029683866,0.0,0.0,0.0
894,1778658720.7111402,-0.017022649,0.60666674,0.37722027,0.0,0.0,0.0
895,1778658720.7211413,-0.017022649,0.60666674,0.37722027,0.0,0.0,0.0
896,1778658720.731143,-0.017022649,0.60666674,0.37722027,0.0,0.0,0.0
897,1778658720.7411444,-0.017022649,0.60666674,0.37722027,0.0,0.0,0.0
898,1778658720.7511454,-0.017022649,0.60666674,0.37722027,0.0,0.0,0.0
899,1778658720.761147,-0.11074054,0.28646392,0.2952179,0.0,0.0,0.0
900,1778658720.7711487,-0.11074054,0.28646392,0.2952179,0.0,0.0,0.0
901,1778658720.7811499,-0.11074054,0.28646392,0.2952179,0.0,0.0,0.0
902,1778658720.7911515,-0.11074054,0.28646392,0.2952179,0.0,0.0,0.0
903,1778658720.8011522,-0.11074054,0.28646392,0.2952179,0.0,0.0,0.0
904,1778658720.811153,-0.11074054,0.28646392,0.2952179,0.0,0.0,0.0
905,1778658720.8211546,-0.11074054,0.28646392,0.2952179,0.0,0.0,0.0
906,1778658720.8311555,-0.11074054,0.28646392,0.2952179,0.0,0.0,0.0
907,1778658720.8411567,-0.11074054,0.28646392,0.2952179,0.0,0.0,0.0
908,1778658720.851158,-0.11074054,0.28646392,0.2952179,0.0,0.0,0.0
909,1778658720.861159,-0.11074054,0.28646392,0.2952179,0.0,0.0,0.0
910,1778658720.8711605,-0.11074054,0.28646392,0.2952179,0.0,0.0,0.0
911,1778658720.8811617,-0.13807571,0.11855192,0.2639786,0.0,0.0,0.0
912,1778658720.8911626,-0.13807571,0.11855192,0.2639786,0.0,0.0,0.0
913,1778658720.9011636,-0.13807571,0.11855192,0.2639786,0.0,0.0,0.0
914,1778658720.9111645,-0.13807571,0.11855192,0.2639786,0.0,0.0,0.0
915,1778658720.9211662,-0.13807571,0.11855192,0.2639786,0.0,0.0,0.0
916,1778658720.9311671,-0.13807571,0.11855192,0.2639786,0.0,0.0,0.0
917,1778658720.941168,-0.13807571,0.11855192,0.2639786,0.0,0.0,0.0
918,1778658720.9511688,-0.13807571,0.11855192,0.2639786,0.0,0.0,0.0
919,1778658720.96117,-0.13807571,0.11855192,0.2639786,0.0,0.0,0.0
920,1778658720.971171,-0.13807571,0.11855192,0.2639786,0.0,0.0,0.0
921,1778658720.9811726,-0.13807571,0.11855192,0.2639786,0.0,0.0,0.0
922,1778658720.991174,-0.13807571,0.11855192,0.2639786,0.0,0.0,0.0
923,1778658721.001176,-0.13807571,0.11855192,0.2639786,0.0,0.0,0.0
924,1778658721.011178,-0.13807571,0.11855192,0.2639786,0.0,0.0,0.0
925,1778658721.0211792,-0.13807571,0.11855192,0.2639786,0.0,0.0,0.0
926,1778658721.0311806,-0.13807571,0.11855192,0.2639786,0.0,0.0,0.0
927,1778658721.0411828,-0.13807571,0.11855192,0.2639786,0.0,0.0,0.0
928,1778658721.051184,-0.13807571,0.11855192,0.2639786,0.0,0.0,0.0
929,1778658721.0611854,-0.16540931,-0.072788,0.24835895,0.0,0.0,0.0
930,1778658721.0711868,-0.16540931,-0.072788,0.24835895,0.0,0.0,0.0
931,1778658721.0811872,-0.16540931,-0.072788,0.24835895,0.0,0.0,0.0
932,1778658721.0911887,-0.16540931,-0.072788,0.24835895,0.0,0.0,0.0
933,1778658721.1011899,-0.16540931,-0.072788,0.24835895,0.0,0.0,0.0
934,1778658721.1111908,-0.16540931,-0.072788,0.24835895,0.0,0.0,0.0
935,1778658721.1211917,-0.16540931,-0.072788,0.24835895,0.0,0.0,0.0
936,1778658721.1311927,-0.16540931,-0.072788,0.24835895,0.0,0.0,0.0
937,1778658721.1411939,-0.2317936,-0.8615818,0.20540413,0.0,0.0,0.0
938,1778658721.1511948,-0.2317936,-0.8615818,0.20540413,0.0,0.0,0.0
939,1778658721.1611953,-0.2317936,-0.8615818,0.20540413,0.0,0.0,0.0
940,1778658721.171197,-0.2317936,-0.8615818,0.20540413,0.0,0.0,0.0
941,1778658721.1811981,-0.2317936,-0.8615818,0.20540413,0.0,0.0,0.0
942,1778658721.191199,-0.2317936,-0.8615818,0.20540413,0.0,0.0,0.0
943,1778658721.2011995,-0.2317936,-0.8615818,0.20540413,0.0,0.0,0.0
944,1778658721.2112584,-0.2317936,-0.8615818,0.20540413,0.0,0.0,0.0
945,1778658721.22126,-0.2317936,-0.8615818,0.20540413,0.0,0.0,0.0
946,1778658721.2312608,-0.2317936,-0.8615818,0.20540413,0.0,0.0,0.0
947,1778658721.2412615,-0.2317936,-0.8615818,0.20540413,0.0,0.0,0.0
948,1778658721.251263,-0.2317936,-0.8615818,0.20540413,0.0,0.0,0.0
949,1778658721.2612636,-0.2317936,-0.8615818,0.20540413,0.0,0.0,0.0
950,1778658721.271264,-0.2317936,-0.8615818,0.20540413,0.0,0.0,0.0
951,1778658721.2812657,-0.2317936,-0.8615818,0.20540413,0.0,0.0,0.0
952,1778658721.2912707,-0.2317936,-0.8615818,0.20540413,0.0,0.0,0.0
953,1778658721.3012726,-0.2317936,-0.8615818,0.20540413,0.0,0.0,0.0
954,1778658721.311274,-0.2317936,-0.8615818,0.20540413,0.0,0.0,0.0
955,1778658721.321275,-0.2317936,-0.8615818,0.20540413,0.0,0.0,0.0
956,1778658721.3312762,-0.2317936,-0.8615818,0.20540413,0.0,0.0,0.0
957,1778658721.3412771,-0.2317936,-0.8615818,0.20540413,0.0,0.0,0.0
958,1778658721.3512778,-0.2317936,-0.8615818,0.20540413,0.0,0.0,0.0
959,1778658721.3612788,-0.2317936,-0.8615818,0.20540413,0.0,0.0,0.0
960,1778658721.37128,-0.2317936,-0.8615818,0.20540413,0.0,0.0,0.0
961,1778658721.3812804,-0.2317936,-0.8615818,0.20540413,0.0,0.0,0.0
962,1778658721.391281,-0.2317936,-0.8615818,0.20540413,0.0,0.0,0.0
963,1778658721.4012828,-0.2317936,-0.8615818,0.20540413,0.0,0.0,0.0
964,1778658721.4112837,-0.2317936,-0.8615818,0.20540413,0.0,0.0,0.0
965,1778658721.421285,-0.2317936,-0.8615818,0.20540413,0.0,0.0,0.0
966,1778658721.4312863,-0.2317936,-0.8615818,0.20540413,0.0,0.0,0.0
967,1778658721.4412873,-0.2317936,-0.8615818,0.20540413,0.0,0.0,0.0
968,1778658721.451288,-0.2317936,-0.8615818,0.20540413,0.0,0.0,0.0
969,1778658721.461289,-0.33722544,-1.2091198,0.27959824,0.0,0.0,0.0
970,1778658721.4712903,-0.33722544,-1.2091198,0.27959824,0.0,0.0,0.0
971,1778658721.4812913,-0.44265884,-1.3145516,0.31864735,0.0,0.0,0.0
972,1778658721.4912925,-0.44265884,-1.3145516,0.31864735,0.0,0.0,0.0
973,1778658721.501296,-0.44265884,-1.3145516,0.31864735,0.0,0.0,0.0
974,1778658721.5112996,-0.44265884,-1.3145516,0.31864735,0.0,0.0,0.0
975,1778658721.5213006,-0.44265884,-1.3145516,0.31864735,0.0,0.0,0.0
976,1778658721.531302,-0.44265884,-1.3145516,0.31864735,0.0,0.0,0.0
977,1778658721.5413032,-0.44265884,-1.3145516,0.31864735,0.0,0.0,0.0
978,1778658721.551304,-0.44265884,-1.3145516,0.31864735,0.0,0.0,0.0
979,1778658721.5613055,-0.44265884,-1.3145516,0.31864735,0.0,0.0,0.0
980,1778658721.5713067,-0.44265884,-1.3145516,0.31864735,0.0,0.0,0.0
981,1778658721.5813076,-0.44265884,-1.3145516,0.31864735,0.0,0.0,0.0
982,1778658721.5913095,-0.44265884,-1.3145516,0.31864735,0.0,0.0,0.0
983,1778658721.6013103,-0.44265884,-1.3145516,0.31864735,0.0,0.0,0.0
984,1778658721.6113112,-0.44265884,-1.3145516,0.31864735,0.0,0.0,0.0
985,1778658721.6213126,-0.44265884,-1.3145516,0.31864735,0.0,0.0,0.0
986,1778658721.6313133,-0.44265884,-1.3145516,0.31864735,0.0,0.0,0.0
987,1778658721.641314,-0.44265884,-1.3145516,0.31864735,0.0,0.0,0.0
988,1778658721.6513152,-0.44265884,-1.3145516,0.31864735,0.0,0.0,0.0
989,1778658721.661317,-0.44265884,-1.3145516,0.31864735,0.0,0.0,0.0
990,1778658721.6713188,-0.44265884,-1.3145516,0.31864735,0.0,0.0,0.0
991,1778658721.6813202,-0.44265884,-1.3145516,0.31864735,0.0,0.0,0.0
992,1778658721.6913207,-0.44265884,-1.3145516,0.31864735,0.0,0.0,0.0
993,1778658721.701322,-0.44265884,-1.3145516,0.31864735,0.0,0.0,0.0
994,1778658721.711323,-0.44265884,-1.3145516,0.31864735,0.0,0.0,0.0
995,1778658721.7213235,-0.44265884,-1.3145516,0.31864735,0.0,0.0,0.0
996,1778658721.7313251,-0.44265884,-1.3145516,0.31864735,0.0,0.0,0.0
997,1778658721.7413263,-0.44265884,-1.3145516,0.31864735,0.0,0.0,0.0
998,1778658721.751327,-0.44265884,-1.3145516,0.31864735,0.0,0.0,0.0
999,1778658721.7613294,-0.44265884,-1.3145516,0.31864735,0.0,0.0,0.0
1000,1778658721.7713304,-0.44265884,-1.3145516,0.31864735,0.0,0.0,0.0
