id,timestamp,acc_x,acc_y,acc_z,gyro_x,gyro_y,gyro_z
1,1778656088.160505,-0.40751386,-1.4277948,0.2913122,0.0,0.0,0.0
2,1778656088.210509,-0.89953434,-1.6855191,-0.36471304,0.0,0.0,0.0
3,1778656088.260511,-0.7199084,-1.7245681,-0.5170054,0.0,0.0,0.0
4,1778656088.3105145,-0.17712483,-1.997912,-0.5990078,0.0,0.0,0.0
5,1778656088.3605168,-0.052167635,-2.177538,0.07654281,0.0,0.0,0.0
6,1778656088.410519,-0.052167635,-2.177538,0.07654281,0.0,0.0,0.0
7,1778656088.460522,-0.052167635,-2.177538,0.07654281,0.0,0.0,0.0
8,1778656088.5105238,-0.5519964,-2.263446,0.7950466,0.0,0.0,0.0
9,1778656088.560527,-1.001062,-2.685178,1.3339245,0.0,0.0,0.0
10,1778656088.6105292,-1.6297537,-2.7984197,0.53732246,0.0,0.0,0.0
11,1778656088.660531,-0.37627456,-2.0642962,-0.8489237,0.0,0.0,0.0
12,1778656088.710533,-0.37627456,-2.0642962,-0.8489237,0.0,0.0,0.0
13,1778656088.7605345,0.58433384,-1.7167584,-0.39985803,0.0,0.0,0.0
14,1778656088.8105369,0.58433384,-1.7167584,-0.39985803,0.0,0.0,0.0
15,1778656088.8605406,0.6741476,-1.466844,0.0648273,0.0,0.0,0.0
16,1778656088.910543,0.7053869,-1.373126,0.20930983,0.0,0.0,0.0
17,1778656088.9605455,0.7053869,-1.373126,0.20930983,0.0,0.0,0.0
18,1778656089.0105495,1.8221933,-0.5804281,0.79895234,0.0,0.0,0.0
19,1778656089.0605521,1.8221933,-0.5804281,0.79895234,0.0,0.0,0.0
20,1778656089.1105556,1.8221933,-0.5804281,0.79895234,0.0,0.0,0.0
21,1778656089.160558,2.3142123,-0.23289017,0.8536211,0.0,0.0,0.0
22,1778656089.2105598,2.404026,-0.13136245,0.87314487,0.0,0.0,0.0
23,1778656089.260562,2.404026,-0.13136245,0.87314487,0.0,0.0,0.0
24,1778656089.310564,2.6851797,0.16931656,0.99029225,0.0,0.0,0.0
25,1778656089.3605664,2.583652,0.26303443,0.99810207,0.0,0.0,0.0
26,1778656089.4105685,2.583652,0.26303443,0.99810207,0.0,0.0,0.0
27,1778656089.4605703,2.583652,0.26303443,0.99810207,0.0,0.0,0.0
28,1778656089.510573,2.5172677,0.25131893,0.9746726,0.0,0.0,0.0
29,1778656089.5605752,2.200969,0.13417158,1.0098176,0.0,0.0,0.0
30,1778656089.6105778,2.200969,0.13417158,1.0098176,0.0,0.0,0.0
31,1778656089.66058,2.009629,0.11074209,1.2402066,0.0,0.0,0.0
32,1778656089.710582,2.009629,0.11074209,1.2402066,0.0,0.0,0.0
33,1778656089.760584,2.3649752,0.24350911,1.3807834,0.0,0.0,0.0
34,1778656089.8105867,2.3649752,0.24350911,1.3807834,0.0,0.0,0.0
35,1778656089.86059,2.3649752,0.24350911,1.3807834,0.0,0.0,0.0
36,1778656089.910593,2.3649752,0.24350911,1.3807834,0.0,0.0,0.0
37,1778656089.9605954,2.322022,0.50904316,1.1621084,0.0,0.0,0.0
38,1778656090.0105977,2.322022,0.50904316,1.1621084,0.0,0.0,0.0
39,1778656090.0605993,1.9081014,0.52856845,0.5529421,0.0,0.0,0.0
40,1778656090.110602,1.9081014,0.52856845,0.5529421,0.0,0.0,0.0
41,1778656090.1606047,1.9276252,0.54418814,0.43579474,0.0,0.0,0.0
42,1778656090.2106068,1.9276252,0.54418814,0.43579474,0.0,0.0,0.0
43,1778656090.2606087,1.9276252,0.54418814,0.43579474,0.0,0.0,0.0
44,1778656090.3106112,1.9744841,0.5871414,0.43969887,0.0,0.0,0.0
45,1778656090.3606124,1.7948581,0.7003846,0.57637155,0.0,0.0,0.0
46,1778656090.4106145,1.7948581,0.7003846,0.57637155,0.0,0.0,0.0
47,1778656090.4606166,1.7948581,0.7003846,0.57637155,0.0,0.0,0.0
48,1778656090.510619,1.6933304,0.9542047,0.8536211,0.0,0.0,0.0
49,1778656090.5606205,1.5957068,1.2392625,0.92781365,0.0,0.0,0.0
50,1778656090.6106222,1.5957068,1.2392625,0.92781365,0.0,0.0,0.0
51,1778656090.6606236,1.5644675,1.6024201,0.99810207,0.0,0.0,0.0
52,1778656090.710625,1.5644675,1.6024201,0.99810207,0.0,0.0,0.0
53,1778656090.7606347,1.5644675,1.6024201,0.99810207,0.0,0.0,0.0
54,1778656090.8106387,1.6425674,1.9421482,1.0488667,0.0,0.0,0.0
55,1778656090.860641,1.6425674,1.9421482,1.0488667,0.0,0.0,0.0
56,1778656090.9106443,1.4824651,2.094439,0.8536211,0.0,0.0,0.0
57,1778656090.9606466,1.4824651,2.094439,0.8536211,0.0,0.0,0.0
58,1778656091.0106506,1.4824651,2.094439,0.8536211,0.0,0.0,0.0
59,1778656091.0606532,1.2950294,2.2350175,1.9665219,0.0,0.0,0.0
60,1778656091.110656,1.2559803,2.1139643,1.212873,0.0,0.0,0.0
61,1778656091.1606588,1.404367,2.4146433,2.3882523,0.0,0.0,0.0
62,1778656091.2106612,1.404367,2.4146433,2.3882523,0.0,0.0,0.0
63,1778656091.2606657,1.5761831,2.7777994,2.884177,0.0,0.0,0.0
64,1778656091.3106682,1.6855206,2.9300919,3.0052285,0.0,0.0,0.0
65,1778656091.360673,2.85309,3.4728754,3.2473345,0.0,0.0,0.0
66,1778656091.410676,3.7902706,3.5665932,3.177046,0.0,0.0,0.0
67,1778656091.460678,3.7902706,3.5665932,3.177046,0.0,0.0,0.0
68,1778656091.51068,3.7902706,3.5665932,3.177046,0.0,0.0,0.0
69,1778656091.5606828,4.3252444,3.2463903,2.4546366,0.0,0.0,0.0
70,1778656091.6106856,4.3252444,3.2463903,2.4546366,0.0,0.0,0.0
71,1778656091.6606874,3.7863648,2.9769506,1.4159285,0.0,0.0,0.0
72,1778656091.710689,3.7863648,2.9769506,1.4159285,0.0,0.0,0.0
73,1778656091.7606905,3.3646343,2.6801775,0.92000383,0.0,0.0,0.0
74,1778656091.810692,3.200628,2.57084,0.8848604,0.0,0.0,0.0
75,1778656091.8606946,2.5328872,1.9577678,1.1386789,0.0,0.0,0.0
76,1778656091.9106963,2.5328872,1.9577678,1.1386789,0.0,0.0,0.0
77,1778656091.9606996,1.8143835,1.5672767,1.8649942,0.0,0.0,0.0
78,1778656092.010702,2.068202,0.36456215,0.9746726,0.0,0.0,0.0
79,1778656092.060703,2.068202,0.36456215,0.9746726,0.0,0.0,0.0
80,1778656092.1107044,2.2907827,0.16931656,0.9668628,0.0,0.0,0.0
81,1778656092.1607063,2.361071,0.11074209,0.9746726,0.0,0.0,0.0
82,1778656092.2107074,2.361071,-0.0064052693,1.0215316,0.0,0.0,0.0
83,1778656092.260709,2.361071,-0.0064052693,1.0215316,0.0,0.0,0.0
84,1778656092.3107107,2.322022,-0.037644565,1.0293413,0.0,0.0,0.0
85,1778656092.360712,2.3103065,-0.13917229,0.93171936,0.0,0.0,0.0
86,1778656092.4107137,2.3103065,-0.13917229,0.93171936,0.0,0.0,0.0
87,1778656092.4608786,2.2946868,-0.2094607,0.7755229,0.0,0.0,0.0
88,1778656092.5108814,2.2946868,-0.2094607,0.7755229,0.0,0.0,0.0
89,1778656092.5608845,2.236114,-0.23679586,0.4592242,0.0,0.0,0.0
90,1778656092.6108863,2.236114,-0.23679586,0.4592242,0.0,0.0,0.0
91,1778656092.6608877,2.236114,-0.23679586,0.4592242,0.0,0.0,0.0
92,1778656092.71089,2.2283041,-0.24069999,0.36941046,0.0,0.0,0.0
93,1778656092.760912,2.2283041,-0.22508036,0.38112596,0.0,0.0,0.0
94,1778656092.8109148,1.8417171,-0.41251615,0.43969887,0.0,0.0,0.0
95,1778656092.860917,1.8417171,-0.41251615,0.43969887,0.0,0.0,0.0
96,1778656092.9109185,1.3692219,-0.72100496,0.478748,0.0,0.0,0.0
97,1778656092.9609199,0.29927602,-1.0802569,0.7716172,0.0,0.0,0.0
98,1778656093.0109212,-0.6222848,-1.3809359,0.43188903,0.0,0.0,0.0
99,1778656093.0609229,-0.6222848,-1.3809359,0.43188903,0.0,0.0,0.0
100,1778656093.1109247,-0.7081929,-1.5722759,-0.17337312,0.0,0.0,0.0
101,1778656093.1609268,0.08450507,-1.912004,-0.6458667,0.0,0.0,0.0
102,1778656093.210929,0.08450507,-1.912004,-0.6458667,0.0,0.0,0.0
103,1778656093.2609308,0.5804297,-1.8573352,-0.56386435,0.0,0.0,0.0
104,1778656093.3109322,-0.31379598,-1.7440935,0.2015,0.0,0.0,0.0
105,1778656093.360935,-0.31379598,-1.7440935,0.2015,0.0,0.0,0.0
106,1778656093.4109366,-0.31379598,-1.7440935,0.2015,0.0,0.0,0.0
107,1778656093.4609382,-0.90734416,-1.9159096,0.58808553,0.0,0.0,0.0
108,1778656093.51094,-1.001062,-1.9627686,0.6700895,0.0,0.0,0.0
109,1778656093.5609436,-1.001062,-1.9627686,0.6700895,0.0,0.0,0.0
110,1778656093.6109455,-1.4071729,-2.2556362,0.38893577,0.0,0.0,0.0
111,1778656093.6609468,-1.4384122,-2.3766892,0.24445325,0.0,0.0,0.0
112,1778656093.710948,-1.4384122,-2.3766892,0.24445325,0.0,0.0,0.0
113,1778656093.7609499,-1.4384122,-2.3766892,0.24445325,0.0,0.0,0.0
114,1778656093.8109515,-1.2392609,-2.2751615,-0.18118295,0.0,0.0,0.0
115,1778656093.8609536,-1.2392609,-2.2751615,-0.18118295,0.0,0.0,0.0
116,1778656093.9109557,-0.57542586,-2.044771,-0.43109733,0.0,0.0,0.0
117,1778656093.9609575,-0.57542586,-2.044771,-0.43109733,0.0,0.0,0.0
118,1778656094.010959,-0.57542586,-2.044771,-0.43109733,0.0,0.0,0.0
119,1778656094.0609605,1.8300031,-0.6233814,1.0722961,0.0,0.0,0.0
120,1778656094.1109614,2.0994413,-0.23679586,1.212873,0.0,0.0,0.0
121,1778656094.160963,2.0994413,-0.23679586,1.212873,0.0,0.0,0.0
122,1778656094.2109644,2.3766909,0.024834028,1.0644864,0.0,0.0,0.0
123,1778656094.2609656,2.3766909,0.024834028,1.0644864,0.0,0.0,0.0
124,1778656094.3109667,2.7242289,0.20836568,1.0762004,0.0,0.0,0.0
125,1778656094.3609686,2.7906115,0.26303443,1.0879159,0.0,0.0,0.0
126,1778656094.4109707,2.7476583,0.32941717,1.1425846,0.0,0.0,0.0
127,1778656094.4609723,2.7476583,0.32941717,1.1425846,0.0,0.0,0.0
128,1778656094.5109732,2.7476583,0.32941717,1.1425846,0.0,0.0,0.0
129,1778656094.560978,2.7476583,0.32941717,1.1425846,0.0,0.0,0.0
130,1778656094.6109805,2.5641267,0.47780383,1.5799347,0.0,0.0,0.0
131,1778656094.6609821,2.5641267,0.47780383,1.5799347,0.0,0.0,0.0
132,1778656094.7109838,2.41574,0.6925748,1.4862169,0.0,0.0,0.0
133,1778656094.7609859,2.41574,0.6925748,1.4862169,0.0,0.0,0.0
134,1778656094.8109877,2.3103065,0.88001055,1.3144008,0.0,0.0,0.0
135,1778656094.8609908,2.3103065,0.88001055,1.3144008,0.0,0.0,0.0
136,1778656094.9109929,2.3532615,1.0752562,1.1230593,0.0,0.0,0.0
137,1778656094.9609954,2.3649752,1.1260208,1.0605807,0.0,0.0,0.0
138,1778656095.0109973,2.1970649,1.0674464,0.7091386,0.0,0.0,0.0
139,1778656095.060999,2.103347,0.9893481,0.6271346,0.0,0.0,0.0
140,1778656095.1110005,2.103347,0.9893481,0.6271346,0.0,0.0,0.0
141,1778656095.161002,1.5957068,2.05539,0.80285645,0.0,0.0,0.0
142,1778656095.2110033,1.7870483,2.5200753,0.25616878,0.0,0.0,0.0
143,1778656095.2610052,1.7870483,2.5200753,0.25616878,0.0,0.0,0.0
144,1778656095.3110068,1.7870483,2.5200753,0.25616878,0.0,0.0,0.0
145,1778656095.3610082,1.9432448,2.4966457,-0.07965523,0.0,0.0,0.0
146,1778656095.41101,1.3614122,2.1920626,-0.028890595,0.0,0.0,0.0
147,1778656095.4610116,0.91625214,2.391214,2.3492033,0.0,0.0,0.0
148,1778656095.5110133,0.91625214,2.391214,2.3492033,0.0,0.0,0.0
149,1778656095.5610166,0.91625214,2.391214,2.3492033,0.0,0.0,0.0
150,1778656095.6110182,0.91625214,2.391214,2.3492033,0.0,0.0,0.0
151,1778656095.6610193,0.91625214,2.391214,2.3492033,0.0,0.0,0.0
152,1778656095.7110214,0.91625214,2.391214,2.3492033,0.0,0.0,0.0
153,1778656095.761023,1.3653178,3.137053,3.0716128,0.0,0.0,0.0
154,1778656095.8110247,2.6305108,3.7266955,3.0442777,0.0,0.0,0.0
155,1778656095.861026,2.6305108,3.7266955,3.0442777,0.0,0.0,0.0
156,1778656095.9110281,3.247487,3.7735543,2.8802712,0.0,0.0,0.0
157,1778656095.96103,4.6688766,3.4221108,1.8454688,0.0,0.0,0.0
158,1778656096.0110316,3.5208309,2.4966457,0.46312833,0.0,0.0,0.0
159,1778656096.0610337,3.5208309,2.4966457,0.46312833,0.0,0.0,0.0
160,1778656096.1110353,2.8726156,2.0163407,1.1816337,0.0,0.0,0.0
161,1778656096.1610386,2.4743145,1.7547125,1.6189839,0.0,0.0,0.0
162,1778656096.2110398,1.5293242,1.5282276,2.3335836,0.0,0.0,0.0
163,1778656096.2610414,1.4277964,1.5321317,2.3648229,0.0,0.0,0.0
164,1778656096.3110433,1.4277964,1.5321317,2.3648229,0.0,0.0,0.0
165,1778656096.3610444,1.3301728,1.5126079,2.1266224,0.0,0.0,0.0
166,1778656096.4110458,1.3301728,1.5126079,2.1266224,0.0,0.0,0.0
167,1778656096.4610474,1.3301728,1.5126079,2.1266224,0.0,0.0,0.0
168,1778656096.5110488,1.322363,1.4345081,1.7283214,0.0,0.0,0.0
169,1778656096.561051,1.5839928,0.9581088,0.8770506,0.0,0.0,0.0
170,1778656096.6110528,1.8924817,0.7472436,1.0176275,0.0,0.0,0.0
171,1778656096.6610544,2.2322083,0.41532525,1.2167772,0.0,0.0,0.0
172,1778656096.7110562,2.2322083,0.41532525,1.2167772,0.0,0.0,0.0
173,1778656096.761062,2.2322083,0.41532525,1.2167772,0.0,0.0,0.0
174,1778656096.8110878,2.2751632,0.21226981,1.0488667,0.0,0.0,0.0
175,1778656096.8610892,2.282973,0.091218315,0.8419056,0.0,0.0,0.0
176,1778656096.911091,2.282973,0.091218315,0.8419056,0.0,0.0,0.0
177,1778656096.9610932,2.2868772,0.005310245,0.5177971,0.0,0.0,0.0
178,1778656097.0110946,2.3064024,-0.049358524,0.65056413,0.0,0.0,0.0
179,1778656097.0610962,2.115061,-0.15479194,0.9160997,0.0,0.0,0.0
180,1778656097.1110976,2.115061,-0.15479194,0.9160997,0.0,0.0,0.0
181,1778656097.161099,2.115061,-0.15479194,0.9160997,0.0,0.0,0.0
182,1778656097.2110999,1.97058,-0.1782214,1.1425846,0.0,0.0,0.0
183,1778656097.2611012,1.9666743,-0.19384106,1.0996298,0.0,0.0,0.0
184,1778656097.3111029,1.9979136,-0.21727052,0.96295863,0.0,0.0,0.0
185,1778656097.361104,1.9979136,-0.21727052,0.96295863,0.0,0.0,0.0
186,1778656097.4111075,1.9744841,-0.2719393,0.7950466,0.0,0.0,0.0
187,1778656097.4611092,1.9744841,-0.2719393,0.7950466,0.0,0.0,0.0
188,1778656097.5111105,1.9744841,-0.2719393,0.7950466,0.0,0.0,0.0
189,1778656097.5611126,1.6464715,-0.49061438,0.7911425,0.0,0.0,0.0
190,1778656097.6111143,1.322363,-0.77176803,0.7481877,0.0,0.0,0.0
191,1778656097.661116,-0.72771823,-1.6816149,0.2913122,0.0,0.0,0.0
192,1778656097.711117,-0.72771823,-1.6816149,0.2913122,0.0,0.0,0.0
193,1778656097.7611182,-0.72771823,-1.6816149,0.2913122,0.0,0.0,0.0
194,1778656097.8111193,-0.8917245,-1.951053,-0.20461242,0.0,0.0,0.0
195,1778656097.8611207,-0.8917245,-1.951053,-0.20461242,0.0,0.0,0.0
196,1778656097.911123,-0.8097206,-2.0642962,-0.40376216,0.0,0.0,0.0
197,1778656097.961125,-0.20836413,-2.392309,-0.96216536,0.0,0.0,0.0
198,1778656098.0111268,-0.5910455,-1.9588629,0.33426702,0.0,0.0,0.0
199,1778656098.0611286,-0.75505185,-1.9627686,0.54122657,0.0,0.0,0.0
200,1778656098.11113,-0.75505185,-1.9627686,0.54122657,0.0,0.0,0.0
