id,timestamp,acc_x,acc_y,acc_z,gyro_x,gyro_y,gyro_z
1,1778658275.5566146,-0.9854424,-1.2364534,-0.55995864,0.0,0.0,0.0
2,1778658275.5666165,-0.9854424,-1.2364534,-0.55995864,0.0,0.0,0.0
3,1778658275.5766182,-0.9854424,-1.2364534,-0.55995864,0.0,0.0,0.0
4,1778658275.5866194,-0.9854424,-1.2364534,-0.55995864,0.0,0.0,0.0
5,1778658275.5966218,-0.9854424,-1.2364534,-0.55995864,0.0,0.0,0.0
6,1778658275.606623,-0.9854424,-1.2364534,-0.55995864,0.0,0.0,0.0
7,1778658275.6166236,-0.9854424,-1.2364534,-0.55995864,0.0,0.0,0.0
8,1778658275.6266246,-0.9854424,-1.2364534,-0.55995864,0.0,0.0,0.0
9,1778658275.6366267,-0.9854424,-1.2364534,-0.55995864,0.0,0.0,0.0
10,1778658275.6466286,-0.9854424,-1.2364534,-0.55995864,0.0,0.0,0.0
11,1778658275.656631,-0.9854424,-1.2364534,-0.55995864,0.0,0.0,0.0
12,1778658275.6666317,-0.9854424,-1.2364534,-0.55995864,0.0,0.0,0.0
13,1778658275.6766324,-0.9854424,-1.2364534,-0.55995864,0.0,0.0,0.0
14,1778658275.686633,-0.9854424,-1.2364534,-0.55995864,0.0,0.0,0.0
15,1778658275.6966348,-1.7273757,-2.3884032,-0.96216536,0.0,0.0,0.0
16,1778658275.7066357,-1.7273757,-2.3884032,-0.96216536,0.0,0.0,0.0
17,1778658275.7166371,-1.7273757,-2.3884032,-0.96216536,0.0,0.0,0.0
18,1778658275.7266383,-1.7273757,-2.3884032,-0.96216536,0.0,0.0,0.0
19,1778658275.73664,-2.2350159,-3.220152,-0.60291344,0.0,0.0,0.0
20,1778658275.7466414,-2.2350159,-3.220152,-0.60291344,0.0,0.0,0.0
21,1778658275.7566426,-2.2350159,-3.220152,-0.60291344,0.0,0.0,0.0
22,1778658275.766644,-2.2350159,-3.220152,-0.60291344,0.0,0.0,0.0
23,1778658275.7766447,-2.2350159,-3.220152,-0.60291344,0.0,0.0,0.0
24,1778658275.7866461,-2.2350159,-3.220152,-0.60291344,0.0,0.0,0.0
25,1778658275.7966478,-2.2350159,-3.220152,-0.60291344,0.0,0.0,0.0
26,1778658275.8066487,-2.2350159,-3.220152,-0.60291344,0.0,0.0,0.0
27,1778658275.8166494,-2.2350159,-3.220152,-0.60291344,0.0,0.0,0.0
28,1778658275.8266501,-2.2350159,-3.220152,-0.60291344,0.0,0.0,0.0
29,1778658275.8366516,-2.2350159,-3.220152,-0.60291344,0.0,0.0,0.0
30,1778658275.8466523,-2.2350159,-3.220152,-0.60291344,0.0,0.0,0.0
31,1778658275.856653,-2.2350159,-3.220152,-0.60291344,0.0,0.0,0.0
32,1778658275.8666537,-2.2350159,-3.220152,-0.60291344,0.0,0.0,0.0
33,1778658275.876655,-2.2350159,-3.220152,-0.60291344,0.0,0.0,0.0
34,1778658275.8866568,-2.2350159,-3.220152,-0.60291344,0.0,0.0,0.0
35,1778658275.896658,-2.2350159,-3.220152,-0.60291344,0.0,0.0,0.0
36,1778658275.9066598,-2.2350159,-3.220152,-0.60291344,0.0,0.0,0.0
37,1778658275.916661,-1.5516554,-3.6145473,0.38112596,0.0,0.0,0.0
38,1778658275.9266617,-1.5516554,-3.6145473,0.38112596,0.0,0.0,0.0
39,1778658275.9366624,-1.5516554,-3.6145473,0.38112596,0.0,0.0,0.0
40,1778658275.9466634,0.025930608,-3.1381478,-1.4385647,0.0,0.0,0.0
41,1778658275.9566653,0.025930608,-3.1381478,-1.4385647,0.0,0.0,0.0
42,1778658275.9666665,0.025930608,-3.1381478,-1.4385647,0.0,0.0,0.0
43,1778658275.9766674,-0.3528451,-2.79061,-1.977444,0.0,0.0,0.0
44,1778658275.9866686,-0.3528451,-2.79061,-1.977444,0.0,0.0,0.0
45,1778658275.9966698,-0.3528451,-2.79061,-1.977444,0.0,0.0,0.0
46,1778658276.006671,-0.3528451,-2.79061,-1.977444,0.0,0.0,0.0
47,1778658276.016672,-0.3528451,-2.79061,-1.977444,0.0,0.0,0.0
48,1778658276.026673,-0.3528451,-2.79061,-1.977444,0.0,0.0,0.0
49,1778658276.0366745,-0.3528451,-2.79061,-1.977444,0.0,0.0,0.0
50,1778658276.0466752,-0.3528451,-2.79061,-1.977444,0.0,0.0,0.0
51,1778658276.0566764,-0.3528451,-2.79061,-1.977444,0.0,0.0,0.0
52,1778658276.066677,-0.3528451,-2.79061,-1.977444,0.0,0.0,0.0
53,1778658276.0766788,-0.3528451,-2.79061,-1.977444,0.0,0.0,0.0
54,1778658276.0866807,-0.47780228,-2.8062296,-1.5400923,0.0,0.0,0.0
55,1778658276.0966818,-0.47780228,-2.8062296,-1.5400923,0.0,0.0,0.0
56,1778658276.1066828,-0.47780228,-2.8062296,-1.5400923,0.0,0.0,0.0
57,1778658276.1166837,-0.47780228,-2.8062296,-1.5400923,0.0,0.0,0.0
58,1778658276.1266844,-0.47780228,-2.8062296,-1.5400923,0.0,0.0,0.0
59,1778658276.1366854,-0.47780228,-2.8062296,-1.5400923,0.0,0.0,0.0
60,1778658276.146687,-0.47780228,-2.8062296,-1.5400923,0.0,0.0,0.0
61,1778658276.1566882,-0.47780228,-2.8062296,-1.5400923,0.0,0.0,0.0
62,1778658276.1666899,-0.47780228,-2.8062296,-1.5400923,0.0,0.0,0.0
63,1778658276.176691,-0.47780228,-2.8062296,-1.5400923,0.0,0.0,0.0
64,1778658276.1866918,-0.47780228,-2.8062296,-1.5400923,0.0,0.0,0.0
65,1778658276.1966949,-0.47780228,-2.8062296,-1.5400923,0.0,0.0,0.0
66,1778658276.2066963,-0.47780228,-2.8062296,-1.5400923,0.0,0.0,0.0
67,1778658276.2166977,-0.47780228,-2.8062296,-1.5400923,0.0,0.0,0.0
68,1778658276.2266986,-0.47780228,-2.8062296,-1.5400923,0.0,0.0,0.0
69,1778658276.2366998,-0.47780228,-2.8062296,-1.5400923,0.0,0.0,0.0
70,1778658276.2467008,-0.47780228,-2.8062296,-1.5400923,0.0,0.0,0.0
71,1778658276.2567017,-0.47780228,-2.8062296,-1.5400923,0.0,0.0,0.0
72,1778658276.2667022,-0.47780228,-2.8062296,-1.5400923,0.0,0.0,0.0
73,1778658276.2767031,-0.47780228,-2.8062296,-1.5400923,0.0,0.0,0.0
74,1778658276.2867036,-0.47780228,-2.8062296,-1.5400923,0.0,0.0,0.0
75,1778658276.2967043,-0.47780228,-2.8062296,-1.5400923,0.0,0.0,0.0
76,1778658276.3067052,-0.47780228,-2.8062296,-1.5400923,0.0,0.0,0.0
77,1778658276.316708,-0.47780228,-2.8062296,-1.5400923,0.0,0.0,0.0
78,1778658276.3267093,-0.47780228,-2.8062296,-1.5400923,0.0,0.0,0.0
79,1778658276.3367107,-0.63009465,-2.7164173,-0.27490085,0.0,0.0,0.0
80,1778658276.346713,-0.63009465,-2.7164173,-0.27490085,0.0,0.0,0.0
81,1778658276.3567142,-0.63009465,-2.7164173,-0.27490085,0.0,0.0,0.0
82,1778658276.3667154,-0.56761605,-2.7828002,-0.85282785,0.0,0.0,0.0
83,1778658276.3767164,-0.56761605,-2.7828002,-0.85282785,0.0,0.0,0.0
84,1778658276.3867195,-0.56761605,-2.7828002,-0.85282785,0.0,0.0,0.0
85,1778658276.396721,-0.56761605,-2.7828002,-0.85282785,0.0,0.0,0.0
86,1778658276.4067218,-0.56761605,-2.7828002,-0.85282785,0.0,0.0,0.0
87,1778658276.4167235,-0.56761605,-2.7828002,-0.85282785,0.0,0.0,0.0
88,1778658276.4267244,-0.56761605,-2.7828002,-0.85282785,0.0,0.0,0.0
89,1778658276.4367251,-0.56761605,-2.7828002,-0.85282785,0.0,0.0,0.0
90,1778658276.4467266,-0.56761605,-2.7828002,-0.85282785,0.0,0.0,0.0
91,1778658276.4567277,-0.56761605,-2.7828002,-0.85282785,0.0,0.0,0.0
92,1778658276.4667292,-0.5988553,-2.513362,0.14292555,0.0,0.0,0.0
93,1778658276.4767332,-0.5988553,-2.513362,0.14292555,0.0,0.0,0.0
94,1778658276.486735,-0.5988553,-2.513362,0.14292555,0.0,0.0,0.0
95,1778658276.496736,-0.53247106,-2.4860268,0.099972285,0.0,0.0,0.0
96,1778658276.5067377,-0.53247106,-2.4860268,0.099972285,0.0,0.0,0.0
97,1778658276.5167387,-0.53247106,-2.4860268,0.099972285,0.0,0.0,0.0
98,1778658276.5267396,-0.53247106,-2.4860268,0.099972285,0.0,0.0,0.0
99,1778658276.536741,-0.53247106,-2.4860268,0.099972285,0.0,0.0,0.0
100,1778658276.5467422,-0.53247106,-2.4860268,0.099972285,0.0,0.0,0.0
101,1778658276.5567427,-0.53247106,-2.4860268,0.099972285,0.0,0.0,0.0
102,1778658276.5667434,-0.53247106,-2.4860268,0.099972285,0.0,0.0,0.0
103,1778658276.5767446,-0.53247106,-2.4860268,0.099972285,0.0,0.0,0.0
104,1778658276.5867457,-0.53247106,-2.4860268,0.099972285,0.0,0.0,0.0
105,1778658276.596747,-0.53247106,-2.4860268,0.099972285,0.0,0.0,0.0
106,1778658276.6067483,-0.53247106,-2.4860268,0.099972285,0.0,0.0,0.0
107,1778658276.616749,-0.53247106,-2.4860268,0.099972285,0.0,0.0,0.0
108,1778658276.62675,-0.53247106,-2.4860268,0.099972285,0.0,0.0,0.0
109,1778658276.6367536,-0.53247106,-2.4860268,0.099972285,0.0,0.0,0.0
110,1778658276.6467557,-0.53247106,-2.4860268,0.099972285,0.0,0.0,0.0
111,1778658276.6567564,-0.53247106,-2.4860268,0.099972285,0.0,0.0,0.0
112,1778658276.6667573,-0.53247106,-2.4860268,0.099972285,0.0,0.0,0.0
113,1778658276.6767583,-0.53247106,-2.4860268,0.099972285,0.0,0.0,0.0
114,1778658276.6867592,-0.53247106,-2.4860268,0.099972285,0.0,0.0,0.0
115,1778658276.6967607,-0.53247106,-2.4860268,0.099972285,0.0,0.0,0.0
116,1778658276.7067614,-0.53247106,-2.4860268,0.099972285,0.0,0.0,0.0
117,1778658276.7167628,-0.46999246,-2.5875545,-0.03670042,0.0,0.0,0.0
118,1778658276.7267632,-0.46999246,-2.5875545,-0.03670042,0.0,0.0,0.0
119,1778658276.736764,-0.46999246,-2.5875545,-0.03670042,0.0,0.0,0.0
120,1778658276.7467654,-0.46999246,-2.5875545,-0.03670042,0.0,0.0,0.0
121,1778658276.7567663,-0.46999246,-2.5875545,-0.03670042,0.0,0.0,0.0
122,1778658276.766767,-0.46999246,-2.5875545,-0.03670042,0.0,0.0,0.0
123,1778658276.7767684,-0.4504687,-2.739847,-0.18118295,0.0,0.0,0.0
124,1778658276.7867692,-0.4504687,-2.739847,-0.18118295,0.0,0.0,0.0
125,1778658276.79677,-0.4504687,-2.739847,-0.18118295,0.0,0.0,0.0
126,1778658276.8067722,-0.5363767,-1.7792369,-0.017176636,0.0,0.0,0.0
127,1778658276.8167741,-0.5363767,-1.7792369,-0.017176636,0.0,0.0,0.0
128,1778658276.8267753,-0.5363767,-1.7792369,-0.017176636,0.0,0.0,0.0
129,1778658276.8367798,-0.5363767,-1.7792369,-0.017176636,0.0,0.0,0.0
130,1778658276.8467817,-0.5363767,-1.7792369,-0.017176636,0.0,0.0,0.0
131,1778658276.8567824,-0.5363767,-1.7792369,-0.017176636,0.0,0.0,0.0
132,1778658276.8667834,-0.5363767,-1.7792369,-0.017176636,0.0,0.0,0.0
133,1778658276.8767843,-0.5363767,-1.7792369,-0.017176636,0.0,0.0,0.0
134,1778658276.8867853,-0.5363767,-1.7792369,-0.017176636,0.0,0.0,0.0
135,1778658276.896786,-0.5363767,-1.7792369,-0.017176636,0.0,0.0,0.0
136,1778658276.9067864,-0.5363767,-1.7792369,-0.017176636,0.0,0.0,0.0
137,1778658276.9167876,-0.5363767,-1.7792369,-0.017176636,0.0,0.0,0.0
138,1778658276.9267886,-0.5363767,-1.7792369,-0.017176636,0.0,0.0,0.0
139,1778658276.9367895,-0.5363767,-1.7792369,-0.017176636,0.0,0.0,0.0
140,1778658276.9467905,-0.5363767,-1.7792369,-0.017176636,0.0,0.0,0.0
141,1778658276.956791,-0.5363767,-1.7792369,-0.017176636,0.0,0.0,0.0
142,1778658276.9667935,-0.5363767,-1.7792369,-0.017176636,0.0,0.0,0.0
143,1778658276.9767947,-0.5363767,-1.7792369,-0.017176636,0.0,0.0,0.0
144,1778658276.9867957,-0.5363767,-1.7792369,-0.017176636,0.0,0.0,0.0
145,1778658276.9967968,-0.5363767,-1.7792369,-0.017176636,0.0,0.0,0.0
146,1778658277.0067976,-0.5363767,-1.7792369,-0.017176636,0.0,0.0,0.0
147,1778658277.016798,-0.5363767,-1.7792369,-0.017176636,0.0,0.0,0.0
148,1778658277.0267985,-0.5363767,-1.7792369,-0.017176636,0.0,0.0,0.0
149,1778658277.0368016,-0.5363767,-1.7792369,-0.017176636,0.0,0.0,0.0
150,1778658277.046803,-0.5363767,-1.7792369,-0.017176636,0.0,0.0,0.0
151,1778658277.0568044,-0.5363767,-1.7792369,-0.017176636,0.0,0.0,0.0
152,1778658277.0668054,-0.5363767,-1.7792369,-0.017176636,0.0,0.0,0.0
153,1778658277.076807,-0.5363767,-1.7792369,-0.017176636,0.0,0.0,0.0
154,1778658277.0868075,-0.5363767,-1.7792369,-0.017176636,0.0,0.0,0.0
155,1778658277.0968084,-0.5363767,-1.7792369,-0.017176636,0.0,0.0,0.0
156,1778658277.106809,-0.5363767,-1.7792369,-0.017176636,0.0,0.0,0.0
157,1778658277.1168098,-0.51294726,-1.6230404,-0.040606108,0.0,0.0,0.0
158,1778658277.1268108,-0.51294726,-1.6230404,-0.040606108,0.0,0.0,0.0
159,1778658277.1368113,-0.51294726,-1.6230404,-0.040606108,0.0,0.0,0.0
160,1778658277.1468117,-0.51294726,-1.6230404,-0.040606108,0.0,0.0,0.0
161,1778658277.156813,-0.51294726,-1.6230404,-0.040606108,0.0,0.0,0.0
162,1778658277.1668136,-0.51294726,-1.6230404,-0.040606108,0.0,0.0,0.0
163,1778658277.176814,-0.51294726,-1.6230404,-0.040606108,0.0,0.0,0.0
164,1778658277.1868148,-0.51294726,-1.6230404,-0.040606108,0.0,0.0,0.0
165,1778658277.1968153,-0.51294726,-1.6230404,-0.040606108,0.0,0.0,0.0
166,1778658277.2068162,-0.51294726,-1.6230404,-0.040606108,0.0,0.0,0.0
167,1778658277.2168167,-0.51294726,-1.6230404,-0.040606108,0.0,0.0,0.0
168,1778658277.2268174,-0.51294726,-1.6230404,-0.040606108,0.0,0.0,0.0
169,1778658277.2368183,-0.51294726,-1.6230404,-0.040606108,0.0,0.0,0.0
170,1778658277.2468188,-0.51294726,-1.6230404,-0.040606108,0.0,0.0,0.0
171,1778658277.2568202,-0.51294726,-1.6230404,-0.040606108,0.0,0.0,0.0
172,1778658277.2668211,-0.51294726,-1.6230404,-0.040606108,0.0,0.0,0.0
173,1778658277.2768242,-0.51294726,-1.6230404,-0.040606108,0.0,0.0,0.0
174,1778658277.2868273,-0.51294726,-1.6230404,-0.040606108,0.0,0.0,0.0
175,1778658277.296829,-0.51294726,-1.6230404,-0.040606108,0.0,0.0,0.0
176,1778658277.3068295,-0.51294726,-1.6230404,-0.040606108,0.0,0.0,0.0
177,1778658277.3168316,-0.51294726,-1.6230404,-0.040606108,0.0,0.0,0.0
178,1778658277.3268323,-0.51294726,-1.6230404,-0.040606108,0.0,0.0,0.0
179,1778658277.3368328,-0.51294726,-1.6230404,-0.040606108,0.0,0.0,0.0
180,1778658277.3468337,-0.51294726,-1.6230404,-0.040606108,0.0,0.0,0.0
181,1778658277.3568347,-0.51294726,-1.6230404,-0.040606108,0.0,0.0,0.0
182,1778658277.3668356,-0.51294726,-1.6230404,-0.040606108,0.0,0.0,0.0
183,1778658277.376837,-0.51294726,-1.6230404,-0.040606108,0.0,0.0,0.0
184,1778658277.3868382,-0.51294726,-1.6230404,-0.040606108,0.0,0.0,0.0
185,1778658277.39684,-0.51294726,-1.6230404,-0.040606108,0.0,0.0,0.0
186,1778658277.4068413,-0.51294726,-1.6230404,-0.040606108,0.0,0.0,0.0
187,1778658277.4168427,-0.51294726,-1.6230404,-0.040606108,0.0,0.0,0.0
188,1778658277.4268434,-0.51294726,-1.6230404,-0.040606108,0.0,0.0,0.0
189,1778658277.4368439,-0.51294726,-1.6230404,-0.040606108,0.0,0.0,0.0
190,1778658277.4468455,-0.51294726,-1.6230404,-0.040606108,0.0,0.0,0.0
191,1778658277.4568462,-0.51294726,-1.6230404,-0.040606108,0.0,0.0,0.0
192,1778658277.4668467,-0.51294726,-1.6230404,-0.040606108,0.0,0.0,0.0
193,1778658277.4768476,-0.5090416,-1.4473187,-0.06403558,0.0,0.0,0.0
194,1778658277.4868486,-0.5090416,-1.4473187,-0.06403558,0.0,0.0,0.0
195,1778658277.4968498,-0.5090416,-1.4473187,-0.06403558,0.0,0.0,0.0
196,1778658277.506851,-0.5090416,-1.4473187,-0.06403558,0.0,0.0,0.0
197,1778658277.516853,-0.5090416,-1.4473187,-0.06403558,0.0,0.0,0.0
198,1778658277.526854,-0.5090416,-1.4473187,-0.06403558,0.0,0.0,0.0
199,1778658277.5368557,-0.5090416,-1.4473187,-0.06403558,0.0,0.0,0.0
200,1778658277.5468566,-0.5090416,-1.4473187,-0.06403558,0.0,0.0,0.0
201,1778658277.55686,-0.5090416,-1.4473187,-0.06403558,0.0,0.0,0.0
202,1778658277.5668616,-0.5090416,-1.4473187,-0.06403558,0.0,0.0,0.0
203,1778658277.576862,-0.5090416,-1.4473187,-0.06403558,0.0,0.0,0.0
204,1778658277.5868638,-0.5090416,-1.4473187,-0.06403558,0.0,0.0,0.0
205,1778658277.5968645,-0.5090416,-1.4473187,-0.06403558,0.0,0.0,0.0
206,1778658277.6068654,-0.5090416,-1.4473187,-0.06403558,0.0,0.0,0.0
207,1778658277.6168666,-0.5090416,-1.4473187,-0.06403558,0.0,0.0,0.0
208,1778658277.6268673,-0.5090416,-1.4473187,-0.06403558,0.0,0.0,0.0
209,1778658277.6368687,-0.5090416,-1.4473187,-0.06403558,0.0,0.0,0.0
210,1778658277.64687,-0.5090416,-1.4473187,-0.06403558,0.0,0.0,0.0
211,1778658277.6568713,-0.5090416,-1.4473187,-0.06403558,0.0,0.0,0.0
212,1778658277.666872,-0.5090416,-1.4473187,-0.06403558,0.0,0.0,0.0
213,1778658277.676873,-0.5090416,-1.4473187,-0.06403558,0.0,0.0,0.0
214,1778658277.686874,-0.5090416,-1.4473187,-0.06403558,0.0,0.0,0.0
215,1778658277.6968756,-0.40751386,-0.8615818,-0.06403558,0.0,0.0,0.0
216,1778658277.7068777,-0.40751386,-0.8615818,-0.06403558,0.0,0.0,0.0
217,1778658277.7168787,-0.40751386,-0.8615818,-0.06403558,0.0,0.0,0.0
218,1778658277.7268798,-0.40751386,-0.8615818,-0.06403558,0.0,0.0,0.0
219,1778658277.7368808,-0.40751386,-0.8615818,-0.06403558,0.0,0.0,0.0
220,1778658277.7468817,-0.40751386,-0.8615818,-0.06403558,0.0,0.0,0.0
221,1778658277.7568824,-0.40751386,-0.8615818,-0.06403558,0.0,0.0,0.0
222,1778658277.7668834,-0.40751386,-0.8615818,-0.06403558,0.0,0.0,0.0
223,1778658277.7768843,-0.40751386,-0.8615818,-0.06403558,0.0,0.0,0.0
224,1778658277.7868848,-0.40751386,-0.8615818,-0.06403558,0.0,0.0,0.0
225,1778658277.7968855,-0.40751386,-0.8615818,-0.06403558,0.0,0.0,0.0
226,1778658277.8068867,-0.5090416,-1.4473187,-0.06403558,0.0,0.0,0.0
227,1778658277.8168874,-0.5090416,-1.4473187,-0.06403558,0.0,0.0,0.0
228,1778658277.8268886,-0.5090416,-1.4473187,-0.06403558,0.0,0.0,0.0
229,1778658277.8368893,-0.5090416,-1.4473187,-0.06403558,0.0,0.0,0.0
230,1778658277.8468897,-0.5090416,-1.4473187,-0.06403558,0.0,0.0,0.0
231,1778658277.8568907,-0.5090416,-1.4473187,-0.06403558,0.0,0.0,0.0
232,1778658277.8668923,-0.40751386,-0.8615818,-0.06403558,0.0,0.0,0.0
233,1778658277.8768957,-0.40751386,-0.8615818,-0.06403558,0.0,0.0,0.0
234,1778658277.8868978,-0.40751386,-0.8615818,-0.06403558,0.0,0.0,0.0
235,1778658277.8968983,-0.40751386,-0.8615818,-0.06403558,0.0,0.0,0.0
236,1778658277.9068997,-0.40751386,-0.8615818,-0.06403558,0.0,0.0,0.0
237,1778658277.9169006,-0.40751386,-0.8615818,-0.06403558,0.0,0.0,0.0
238,1778658277.9269016,-0.40751386,-0.8615818,-0.06403558,0.0,0.0,0.0
239,1778658277.9369028,-0.40751386,-0.8615818,-0.06403558,0.0,0.0,0.0
240,1778658277.9469037,-0.40751386,-0.8615818,-0.06403558,0.0,0.0,0.0
241,1778658277.9569042,-0.40751386,-0.8615818,-0.06403558,0.0,0.0,0.0
242,1778658277.966905,-0.40751386,-0.8615818,-0.06403558,0.0,0.0,0.0
243,1778658277.9769063,-0.40751386,-0.8615818,-0.06403558,0.0,0.0,0.0
244,1778658277.986908,-0.40751386,-0.8615818,-0.06403558,0.0,0.0,0.0
245,1778658277.9969091,-0.40751386,-0.8615818,-0.06403558,0.0,0.0,0.0
246,1778658278.006911,-0.40751386,-0.8615818,-0.06403558,0.0,0.0,0.0
247,1778658278.0169122,-0.40751386,-0.8615818,-0.06403558,0.0,0.0,0.0
248,1778658278.026913,-0.40751386,-0.8615818,-0.06403558,0.0,0.0,0.0
249,1778658278.0369136,-0.40751386,-0.8615818,-0.06403558,0.0,0.0,0.0
250,1778658278.046915,-0.21617395,-0.6624305,-0.09136919,0.0,0.0,0.0
251,1778658278.056917,-0.21617395,-0.6624305,-0.09136919,0.0,0.0,0.0
252,1778658278.066918,-0.21617395,-0.6624305,-0.09136919,0.0,0.0,0.0
253,1778658278.076919,-0.21617395,-0.6624305,-0.09136919,0.0,0.0,0.0
254,1778658278.08692,-0.21617395,-0.6624305,-0.09136919,0.0,0.0,0.0
255,1778658278.0969212,-0.21617395,-0.6624305,-0.09136919,0.0,0.0,0.0
256,1778658278.1069224,-0.21617395,-0.6624305,-0.09136919,0.0,0.0,0.0
257,1778658278.116924,-0.21617395,-0.6624305,-0.09136919,0.0,0.0,0.0
258,1778658278.1269257,-0.21617395,-0.6624305,-0.09136919,0.0,0.0,0.0
259,1778658278.1369271,-0.21617395,-0.6624305,-0.09136919,0.0,0.0,0.0
260,1778658278.1469278,-0.21617395,-0.6624305,-0.09136919,0.0,0.0,0.0
261,1778658278.1569295,-0.21617395,-0.6624305,-0.09136919,0.0,0.0,0.0
262,1778658278.1669302,-0.21617395,-0.6624305,-0.09136919,0.0,0.0,0.0
263,1778658278.1769316,-0.21617395,-0.6624305,-0.09136919,0.0,0.0,0.0
264,1778658278.186933,-0.21617395,-0.6624305,-0.09136919,0.0,0.0,0.0
265,1778658278.196934,-0.21617395,-0.6624305,-0.09136919,0.0,0.0,0.0
266,1778658278.206935,-0.21617395,-0.6624305,-0.09136919,0.0,0.0,0.0
267,1778658278.216937,-0.21617395,-0.6624305,-0.09136919,0.0,0.0,0.0
268,1778658278.226938,-0.21617395,-0.6624305,-0.09136919,0.0,0.0,0.0
269,1778658278.236942,-0.21617395,-0.6624305,-0.09136919,0.0,0.0,0.0
270,1778658278.2469435,-0.21617395,-0.6624305,-0.09136919,0.0,0.0,0.0
271,1778658278.2569447,-0.09121676,-0.22117622,-0.20851655,0.0,0.0,0.0
272,1778658278.2669458,-0.09121676,-0.22117622,-0.20851655,0.0,0.0,0.0
273,1778658278.2769468,-0.09121676,-0.22117622,-0.20851655,0.0,0.0,0.0
274,1778658278.2869482,-0.09121676,-0.22117622,-0.20851655,0.0,0.0,0.0
275,1778658278.296949,-0.09121676,-0.22117622,-0.20851655,0.0,0.0,0.0
276,1778658278.3069499,-0.09121676,-0.22117622,-0.20851655,0.0,0.0,0.0
277,1778658278.3169503,-0.09121676,-0.22117622,-0.20851655,0.0,0.0,0.0
278,1778658278.326951,-0.09121676,-0.22117622,-0.20851655,0.0,0.0,0.0
279,1778658278.3369527,-0.09121676,-0.22117622,-0.20851655,0.0,0.0,0.0
280,1778658278.3469546,-0.09121676,-0.22117622,-0.20851655,0.0,0.0,0.0
281,1778658278.3569558,-0.09121676,-0.22117622,-0.20851655,0.0,0.0,0.0
282,1778658278.366957,-0.09121676,-0.22117622,-0.20851655,0.0,0.0,0.0
283,1778658278.3769593,-0.09121676,-0.22117622,-0.20851655,0.0,0.0,0.0
284,1778658278.3869607,-0.09121676,-0.22117622,-0.20851655,0.0,0.0,0.0
285,1778658278.3969626,-0.09121676,-0.22117622,-0.20851655,0.0,0.0,0.0
286,1778658278.4069638,-0.09121676,-0.22117622,-0.20851655,0.0,0.0,0.0
287,1778658278.4169643,-0.09121676,-0.22117622,-0.20851655,0.0,0.0,0.0
288,1778658278.426966,-0.09121676,-0.22117622,-0.20851655,0.0,0.0,0.0
289,1778658278.436967,-0.09121676,-0.22117622,-0.20851655,0.0,0.0,0.0
290,1778658278.4469686,-0.09121676,-0.22117622,-0.20851655,0.0,0.0,0.0
291,1778658278.4569705,-0.09121676,-0.22117622,-0.20851655,0.0,0.0,0.0
292,1778658278.4669724,-0.09121676,-0.22117622,-0.20851655,0.0,0.0,0.0
293,1778658278.476974,-0.09121676,-0.22117622,-0.20851655,0.0,0.0,0.0
294,1778658278.4869754,-0.09121676,-0.22117622,-0.20851655,0.0,0.0,0.0
295,1778658278.496976,-0.09121676,-0.22117622,-0.20851655,0.0,0.0,0.0
296,1778658278.5069773,-0.09121676,-0.22117622,-0.20851655,0.0,0.0,0.0
297,1778658278.5169783,-0.09121676,-0.22117622,-0.20851655,0.0,0.0,0.0
298,1778658278.5269787,-0.09121676,-0.22117622,-0.20851655,0.0,0.0,0.0
299,1778658278.5369802,-0.071691416,-0.07669369,-0.18899277,0.0,0.0,0.0
300,1778658278.5469806,-0.071691416,-0.07669369,-0.18899277,0.0,0.0,0.0
301,1778658278.5569816,-0.071691416,-0.07669369,-0.18899277,0.0,0.0,0.0
302,1778658278.5669825,-0.071691416,-0.07669369,-0.18899277,0.0,0.0,0.0
303,1778658278.5769832,-0.071691416,-0.07669369,-0.18899277,0.0,0.0,0.0
304,1778658278.5869842,-0.071691416,-0.07669369,-0.18899277,0.0,0.0,0.0
305,1778658278.596985,-0.071691416,-0.07669369,-0.18899277,0.0,0.0,0.0
306,1778658278.606986,-0.071691416,-0.07669369,-0.18899277,0.0,0.0,0.0
307,1778658278.616987,-0.071691416,-0.07669369,-0.18899277,0.0,0.0,0.0
308,1778658278.6269886,-0.071691416,-0.07669369,-0.18899277,0.0,0.0,0.0
309,1778658278.6369922,-0.071691416,-0.07669369,-0.18899277,0.0,0.0,0.0
310,1778658278.646994,-0.071691416,-0.07669369,-0.18899277,0.0,0.0,0.0
311,1778658278.6569948,-0.071691416,-0.07669369,-0.18899277,0.0,0.0,0.0
312,1778658278.6669953,-0.071691416,-0.07669369,-0.18899277,0.0,0.0,0.0
313,1778658278.676997,-0.071691416,-0.07669369,-0.18899277,0.0,0.0,0.0
314,1778658278.6869977,-0.071691416,-0.07669369,-0.18899277,0.0,0.0,0.0
315,1778658278.6969988,-0.071691416,-0.07669369,-0.18899277,0.0,0.0,0.0
316,1778658278.707,-0.071691416,-0.07669369,-0.18899277,0.0,0.0,0.0
317,1778658278.7170007,-0.071691416,-0.07669369,-0.18899277,0.0,0.0,0.0
318,1778658278.7270017,-0.071691416,-0.07669369,-0.18899277,0.0,0.0,0.0
319,1778658278.7370052,-0.071691416,-0.07669369,-0.18899277,0.0,0.0,0.0
320,1778658278.7470062,-0.071691416,-0.07669369,-0.18899277,0.0,0.0,0.0
321,1778658278.7570071,-0.071691416,-0.07669369,-0.18899277,0.0,0.0,0.0
322,1778658278.7670078,-0.071691416,-0.07669369,-0.18899277,0.0,0.0,0.0
323,1778658278.7770092,-0.071691416,-0.07669369,-0.18899277,0.0,0.0,0.0
324,1778658278.7870102,-0.071691416,-0.07669369,-0.18899277,0.0,0.0,0.0
325,1778658278.7970116,-0.071691416,-0.07669369,-0.18899277,0.0,0.0,0.0
326,1778658278.807013,-0.071691416,-0.07669369,-0.18899277,0.0,0.0,0.0
327,1778658278.817014,-0.071691416,-0.07669369,-0.18899277,0.0,0.0,0.0
328,1778658278.8270147,-0.071691416,-0.07669369,-0.18899277,0.0,0.0,0.0
329,1778658278.8370154,-0.09512089,-0.022024918,-0.18118295,0.0,0.0,0.0
330,1778658278.8470163,-0.09512089,-0.022024918,-0.18118295,0.0,0.0,0.0
331,1778658278.8570168,-0.09512089,-0.022024918,-0.18118295,0.0,0.0,0.0
332,1778658278.8670177,-0.09512089,-0.022024918,-0.18118295,0.0,0.0,0.0
333,1778658278.8770182,-0.09512089,-0.022024918,-0.18118295,0.0,0.0,0.0
334,1778658278.8870196,-0.09512089,-0.022024918,-0.18118295,0.0,0.0,0.0
335,1778658278.8970215,-0.09512089,-0.022024918,-0.18118295,0.0,0.0,0.0
336,1778658278.9070222,-0.09512089,-0.022024918,-0.18118295,0.0,0.0,0.0
337,1778658278.917023,-0.09512089,-0.022024918,-0.18118295,0.0,0.0,0.0
338,1778658278.9270236,-0.09512089,-0.022024918,-0.18118295,0.0,0.0,0.0
339,1778658278.9370253,-0.09512089,-0.022024918,-0.18118295,0.0,0.0,0.0
340,1778658278.9470263,-0.09512089,-0.022024918,-0.18118295,0.0,0.0,0.0
341,1778658278.9570267,-0.09512089,-0.022024918,-0.18118295,0.0,0.0,0.0
342,1778658278.9670281,-0.09512089,-0.022024918,-0.18118295,0.0,0.0,0.0
343,1778658278.9770293,-0.09512089,-0.022024918,-0.18118295,0.0,0.0,0.0
344,1778658278.98703,-0.09512089,-0.022024918,-0.18118295,0.0,0.0,0.0
345,1778658278.997031,-0.09512089,-0.022024918,-0.18118295,0.0,0.0,0.0
346,1778658279.007037,-0.09512089,-0.022024918,-0.18118295,0.0,0.0,0.0
347,1778658279.0170379,-0.09512089,-0.022024918,-0.18118295,0.0,0.0,0.0
348,1778658279.0270388,-0.09512089,-0.022024918,-0.18118295,0.0,0.0,0.0
349,1778658279.0370395,-0.09512089,-0.022024918,-0.18118295,0.0,0.0,0.0
350,1778658279.0470405,-0.09512089,-0.022024918,-0.18118295,0.0,0.0,0.0
351,1778658279.0570416,-0.09512089,-0.022024918,-0.18118295,0.0,0.0,0.0
352,1778658279.0670426,-0.09512089,-0.022024918,-0.18118295,0.0,0.0,0.0
353,1778658279.077046,-0.09512089,-0.022024918,-0.18118295,0.0,0.0,0.0
354,1778658279.0870488,-0.09512089,-0.022024918,-0.18118295,0.0,0.0,0.0
355,1778658279.09705,-0.09512089,-0.022024918,-0.18118295,0.0,0.0,0.0
356,1778658279.107051,-0.09512089,-0.022024918,-0.18118295,0.0,0.0,0.0
357,1778658279.1170514,-0.09512089,-0.022024918,-0.18118295,0.0,0.0,0.0
358,1778658279.1270518,-0.09512089,-0.022024918,-0.18118295,0.0,0.0,0.0
359,1778658279.137053,-0.09512089,-0.022024918,-0.18118295,0.0,0.0,0.0
360,1778658279.1470537,-0.09512089,-0.022024918,-0.18118295,0.0,0.0,0.0
361,1778658279.157055,-0.09512089,-0.022024918,-0.18118295,0.0,0.0,0.0
362,1778658279.1670558,-0.09512089,-0.022024918,-0.18118295,0.0,0.0,0.0
363,1778658279.1770568,-0.09512089,-0.022024918,-0.18118295,0.0,0.0,0.0
364,1778658279.187058,-0.09512089,-0.022024918,-0.18118295,0.0,0.0,0.0
365,1778658279.1970592,-0.09512089,-0.022024918,-0.18118295,0.0,0.0,0.0
366,1778658279.2070596,-0.09512089,-0.022024918,-0.18118295,0.0,0.0,0.0
367,1778658279.2170606,-0.09512089,-0.022024918,-0.18118295,0.0,0.0,0.0
368,1778658279.2270615,-0.09512089,-0.022024918,-0.18118295,0.0,0.0,0.0
369,1778658279.2370622,-0.09512089,-0.022024918,-0.18118295,0.0,0.0,0.0
370,1778658279.2470636,-0.09512089,-0.022024918,-0.18118295,0.0,0.0,0.0
371,1778658279.2570648,-0.09512089,-0.022024918,-0.18118295,0.0,0.0,0.0
372,1778658279.2670655,-0.09512089,-0.022024918,-0.18118295,0.0,0.0,0.0
373,1778658279.2770665,-0.09512089,-0.022024918,-0.18118295,0.0,0.0,0.0
374,1778658279.2870677,-0.09512089,-0.022024918,-0.18118295,0.0,0.0,0.0
375,1778658279.2970688,-0.09512089,-0.022024918,-0.18118295,0.0,0.0,0.0
376,1778658279.3070698,-0.09512089,-0.022024918,-0.18118295,0.0,0.0,0.0
377,1778658279.3170705,-0.09512089,-0.022024918,-0.18118295,0.0,0.0,0.0
378,1778658279.3270721,-0.09512089,-0.022024918,-0.18118295,0.0,0.0,0.0
379,1778658279.3370728,-0.09512089,-0.022024918,-0.18118295,0.0,0.0,0.0
380,1778658279.3470738,-0.09512089,-0.022024918,-0.18118295,0.0,0.0,0.0
381,1778658279.3570745,-0.09512089,-0.022024918,-0.18118295,0.0,0.0,0.0
382,1778658279.3670754,-0.09512089,-0.022024918,-0.18118295,0.0,0.0,0.0
383,1778658279.377085,-0.09512089,-0.022024918,-0.18118295,0.0,0.0,0.0
384,1778658279.3870862,-0.09512089,-0.022024918,-0.18118295,0.0,0.0,0.0
385,1778658279.3970869,-0.09512089,-0.022024918,-0.18118295,0.0,0.0,0.0
386,1778658279.4070883,-0.11074054,0.06388315,-0.18118295,0.0,0.0,0.0
387,1778658279.4170892,-0.11074054,0.06388315,-0.18118295,0.0,0.0,0.0
388,1778658279.42709,-0.11074054,0.06388315,-0.18118295,0.0,0.0,0.0
389,1778658279.4370909,-0.11074054,0.06388315,-0.18118295,0.0,0.0,0.0
390,1778658279.4470918,-0.11074054,0.06388315,-0.18118295,0.0,0.0,0.0
391,1778658279.4570925,-0.11074054,0.06388315,-0.18118295,0.0,0.0,0.0
392,1778658279.467094,-0.11074054,0.06388315,-0.18118295,0.0,0.0,0.0
393,1778658279.4770944,-0.11074054,0.06388315,-0.18118295,0.0,0.0,0.0
394,1778658279.4870949,-0.11074054,0.06388315,-0.18118295,0.0,0.0,0.0
395,1778658279.4970968,-0.11074054,0.06388315,-0.18118295,0.0,0.0,0.0
396,1778658279.5070982,-0.11074054,0.06388315,-0.18118295,0.0,0.0,0.0
397,1778658279.517099,-0.11074054,0.06388315,-0.18118295,0.0,0.0,0.0
398,1778658279.5270996,-0.11074054,0.06388315,-0.18118295,0.0,0.0,0.0
399,1778658279.5371008,-0.11074054,0.06388315,-0.18118295,0.0,0.0,0.0
400,1778658279.5471017,-0.11074054,0.06388315,-0.18118295,0.0,0.0,0.0
401,1778658279.5571053,-0.11074054,0.06388315,-0.18118295,0.0,0.0,0.0
402,1778658279.5671086,-0.11074054,0.06388315,-0.18118295,0.0,0.0,0.0
403,1778658279.5771093,-0.11074054,0.06388315,-0.18118295,0.0,0.0,0.0
404,1778658279.5871103,-0.11074054,0.06388315,-0.18118295,0.0,0.0,0.0
405,1778658279.5971112,-0.11074054,0.06388315,-0.18118295,0.0,0.0,0.0
406,1778658279.6071126,-0.09512089,-0.022024918,-0.18118295,0.0,0.0,0.0
407,1778658279.617114,-0.09512089,-0.022024918,-0.18118295,0.0,0.0,0.0
408,1778658279.6271152,-0.09512089,-0.022024918,-0.18118295,0.0,0.0,0.0
409,1778658279.6371157,-0.09512089,-0.022024918,-0.18118295,0.0,0.0,0.0
410,1778658279.6471171,0.018120784,0.30598772,-0.15775347,0.0,0.0,0.0
411,1778658279.6571178,0.018120784,0.30598772,-0.15775347,0.0,0.0,0.0
412,1778658279.6671188,0.018120784,0.30598772,-0.15775347,0.0,0.0,0.0
413,1778658279.67712,0.018120784,0.30598772,-0.15775347,0.0,0.0,0.0
414,1778658279.6871207,0.018120784,0.30598772,-0.15775347,0.0,0.0,0.0
415,1778658279.6971219,0.018120784,0.30598772,-0.15775347,0.0,0.0,0.0
416,1778658279.7071233,0.018120784,0.30598772,-0.15775347,0.0,0.0,0.0
417,1778658279.7171245,0.018120784,0.30598772,-0.15775347,0.0,0.0,0.0
418,1778658279.7271252,0.018120784,0.30598772,-0.15775347,0.0,0.0,0.0
419,1778658279.7371275,0.018120784,0.30598772,-0.15775347,0.0,0.0,0.0
420,1778658279.7471285,0.018120784,0.30598772,-0.15775347,0.0,0.0,0.0
421,1778658279.7571297,0.018120784,0.30598772,-0.15775347,0.0,0.0,0.0
422,1778658279.7671309,0.018120784,0.30598772,-0.15775347,0.0,0.0,0.0
423,1778658279.7771318,0.018120784,0.30598772,-0.15775347,0.0,0.0,0.0
424,1778658279.7871327,0.018120784,0.30598772,-0.15775347,0.0,0.0,0.0
425,1778658279.7971332,0.018120784,0.30598772,-0.15775347,0.0,0.0,0.0
426,1778658279.8071342,0.018120784,0.30598772,-0.15775347,0.0,0.0,0.0
427,1778658279.8171353,0.32270548,-0.12745832,0.45141438,0.0,0.0,0.0
428,1778658279.8271358,0.32270548,-0.12745832,0.45141438,0.0,0.0,0.0
429,1778658279.837137,0.32270548,-0.12745832,0.45141438,0.0,0.0,0.0
430,1778658279.847139,0.32270548,-0.12745832,0.45141438,0.0,0.0,0.0
431,1778658279.8571393,0.32270548,-0.12745832,0.45141438,0.0,0.0,0.0
432,1778658279.8671403,0.32270548,-0.12745832,0.45141438,0.0,0.0,0.0
433,1778658279.8771417,0.32270548,-0.12745832,0.45141438,0.0,0.0,0.0
434,1778658279.887143,0.32270548,-0.12745832,0.45141438,0.0,0.0,0.0
435,1778658279.897144,0.32270548,-0.12745832,0.45141438,0.0,0.0,0.0
436,1778658279.9071453,0.32270548,-0.12745832,0.45141438,0.0,0.0,0.0
437,1778658279.917146,0.32270548,-0.12745832,0.45141438,0.0,0.0,0.0
438,1778658279.927147,0.32270548,-0.12745832,0.45141438,0.0,0.0,0.0
439,1778658279.9371474,0.32270548,-0.12745832,0.45141438,0.0,0.0,0.0
440,1778658279.9471478,0.32270548,-0.12745832,0.45141438,0.0,0.0,0.0
441,1778658279.9571493,0.32270548,-0.12745832,0.45141438,0.0,0.0,0.0
442,1778658279.9671504,0.32270548,-0.12745832,0.45141438,0.0,0.0,0.0
443,1778658279.9771526,0.32270548,-0.12745832,0.45141438,0.0,0.0,0.0
444,1778658279.9871542,0.32270548,-0.12745832,0.45141438,0.0,0.0,0.0
445,1778658279.9971554,0.32270548,-0.12745832,0.45141438,0.0,0.0,0.0
446,1778658280.0071564,0.32270548,-0.12745832,0.45141438,0.0,0.0,0.0
447,1778658280.0171602,0.32270548,-0.12745832,0.45141438,0.0,0.0,0.0
448,1778658280.027162,0.32270548,-0.12745832,0.45141438,0.0,0.0,0.0
449,1778658280.0371628,0.32270548,-0.12745832,0.45141438,0.0,0.0,0.0
450,1778658280.0471637,0.32270548,-0.12745832,0.45141438,0.0,0.0,0.0
451,1778658280.057165,0.32270548,-0.12745832,0.45141438,0.0,0.0,0.0
452,1778658280.067166,0.32270548,-0.12745832,0.45141438,0.0,0.0,0.0
453,1778658280.0771673,0.32270548,-0.12745832,0.45141438,0.0,0.0,0.0
454,1778658280.087168,0.32270548,-0.12745832,0.45141438,0.0,0.0,0.0
455,1778658280.0971694,0.32270548,-0.12745832,0.45141438,0.0,0.0,0.0
456,1778658280.1071703,0.32270548,-0.12745832,0.45141438,0.0,0.0,0.0
457,1778658280.1171744,0.32270548,-0.12745832,0.45141438,0.0,0.0,0.0
458,1778658280.1271768,0.29927602,-0.23289017,0.43579474,0.0,0.0,0.0
459,1778658280.137178,0.29927602,-0.23289017,0.43579474,0.0,0.0,0.0
460,1778658280.1471796,0.29927602,-0.23289017,0.43579474,0.0,0.0,0.0
461,1778658280.1571803,0.29927602,-0.23289017,0.43579474,0.0,0.0,0.0
462,1778658280.1671817,0.29927602,-0.23289017,0.43579474,0.0,0.0,0.0
463,1778658280.1771834,0.29927602,-0.23289017,0.43579474,0.0,0.0,0.0
464,1778658280.1871839,0.29927602,-0.23289017,0.43579474,0.0,0.0,0.0
465,1778658280.1971848,0.29927602,-0.23289017,0.43579474,0.0,0.0,0.0
466,1778658280.2071855,0.29927602,-0.23289017,0.43579474,0.0,0.0,0.0
467,1778658280.2171865,0.29927602,-0.23289017,0.43579474,0.0,0.0,0.0
468,1778658280.2271876,0.29927602,-0.23289017,0.43579474,0.0,0.0,0.0
469,1778658280.2371886,0.29927602,-0.23289017,0.43579474,0.0,0.0,0.0
470,1778658280.2471893,0.29927602,-0.23289017,0.43579474,0.0,0.0,0.0
471,1778658280.2571907,0.29927602,-0.23289017,0.43579474,0.0,0.0,0.0
472,1778658280.2671926,0.29927602,-0.23289017,0.43579474,0.0,0.0,0.0
473,1778658280.2771935,0.29927602,-0.23289017,0.43579474,0.0,0.0,0.0
474,1778658280.287195,0.29927602,-0.23289017,0.43579474,0.0,0.0,0.0
475,1778658280.2971954,0.29927602,-0.23289017,0.43579474,0.0,0.0,0.0
476,1778658280.3071961,0.29927602,-0.23289017,0.43579474,0.0,0.0,0.0
477,1778658280.317197,0.29927602,-0.23289017,0.43579474,0.0,0.0,0.0
478,1778658280.3271978,0.29927602,-0.23289017,0.43579474,0.0,0.0,0.0
479,1778658280.3371992,0.29927602,-0.23289017,0.43579474,0.0,0.0,0.0
480,1778658280.3472002,0.29927602,-0.23289017,0.43579474,0.0,0.0,0.0
481,1778658280.3572009,0.29927602,-0.23289017,0.43579474,0.0,0.0,0.0
482,1778658280.3672018,0.29927602,-0.23289017,0.43579474,0.0,0.0,0.0
483,1778658280.3772042,0.29927602,-0.23289017,0.43579474,0.0,0.0,0.0
484,1778658280.3872058,0.29927602,-0.23289017,0.43579474,0.0,0.0,0.0
485,1778658280.3972077,0.29927602,-0.23289017,0.43579474,0.0,0.0,0.0
486,1778658280.4072087,0.29927602,-0.23289017,0.43579474,0.0,0.0,0.0
487,1778658280.4172103,0.29927602,-0.23289017,0.43579474,0.0,0.0,0.0
488,1778658280.427211,0.29927602,-0.23289017,0.43579474,0.0,0.0,0.0
489,1778658280.4372122,0.29927602,-0.23289017,0.43579474,0.0,0.0,0.0
490,1778658280.4472136,0.29927602,-0.23289017,0.43579474,0.0,0.0,0.0
491,1778658280.4572158,0.29927602,-0.23289017,0.43579474,0.0,0.0,0.0
492,1778658280.467217,0.29927602,-0.23289017,0.43579474,0.0,0.0,0.0
493,1778658280.4772186,0.29927602,-0.23289017,0.43579474,0.0,0.0,0.0
494,1778658280.4872196,0.29927602,-0.23289017,0.43579474,0.0,0.0,0.0
495,1778658280.4972208,0.29927602,-0.23289017,0.43579474,0.0,0.0,0.0
496,1778658280.5072222,0.29927602,-0.23289017,0.43579474,0.0,0.0,0.0
497,1778658280.5172231,0.29927602,-0.23289017,0.43579474,0.0,0.0,0.0
498,1778658280.5272243,0.29927602,-0.23289017,0.43579474,0.0,0.0,0.0
499,1778658280.5372257,0.29927602,-0.23289017,0.43579474,0.0,0.0,0.0
500,1778658280.5472262,0.29927602,-0.23289017,0.43579474,0.0,0.0,0.0
501,1778658280.5572276,0.29927602,-0.23289017,0.43579474,0.0,0.0,0.0
502,1778658280.567229,0.29927602,-0.23289017,0.43579474,0.0,0.0,0.0
503,1778658280.5772295,0.29927602,-0.23289017,0.43579474,0.0,0.0,0.0
504,1778658280.5872314,0.29927602,-0.23289017,0.43579474,0.0,0.0,0.0
505,1778658280.5972333,0.29927602,-0.23289017,0.43579474,0.0,0.0,0.0
506,1778658280.6072354,0.29927602,-0.23289017,0.43579474,0.0,0.0,0.0
507,1778658280.6172373,0.1938426,-0.18603122,0.08825677,0.0,0.0,0.0
508,1778658280.6272385,0.1938426,-0.18603122,0.08825677,0.0,0.0,0.0
509,1778658280.6372392,0.1938426,-0.18603122,0.08825677,0.0,0.0,0.0
510,1778658280.6472402,0.1938426,-0.18603122,0.08825677,0.0,0.0,0.0
511,1778658280.6572409,0.1938426,-0.18603122,0.08825677,0.0,0.0,0.0
512,1778658280.6672418,0.1938426,-0.18603122,0.08825677,0.0,0.0,0.0
513,1778658280.6772432,0.1938426,-0.18603122,0.08825677,0.0,0.0,0.0
514,1778658280.687244,0.1938426,-0.18603122,0.08825677,0.0,0.0,0.0
515,1778658280.6972456,0.1938426,-0.18603122,0.08825677,0.0,0.0,0.0
516,1778658280.7072468,0.1938426,-0.18603122,0.08825677,0.0,0.0,0.0
517,1778658280.7172484,0.1938426,-0.18603122,0.08825677,0.0,0.0,0.0
518,1778658280.7272491,0.1938426,-0.18603122,0.08825677,0.0,0.0,0.0
519,1778658280.7372499,0.1938426,-0.18603122,0.08825677,0.0,0.0,0.0
520,1778658280.7472515,0.1938426,-0.18603122,0.08825677,0.0,0.0,0.0
521,1778658280.7572553,0.1938426,-0.18603122,0.08825677,0.0,0.0,0.0
522,1778658280.7672577,0.1938426,-0.18603122,0.08825677,0.0,0.0,0.0
523,1778658280.7772586,0.1938426,-0.18603122,0.08825677,0.0,0.0,0.0
524,1778658280.7872593,0.1938426,-0.18603122,0.08825677,0.0,0.0,0.0
525,1778658280.79726,0.1938426,-0.18603122,0.08825677,0.0,0.0,0.0
526,1778658280.8072612,0.1938426,-0.18603122,0.08825677,0.0,0.0,0.0
527,1778658280.8172622,0.1938426,-0.18603122,0.08825677,0.0,0.0,0.0
528,1778658280.827263,0.1938426,-0.18603122,0.08825677,0.0,0.0,0.0
529,1778658280.837265,0.1938426,-0.18603122,0.08825677,0.0,0.0,0.0
530,1778658280.8472655,0.1938426,-0.18603122,0.08825677,0.0,0.0,0.0
531,1778658280.8572662,0.1938426,-0.18603122,0.08825677,0.0,0.0,0.0
532,1778658280.8672676,0.1938426,-0.18603122,0.08825677,0.0,0.0,0.0
533,1778658280.8772686,0.1938426,-0.18603122,0.08825677,0.0,0.0,0.0
534,1778658280.8872693,0.1938426,-0.18603122,0.08825677,0.0,0.0,0.0
535,1778658280.89727,0.1938426,-0.18603122,0.08825677,0.0,0.0,0.0
536,1778658280.9072704,0.1938426,-0.18603122,0.08825677,0.0,0.0,0.0
537,1778658280.9172714,0.1938426,-0.18603122,0.08825677,0.0,0.0,0.0
538,1778658280.9272726,0.1938426,-0.18603122,0.08825677,0.0,0.0,0.0
539,1778658280.937273,0.1938426,-0.18603122,0.08825677,0.0,0.0,0.0
540,1778658280.9472742,0.1938426,-0.18603122,0.08825677,0.0,0.0,0.0
541,1778658280.9572754,0.1938426,-0.18603122,0.08825677,0.0,0.0,0.0
542,1778658280.9672763,0.1938426,-0.18603122,0.08825677,0.0,0.0,0.0
543,1778658280.9772787,0.1938426,-0.18603122,0.08825677,0.0,0.0,0.0
544,1778658280.9872797,0.1938426,-0.18603122,0.08825677,0.0,0.0,0.0
545,1778658280.9972804,0.1938426,-0.18603122,0.08825677,0.0,0.0,0.0
546,1778658281.007281,0.1938426,-0.18603122,0.08825677,0.0,0.0,0.0
547,1778658281.0172825,0.12355419,-0.2094607,0.08825677,0.0,0.0,0.0
548,1778658281.0272832,0.12355419,-0.2094607,0.08825677,0.0,0.0,0.0
549,1778658281.037284,0.12355419,-0.2094607,0.08825677,0.0,0.0,0.0
550,1778658281.0472856,0.041550256,-0.26412946,0.07263712,0.0,0.0,0.0
551,1778658281.0572865,0.041550256,-0.26412946,0.07263712,0.0,0.0,0.0
552,1778658281.067288,0.041550256,-0.26412946,0.07263712,0.0,0.0,0.0
553,1778658281.0772889,0.041550256,-0.26412946,0.07263712,0.0,0.0,0.0
554,1778658281.0872896,0.041550256,-0.26412946,0.07263712,0.0,0.0,0.0
555,1778658281.0972903,0.041550256,-0.26412946,0.07263712,0.0,0.0,0.0
556,1778658281.1072915,0.041550256,-0.26412946,0.07263712,0.0,0.0,0.0
557,1778658281.1172924,0.041550256,-0.26412946,0.07263712,0.0,0.0,0.0
558,1778658281.1272933,0.041550256,-0.26412946,0.07263712,0.0,0.0,0.0
559,1778658281.137295,0.041550256,-0.26412946,0.07263712,0.0,0.0,0.0
560,1778658281.1472955,0.041550256,-0.26412946,0.07263712,0.0,0.0,0.0
561,1778658281.1572962,0.041550256,-0.26412946,0.07263712,0.0,0.0,0.0
562,1778658281.1672983,0.041550256,-0.26412946,0.07263712,0.0,0.0,0.0
563,1778658281.1772993,0.041550256,-0.26412946,0.07263712,0.0,0.0,0.0
564,1778658281.1872997,0.041550256,-0.26412946,0.07263712,0.0,0.0,0.0
565,1778658281.1973004,0.041550256,-0.26412946,0.07263712,0.0,0.0,0.0
566,1778658281.2073014,0.041550256,-0.26412946,0.07263712,0.0,0.0,0.0
567,1778658281.217302,0.041550256,-0.26412946,0.07263712,0.0,0.0,0.0
568,1778658281.2273026,0.041550256,-0.26412946,0.07263712,0.0,0.0,0.0
569,1778658281.2373042,0.041550256,-0.26412946,0.07263712,0.0,0.0,0.0
570,1778658281.2473056,0.041550256,-0.26412946,0.07263712,0.0,0.0,0.0
571,1778658281.2573063,0.041550256,-0.26412946,0.07263712,0.0,0.0,0.0
572,1778658281.2673075,0.041550256,-0.26412946,0.07263712,0.0,0.0,0.0
573,1778658281.2773085,0.041550256,-0.26412946,0.07263712,0.0,0.0,0.0
574,1778658281.2873096,0.041550256,-0.26412946,0.07263712,0.0,0.0,0.0
575,1778658281.297311,0.041550256,-0.26412946,0.07263712,0.0,0.0,0.0
576,1778658281.3073134,0.041550256,-0.26412946,0.07263712,0.0,0.0,0.0
577,1778658281.3173144,0.041550256,-0.26412946,0.07263712,0.0,0.0,0.0
578,1778658281.3273149,0.041550256,-0.26412946,0.07263712,0.0,0.0,0.0
579,1778658281.3373153,0.041550256,-0.26412946,0.07263712,0.0,0.0,0.0
580,1778658281.3473165,0.12355419,-0.2094607,0.08825677,0.0,0.0,0.0
581,1778658281.3573177,0.12355419,-0.2094607,0.08825677,0.0,0.0,0.0
582,1778658281.3673189,0.12355419,-0.2094607,0.08825677,0.0,0.0,0.0
583,1778658281.3773196,0.12355419,-0.2094607,0.08825677,0.0,0.0,0.0
584,1778658281.3873203,0.12355419,-0.2094607,0.08825677,0.0,0.0,0.0
585,1778658281.3973207,0.12355419,-0.2094607,0.08825677,0.0,0.0,0.0
586,1778658281.407322,0.12355419,-0.2094607,0.08825677,0.0,0.0,0.0
587,1778658281.4173234,0.12355419,-0.2094607,0.08825677,0.0,0.0,0.0
588,1778658281.4273255,-0.032642297,-0.34222773,0.029683866,0.0,0.0,0.0
589,1778658281.4373264,-0.032642297,-0.34222773,0.029683866,0.0,0.0,0.0
590,1778658281.447327,-0.032642297,-0.34222773,0.029683866,0.0,0.0,0.0
591,1778658281.457328,-0.880009,-1.8417156,-0.50528985,0.0,0.0,0.0
592,1778658281.46733,-0.880009,-1.8417156,-0.50528985,0.0,0.0,0.0
593,1778658281.4773345,-0.880009,-1.8417156,-0.50528985,0.0,0.0,0.0
594,1778658281.4873376,-0.880009,-1.8417156,-0.50528985,0.0,0.0,0.0
595,1778658281.4973383,-0.880009,-1.8417156,-0.50528985,0.0,0.0,0.0
596,1778658281.507339,-0.880009,-1.8417156,-0.50528985,0.0,0.0,0.0
597,1778658281.51734,-0.880009,-1.8417156,-0.50528985,0.0,0.0,0.0
598,1778658281.5273414,-0.880009,-1.8417156,-0.50528985,0.0,0.0,0.0
599,1778658281.5373428,-0.880009,-1.8417156,-0.50528985,0.0,0.0,0.0
600,1778658281.5473442,-0.880009,-1.8417156,-0.50528985,0.0,0.0,0.0
601,1778658281.557345,-0.880009,-1.8417156,-0.50528985,0.0,0.0,0.0
602,1778658281.567347,-0.880009,-1.8417156,-0.50528985,0.0,0.0,0.0
603,1778658281.5773494,-0.880009,-1.8417156,-0.50528985,0.0,0.0,0.0
604,1778658281.5873508,-0.880009,-1.8417156,-0.50528985,0.0,0.0,0.0
605,1778658281.597352,-0.880009,-1.8417156,-0.50528985,0.0,0.0,0.0
606,1778658281.6073525,-0.880009,-1.8417156,-0.50528985,0.0,0.0,0.0
607,1778658281.6173537,-0.880009,-1.8417156,-0.50528985,0.0,0.0,0.0
608,1778658281.6273549,-0.880009,-1.8417156,-0.50528985,0.0,0.0,0.0
609,1778658281.6373556,-0.880009,-1.8417156,-0.50528985,0.0,0.0,0.0
610,1778658281.6473575,-0.880009,-1.8417156,-0.50528985,0.0,0.0,0.0
611,1778658281.6573598,-0.880009,-1.8417156,-0.50528985,0.0,0.0,0.0
612,1778658281.6673608,-0.880009,-1.8417156,-0.50528985,0.0,0.0,0.0
613,1778658281.6773617,-0.880009,-1.8417156,-0.50528985,0.0,0.0,0.0
614,1778658281.6873631,-0.880009,-1.8417156,-0.50528985,0.0,0.0,0.0
615,1778658281.6973639,-0.880009,-1.8417156,-0.50528985,0.0,0.0,0.0
616,1778658281.7073655,-0.880009,-1.8417156,-0.50528985,0.0,0.0,0.0
617,1778658281.7173665,-0.880009,-1.8417156,-0.50528985,0.0,0.0,0.0
618,1778658281.7273674,-0.880009,-1.8417156,-0.50528985,0.0,0.0,0.0
619,1778658281.7373683,-0.880009,-1.8417156,-0.50528985,0.0,0.0,0.0
620,1778658281.7473693,-0.880009,-1.8417156,-0.50528985,0.0,0.0,0.0
621,1778658281.7573707,-0.880009,-1.8417156,-0.50528985,0.0,0.0,0.0
622,1778658281.7673757,-0.880009,-1.8417156,-0.50528985,0.0,0.0,0.0
623,1778658281.7773771,-0.880009,-1.8417156,-0.50528985,0.0,0.0,0.0
624,1778658281.7873785,-0.880009,-1.8417156,-0.50528985,0.0,0.0,0.0
625,1778658281.7973795,-0.880009,-1.8417156,-0.50528985,0.0,0.0,0.0
626,1778658281.8073802,-0.880009,-1.8417156,-0.50528985,0.0,0.0,0.0
627,1778658281.817381,-0.880009,-1.8417156,-0.50528985,0.0,0.0,0.0
628,1778658281.8273816,-0.880009,-1.8417156,-0.50528985,0.0,0.0,0.0
629,1778658281.8373828,-0.880009,-1.8417156,-0.50528985,0.0,0.0,0.0
630,1778658281.8473847,-0.880009,-1.8417156,-0.50528985,0.0,0.0,0.0
631,1778658281.8573856,-0.880009,-1.8417156,-0.50528985,0.0,0.0,0.0
632,1778658281.8673863,-0.880009,-1.8417156,-0.50528985,0.0,0.0,0.0
633,1778658281.8773868,-0.880009,-1.8417156,-0.50528985,0.0,0.0,0.0
634,1778658281.887388,-0.880009,-1.8417156,-0.50528985,0.0,0.0,0.0
635,1778658281.8973887,-0.89953434,-2.3884032,0.03749369,0.0,0.0,0.0
636,1778658281.9073899,-0.89953434,-2.3884032,0.03749369,0.0,0.0,0.0
637,1778658281.9173903,-0.89953434,-2.3884032,0.03749369,0.0,0.0,0.0
638,1778658281.9273915,-0.89953434,-2.3884032,0.03749369,0.0,0.0,0.0
639,1778658281.9373927,-0.89953434,-2.3884032,0.03749369,0.0,0.0,0.0
640,1778658281.9473934,-0.89953434,-2.3884032,0.03749369,0.0,0.0,0.0
641,1778658281.9573956,-0.89953434,-2.3884032,0.03749369,0.0,0.0,0.0
642,1778658281.9673963,-0.89953434,-2.3884032,0.03749369,0.0,0.0,0.0
643,1778658281.9773972,-0.89953434,-2.3884032,0.03749369,0.0,0.0,0.0
644,1778658281.9873977,-0.89953434,-2.3884032,0.03749369,0.0,0.0,0.0
645,1778658281.9974003,-0.89953434,-2.3884032,0.03749369,0.0,0.0,0.0
646,1778658282.007402,-0.89953434,-2.3884032,0.03749369,0.0,0.0,0.0
647,1778658282.017403,-0.89953434,-2.3884032,0.03749369,0.0,0.0,0.0
648,1778658282.0274048,-0.89953434,-2.3884032,0.03749369,0.0,0.0,0.0
649,1778658282.037406,-0.89953434,-2.3884032,0.03749369,0.0,0.0,0.0
650,1778658282.0474067,-0.89953434,-2.3884032,0.03749369,0.0,0.0,0.0
651,1778658282.0574079,-0.89953434,-2.3884032,0.03749369,0.0,0.0,0.0
652,1778658282.0674083,-0.89953434,-2.3884032,0.03749369,0.0,0.0,0.0
653,1778658282.0774128,-0.89953434,-2.3884032,0.03749369,0.0,0.0,0.0
654,1778658282.0874135,-0.89953434,-2.3884032,0.03749369,0.0,0.0,0.0
655,1778658282.0974143,-0.89953434,-2.3884032,0.03749369,0.0,0.0,0.0
656,1778658282.1074147,-0.89953434,-2.3884032,0.03749369,0.0,0.0,0.0
657,1778658282.1174157,-0.89953434,-2.3884032,0.03749369,0.0,0.0,0.0
658,1778658282.1274166,-0.89953434,-2.3884032,0.03749369,0.0,0.0,0.0
659,1778658282.1374185,-0.89953434,-2.3884032,0.03749369,0.0,0.0,0.0
660,1778658282.1474197,-0.89953434,-2.3884032,0.03749369,0.0,0.0,0.0
661,1778658282.1574206,-0.89953434,-2.3884032,0.03749369,0.0,0.0,0.0
662,1778658282.167421,-0.89953434,-2.3884032,0.03749369,0.0,0.0,0.0
663,1778658282.1774218,-0.89953434,-2.3884032,0.03749369,0.0,0.0,0.0
664,1778658282.1874225,-0.89953434,-2.3884032,0.03749369,0.0,0.0,0.0
665,1778658282.1974232,-0.89953434,-2.3884032,0.03749369,0.0,0.0,0.0
666,1778658282.2074237,-0.89953434,-2.3884032,0.03749369,0.0,0.0,0.0
667,1778658282.2174249,-0.89953434,-2.3884032,0.03749369,0.0,0.0,0.0
668,1778658282.2274256,-0.89953434,-2.3884032,0.03749369,0.0,0.0,0.0
669,1778658282.2374268,-0.89953434,-2.3884032,0.03749369,0.0,0.0,0.0
670,1778658282.2474287,-0.89953434,-2.3884032,0.03749369,0.0,0.0,0.0
671,1778658282.25743,-0.89953434,-2.3884032,0.03749369,0.0,0.0,0.0
672,1778658282.2674313,-0.89953434,-2.3884032,0.03749369,0.0,0.0,0.0
673,1778658282.2774348,-0.89953434,-2.3884032,0.03749369,0.0,0.0,0.0
674,1778658282.287437,-0.89953434,-2.3884032,0.03749369,0.0,0.0,0.0
675,1778658282.2974377,-0.89953434,-2.3884032,0.03749369,0.0,0.0,0.0
676,1778658282.3074389,-0.89953434,-2.3884032,0.03749369,0.0,0.0,0.0
677,1778658282.3174396,-0.89953434,-2.3884032,0.03749369,0.0,0.0,0.0
678,1778658282.327441,-0.89953434,-2.3884032,0.03749369,0.0,0.0,0.0
679,1778658282.3374424,-0.89953434,-2.3884032,0.03749369,0.0,0.0,0.0
680,1778658282.347443,-0.89953434,-2.3884032,0.03749369,0.0,0.0,0.0
681,1778658282.3574445,-0.89953434,-2.3884032,0.03749369,0.0,0.0,0.0
682,1778658282.3674464,-0.89953434,-2.3884032,0.03749369,0.0,0.0,0.0
683,1778658282.3774478,-0.89953434,-2.3884032,0.03749369,0.0,0.0,0.0
684,1778658282.387449,-0.89953434,-2.3884032,0.03749369,0.0,0.0,0.0
685,1778658282.39745,-0.89953434,-2.3884032,0.03749369,0.0,0.0,0.0
686,1778658282.407451,-0.89953434,-2.3884032,0.03749369,0.0,0.0,0.0
687,1778658282.417452,-0.89953434,-2.3884032,0.03749369,0.0,0.0,0.0
688,1778658282.427453,-0.89953434,-2.3884032,0.03749369,0.0,0.0,0.0
689,1778658282.4374552,-0.89953434,-2.3884032,0.03749369,0.0,0.0,0.0
690,1778658282.4474566,-0.89953434,-2.3884032,0.03749369,0.0,0.0,0.0
691,1778658282.457457,-0.89953434,-2.3884032,0.03749369,0.0,0.0,0.0
692,1778658282.4674597,-0.89953434,-2.3884032,0.03749369,0.0,0.0,0.0
693,1778658282.4774616,-0.89953434,-2.3884032,0.03749369,0.0,0.0,0.0
694,1778658282.4874647,-0.89953434,-2.3884032,0.03749369,0.0,0.0,0.0
695,1778658282.4974658,-0.89953434,-2.3884032,0.03749369,0.0,0.0,0.0
696,1778658282.5074666,-0.89953434,-2.3884032,0.03749369,0.0,0.0,0.0
697,1778658282.517468,-0.89953434,-2.3884032,0.03749369,0.0,0.0,0.0
698,1778658282.5274694,-0.89953434,-2.3884032,0.03749369,0.0,0.0,0.0
699,1778658282.53747,-0.89953434,-2.3884032,0.03749369,0.0,0.0,0.0
700,1778658282.5474715,-0.89953434,-2.3884032,0.03749369,0.0,0.0,0.0
701,1778658282.5574725,-0.89953434,-2.3884032,0.03749369,0.0,0.0,0.0
702,1778658282.5674734,-0.89953434,-2.3884032,0.03749369,0.0,0.0,0.0
703,1778658282.5774744,-0.89953434,-2.3884032,0.03749369,0.0,0.0,0.0
704,1778658282.5874755,-0.89953434,-2.3884032,0.03749369,0.0,0.0,0.0
705,1778658282.5974767,-0.89953434,-2.3884032,0.03749369,0.0,0.0,0.0
706,1778658282.6074774,-0.89953434,-2.3884032,0.03749369,0.0,0.0,0.0
707,1778658282.617478,-0.89953434,-2.3884032,0.03749369,0.0,0.0,0.0
708,1778658282.6274788,-0.89953434,-2.3884032,0.03749369,0.0,0.0,0.0
709,1778658282.6374793,-0.89953434,-2.3884032,0.03749369,0.0,0.0,0.0
710,1778658282.6474812,-1.012776,-3.5911179,-0.7513001,0.0,0.0,0.0
711,1778658282.6574824,-1.012776,-3.5911179,-0.7513001,0.0,0.0,0.0
712,1778658282.6674833,-1.012776,-3.5911179,-0.7513001,0.0,0.0,0.0
713,1778658282.677484,-1.012776,-3.5911179,-0.7513001,0.0,0.0,0.0
714,1778658282.6874852,-1.012776,-3.5911179,-0.7513001,0.0,0.0,0.0
715,1778658282.697486,-1.012776,-3.5911179,-0.7513001,0.0,0.0,0.0
716,1778658282.7074869,-1.012776,-3.5911179,-0.7513001,0.0,0.0,0.0
717,1778658282.7174878,-1.012776,-3.5911179,-0.7513001,0.0,0.0,0.0
718,1778658282.7274888,-1.012776,-3.5911179,-0.7513001,0.0,0.0,0.0
719,1778658282.73749,-1.012776,-3.5911179,-0.7513001,0.0,0.0,0.0
720,1778658282.74752,-1.012776,-3.5911179,-0.7513001,0.0,0.0,0.0
721,1778658282.757521,-1.012776,-3.5911179,-0.7513001,0.0,0.0,0.0
722,1778658282.7675214,-1.012776,-3.5911179,-0.7513001,0.0,0.0,0.0
723,1778658282.777522,-1.012776,-3.5911179,-0.7513001,0.0,0.0,0.0
724,1778658282.787523,-0.41532367,-7.5507035,-1.5830472,0.0,0.0,0.0
725,1778658282.7975237,-0.41532367,-7.5507035,-1.5830472,0.0,0.0,0.0
726,1778658282.8075244,-0.41532367,-7.5507035,-1.5830472,0.0,0.0,0.0
727,1778658282.8175259,-0.41532367,-7.5507035,-1.5830472,0.0,0.0,0.0
728,1778658282.8275268,-0.41532367,-7.5507035,-1.5830472,0.0,0.0,0.0
729,1778658282.8375273,-0.41532367,-7.5507035,-1.5830472,0.0,0.0,0.0
730,1778658282.8475287,-0.41532367,-7.5507035,-1.5830472,0.0,0.0,0.0
731,1778658282.8575294,-0.41532367,-7.5507035,-1.5830472,0.0,0.0,0.0
732,1778658282.8675306,-0.41532367,-7.5507035,-1.5830472,0.0,0.0,0.0
733,1778658282.8775318,-0.41532367,-7.5507035,-1.5830472,0.0,0.0,0.0
734,1778658282.8875322,-0.41532367,-7.5507035,-1.5830472,0.0,0.0,0.0
735,1778658282.897533,-0.41532367,-7.5507035,-1.5830472,0.0,0.0,0.0
736,1778658282.9075341,-0.41532367,-7.5507035,-1.5830472,0.0,0.0,0.0
737,1778658282.917535,-0.41532367,-7.5507035,-1.5830472,0.0,0.0,0.0
738,1778658282.9275374,-0.41532367,-7.5507035,-1.5830472,0.0,0.0,0.0
739,1778658282.9375389,-0.41532367,-7.5507035,-1.5830472,0.0,0.0,0.0
740,1778658282.94754,-0.41532367,-7.5507035,-1.5830472,0.0,0.0,0.0
741,1778658282.9575424,-0.41532367,-7.5507035,-1.5830472,0.0,0.0,0.0
742,1778658282.9675438,-0.41532367,-7.5507035,-1.5830472,0.0,0.0,0.0
743,1778658282.9775465,-0.41532367,-7.5507035,-1.5830472,0.0,0.0,0.0
744,1778658282.9875484,-0.41532367,-7.5507035,-1.5830472,0.0,0.0,0.0
745,1778658282.99755,-0.41532367,-7.5507035,-1.5830472,0.0,0.0,0.0
746,1778658283.0075514,-0.41532367,-7.5507035,-1.5830472,0.0,0.0,0.0
747,1778658283.0175538,-0.41532367,-7.5507035,-1.5830472,0.0,0.0,0.0
748,1778658283.0275555,-0.41532367,-7.5507035,-1.5830472,0.0,0.0,0.0
749,1778658283.0375576,-0.41532367,-7.5507035,-1.5830472,0.0,0.0,0.0
750,1778658283.0475597,-0.41532367,-7.5507035,-1.5830472,0.0,0.0,0.0
751,1778658283.0575607,-0.41532367,-7.5507035,-1.5830472,0.0,0.0,0.0
752,1778658283.067563,-0.41532367,-7.5507035,-1.5830472,0.0,0.0,0.0
753,1778658283.0775642,-0.41532367,-7.5507035,-1.5830472,0.0,0.0,0.0
754,1778658283.0875666,-0.41532367,-7.5507035,-1.5830472,0.0,0.0,0.0
755,1778658283.0975692,-0.41532367,-7.5507035,-1.5830472,0.0,0.0,0.0
756,1778658283.1075711,-0.41532367,-7.5507035,-1.5830472,0.0,0.0,0.0
757,1778658283.117572,-0.41532367,-7.5507035,-1.5830472,0.0,0.0,0.0
758,1778658283.127574,-0.41532367,-7.5507035,-1.5830472,0.0,0.0,0.0
759,1778658283.137575,-0.41532367,-7.5507035,-1.5830472,0.0,0.0,0.0
760,1778658283.1475763,-0.41532367,-7.5507035,-1.5830472,0.0,0.0,0.0
761,1778658283.1575797,-0.41532367,-7.5507035,-1.5830472,0.0,0.0,0.0
762,1778658283.167582,-0.41532367,-7.5507035,-1.5830472,0.0,0.0,0.0
763,1778658283.1775832,-0.41532367,-7.5507035,-1.5830472,0.0,0.0,0.0
764,1778658283.1875844,-0.41532367,-7.5507035,-1.5830472,0.0,0.0,0.0
765,1778658283.197586,-0.41532367,-7.5507035,-1.5830472,0.0,0.0,0.0
766,1778658283.207587,-0.41532367,-7.5507035,-1.5830472,0.0,0.0,0.0
767,1778658283.2175875,-0.41532367,-7.5507035,-1.5830472,0.0,0.0,0.0
768,1778658283.2275891,0.0025011348,-2.560221,-0.47014645,0.0,0.0,0.0
769,1778658283.23759,0.0025011348,-2.560221,-0.47014645,0.0,0.0,0.0
770,1778658283.247591,0.0025011348,-2.560221,-0.47014645,0.0,0.0,0.0
771,1778658283.257592,0.0025011348,-2.560221,-0.47014645,0.0,0.0,0.0
772,1778658283.2675943,0.0025011348,-2.560221,-0.47014645,0.0,0.0,0.0
773,1778658283.2775953,0.0025011348,-2.560221,-0.47014645,0.0,0.0,0.0
774,1778658283.2875962,0.0025011348,-2.560221,-0.47014645,0.0,0.0,0.0
775,1778658283.2975974,0.0025011348,-2.560221,-0.47014645,0.0,0.0,0.0
776,1778658283.3075984,0.0025011348,-2.560221,-0.47014645,0.0,0.0,0.0
777,1778658283.317599,0.0025011348,-2.560221,-0.47014645,0.0,0.0,0.0
778,1778658283.3276002,0.0025011348,-2.560221,-0.47014645,0.0,0.0,0.0
779,1778658283.337601,0.0025011348,-2.560221,-0.47014645,0.0,0.0,0.0
780,1778658283.3476017,0.0025011348,-2.560221,-0.47014645,0.0,0.0,0.0
781,1778658283.3576024,0.0025011348,-2.560221,-0.47014645,0.0,0.0,0.0
782,1778658283.3676028,0.0025011348,-2.560221,-0.47014645,0.0,0.0,0.0
783,1778658283.3776038,0.0025011348,-2.560221,-0.47014645,0.0,0.0,0.0
784,1778658283.3876045,0.0025011348,-2.560221,-0.47014645,0.0,0.0,0.0
785,1778658283.3976068,0.0025011348,-2.560221,-0.47014645,0.0,0.0,0.0
786,1778658283.4076076,0.0025011348,-2.560221,-0.47014645,0.0,0.0,0.0
787,1778658283.4176083,0.0025011348,-2.560221,-0.47014645,0.0,0.0,0.0
788,1778658283.4276102,0.0025011348,-2.560221,-0.47014645,0.0,0.0,0.0
789,1778658283.4376118,0.0025011348,-2.560221,-0.47014645,0.0,0.0,0.0
790,1778658283.4476144,0.0025011348,-2.560221,-0.47014645,0.0,0.0,0.0
791,1778658283.4576166,0.0025011348,-2.560221,-0.47014645,0.0,0.0,0.0
792,1778658283.4676175,0.0025011348,-2.560221,-0.47014645,0.0,0.0,0.0
793,1778658283.477618,0.0025011348,-2.560221,-0.47014645,0.0,0.0,0.0
794,1778658283.4876213,0.0025011348,-2.560221,-0.47014645,0.0,0.0,0.0
795,1778658283.497622,0.0025011348,-2.560221,-0.47014645,0.0,0.0,0.0
796,1778658283.5076227,0.0025011348,-2.560221,-0.47014645,0.0,0.0,0.0
797,1778658283.5176232,0.0025011348,-2.560221,-0.47014645,0.0,0.0,0.0
798,1778658283.5276241,0.0025011348,-2.560221,-0.47014645,0.0,0.0,0.0
799,1778658283.5376253,0.0025011348,-2.560221,-0.47014645,0.0,0.0,0.0
800,1778658283.5476265,0.0025011348,-2.560221,-0.47014645,0.0,0.0,0.0
801,1778658283.5576277,0.0025011348,-2.560221,-0.47014645,0.0,0.0,0.0
802,1778658283.5676289,0.0025011348,-2.560221,-0.47014645,0.0,0.0,0.0
803,1778658283.5776293,0.0025011348,-2.560221,-0.47014645,0.0,0.0,0.0
804,1778658283.5876307,0.0025011348,-2.560221,-0.47014645,0.0,0.0,0.0
805,1778658283.5976317,0.0025011348,-2.560221,-0.47014645,0.0,0.0,0.0
806,1778658283.6076324,0.0025011348,-2.560221,-0.47014645,0.0,0.0,0.0
807,1778658283.617633,0.0025011348,-2.560221,-0.47014645,0.0,0.0,0.0
808,1778658283.6276333,0.0025011348,-2.560221,-0.47014645,0.0,0.0,0.0
809,1778658283.6376343,0.0025011348,-2.560221,-0.47014645,0.0,0.0,0.0
810,1778658283.6476355,0.0025011348,-2.560221,-0.47014645,0.0,0.0,0.0
811,1778658283.657636,0.0025011348,-2.560221,-0.47014645,0.0,0.0,0.0
812,1778658283.6676366,0.0025011348,-2.560221,-0.47014645,0.0,0.0,0.0
813,1778658283.6776378,0.014216649,-2.1033454,-0.14603797,0.0,0.0,0.0
814,1778658283.6876388,0.014216649,-2.1033454,-0.14603797,0.0,0.0,0.0
815,1778658283.6976402,0.014216649,-2.1033454,-0.14603797,0.0,0.0,0.0
816,1778658283.7076406,0.014216649,-2.1033454,-0.14603797,0.0,0.0,0.0
817,1778658283.7176418,0.014216649,-2.1033454,-0.14603797,0.0,0.0,0.0
818,1778658283.7276425,0.014216649,-2.1033454,-0.14603797,0.0,0.0,0.0
819,1778658283.737643,0.014216649,-2.1033454,-0.14603797,0.0,0.0,0.0
820,1778658283.747644,0.014216649,-2.1033454,-0.14603797,0.0,0.0,0.0
821,1778658283.757645,0.014216649,-2.1033454,-0.14603797,0.0,0.0,0.0
822,1778658283.7676451,0.014216649,-2.1033454,-0.14603797,0.0,0.0,0.0
823,1778658283.7776468,0.014216649,-2.1033454,-0.14603797,0.0,0.0,0.0
824,1778658283.787649,0.014216649,-2.1033454,-0.14603797,0.0,0.0,0.0
825,1778658283.79765,0.014216649,-2.1033454,-0.14603797,0.0,0.0,0.0
826,1778658283.8076506,0.014216649,-2.1033454,-0.14603797,0.0,0.0,0.0
827,1778658283.8176515,0.014216649,-2.1033454,-0.14603797,0.0,0.0,0.0
828,1778658283.8276525,0.014216649,-2.1033454,-0.14603797,0.0,0.0,0.0
829,1778658283.8376534,0.014216649,-2.1033454,-0.14603797,0.0,0.0,0.0
830,1778658283.8476539,0.014216649,-2.1033454,-0.14603797,0.0,0.0,0.0
831,1778658283.857655,0.014216649,-2.1033454,-0.14603797,0.0,0.0,0.0
832,1778658283.867656,0.014216649,-2.1033454,-0.14603797,0.0,0.0,0.0
833,1778658283.877657,0.014216649,-2.1033454,-0.14603797,0.0,0.0,0.0
834,1778658283.8876579,0.014216649,-2.1033454,-0.14603797,0.0,0.0,0.0
835,1778658283.8976588,0.014216649,-2.1033454,-0.14603797,0.0,0.0,0.0
836,1778658283.9076624,0.014216649,-2.1033454,-0.14603797,0.0,0.0,0.0
837,1778658283.9176636,0.014216649,-2.1033454,-0.14603797,0.0,0.0,0.0
838,1778658283.9276648,0.014216649,-2.1033454,-0.14603797,0.0,0.0,0.0
839,1778658283.9376657,0.014216649,-2.1033454,-0.14603797,0.0,0.0,0.0
840,1778658283.9476666,0.014216649,-2.1033454,-0.14603797,0.0,0.0,0.0
841,1778658283.9576674,0.014216649,-2.1033454,-0.14603797,0.0,0.0,0.0
842,1778658283.967668,0.014216649,-2.1033454,-0.14603797,0.0,0.0,0.0
843,1778658283.9776692,0.014216649,-2.1033454,-0.14603797,0.0,0.0,0.0
844,1778658283.98767,0.014216649,-2.1033454,-0.14603797,0.0,0.0,0.0
845,1778658283.997671,0.014216649,-2.1033454,-0.14603797,0.0,0.0,0.0
846,1778658284.007673,0.014216649,-2.1033454,-0.14603797,0.0,0.0,0.0
847,1778658284.0176742,0.014216649,-2.1033454,-0.14603797,0.0,0.0,0.0
848,1778658284.0276754,0.014216649,-2.1033454,-0.14603797,0.0,0.0,0.0
849,1778658284.0376797,0.014216649,-2.1033454,-0.14603797,0.0,0.0,0.0
850,1778658284.047681,0.014216649,-2.1033454,-0.14603797,0.0,0.0,0.0
851,1778658284.057682,0.014216649,-2.1033454,-0.14603797,0.0,0.0,0.0
852,1778658284.0676827,0.014216649,-2.1033454,-0.14603797,0.0,0.0,0.0
853,1778658284.0776842,-0.34894097,-2.6578429,-0.028890595,0.0,0.0,0.0
854,1778658284.087685,-0.34894097,-2.6578429,-0.028890595,0.0,0.0,0.0
855,1778658284.0976858,-0.34894097,-2.6578429,-0.028890595,0.0,0.0,0.0
856,1778658284.1076872,-0.34894097,-2.6578429,-0.028890595,0.0,0.0,0.0
857,1778658284.1176887,-0.34894097,-2.6578429,-0.028890595,0.0,0.0,0.0
858,1778658284.1276894,-0.34894097,-2.6578429,-0.028890595,0.0,0.0,0.0
859,1778658284.1376905,-0.34894097,-2.6578429,-0.028890595,0.0,0.0,0.0
860,1778658284.1476912,-0.34894097,-2.6578429,-0.028890595,0.0,0.0,0.0
861,1778658284.1576946,-0.34894097,-2.6578429,-0.028890595,0.0,0.0,0.0
862,1778658284.167701,-0.34894097,-2.6578429,-0.028890595,0.0,0.0,0.0
863,1778658284.1777015,-0.34894097,-2.6578429,-0.028890595,0.0,0.0,0.0
864,1778658284.187702,-0.34894097,-2.6578429,-0.028890595,0.0,0.0,0.0
865,1778658284.1977031,-0.34894097,-2.6578429,-0.028890595,0.0,0.0,0.0
866,1778658284.207704,-0.34894097,-2.6578429,-0.028890595,0.0,0.0,0.0
867,1778658284.2177045,-0.34894097,-2.6578429,-0.028890595,0.0,0.0,0.0
868,1778658284.2277057,-0.34894097,-2.6578429,-0.028890595,0.0,0.0,0.0
869,1778658284.2377067,-0.34894097,-2.6578429,-0.028890595,0.0,0.0,0.0
870,1778658284.2477074,-0.34894097,-2.6578429,-0.028890595,0.0,0.0,0.0
871,1778658284.2577093,-0.34894097,-2.6578429,-0.028890595,0.0,0.0,0.0
872,1778658284.2677104,-0.34894097,-2.6578429,-0.028890595,0.0,0.0,0.0
873,1778658284.2777116,-0.34894097,-2.6578429,-0.028890595,0.0,0.0,0.0
874,1778658284.2877126,-0.34894097,-2.6578429,-0.028890595,0.0,0.0,0.0
875,1778658284.2977135,-0.34894097,-2.6578429,-0.028890595,0.0,0.0,0.0
876,1778658284.3077142,-0.34894097,-2.6578429,-0.028890595,0.0,0.0,0.0
877,1778658284.3177147,-0.34894097,-2.6578429,-0.028890595,0.0,0.0,0.0
878,1778658284.3277156,-0.34894097,-2.6578429,-0.028890595,0.0,0.0,0.0
879,1778658284.3377163,-0.34894097,-2.6578429,-0.028890595,0.0,0.0,0.0
880,1778658284.347717,-0.34894097,-2.6578429,-0.028890595,0.0,0.0,0.0
881,1778658284.3577178,-0.34894097,-2.6578429,-0.028890595,0.0,0.0,0.0
882,1778658284.3677185,-0.34894097,-2.6578429,-0.028890595,0.0,0.0,0.0
883,1778658284.3777199,-0.34894097,-2.6578429,-0.028890595,0.0,0.0,0.0
884,1778658284.387721,-0.3645606,-2.6695585,-0.087465055,0.0,0.0,0.0
885,1778658284.3977218,-0.3645606,-2.6695585,-0.087465055,0.0,0.0,0.0
886,1778658284.4077222,-0.3645606,-2.6695585,-0.087465055,0.0,0.0,0.0
887,1778658284.4177232,-0.34894097,-2.6578429,-0.028890595,0.0,0.0,0.0
888,1778658284.4277244,-0.34894097,-2.6578429,-0.028890595,0.0,0.0,0.0
889,1778658284.437725,-0.34894097,-2.6578429,-0.028890595,0.0,0.0,0.0
890,1778658284.4477255,-0.34894097,-2.6578429,-0.028890595,0.0,0.0,0.0
891,1778658284.4577274,-0.34894097,-2.6578429,-0.028890595,0.0,0.0,0.0
892,1778658284.4677281,-0.34894097,-2.6578429,-0.028890595,0.0,0.0,0.0
893,1778658284.4777286,-0.34894097,-2.6578429,-0.028890595,0.0,0.0,0.0
894,1778658284.4877303,-0.34894097,-2.6578429,-0.028890595,0.0,0.0,0.0
895,1778658284.4977326,-0.34894097,-2.6578429,-0.028890595,0.0,0.0,0.0
896,1778658284.507734,-0.34894097,-2.6578429,-0.028890595,0.0,0.0,0.0
897,1778658284.5177364,-0.34894097,-2.6578429,-0.028890595,0.0,0.0,0.0
898,1778658284.5277379,-0.34894097,-2.6578429,-0.028890595,0.0,0.0,0.0
899,1778658284.5377383,-0.34894097,-2.6578429,-0.028890595,0.0,0.0,0.0
900,1778658284.5477395,-0.34894097,-2.6578429,-0.028890595,0.0,0.0,0.0
901,1778658284.5577402,-0.34894097,-2.6578429,-0.028890595,0.0,0.0,0.0
902,1778658284.5677416,-0.34894097,-2.6578429,-0.028890595,0.0,0.0,0.0
903,1778658284.5777426,-0.34894097,-2.6578429,-0.028890595,0.0,0.0,0.0
904,1778658284.5877435,-0.34894097,-2.6578429,-0.028890595,0.0,0.0,0.0
905,1778658284.597745,-0.34894097,-2.6578429,-0.028890595,0.0,0.0,0.0
906,1778658284.6077466,-0.34894097,-2.6578429,-0.028890595,0.0,0.0,0.0
907,1778658284.6177485,-0.34894097,-2.6578429,-0.028890595,0.0,0.0,0.0
908,1778658284.6277504,-0.34894097,-2.6578429,-0.028890595,0.0,0.0,0.0
909,1778658284.6377513,-0.34894097,-2.6578429,-0.028890595,0.0,0.0,0.0
910,1778658284.6477525,-0.34894097,-2.6578429,-0.028890595,0.0,0.0,0.0
911,1778658284.6577542,-0.34894097,-2.6578429,-0.028890595,0.0,0.0,0.0
912,1778658284.6677551,-0.34894097,-2.6578429,-0.028890595,0.0,0.0,0.0
913,1778658284.6777558,-0.34894097,-2.6578429,-0.028890595,0.0,0.0,0.0
914,1778658284.6877577,-0.34894097,-2.6578429,-0.028890595,0.0,0.0,0.0
915,1778658284.697759,-0.34894097,-2.6578429,-0.028890595,0.0,0.0,0.0
916,1778658284.70776,-0.34894097,-2.6578429,-0.028890595,0.0,0.0,0.0
917,1778658284.7177606,-0.34894097,-2.6578429,-0.028890595,0.0,0.0,0.0
918,1778658284.727762,-0.34894097,-2.6578429,-0.028890595,0.0,0.0,0.0
919,1778658284.7377634,-0.34894097,-2.6578429,-0.028890595,0.0,0.0,0.0
920,1778658284.7477646,-0.34894097,-2.6578429,-0.028890595,0.0,0.0,0.0
921,1778658284.757765,-0.34894097,-2.6578429,-0.028890595,0.0,0.0,0.0
922,1778658284.767766,-0.34894097,-2.6578429,-0.028890595,0.0,0.0,0.0
923,1778658284.7777665,-0.34894097,-2.6578429,-0.028890595,0.0,0.0,0.0
924,1778658284.7877674,-0.34894097,-2.6578429,-0.028890595,0.0,0.0,0.0
925,1778658284.7977684,-0.34894097,-2.6578429,-0.028890595,0.0,0.0,0.0
926,1778658284.8077693,-0.34894097,-2.6578429,-0.028890595,0.0,0.0,0.0
927,1778658284.8177702,-0.34894097,-2.6578429,-0.028890595,0.0,0.0,0.0
928,1778658284.8277707,-0.34894097,-2.6578429,-0.028890595,0.0,0.0,0.0
929,1778658284.8377724,-0.34894097,-2.6578429,-0.028890595,0.0,0.0,0.0
930,1778658284.847773,-0.34894097,-2.6578429,-0.028890595,0.0,0.0,0.0
931,1778658284.857774,-0.34894097,-2.6578429,-0.028890595,0.0,0.0,0.0
932,1778658284.867775,-0.34894097,-2.6578429,-0.028890595,0.0,0.0,0.0
933,1778658284.8777754,-0.34894097,-2.6578429,-0.028890595,0.0,0.0,0.0
934,1778658284.8877766,-0.34894097,-2.6578429,-0.028890595,0.0,0.0,0.0
935,1778658284.8977773,-0.34894097,-2.6578429,-0.028890595,0.0,0.0,0.0
936,1778658284.907778,-0.34894097,-2.6578429,-0.028890595,0.0,0.0,0.0
937,1778658284.917779,-0.34894097,-2.6578429,-0.028890595,0.0,0.0,0.0
938,1778658284.9277802,-0.34894097,-2.6578429,-0.028890595,0.0,0.0,0.0
939,1778658284.937781,-0.34894097,-2.6578429,-0.028890595,0.0,0.0,0.0
940,1778658284.9477825,-0.27865255,-2.5914602,-0.13822813,0.0,0.0,0.0
941,1778658284.9577835,-0.27865255,-2.5914602,-0.13822813,0.0,0.0,0.0
942,1778658284.9677844,-0.27865255,-2.5914602,-0.13822813,0.0,0.0,0.0
943,1778658284.9777856,-0.27865255,-2.5914602,-0.13822813,0.0,0.0,0.0
944,1778658284.987786,-0.27865255,-2.5914602,-0.13822813,0.0,0.0,0.0
945,1778658284.997787,-0.27865255,-2.5914602,-0.13822813,0.0,0.0,0.0
946,1778658285.0077877,-0.27865255,-2.5914602,-0.13822813,0.0,0.0,0.0
947,1778658285.0177884,-0.27865255,-2.5914602,-0.13822813,0.0,0.0,0.0
948,1778658285.0277889,-0.27865255,-2.5914602,-0.13822813,0.0,0.0,0.0
949,1778658285.0377896,-0.27865255,-2.5914602,-0.13822813,0.0,0.0,0.0
950,1778658285.0477908,-0.27865255,-2.5914602,-0.13822813,0.0,0.0,0.0
951,1778658285.0577915,-0.27865255,-2.5914602,-0.13822813,0.0,0.0,0.0
952,1778658285.0677924,-0.17321913,-2.4665031,-0.17727725,0.0,0.0,0.0
953,1778658285.0777938,-0.17321913,-2.4665031,-0.17727725,0.0,0.0,0.0
954,1778658285.0877955,-0.17321913,-2.4665031,-0.17727725,0.0,0.0,0.0
955,1778658285.0977964,-0.17321913,-2.4665031,-0.17727725,0.0,0.0,0.0
956,1778658285.1077971,-0.17321913,-2.4665031,-0.17727725,0.0,0.0,0.0
957,1778658285.1177988,-0.17321913,-2.4665031,-0.17727725,0.0,0.0,0.0
958,1778658285.1278,-0.17321913,-2.4665031,-0.17727725,0.0,0.0,0.0
959,1778658285.137801,-0.3645606,-2.6695585,-0.087465055,0.0,0.0,0.0
960,1778658285.147802,-0.3645606,-2.6695585,-0.087465055,0.0,0.0,0.0
961,1778658285.1578028,-0.3645606,-2.6695585,-0.087465055,0.0,0.0,0.0
962,1778658285.1678042,-0.3645606,-2.6695585,-0.087465055,0.0,0.0,0.0
963,1778658285.1778054,-0.3645606,-2.6695585,-0.087465055,0.0,0.0,0.0
964,1778658285.1878061,-0.3645606,-2.6695585,-0.087465055,0.0,0.0,0.0
965,1778658285.197807,-0.3645606,-2.6695585,-0.087465055,0.0,0.0,0.0
966,1778658285.207808,-0.3645606,-2.6695585,-0.087465055,0.0,0.0,0.0
967,1778658285.217809,-0.3645606,-2.6695585,-0.087465055,0.0,0.0,0.0
968,1778658285.2278101,-0.3645606,-2.6695585,-0.087465055,0.0,0.0,0.0
969,1778658285.2378109,-0.3645606,-2.6695585,-0.087465055,0.0,0.0,0.0
970,1778658285.2478123,-0.16540931,-2.1306791,-0.2553755,0.0,0.0,0.0
971,1778658285.257813,-0.16540931,-2.1306791,-0.2553755,0.0,0.0,0.0
972,1778658285.2678137,-0.16540931,-2.1306791,-0.2553755,0.0,0.0,0.0
973,1778658285.277817,-0.16540931,-2.1306791,-0.2553755,0.0,0.0,0.0
974,1778658285.2878199,-0.16540931,-2.1306791,-0.2553755,0.0,0.0,0.0
975,1778658285.2978203,-0.16540931,-2.1306791,-0.2553755,0.0,0.0,0.0
976,1778658285.3078215,-0.24741325,-0.9670152,0.084352635,0.0,0.0,0.0
977,1778658285.3178227,-0.24741325,-0.9670152,0.084352635,0.0,0.0,0.0
978,1778658285.3278236,-0.24741325,-0.9670152,0.084352635,0.0,0.0,0.0
979,1778658285.3378246,-0.24741325,-0.9670152,0.084352635,0.0,0.0,0.0
980,1778658285.3478255,-0.24741325,-0.9670152,0.084352635,0.0,0.0,0.0
981,1778658285.357826,-0.24741325,-0.9670152,0.084352635,0.0,0.0,0.0
982,1778658285.367827,-0.24741325,-0.9670152,0.084352635,0.0,0.0,0.0
983,1778658285.3778281,-0.24741325,-0.9670152,0.084352635,0.0,0.0,0.0
984,1778658285.387829,-0.24741325,-0.9670152,0.084352635,0.0,0.0,0.0
985,1778658285.3978295,-0.24741325,-0.9670152,0.084352635,0.0,0.0,0.0
986,1778658285.40783,-0.24741325,-0.9670152,0.084352635,0.0,0.0,0.0
987,1778658285.4178336,-0.24741325,-0.9670152,0.084352635,0.0,0.0,0.0
988,1778658285.427835,-0.24741325,-0.9670152,0.084352635,0.0,0.0,0.0
989,1778658285.4378362,-0.24741325,-0.9670152,0.084352635,0.0,0.0,0.0
990,1778658285.4478383,-0.24741325,-0.9670152,0.084352635,0.0,0.0,0.0
991,1778658285.45784,-0.24741325,-0.9670152,0.084352635,0.0,0.0,0.0
992,1778658285.4678416,-0.24741325,-0.9670152,0.084352635,0.0,0.0,0.0
993,1778658285.4778426,-0.24741325,-0.9670152,0.084352635,0.0,0.0,0.0
994,1778658285.487843,-0.24741325,-0.9670152,0.084352635,0.0,0.0,0.0
995,1778658285.4978437,-0.24741325,-0.9670152,0.084352635,0.0,0.0,0.0
996,1778658285.5078447,-0.24741325,-0.9670152,0.084352635,0.0,0.0,0.0
997,1778658285.5178463,-0.24741325,-0.9670152,0.084352635,0.0,0.0,0.0
998,1778658285.5278482,-0.24741325,-0.9670152,0.084352635,0.0,0.0,0.0
999,1778658285.5378494,-0.24741325,-0.9670152,0.084352635,0.0,0.0,0.0
1000,1778658285.5478508,-0.24741325,-0.9670152,0.084352635,0.0,0.0,0.0
