id,timestamp,acc_x,acc_y,acc_z,gyro_x,gyro_y,gyro_z
1,1778656127.688813,1.8495269,0.091218315,0.98248243,0.0,0.0,0.0
2,1778656127.738817,1.8495269,0.091218315,0.98248243,0.0,0.0,0.0
3,1778656127.78882,1.8573368,-0.072788,1.2206829,0.0,0.0,0.0
4,1778656127.8388226,1.8573368,-0.072788,1.2206829,0.0,0.0,0.0
5,1778656127.8888254,1.7362852,-0.13136245,1.1113453,0.0,0.0,0.0
6,1778656127.9388278,1.7167599,-0.1469821,1.0644864,0.0,0.0,0.0
7,1778656127.9888299,1.7167599,-0.1469821,1.0644864,0.0,0.0,0.0
8,1778656128.0388324,1.7167599,-0.1469821,1.0644864,0.0,0.0,0.0
9,1778656128.0888352,1.6074224,-0.26412946,0.959053,0.0,0.0,0.0
10,1778656128.138839,1.2676942,-0.65071654,0.732568,0.0,0.0,0.0
11,1778656128.1888416,1.2676942,-0.65071654,0.732568,0.0,0.0,0.0
12,1778656128.2388446,-0.32941562,-1.4004596,0.07263712,0.0,0.0,0.0
13,1778656128.2888472,-0.32941562,-1.4004596,0.07263712,0.0,0.0,0.0
14,1778656128.3388495,-0.7042887,-1.7714272,-0.4818604,0.0,0.0,0.0
15,1778656128.388852,-0.75505185,-2.036961,-0.8020648,0.0,0.0,0.0
16,1778656128.4388545,-0.75505185,-2.036961,-0.8020648,0.0,0.0,0.0
17,1778656128.4888568,-0.63399875,-2.1736338,-0.8567335,0.0,0.0,0.0
18,1778656128.53886,-0.63399875,-2.1736338,-0.8567335,0.0,0.0,0.0
19,1778656128.5888624,-0.63399875,-2.1736338,-0.8567335,0.0,0.0,0.0
20,1778656128.638864,-0.43484902,-2.4586933,-0.30223444,0.0,0.0,0.0
21,1778656128.6888669,-0.43484902,-2.4586933,-0.30223444,0.0,0.0,0.0
22,1778656128.7388828,-0.9854424,-2.4821227,0.5802757,0.0,0.0,0.0
23,1778656128.788887,-0.9854424,-2.4821227,0.5802757,0.0,0.0,0.0
24,1778656128.83889,-0.8761049,-2.4352636,0.7950466,0.0,0.0,0.0
25,1778656128.8888934,-0.8682951,-2.4547875,0.7247582,0.0,0.0,0.0
26,1778656128.938896,-0.8682951,-2.4547875,0.7247582,0.0,0.0,0.0
27,1778656128.9888978,-1.1416389,-2.5446012,-0.009366812,0.0,0.0,0.0
28,1778656129.0389,-1.1416389,-2.5446012,-0.009366812,0.0,0.0,0.0
29,1778656129.0889022,-1.3212649,-2.5953643,-0.52871937,0.0,0.0,0.0
30,1778656129.1389046,-1.3212649,-2.5953643,-0.52871937,0.0,0.0,0.0
31,1778656129.188907,-1.0908743,-2.1462986,-0.79815906,0.0,0.0,0.0
32,1778656129.2389095,-0.11074054,-1.814382,-0.31004426,0.0,0.0,0.0
33,1778656129.2889116,-0.11074054,-1.814382,-0.31004426,0.0,0.0,0.0
34,1778656129.3389137,-0.11074054,-1.814382,-0.31004426,0.0,0.0,0.0
35,1778656129.3889167,-0.11074054,-1.814382,-0.31004426,0.0,0.0,0.0
36,1778656129.4389188,0.17822295,-1.6542797,0.033588,0.0,0.0,0.0
37,1778656129.4889212,0.17822295,-1.6542797,0.033588,0.0,0.0,0.0
38,1778656129.5389235,0.23679742,-1.6074208,0.13511571,0.0,0.0,0.0
39,1778656129.5889254,0.744436,-1.3262671,0.4475087,0.0,0.0,0.0
40,1778656129.6389275,0.744436,-1.3262671,0.4475087,0.0,0.0,0.0
41,1778656129.6889305,1.2833139,-1.1154019,0.6154207,0.0,0.0,0.0
42,1778656129.7389336,2.849186,-0.029834742,1.5447913,0.0,0.0,0.0
43,1778656129.7889357,3.0600512,0.0795028,1.6306994,0.0,0.0,0.0
44,1778656129.8389375,3.0600512,0.0795028,1.6306994,0.0,0.0,0.0
45,1778656129.8889582,3.0092866,0.18884034,1.6267937,0.0,0.0,0.0
46,1778656129.9389603,2.8218508,0.21226981,1.392499,0.0,0.0,0.0
47,1778656129.9889624,2.7125132,0.26303443,1.1269649,0.0,0.0,0.0
48,1778656130.0389657,2.7125132,0.26303443,1.1269649,0.0,0.0,0.0
49,1778656130.0889692,2.501648,0.7277198,0.49436763,0.0,0.0,0.0
50,1778656130.138972,2.501648,0.7277198,0.49436763,0.0,0.0,0.0
51,1778656130.1889749,2.4977438,0.8917261,0.79895234,0.0,0.0,0.0
52,1778656130.2389765,2.501648,0.9268695,0.8380015,0.0,0.0,0.0
53,1778656130.2889783,2.501648,0.9268695,0.8380015,0.0,0.0,0.0
54,1778656130.339096,2.450885,1.0283972,0.79895234,0.0,0.0,0.0
55,1778656130.3890977,2.450885,1.0283972,0.79895234,0.0,0.0,0.0
56,1778656130.4390996,2.450885,1.0283972,0.79895234,0.0,0.0,0.0
57,1778656130.4891007,2.2400181,1.2900271,0.6739936,0.0,0.0,0.0
58,1778656130.5391023,2.2400181,1.2900271,0.6739936,0.0,0.0,0.0
59,1778656130.5891037,2.2400181,1.2900271,0.6739936,0.0,0.0,0.0
60,1778656130.639106,1.9081014,2.0397704,0.006254392,0.0,0.0,0.0
61,1778656130.6891081,1.9081014,2.0397704,0.006254392,0.0,0.0,0.0
62,1778656130.7391102,1.8417171,2.082725,-0.16946743,0.0,0.0,0.0
63,1778656130.789112,1.5918027,2.1881568,-0.49748006,0.0,0.0,0.0
64,1778656130.8391137,3.2240577,3.5783072,0.81847614,0.0,0.0,0.0
65,1778656130.8891165,3.7590313,3.4923992,0.36550632,0.0,0.0,0.0
66,1778656130.939118,3.7590313,3.4923992,0.36550632,0.0,0.0,0.0
67,1778656130.9891195,3.7590313,3.4923992,0.36550632,0.0,0.0,0.0
68,1778656131.039121,4.0597105,3.367442,-0.13822813,0.0,0.0,0.0
69,1778656131.0891223,3.864463,2.9457114,-0.9738809,0.0,0.0,0.0
70,1778656131.1391242,3.864463,2.9457114,-0.9738809,0.0,0.0,0.0
71,1778656131.1891258,3.864463,2.9457114,-0.9738809,0.0,0.0,0.0
72,1778656131.2391286,3.7785552,2.7856092,-0.6068176,0.0,0.0,0.0
73,1778656131.2891302,3.747316,2.6567478,-0.06403558,0.0,0.0,0.0
74,1778656131.3391318,3.747316,2.6567478,-0.06403558,0.0,0.0,0.0
75,1778656131.3891332,3.747316,2.6567478,-0.06403558,0.0,0.0,0.0
76,1778656131.4391348,3.55988,2.3521647,0.7286624,0.0,0.0,0.0
77,1778656131.4891388,2.8687098,2.05539,1.5955545,0.0,0.0,0.0
78,1778656131.5391412,2.247828,1.8250009,1.7673706,0.0,0.0,0.0
79,1778656131.5891426,2.0369627,1.7547125,1.7205116,0.0,0.0,0.0
80,1778656131.6391437,1.3770318,1.4618433,1.2363025,0.0,0.0,0.0
81,1778656131.689147,1.3770318,1.4618433,1.2363025,0.0,0.0,0.0
82,1778656131.7391493,1.3770318,1.4618433,1.2363025,0.0,0.0,0.0
83,1778656131.789151,1.3848416,1.3134567,0.82628596,0.0,0.0,0.0
84,1778656131.8391519,1.3848416,1.3134567,0.82628596,0.0,0.0,0.0
85,1778656131.8891547,1.6074224,1.2041191,0.478748,0.0,0.0,0.0
86,1778656131.9391584,1.837813,0.88391626,0.20540413,0.0,0.0,0.0
87,1778656131.989162,1.9120055,0.7394337,0.31083754,0.0,0.0,0.0
88,1778656132.0391648,2.076012,0.4309449,0.8770506,0.0,0.0,0.0
89,1778656132.0891674,2.076012,0.4309449,0.8770506,0.0,0.0,0.0
90,1778656132.1391692,2.0955372,0.30598772,1.0957257,0.0,0.0,0.0
91,1778656132.1891713,2.0955372,0.30598772,1.0957257,0.0,0.0,0.0
92,1778656132.2391734,1.8807663,0.044359367,1.080106,0.0,0.0,0.0
93,1778656132.2891762,1.8807663,0.044359367,1.080106,0.0,0.0,0.0
94,1778656132.3391788,2.017439,0.024834028,0.86533505,0.0,0.0,0.0
95,1778656132.3891802,2.017439,0.024834028,0.86533505,0.0,0.0,0.0
96,1778656132.4391816,2.0955372,-0.04545439,0.81847614,0.0,0.0,0.0
97,1778656132.4891832,2.0603921,-0.111838676,0.814572,0.0,0.0,0.0
98,1778656132.5391843,2.0369627,-0.13136245,0.82628596,0.0,0.0,0.0
99,1778656132.589186,1.9393407,-0.17041159,0.88876456,0.0,0.0,0.0
100,1778656132.6391878,1.9354349,-0.18993692,0.90828985,0.0,0.0,0.0
101,1778656132.68919,1.9354349,-0.18993692,0.90828985,0.0,0.0,0.0
102,1778656132.7391918,1.876862,-0.2719393,0.90048003,0.0,0.0,0.0
103,1778656132.7891932,1.5644675,-0.46328077,0.7755229,0.0,0.0,0.0
104,1778656132.8391953,1.5644675,-0.46328077,0.7755229,0.0,0.0,0.0
105,1778656132.8891969,0.9513971,-0.6311912,0.57637155,0.0,0.0,0.0
106,1778656132.9391985,0.9513971,-0.6311912,0.57637155,0.0,0.0,0.0
107,1778656132.9891999,0.7873893,-0.6663362,0.5490364,0.0,0.0,0.0
108,1778656133.039201,0.7873893,-0.6663362,0.5490364,0.0,0.0,0.0
109,1778656133.0892048,0.15088935,-0.93577594,0.33817115,0.0,0.0,0.0
110,1778656133.1392074,-0.16150518,-1.3809359,0.053113338,0.0,0.0,0.0
111,1778656133.1892102,-0.16150518,-1.3809359,0.053113338,0.0,0.0,0.0
112,1778656133.239212,-0.16150518,-1.3809359,0.053113338,0.0,0.0,0.0
113,1778656133.2892134,-0.46218264,-1.6698995,-0.3217598,0.0,0.0,0.0
114,1778656133.3392155,-0.51294726,-1.7558075,-0.50919557,0.0,0.0,0.0
115,1778656133.3892174,-0.51294726,-1.7558075,-0.50919557,0.0,0.0,0.0
116,1778656133.4392195,-0.18102896,-2.1462986,-0.8840671,0.0,0.0,0.0
117,1778656133.4892209,-0.20445843,-2.2204928,-0.532625,0.0,0.0,0.0
118,1778656133.5392222,-0.92686796,-2.3298304,0.4162694,0.0,0.0,0.0
119,1778656133.5892236,-0.92686796,-2.3298304,0.4162694,0.0,0.0,0.0
120,1778656133.6392255,-0.92686796,-2.3298304,0.4162694,0.0,0.0,0.0
121,1778656133.6892273,-0.92686796,-2.3298304,0.4162694,0.0,0.0,0.0
122,1778656133.739229,-1.3564082,-2.5836504,0.03749369,0.0,0.0,0.0
123,1778656133.78923,-1.4969867,-2.4743128,-0.33347374,0.0,0.0,0.0
124,1778656133.8392315,-1.4423164,-2.4235482,-0.44281128,0.0,0.0,0.0
125,1778656133.889233,-1.4423164,-2.4235482,-0.44281128,0.0,0.0,0.0
126,1778656133.9392345,-0.28646237,-1.9861981,-0.4193818,0.0,0.0,0.0
127,1778656133.9892359,-0.28646237,-1.9861981,-0.4193818,0.0,0.0,0.0
128,1778656134.039237,0.08450507,-1.951053,-0.24366154,0.0,0.0,0.0
129,1778656134.08924,0.43204302,-1.9041941,0.09216246,0.0,0.0,0.0
130,1778656134.139242,0.43204302,-1.9041941,0.09216246,0.0,0.0,0.0
131,1778656134.1892443,1.8612424,-0.7288148,1.3534498,0.0,0.0,0.0
132,1778656134.239246,2.404026,-0.36956286,1.1113453,0.0,0.0,0.0
133,1778656134.2892475,2.6617503,-0.20165087,1.0879159,0.0,0.0,0.0
134,1778656134.3392487,2.6617503,-0.20165087,1.0879159,0.0,0.0,0.0
135,1778656134.3892498,2.6617503,-0.20165087,1.0879159,0.0,0.0,0.0
136,1778656134.4392512,2.7828016,-0.1196485,1.1113453,0.0,0.0,0.0
137,1778656134.4892526,3.0053825,0.22007963,1.1621084,0.0,0.0,0.0
138,1778656134.539254,3.0053825,0.22007963,1.1621084,0.0,0.0,0.0
139,1778656134.5892568,3.0053825,0.22007963,1.1621084,0.0,0.0,0.0
140,1778656134.6392584,3.0991004,0.49732918,1.1308692,0.0,0.0,0.0
141,1778656134.68926,2.1228707,1.2080232,0.82628596,0.0,0.0,0.0
142,1778656134.7392628,2.1228707,1.2080232,0.82628596,0.0,0.0,0.0
143,1778656134.789265,1.9120055,1.5868005,0.76771146,0.0,0.0,0.0
144,1778656134.8392673,1.9120055,1.5868005,0.76771146,0.0,0.0,0.0
145,1778656134.8892689,2.0525823,1.86405,0.56856173,0.0,0.0,0.0
146,1778656134.9392712,2.1189666,1.9851015,0.52951264,0.0,0.0,0.0
147,1778656134.9892726,2.1189666,1.9851015,0.52951264,0.0,0.0,0.0
148,1778656135.0392737,2.1189666,1.9851015,0.52951264,0.0,0.0,0.0
149,1778656135.089279,1.9549603,2.430263,0.10387642,0.0,0.0,0.0
150,1778656135.1392815,1.3262687,1.9694818,-0.3842384,0.0,0.0,0.0
151,1778656135.1892846,1.3262687,1.9694818,-0.3842384,0.0,0.0,0.0
152,1778656135.239287,0.80691457,2.0280564,0.26007292,0.0,0.0,0.0
153,1778656135.289289,1.0099701,2.3521647,1.1542985,0.0,0.0,0.0
154,1778656135.3392901,1.0099701,2.3521647,1.1542985,0.0,0.0,0.0
155,1778656135.3892913,1.0099701,2.3521647,1.1542985,0.0,0.0,0.0
156,1778656135.4392924,1.0099701,2.3521647,1.1542985,0.0,0.0,0.0
157,1778656135.4892936,1.2442647,2.7777994,1.7205116,0.0,0.0,0.0
158,1778656135.5392952,1.2442647,2.7777994,1.7205116,0.0,0.0,0.0
159,1778656135.5892963,1.8963859,3.4728754,1.9821415,0.0,0.0,0.0
160,1778656135.6392977,4.458011,3.2424848,0.6427543,0.0,0.0,0.0
161,1778656135.6892989,4.458011,3.2424848,0.6427543,0.0,0.0,0.0
162,1778656135.7393,4.458011,3.2424848,0.6427543,0.0,0.0,0.0
163,1778656135.789302,4.458011,3.2424848,0.6427543,0.0,0.0,0.0
164,1778656135.839304,3.903514,2.8519936,0.006254392,0.0,0.0,0.0
165,1778656135.889305,3.3138714,2.4849317,-0.07965523,0.0,0.0,0.0
166,1778656135.9393065,3.3138714,2.4849317,-0.07965523,0.0,0.0,0.0
167,1778656135.9893079,3.3138714,2.4849317,-0.07965523,0.0,0.0,0.0
168,1778656136.039309,3.3138714,2.4849317,-0.07965523,0.0,0.0,0.0
169,1778656136.0893104,2.5133636,1.7234732,1.4549776,0.0,0.0,0.0
170,1778656136.1393116,2.5133636,1.7234732,1.4549776,0.0,0.0,0.0
171,1778656136.189313,2.1384904,1.6141356,1.8962334,0.0,0.0,0.0
172,1778656136.2393153,1.623042,1.5360373,2.1812913,0.0,0.0,0.0
173,1778656136.2893183,1.623042,1.5360373,2.1812913,0.0,0.0,0.0
174,1778656136.3393211,1.501989,1.4266983,1.7009878,0.0,0.0,0.0
175,1778656136.3893225,1.4629399,1.3173608,1.224587,0.0,0.0,0.0
176,1778656136.439324,1.4395103,1.2665976,1.044961,0.0,0.0,0.0
177,1778656136.4893248,1.4395103,1.2665976,1.044961,0.0,0.0,0.0
178,1778656136.5393932,1.4395103,1.2665976,1.044961,0.0,0.0,0.0
179,1778656136.5893943,1.4082711,1.0791619,0.50608313,0.0,0.0,0.0
180,1778656136.6393955,1.4082711,1.0791619,0.50608313,0.0,0.0,0.0
181,1778656136.689398,1.4082711,1.0791619,0.50608313,0.0,0.0,0.0
182,1778656136.7393994,1.7636188,0.8995359,0.59980106,0.0,0.0,0.0
183,1778656136.789401,1.9549603,0.67695516,0.8848604,0.0,0.0,0.0
184,1778656136.8394027,1.9549603,0.67695516,0.8848604,0.0,0.0,0.0
185,1778656136.8894048,1.9783897,0.5949512,0.959053,0.0,0.0,0.0
186,1778656136.9394069,1.9783897,0.5949512,0.959053,0.0,0.0,0.0
187,1778656136.9894085,1.9783897,0.5949512,0.959053,0.0,0.0,0.0
188,1778656137.03941,2.013533,0.30598772,1.1933477,0.0,0.0,0.0
189,1778656137.0894115,2.013533,0.30598772,1.1933477,0.0,0.0,0.0
190,1778656137.1394136,2.1580157,0.11464778,1.1894436,0.0,0.0,0.0
191,1778656137.1894155,2.2868772,0.06388315,1.0527709,0.0,0.0,0.0
192,1778656137.239418,2.2868772,0.06388315,1.0527709,0.0,0.0,0.0
193,1778656137.28942,2.282973,0.044359367,0.947339,0.0,0.0,0.0
194,1778656137.3394222,2.282973,0.044359367,0.947339,0.0,0.0,0.0
195,1778656137.3894234,2.282973,0.044359367,0.947339,0.0,0.0,0.0
196,1778656137.4394248,2.1619198,-0.07669369,0.7481877,0.0,0.0,0.0
197,1778656137.4894261,2.1619198,-0.07669369,0.7481877,0.0,0.0,0.0
198,1778656137.5394273,2.0955372,-0.111838676,0.732568,0.0,0.0,0.0
199,1778656137.5894287,2.0955372,-0.111838676,0.732568,0.0,0.0,0.0
200,1778656137.6394298,2.0877273,-0.1508878,0.7911425,0.0,0.0,0.0
