id,timestamp,acc_x,acc_y,acc_z,gyro_x,gyro_y,gyro_z
1,1778662485.9142847,0.22898759,0.024834028,0.18588035,0.0,0.0,0.0
2,1778662485.9242887,0.22898759,0.024834028,0.18588035,0.0,0.0,0.0
3,1778662485.9342902,0.22898759,0.024834028,0.18588035,0.0,0.0,0.0
4,1778662485.9442918,0.22898759,0.024834028,0.18588035,0.0,0.0,0.0
5,1778662485.9542937,0.22898759,0.024834028,0.18588035,0.0,0.0,0.0
6,1778662485.9642954,0.22898759,0.024834028,0.18588035,0.0,0.0,0.0
7,1778662485.974296,0.22898759,0.024834028,0.18588035,0.0,0.0,0.0
8,1778662485.9842975,0.22898759,0.024834028,0.18588035,0.0,0.0,0.0
9,1778662485.9942992,0.22898759,0.024834028,0.18588035,0.0,0.0,0.0
10,1778662486.0043018,0.22898759,0.024834028,0.18588035,0.0,0.0,0.0
11,1778662486.0143042,0.22898759,0.024834028,0.18588035,0.0,0.0,0.0
12,1778662486.024305,0.22898759,0.024834028,0.18588035,0.0,0.0,0.0
13,1778662486.0343068,0.22898759,0.024834028,0.18588035,0.0,0.0,0.0
14,1778662486.0443082,0.22898759,0.024834028,0.18588035,0.0,0.0,0.0
15,1778662486.054309,0.22898759,0.024834028,0.18588035,0.0,0.0,0.0
16,1778662486.0643098,0.22898759,0.024834028,0.18588035,0.0,0.0,0.0
17,1778662486.0743117,-0.04435781,0.056073327,0.115591936,0.0,0.0,0.0
18,1778662486.0843124,-0.04435781,0.056073327,0.115591936,0.0,0.0,0.0
19,1778662486.0943131,-0.04435781,0.056073327,0.115591936,0.0,0.0,0.0
20,1778662486.1043143,-0.04435781,0.056073327,0.115591936,0.0,0.0,0.0
21,1778662486.1143148,-0.04435781,0.056073327,0.115591936,0.0,0.0,0.0
22,1778662486.124316,-0.04435781,0.056073327,0.115591936,0.0,0.0,0.0
23,1778662486.1343172,-0.04435781,0.056073327,0.115591936,0.0,0.0,0.0
24,1778662486.144318,-0.04435781,0.056073327,0.115591936,0.0,0.0,0.0
25,1778662486.154319,-0.04435781,0.056073327,0.115591936,0.0,0.0,0.0
26,1778662486.164321,-0.04435781,0.056073327,0.115591936,0.0,0.0,0.0
27,1778662486.1743226,-0.04435781,0.056073327,0.115591936,0.0,0.0,0.0
28,1778662486.184324,-0.04435781,0.056073327,0.115591936,0.0,0.0,0.0
29,1778662486.1943247,-0.04435781,0.056073327,0.115591936,0.0,0.0,0.0
30,1778662486.2043257,-0.04435781,0.056073327,0.115591936,0.0,0.0,0.0
31,1778662486.2143278,-0.04435781,0.056073327,0.115591936,0.0,0.0,0.0
32,1778662486.2243297,-0.04435781,0.056073327,0.115591936,0.0,0.0,0.0
33,1778662486.2343314,-0.25522307,0.075598665,0.014064217,0.0,0.0,0.0
34,1778662486.2443323,-0.25522307,0.075598665,0.014064217,0.0,0.0,0.0
35,1778662486.254335,-0.25522307,0.075598665,0.014064217,0.0,0.0,0.0
36,1778662486.2643363,-0.25522307,0.075598665,0.014064217,0.0,0.0,0.0
37,1778662486.2743373,-0.25522307,0.075598665,0.014064217,0.0,0.0,0.0
38,1778662486.284338,-0.25522307,0.075598665,0.014064217,0.0,0.0,0.0
39,1778662486.2943397,-0.25522307,0.075598665,0.014064217,0.0,0.0,0.0
40,1778662486.3043404,-0.25522307,0.075598665,0.014064217,0.0,0.0,0.0
41,1778662486.3143423,-0.25522307,0.075598665,0.014064217,0.0,0.0,0.0
42,1778662486.3243444,-0.25522307,0.075598665,0.014064217,0.0,0.0,0.0
43,1778662486.334345,-0.25522307,0.075598665,0.014064217,0.0,0.0,0.0
44,1778662486.3443472,-0.25522307,0.075598665,0.014064217,0.0,0.0,0.0
45,1778662486.3543518,-0.25522307,0.075598665,0.014064217,0.0,0.0,0.0
46,1778662486.3643558,-0.25522307,0.075598665,0.014064217,0.0,0.0,0.0
47,1778662486.374358,-0.25522307,0.075598665,0.014064217,0.0,0.0,0.0
48,1778662486.3843613,-0.25522307,0.075598665,0.014064217,0.0,0.0,0.0
49,1778662486.3943644,-0.30989185,0.07169297,-0.009366812,0.0,0.0,0.0
50,1778662486.4043663,-0.30989185,0.07169297,-0.009366812,0.0,0.0,0.0
51,1778662486.4143672,-0.30989185,0.07169297,-0.009366812,0.0,0.0,0.0
52,1778662486.4243696,-0.30989185,0.07169297,-0.009366812,0.0,0.0,0.0
53,1778662486.4343727,-0.30989185,0.07169297,-0.009366812,0.0,0.0,0.0
54,1778662486.4443743,-0.30989185,0.07169297,-0.009366812,0.0,0.0,0.0
55,1778662486.4543762,-0.30989185,0.07169297,-0.009366812,0.0,0.0,0.0
56,1778662486.464377,-0.30989185,0.07169297,-0.009366812,0.0,0.0,0.0
57,1778662486.4743803,-0.30989185,0.07169297,-0.009366812,0.0,0.0,0.0
58,1778662486.484384,-0.30989185,0.07169297,-0.009366812,0.0,0.0,0.0
59,1778662486.4943871,-0.30989185,0.07169297,-0.009366812,0.0,0.0,0.0
60,1778662486.5043895,-0.30989185,0.07169297,-0.009366812,0.0,0.0,0.0
61,1778662486.5143921,-0.30989185,0.07169297,-0.009366812,0.0,0.0,0.0
62,1778662486.5243933,-0.30989185,0.07169297,-0.009366812,0.0,0.0,0.0
63,1778662486.534396,-0.30989185,0.07169297,-0.009366812,0.0,0.0,0.0
64,1778662486.5443974,-0.30989185,0.07169297,-0.009366812,0.0,0.0,0.0
65,1778662486.5544026,-0.30989185,0.07169297,-0.009366812,0.0,0.0,0.0
66,1778662486.5644042,-0.30989185,0.07169297,-0.009366812,0.0,0.0,0.0
67,1778662486.5744052,-0.30989185,0.07169297,-0.009366812,0.0,0.0,0.0
68,1778662486.5844066,-0.30989185,0.07169297,-0.009366812,0.0,0.0,0.0
69,1778662486.594408,-0.30989185,0.07169297,-0.009366812,0.0,0.0,0.0
70,1778662486.6044087,-0.30989185,0.07169297,-0.009366812,0.0,0.0,0.0
71,1778662486.6144104,-0.30989185,0.07169297,-0.009366812,0.0,0.0,0.0
72,1778662486.6244118,-0.30989185,0.07169297,-0.009366812,0.0,0.0,0.0
73,1778662486.6344128,-0.30989185,0.07169297,-0.009366812,0.0,0.0,0.0
74,1778662486.6444137,-0.30989185,0.07169297,-0.009366812,0.0,0.0,0.0
75,1778662486.6544147,-0.36846474,0.059979014,-0.028890595,0.0,0.0,0.0
76,1778662486.664415,-0.36846474,0.059979014,-0.028890595,0.0,0.0,0.0
77,1778662486.674418,-0.36846474,0.059979014,-0.028890595,0.0,0.0,0.0
78,1778662486.6844206,-0.36846474,0.059979014,-0.028890595,0.0,0.0,0.0
79,1778662486.6944222,-0.36846474,0.059979014,-0.028890595,0.0,0.0,0.0
80,1778662486.7044232,-0.36846474,0.059979014,-0.028890595,0.0,0.0,0.0
81,1778662486.714424,-0.36846474,0.059979014,-0.028890595,0.0,0.0,0.0
82,1778662486.7244258,-0.36846474,0.059979014,-0.028890595,0.0,0.0,0.0
83,1778662486.7344303,-0.36846474,0.059979014,-0.028890595,0.0,0.0,0.0
84,1778662486.7444339,-0.36846474,0.059979014,-0.028890595,0.0,0.0,0.0
85,1778662486.7544358,-0.36846474,0.059979014,-0.028890595,0.0,0.0,0.0
86,1778662486.7644365,-0.36846474,0.059979014,-0.028890595,0.0,0.0,0.0
87,1778662486.7744372,-0.36846474,0.059979014,-0.028890595,0.0,0.0,0.0
88,1778662486.7844388,-0.36846474,0.059979014,-0.028890595,0.0,0.0,0.0
89,1778662486.7944405,-0.45437282,0.07169297,-0.12651418,0.0,0.0,0.0
90,1778662486.8044415,-0.45437282,0.07169297,-0.12651418,0.0,0.0,0.0
91,1778662486.8144422,-0.45437282,0.07169297,-0.12651418,0.0,0.0,0.0
92,1778662486.824443,-0.45437282,0.07169297,-0.12651418,0.0,0.0,0.0
93,1778662486.8344452,-0.45437282,0.07169297,-0.12651418,0.0,0.0,0.0
94,1778662486.844447,-0.45437282,0.07169297,-0.12651418,0.0,0.0,0.0
95,1778662486.8544478,-0.45437282,0.07169297,-0.12651418,0.0,0.0,0.0
96,1778662486.8644493,-0.45437282,0.07169297,-0.12651418,0.0,0.0,0.0
97,1778662486.87445,-0.45437282,0.07169297,-0.12651418,0.0,0.0,0.0
98,1778662486.884451,-0.45437282,0.07169297,-0.12651418,0.0,0.0,0.0
99,1778662486.8944528,-0.45437282,0.07169297,-0.12651418,0.0,0.0,0.0
100,1778662486.904454,-0.45437282,0.07169297,-0.12651418,0.0,0.0,0.0
101,1778662486.9144545,-0.45437282,0.07169297,-0.12651418,0.0,0.0,0.0
102,1778662486.9244566,-0.45437282,0.07169297,-0.12651418,0.0,0.0,0.0
103,1778662486.9345047,-0.45437282,0.07169297,-0.12651418,0.0,0.0,0.0
104,1778662486.9445057,-0.45437282,0.07169297,-0.12651418,0.0,0.0,0.0
105,1778662486.9545078,-0.45437282,0.07169297,-0.12651418,0.0,0.0,0.0
106,1778662486.9645088,-0.45437282,0.07169297,-0.12651418,0.0,0.0,0.0
107,1778662486.9745107,-0.45437282,0.07169297,-0.12651418,0.0,0.0,0.0
108,1778662486.984512,-0.42313352,0.075598665,-0.13822813,0.0,0.0,0.0
109,1778662486.9945147,-0.42313352,0.075598665,-0.13822813,0.0,0.0,0.0
110,1778662487.004517,-0.42313352,0.075598665,-0.13822813,0.0,0.0,0.0
111,1778662487.0145183,-0.42313352,0.075598665,-0.13822813,0.0,0.0,0.0
112,1778662487.0245187,-0.42313352,0.075598665,-0.13822813,0.0,0.0,0.0
113,1778662487.0345206,-0.42313352,0.075598665,-0.13822813,0.0,0.0,0.0
114,1778662487.0445216,-0.42313352,0.075598665,-0.13822813,0.0,0.0,0.0
115,1778662487.054522,-0.42313352,0.075598665,-0.13822813,0.0,0.0,0.0
116,1778662487.0645232,-0.42313352,0.075598665,-0.13822813,0.0,0.0,0.0
117,1778662487.074524,-0.42313352,0.075598665,-0.13822813,0.0,0.0,0.0
118,1778662487.0845253,-0.42313352,0.075598665,-0.13822813,0.0,0.0,0.0
119,1778662487.0945275,-0.42313352,0.075598665,-0.13822813,0.0,0.0,0.0
120,1778662487.104528,-0.42313352,0.075598665,-0.13822813,0.0,0.0,0.0
121,1778662487.1145303,-0.42313352,0.075598665,-0.13822813,0.0,0.0,0.0
122,1778662487.1245313,-0.42313352,0.075598665,-0.13822813,0.0,0.0,0.0
123,1778662487.1345325,-0.42313352,0.075598665,-0.13822813,0.0,0.0,0.0
124,1778662487.1445343,-0.42313352,0.075598665,-0.13822813,0.0,0.0,0.0
125,1778662487.1545355,-0.42313352,0.075598665,-0.13822813,0.0,0.0,0.0
126,1778662487.1645372,-0.42313352,0.075598665,-0.13822813,0.0,0.0,0.0
127,1778662487.174539,-0.42313352,0.075598665,-0.13822813,0.0,0.0,0.0
128,1778662487.1845398,-0.42313352,0.075598665,-0.13822813,0.0,0.0,0.0
129,1778662487.194544,-0.42313352,0.075598665,-0.13822813,0.0,0.0,0.0
130,1778662487.2045462,-0.06388159,0.024834028,-0.06403558,0.0,0.0,0.0
131,1778662487.2145472,-0.06388159,0.024834028,-0.06403558,0.0,0.0,0.0
132,1778662487.224549,-0.06388159,0.024834028,-0.06403558,0.0,0.0,0.0
133,1778662487.234551,-0.06388159,0.024834028,-0.06403558,0.0,0.0,0.0
134,1778662487.244554,-0.06388159,0.024834028,-0.06403558,0.0,0.0,0.0
135,1778662487.2545564,-0.42313352,0.075598665,-0.13822813,0.0,0.0,0.0
136,1778662487.2645574,-0.42313352,0.075598665,-0.13822813,0.0,0.0,0.0
137,1778662487.2745588,-0.42313352,0.075598665,-0.13822813,0.0,0.0,0.0
138,1778662487.2845607,-0.42313352,0.075598665,-0.13822813,0.0,0.0,0.0
139,1778662487.2945619,-0.42313352,0.075598665,-0.13822813,0.0,0.0,0.0
140,1778662487.3045647,-0.42313352,0.075598665,-0.13822813,0.0,0.0,0.0
141,1778662487.3145657,-0.42313352,0.075598665,-0.13822813,0.0,0.0,0.0
142,1778662487.3245666,-0.42313352,0.075598665,-0.13822813,0.0,0.0,0.0
143,1778662487.3345687,0.068885416,0.0014045552,-0.028890595,0.0,0.0,0.0
144,1778662487.34457,0.068885416,0.0014045552,-0.028890595,0.0,0.0,0.0
145,1778662487.3545713,0.068885416,0.0014045552,-0.028890595,0.0,0.0,0.0
146,1778662487.364573,0.068885416,0.0014045552,-0.028890595,0.0,0.0,0.0
147,1778662487.3745742,0.068885416,0.0014045552,-0.028890595,0.0,0.0,0.0
148,1778662487.384576,0.068885416,0.0014045552,-0.028890595,0.0,0.0,0.0
149,1778662487.39458,0.068885416,0.0014045552,-0.028890595,0.0,0.0,0.0
150,1778662487.4045813,0.068885416,0.0014045552,-0.028890595,0.0,0.0,0.0
151,1778662487.4145823,0.068885416,0.0014045552,-0.028890595,0.0,0.0,0.0
152,1778662487.4245834,0.068885416,0.0014045552,-0.028890595,0.0,0.0,0.0
153,1778662487.434584,0.068885416,0.0014045552,-0.028890595,0.0,0.0,0.0
154,1778662487.4445848,0.068885416,0.0014045552,-0.028890595,0.0,0.0,0.0
155,1778662487.4545858,0.068885416,0.0014045552,-0.028890595,0.0,0.0,0.0
156,1778662487.4645886,0.068885416,0.0014045552,-0.028890595,0.0,0.0,0.0
157,1778662487.4745917,0.068885416,0.0014045552,-0.028890595,0.0,0.0,0.0
158,1778662487.4845932,0.068885416,0.0014045552,-0.028890595,0.0,0.0,0.0
159,1778662487.494596,0.068885416,0.0014045552,-0.028890595,0.0,0.0,0.0
160,1778662487.5045989,0.068885416,0.0014045552,-0.028890595,0.0,0.0,0.0
161,1778662487.514601,0.068885416,0.0014045552,-0.028890595,0.0,0.0,0.0
162,1778662487.5246022,0.068885416,0.0014045552,-0.028890595,0.0,0.0,0.0
163,1778662487.5346045,0.068885416,0.0014045552,-0.028890595,0.0,0.0,0.0
164,1778662487.5446062,0.068885416,0.0014045552,-0.028890595,0.0,0.0,0.0
165,1778662487.5546083,0.068885416,0.0014045552,-0.028890595,0.0,0.0,0.0
166,1778662487.564611,0.068885416,0.0014045552,-0.028890595,0.0,0.0,0.0
167,1778662487.5746126,0.068885416,0.0014045552,-0.028890595,0.0,0.0,0.0
168,1778662487.5846145,0.3617546,-0.053264216,0.03749369,0.0,0.0,0.0
169,1778662487.5946155,0.3617546,-0.053264216,0.03749369,0.0,0.0,0.0
170,1778662487.604618,0.3617546,-0.053264216,0.03749369,0.0,0.0,0.0
171,1778662487.61462,0.3617546,-0.053264216,0.03749369,0.0,0.0,0.0
172,1778662487.6246212,0.3617546,-0.053264216,0.03749369,0.0,0.0,0.0
173,1778662487.6346262,0.3617546,-0.053264216,0.03749369,0.0,0.0,0.0
174,1778662487.6446285,0.3617546,-0.053264216,0.03749369,0.0,0.0,0.0
175,1778662487.6546295,0.3617546,-0.053264216,0.03749369,0.0,0.0,0.0
176,1778662487.664631,0.3617546,-0.053264216,0.03749369,0.0,0.0,0.0
177,1778662487.6746333,0.3617546,-0.053264216,0.03749369,0.0,0.0,0.0
178,1778662487.6846359,0.3617546,-0.053264216,0.03749369,0.0,0.0,0.0
179,1778662487.694637,0.3617546,-0.053264216,0.03749369,0.0,0.0,0.0
180,1778662487.7046378,0.3617546,-0.053264216,0.03749369,0.0,0.0,0.0
181,1778662487.7146397,0.068885416,0.0014045552,-0.028890595,0.0,0.0,0.0
182,1778662487.7246416,0.068885416,0.0014045552,-0.028890595,0.0,0.0,0.0
183,1778662487.7346423,0.068885416,0.0014045552,-0.028890595,0.0,0.0,0.0
184,1778662487.7446458,0.068885416,0.0014045552,-0.028890595,0.0,0.0,0.0
185,1778662487.754648,0.6194788,-0.11574281,0.07654281,0.0,0.0,0.0
186,1778662487.7646492,0.6194788,-0.11574281,0.07654281,0.0,0.0,0.0
187,1778662487.7746513,0.6194788,-0.11574281,0.07654281,0.0,0.0,0.0
188,1778662487.784654,0.6194788,-0.11574281,0.07654281,0.0,0.0,0.0
189,1778662487.7946568,0.6194788,-0.11574281,0.07654281,0.0,0.0,0.0
190,1778662487.8046591,0.6194788,-0.11574281,0.07654281,0.0,0.0,0.0
191,1778662487.8146598,0.6194788,-0.11574281,0.07654281,0.0,0.0,0.0
192,1778662487.824661,0.6194788,-0.11574281,0.07654281,0.0,0.0,0.0
193,1778662487.834663,0.6194788,-0.11574281,0.07654281,0.0,0.0,0.0
194,1778662487.8446646,0.6194788,-0.11574281,0.07654281,0.0,0.0,0.0
195,1778662487.8546672,0.6194788,-0.11574281,0.07654281,0.0,0.0,0.0
196,1778662487.8646693,0.6194788,-0.11574281,0.07654281,0.0,0.0,0.0
197,1778662487.8746707,0.6194788,-0.11574281,0.07654281,0.0,0.0,0.0
198,1778662487.8846738,0.6194788,-0.11574281,0.07654281,0.0,0.0,0.0
199,1778662487.8946755,0.6194788,-0.11574281,0.07654281,0.0,0.0,0.0
200,1778662487.9046779,0.6194788,-0.11574281,0.07654281,0.0,0.0,0.0
201,1778662487.914682,0.6194788,-0.11574281,0.07654281,0.0,0.0,0.0
202,1778662487.9246845,0.6194788,-0.11574281,0.07654281,0.0,0.0,0.0
203,1778662487.934688,0.6194788,-0.11574281,0.07654281,0.0,0.0,0.0
204,1778662487.9446912,0.6194788,-0.11574281,0.07654281,0.0,0.0,0.0
205,1778662487.9546945,0.6194788,-0.11574281,0.07654281,0.0,0.0,0.0
206,1778662487.9646976,0.6194788,-0.11574281,0.07654281,0.0,0.0,0.0
207,1778662487.9746997,0.6194788,-0.11574281,0.07654281,0.0,0.0,0.0
208,1778662487.9847012,0.6194788,-0.11574281,0.07654281,0.0,0.0,0.0
209,1778662487.9947038,0.6194788,-0.11574281,0.07654281,0.0,0.0,0.0
210,1778662488.0047064,0.6194788,-0.11574281,0.07654281,0.0,0.0,0.0
211,1778662488.0147083,0.6194788,-0.11574281,0.07654281,0.0,0.0,0.0
212,1778662488.0247107,0.6194788,-0.11574281,0.07654281,0.0,0.0,0.0
213,1778662488.0347118,0.6194788,-0.11574281,0.07654281,0.0,0.0,0.0
214,1778662488.0447135,0.6194788,-0.11574281,0.07654281,0.0,0.0,0.0
215,1778662488.0547166,0.6194788,-0.11574281,0.07654281,0.0,0.0,0.0
216,1778662488.064718,0.6194788,-0.11574281,0.07654281,0.0,0.0,0.0
217,1778662488.0747194,0.6194788,-0.11574281,0.07654281,0.0,0.0,0.0
218,1778662488.0847206,0.6194788,-0.11574281,0.07654281,0.0,0.0,0.0
219,1778662488.0947213,0.6194788,-0.11574281,0.07654281,0.0,0.0,0.0
220,1778662488.1047237,0.6194788,-0.11574281,0.07654281,0.0,0.0,0.0
221,1778662488.1147254,0.6194788,-0.11574281,0.07654281,0.0,0.0,0.0
222,1778662488.1247268,0.6194788,-0.11574281,0.07654281,0.0,0.0,0.0
223,1778662488.1347291,0.6194788,-0.11574281,0.07654281,0.0,0.0,0.0
224,1778662488.1447322,0.6194788,-0.11574281,0.07654281,0.0,0.0,0.0
225,1778662488.1547348,0.6194788,-0.11574281,0.07654281,0.0,0.0,0.0
226,1778662488.1647372,0.6194788,-0.11574281,0.07654281,0.0,0.0,0.0
227,1778662488.1747382,0.6194788,-0.11574281,0.07654281,0.0,0.0,0.0
228,1778662488.1847389,0.6194788,-0.11574281,0.07654281,0.0,0.0,0.0
229,1778662488.1947405,0.7249107,-0.14307797,0.08825677,0.0,0.0,0.0
230,1778662488.2047415,0.7249107,-0.14307797,0.08825677,0.0,0.0,0.0
231,1778662488.214743,0.7249107,-0.14307797,0.08825677,0.0,0.0,0.0
232,1778662488.224745,0.7249107,-0.14307797,0.08825677,0.0,0.0,0.0
233,1778662488.23475,0.7249107,-0.14307797,0.08825677,0.0,0.0,0.0
234,1778662488.2447531,0.7249107,-0.14307797,0.08825677,0.0,0.0,0.0
235,1778662488.2547555,0.7249107,-0.14307797,0.08825677,0.0,0.0,0.0
236,1778662488.2647567,0.7249107,-0.14307797,0.08825677,0.0,0.0,0.0
237,1778662488.2747588,0.7249107,-0.14307797,0.08825677,0.0,0.0,0.0
238,1778662488.2847598,0.7249107,-0.14307797,0.08825677,0.0,0.0,0.0
239,1778662488.2947607,0.7249107,-0.14307797,0.08825677,0.0,0.0,0.0
240,1778662488.3047628,0.91625214,-0.22508036,0.099972285,0.0,0.0,0.0
241,1778662488.3147635,0.91625214,-0.22508036,0.099972285,0.0,0.0,0.0
242,1778662488.3247647,0.91625214,-0.22508036,0.099972285,0.0,0.0,0.0
243,1778662488.3347669,0.91625214,-0.22508036,0.099972285,0.0,0.0,0.0
244,1778662488.344769,0.91625214,-0.22508036,0.099972285,0.0,0.0,0.0
245,1778662488.3547711,0.91625214,-0.22508036,0.099972285,0.0,0.0,0.0
246,1778662488.364772,0.91625214,-0.22508036,0.099972285,0.0,0.0,0.0
247,1778662488.3747737,0.91625214,-0.22508036,0.099972285,0.0,0.0,0.0
248,1778662488.3847759,0.91625214,-0.22508036,0.099972285,0.0,0.0,0.0
249,1778662488.3947768,0.91625214,-0.22508036,0.099972285,0.0,0.0,0.0
250,1778662488.4047787,0.91625214,-0.22508036,0.099972285,0.0,0.0,0.0
251,1778662488.4147797,0.91625214,-0.22508036,0.099972285,0.0,0.0,0.0
252,1778662488.4247804,0.91625214,-0.22508036,0.099972285,0.0,0.0,0.0
253,1778662488.4347825,0.91625214,-0.22508036,0.099972285,0.0,0.0,0.0
254,1778662488.4447837,0.91625214,-0.22508036,0.099972285,0.0,0.0,0.0
255,1778662488.4547853,0.91625214,-0.22508036,0.099972285,0.0,0.0,0.0
256,1778662488.464788,0.91625214,-0.22508036,0.099972285,0.0,0.0,0.0
257,1778662488.474789,0.91625214,-0.22508036,0.099972285,0.0,0.0,0.0
258,1778662488.484791,0.91625214,-0.22508036,0.099972285,0.0,0.0,0.0
259,1778662488.4947932,0.91625214,-0.22508036,0.099972285,0.0,0.0,0.0
260,1778662488.5047941,0.91625214,-0.22508036,0.099972285,0.0,0.0,0.0
261,1778662488.5147967,0.91625214,-0.22508036,0.099972285,0.0,0.0,0.0
262,1778662488.5247977,0.91625214,-0.22508036,0.099972285,0.0,0.0,0.0
263,1778662488.5347986,0.91625214,-0.22508036,0.099972285,0.0,0.0,0.0
264,1778662488.5448,0.91625214,-0.22508036,0.099972285,0.0,0.0,0.0
265,1778662488.5548015,0.91625214,-0.22508036,0.099972285,0.0,0.0,0.0
266,1778662488.564803,0.91625214,-0.22508036,0.099972285,0.0,0.0,0.0
267,1778662488.574805,0.91625214,-0.22508036,0.099972285,0.0,0.0,0.0
268,1778662488.584806,0.91625214,-0.22508036,0.099972285,0.0,0.0,0.0
269,1778662488.5948107,0.91625214,-0.22508036,0.099972285,0.0,0.0,0.0
270,1778662488.6048138,0.91625214,-0.22508036,0.099972285,0.0,0.0,0.0
271,1778662488.6148148,0.91625214,-0.22508036,0.099972285,0.0,0.0,0.0
272,1778662488.624816,0.91625214,-0.22508036,0.099972285,0.0,0.0,0.0
273,1778662488.6348188,0.91625214,-0.22508036,0.099972285,0.0,0.0,0.0
274,1778662488.6448197,0.91625214,-0.22508036,0.099972285,0.0,0.0,0.0
275,1778662488.6548207,0.91625214,-0.22508036,0.099972285,0.0,0.0,0.0
276,1778662488.6648233,0.91625214,-0.22508036,0.099972285,0.0,0.0,0.0
277,1778662488.674824,0.91625214,-0.22508036,0.099972285,0.0,0.0,0.0
278,1778662488.6848252,0.91625214,-0.22508036,0.099972285,0.0,0.0,0.0
279,1778662488.694826,0.91625214,-0.22508036,0.099972285,0.0,0.0,0.0
280,1778662488.7048275,0.91625214,-0.22508036,0.099972285,0.0,0.0,0.0
281,1778662488.7148285,0.91625214,-0.22508036,0.099972285,0.0,0.0,0.0
282,1778662488.7248297,0.91625214,-0.22508036,0.099972285,0.0,0.0,0.0
283,1778662488.734831,0.91625214,-0.22508036,0.099972285,0.0,0.0,0.0
284,1778662488.7448325,0.91625214,-0.22508036,0.099972285,0.0,0.0,0.0
285,1778662488.7548332,0.91625214,-0.22508036,0.099972285,0.0,0.0,0.0
286,1778662488.764835,0.91625214,-0.22508036,0.099972285,0.0,0.0,0.0
287,1778662488.7748358,0.91625214,-0.22508036,0.099972285,0.0,0.0,0.0
288,1778662488.7848375,0.91625214,-0.22508036,0.099972285,0.0,0.0,0.0
289,1778662488.7948387,0.91625214,-0.22508036,0.099972285,0.0,0.0,0.0
290,1778662488.8048398,0.91625214,-0.22508036,0.099972285,0.0,0.0,0.0
291,1778662488.8148406,0.91625214,-0.22508036,0.099972285,0.0,0.0,0.0
292,1778662488.8248417,0.91625214,-0.22508036,0.099972285,0.0,0.0,0.0
293,1778662488.8348424,0.91625214,-0.22508036,0.099972285,0.0,0.0,0.0
294,1778662488.8448436,0.91625214,-0.22508036,0.099972285,0.0,0.0,0.0
295,1778662488.8548453,0.91625214,-0.22508036,0.099972285,0.0,0.0,0.0
296,1778662488.864848,0.91625214,-0.22508036,0.099972285,0.0,0.0,0.0
297,1778662488.8748498,0.91625214,-0.22508036,0.099972285,0.0,0.0,0.0
298,1778662488.884851,0.91625214,-0.22508036,0.099972285,0.0,0.0,0.0
299,1778662488.8948522,0.91625214,-0.22508036,0.099972285,0.0,0.0,0.0
300,1778662488.904854,0.91625214,-0.22508036,0.099972285,0.0,0.0,0.0
301,1778662488.9148552,0.91625214,-0.22508036,0.099972285,0.0,0.0,0.0
302,1778662488.9248564,0.91625214,-0.22508036,0.099972285,0.0,0.0,0.0
303,1778662488.9348578,0.80691457,-0.28755894,0.025778176,0.0,0.0,0.0
304,1778662488.9448595,0.80691457,-0.28755894,0.025778176,0.0,0.0,0.0
305,1778662488.9548614,0.80691457,-0.28755894,0.025778176,0.0,0.0,0.0
306,1778662488.9648638,0.80691457,-0.28755894,0.025778176,0.0,0.0,0.0
307,1778662488.974867,0.80691457,-0.28755894,0.025778176,0.0,0.0,0.0
308,1778662488.984869,0.80691457,-0.28755894,0.025778176,0.0,0.0,0.0
309,1778662488.994874,0.80691457,-0.28755894,0.025778176,0.0,0.0,0.0
310,1778662489.004878,0.80691457,-0.28755894,0.025778176,0.0,0.0,0.0
311,1778662489.0148804,0.80691457,-0.28755894,0.025778176,0.0,0.0,0.0
312,1778662489.0248818,0.80691457,-0.28755894,0.025778176,0.0,0.0,0.0
313,1778662489.0348845,0.80691457,-0.28755894,0.025778176,0.0,0.0,0.0
314,1778662489.0448873,0.80691457,-0.28755894,0.025778176,0.0,0.0,0.0
315,1778662489.054888,0.80691457,-0.28755894,0.025778176,0.0,0.0,0.0
316,1778662489.0648897,0.80691457,-0.28755894,0.025778176,0.0,0.0,0.0
317,1778662489.0748923,0.74834013,-0.30317858,-0.009366812,0.0,0.0,0.0
318,1778662489.0848932,0.74834013,-0.30317858,-0.009366812,0.0,0.0,0.0
319,1778662489.0948946,0.74834013,-0.30317858,-0.009366812,0.0,0.0,0.0
320,1778662489.1048968,0.74834013,-0.30317858,-0.009366812,0.0,0.0,0.0
321,1778662489.1148982,0.74834013,-0.30317858,-0.009366812,0.0,0.0,0.0
322,1778662489.1248999,0.74834013,-0.30317858,-0.009366812,0.0,0.0,0.0
323,1778662489.1349015,0.74834013,-0.30317858,-0.009366812,0.0,0.0,0.0
324,1778662489.1449037,0.74834013,-0.30317858,-0.009366812,0.0,0.0,0.0
325,1778662489.154905,0.74834013,-0.30317858,-0.009366812,0.0,0.0,0.0
326,1778662489.1649058,0.74834013,-0.30317858,-0.009366812,0.0,0.0,0.0
327,1778662489.1749072,0.74834013,-0.30317858,-0.009366812,0.0,0.0,0.0
328,1778662489.1849089,0.74834013,-0.30317858,-0.009366812,0.0,0.0,0.0
329,1778662489.19491,0.74834013,-0.30317858,-0.009366812,0.0,0.0,0.0
330,1778662489.2049117,0.74834013,-0.30317858,-0.009366812,0.0,0.0,0.0
331,1778662489.2149134,0.74834013,-0.30317858,-0.009366812,0.0,0.0,0.0
332,1778662489.2249146,0.74834013,-0.30317858,-0.009366812,0.0,0.0,0.0
333,1778662489.2349174,0.74834013,-0.30317858,-0.009366812,0.0,0.0,0.0
334,1778662489.2449195,0.74834013,-0.30317858,-0.009366812,0.0,0.0,0.0
335,1778662489.2549207,0.74834013,-0.30317858,-0.009366812,0.0,0.0,0.0
336,1778662489.2649221,0.74834013,-0.30317858,-0.009366812,0.0,0.0,0.0
337,1778662489.274923,0.74834013,-0.30317858,-0.009366812,0.0,0.0,0.0
338,1778662489.2849243,0.74834013,-0.30317858,-0.009366812,0.0,0.0,0.0
339,1778662489.2949262,0.63509846,-0.32660806,-0.032796286,0.0,0.0,0.0
340,1778662489.3049273,0.63509846,-0.32660806,-0.032796286,0.0,0.0,0.0
341,1778662489.3149307,0.63509846,-0.32660806,-0.032796286,0.0,0.0,0.0
342,1778662489.3249333,0.63509846,-0.32660806,-0.032796286,0.0,0.0,0.0
343,1778662489.3349347,0.63509846,-0.32660806,-0.032796286,0.0,0.0,0.0
344,1778662489.3449361,0.63509846,-0.32660806,-0.032796286,0.0,0.0,0.0
345,1778662489.3549397,0.63509846,-0.32660806,-0.032796286,0.0,0.0,0.0
346,1778662489.3649411,0.63509846,-0.32660806,-0.032796286,0.0,0.0,0.0
347,1778662489.3749428,0.63509846,-0.32660806,-0.032796286,0.0,0.0,0.0
348,1778662489.3849442,0.6429083,-0.32270393,-0.02498646,0.0,0.0,0.0
349,1778662489.394945,0.6429083,-0.32270393,-0.02498646,0.0,0.0,0.0
350,1778662489.4049459,0.6429083,-0.32270393,-0.02498646,0.0,0.0,0.0
351,1778662489.4149466,0.6429083,-0.32270393,-0.02498646,0.0,0.0,0.0
352,1778662489.424948,0.6429083,-0.32270393,-0.02498646,0.0,0.0,0.0
353,1778662489.4349535,0.6429083,-0.32270393,-0.02498646,0.0,0.0,0.0
354,1778662489.4449549,0.6429083,-0.32270393,-0.02498646,0.0,0.0,0.0
355,1778662489.454957,0.6429083,-0.32270393,-0.02498646,0.0,0.0,0.0
356,1778662489.4649582,0.7756753,-0.29146463,0.08044694,0.0,0.0,0.0
357,1778662489.4749594,0.7756753,-0.29146463,0.08044694,0.0,0.0,0.0
358,1778662489.4849646,0.7756753,-0.29146463,0.08044694,0.0,0.0,0.0
359,1778662489.494967,0.7756753,-0.29146463,0.08044694,0.0,0.0,0.0
360,1778662489.504971,0.7756753,-0.29146463,0.08044694,0.0,0.0,0.0
361,1778662489.514975,0.6429083,-0.32270393,-0.02498646,0.0,0.0,0.0
362,1778662489.5250518,0.6429083,-0.32270393,-0.02498646,0.0,0.0,0.0
363,1778662489.5350552,0.6429083,-0.32270393,-0.02498646,0.0,0.0,0.0
364,1778662489.5450575,0.6429083,-0.32270393,-0.02498646,0.0,0.0,0.0
365,1778662489.5550592,0.6429083,-0.32270393,-0.02498646,0.0,0.0,0.0
366,1778662489.565062,0.6429083,-0.32270393,-0.02498646,0.0,0.0,0.0
367,1778662489.5750654,0.6429083,-0.32270393,-0.02498646,0.0,0.0,0.0
368,1778662489.5850666,0.6429083,-0.32270393,-0.02498646,0.0,0.0,0.0
369,1778662489.5950694,0.6429083,-0.32270393,-0.02498646,0.0,0.0,0.0
370,1778662489.605072,0.6429083,-0.32270393,-0.02498646,0.0,0.0,0.0
371,1778662489.6150737,0.6429083,-0.32270393,-0.02498646,0.0,0.0,0.0
372,1778662489.6250775,0.6429083,-0.32270393,-0.02498646,0.0,0.0,0.0
373,1778662489.6350791,0.6429083,-0.32270393,-0.02498646,0.0,0.0,0.0
374,1778662489.6450796,0.6429083,-0.32270393,-0.02498646,0.0,0.0,0.0
375,1778662489.6550827,0.6429083,-0.32270393,-0.02498646,0.0,0.0,0.0
376,1778662489.665085,0.6429083,-0.32270393,-0.02498646,0.0,0.0,0.0
377,1778662489.6750884,0.6429083,-0.32270393,-0.02498646,0.0,0.0,0.0
378,1778662489.6850915,0.6429083,-0.32270393,-0.02498646,0.0,0.0,0.0
379,1778662489.6950943,0.6429083,-0.32270393,-0.02498646,0.0,0.0,0.0
380,1778662489.7050958,0.6429083,-0.32270393,-0.02498646,0.0,0.0,0.0
381,1778662489.7150974,0.8459637,-0.2719393,0.11949607,0.0,0.0,0.0
382,1778662489.7250988,0.8459637,-0.2719393,0.11949607,0.0,0.0,0.0
383,1778662489.7351005,0.8459637,-0.2719393,0.11949607,0.0,0.0,0.0
384,1778662489.7451036,0.8459637,-0.2719393,0.11949607,0.0,0.0,0.0
385,1778662489.7551057,0.8459637,-0.2719393,0.11949607,0.0,0.0,0.0
386,1778662489.7651088,0.8459637,-0.2719393,0.11949607,0.0,0.0,0.0
387,1778662489.7751112,0.8459637,-0.2719393,0.11949607,0.0,0.0,0.0
388,1778662489.7851124,0.8459637,-0.2719393,0.11949607,0.0,0.0,0.0
389,1778662489.7951152,0.8459637,-0.2719393,0.11949607,0.0,0.0,0.0
390,1778662489.8051186,0.8459637,-0.2719393,0.11949607,0.0,0.0,0.0
391,1778662489.8151207,0.8459637,-0.2719393,0.11949607,0.0,0.0,0.0
392,1778662489.825123,0.8459637,-0.2719393,0.11949607,0.0,0.0,0.0
393,1778662489.835124,0.8459637,-0.2719393,0.11949607,0.0,0.0,0.0
394,1778662489.8451257,0.8459637,-0.2719393,0.11949607,0.0,0.0,0.0
395,1778662489.8551273,0.8459637,-0.2719393,0.11949607,0.0,0.0,0.0
396,1778662489.8651285,0.8459637,-0.2719393,0.11949607,0.0,0.0,0.0
397,1778662489.8751314,0.8459637,-0.2719393,0.11949607,0.0,0.0,0.0
398,1778662489.885138,0.91625214,-0.24850982,0.17416483,0.0,0.0,0.0
399,1778662489.8951406,0.91625214,-0.24850982,0.17416483,0.0,0.0,0.0
400,1778662489.9051425,0.97873074,-0.19774674,0.24054912,0.0,0.0,0.0
401,1778662489.9151483,0.97873074,-0.19774674,0.24054912,0.0,0.0,0.0
402,1778662489.9251509,0.97873074,-0.19774674,0.24054912,0.0,0.0,0.0
403,1778662489.9351532,0.97873074,-0.19774674,0.24054912,0.0,0.0,0.0
404,1778662489.9451542,0.97873074,-0.19774674,0.24054912,0.0,0.0,0.0
405,1778662489.9551554,0.97873074,-0.19774674,0.24054912,0.0,0.0,0.0
406,1778662489.9651563,0.97873074,-0.19774674,0.24054912,0.0,0.0,0.0
407,1778662489.975157,0.97873074,-0.19774674,0.24054912,0.0,0.0,0.0
408,1778662489.985159,1.056829,-0.049358524,0.38893577,0.0,0.0,0.0
409,1778662489.9951606,1.056829,-0.049358524,0.38893577,0.0,0.0,0.0
410,1778662490.0051618,1.056829,-0.049358524,0.38893577,0.0,0.0,0.0
411,1778662490.0151649,1.056829,-0.049358524,0.38893577,0.0,0.0,0.0
412,1778662490.025167,1.056829,-0.049358524,0.38893577,0.0,0.0,0.0
413,1778662490.0351706,1.056829,-0.049358524,0.38893577,0.0,0.0,0.0
414,1778662490.0451744,1.056829,-0.049358524,0.38893577,0.0,0.0,0.0
415,1778662490.0551822,1.056829,-0.049358524,0.38893577,0.0,0.0,0.0
416,1778662490.0651846,1.056829,-0.049358524,0.38893577,0.0,0.0,0.0
417,1778662490.0751872,1.056829,-0.049358524,0.38893577,0.0,0.0,0.0
418,1778662490.0851886,1.056829,-0.049358524,0.38893577,0.0,0.0,0.0
419,1778662490.095192,1.056829,-0.049358524,0.38893577,0.0,0.0,0.0
420,1778662490.105195,1.056829,-0.049358524,0.38893577,0.0,0.0,0.0
421,1778662490.1151965,1.056829,-0.049358524,0.38893577,0.0,0.0,0.0
422,1778662490.1251986,1.056829,-0.049358524,0.38893577,0.0,0.0,0.0
423,1778662490.1352012,1.056829,-0.049358524,0.38893577,0.0,0.0,0.0
424,1778662490.1452022,1.056829,-0.049358524,0.38893577,0.0,0.0,0.0
425,1778662490.1552033,1.056829,-0.049358524,0.38893577,0.0,0.0,0.0
426,1778662490.1652057,1.056829,-0.049358524,0.38893577,0.0,0.0,0.0
427,1778662490.175208,1.056829,-0.049358524,0.38893577,0.0,0.0,0.0
428,1778662490.185211,1.056829,-0.049358524,0.38893577,0.0,0.0,0.0
429,1778662490.195212,1.056829,-0.049358524,0.38893577,0.0,0.0,0.0
430,1778662490.2052145,1.056829,-0.049358524,0.38893577,0.0,0.0,0.0
431,1778662490.215216,1.056829,-0.049358524,0.38893577,0.0,0.0,0.0
432,1778662490.2252169,1.056829,-0.049358524,0.38893577,0.0,0.0,0.0
433,1778662490.2352188,1.056829,-0.049358524,0.38893577,0.0,0.0,0.0
434,1778662490.2452204,1.056829,-0.049358524,0.38893577,0.0,0.0,0.0
435,1778662490.2552216,1.056829,-0.049358524,0.38893577,0.0,0.0,0.0
436,1778662490.2652237,1.1036879,0.09512245,0.5099873,0.0,0.0,0.0
437,1778662490.2752252,1.1036879,0.09512245,0.5099873,0.0,0.0,0.0
438,1778662490.2852283,1.1036879,0.09512245,0.5099873,0.0,0.0,0.0
439,1778662490.2952309,1.1036879,0.09512245,0.5099873,0.0,0.0,0.0
440,1778662490.305234,1.1036879,0.09512245,0.5099873,0.0,0.0,0.0
441,1778662490.3152356,1.1036879,0.09512245,0.5099873,0.0,0.0,0.0
442,1778662490.3252378,1.1036879,0.09512245,0.5099873,0.0,0.0,0.0
443,1778662490.335239,1.1036879,0.09512245,0.5099873,0.0,0.0,0.0
444,1778662490.3452404,1.1036879,0.09512245,0.5099873,0.0,0.0,0.0
445,1778662490.3552423,1.1036879,0.09512245,0.5099873,0.0,0.0,0.0
446,1778662490.3652432,1.1036879,0.09512245,0.5099873,0.0,0.0,0.0
447,1778662490.3752449,1.1036879,0.09512245,0.5099873,0.0,0.0,0.0
448,1778662490.385247,1.1036879,0.09512245,0.5099873,0.0,0.0,0.0
449,1778662490.395248,1.1036879,0.09512245,0.5099873,0.0,0.0,0.0
450,1778662490.4052513,1.1036879,0.09512245,0.5099873,0.0,0.0,0.0
451,1778662490.415253,1.0841641,0.036549542,0.4553185,0.0,0.0,0.0
452,1778662490.4252543,1.0841641,0.036549542,0.4553185,0.0,0.0,0.0
453,1778662490.4352562,1.0841641,0.036549542,0.4553185,0.0,0.0,0.0
454,1778662490.4452577,1.0841641,0.036549542,0.4553185,0.0,0.0,0.0
455,1778662490.4552605,1.0841641,0.036549542,0.4553185,0.0,0.0,0.0
456,1778662490.4652631,1.0841641,0.036549542,0.4553185,0.0,0.0,0.0
457,1778662490.4752676,1.0841641,0.036549542,0.4553185,0.0,0.0,0.0
458,1778662490.4852715,1.1271174,0.16541086,0.5490364,0.0,0.0,0.0
459,1778662490.4952743,1.1271174,0.16541086,0.5490364,0.0,0.0,0.0
460,1778662490.505276,1.1271174,0.16541086,0.5490364,0.0,0.0,0.0
461,1778662490.5152793,1.1271174,0.16541086,0.5490364,0.0,0.0,0.0
462,1778662490.5252821,1.1271174,0.16541086,0.5490364,0.0,0.0,0.0
463,1778662490.5352857,1.1271174,0.16541086,0.5490364,0.0,0.0,0.0
464,1778662490.5452878,1.1271174,0.16541086,0.5490364,0.0,0.0,0.0
465,1778662490.5552895,1.1271174,0.16541086,0.5490364,0.0,0.0,0.0
466,1778662490.5652914,1.1271174,0.16541086,0.5490364,0.0,0.0,0.0
467,1778662490.5752935,1.1271174,0.16541086,0.5490364,0.0,0.0,0.0
468,1778662490.585294,1.1271174,0.16541086,0.5490364,0.0,0.0,0.0
469,1778662490.595298,1.1271174,0.16541086,0.5490364,0.0,0.0,0.0
470,1778662490.605301,1.1271174,0.16541086,0.5490364,0.0,0.0,0.0
471,1778662490.6153023,1.1271174,0.16541086,0.5490364,0.0,0.0,0.0
472,1778662490.6253054,1.1271174,0.16541086,0.5490364,0.0,0.0,0.0
473,1778662490.635309,1.1271174,0.16541086,0.5490364,0.0,0.0,0.0
474,1778662490.6453104,1.1271174,0.16541086,0.5490364,0.0,0.0,0.0
475,1778662490.6553133,1.1271174,0.16541086,0.5490364,0.0,0.0,0.0
476,1778662490.6653154,1.1271174,0.16541086,0.5490364,0.0,0.0,0.0
477,1778662490.6753187,1.1271174,0.16541086,0.5490364,0.0,0.0,0.0
478,1778662490.685322,1.1271174,0.16541086,0.5490364,0.0,0.0,0.0
479,1778662490.695324,1.1271174,0.16541086,0.5490364,0.0,0.0,0.0
480,1778662490.705328,1.1271174,0.16541086,0.5490364,0.0,0.0,0.0
481,1778662490.715331,1.1271174,0.16541086,0.5490364,0.0,0.0,0.0
482,1778662490.7253323,1.1271174,0.16541086,0.5490364,0.0,0.0,0.0
483,1778662490.735334,1.1544526,0.26303443,0.58418137,0.0,0.0,0.0
484,1778662490.7453353,1.1544526,0.26303443,0.58418137,0.0,0.0,0.0
485,1778662490.7553365,1.1544526,0.26303443,0.58418137,0.0,0.0,0.0
486,1778662490.765339,1.1544526,0.26303443,0.58418137,0.0,0.0,0.0
487,1778662490.7753572,1.1544526,0.26303443,0.58418137,0.0,0.0,0.0
488,1778662490.7853587,1.1544526,0.26303443,0.58418137,0.0,0.0,0.0
489,1778662490.7953594,1.1544526,0.26303443,0.58418137,0.0,0.0,0.0
490,1778662490.80536,1.1544526,0.26303443,0.58418137,0.0,0.0,0.0
491,1778662490.8153615,1.1544526,0.26303443,0.58418137,0.0,0.0,0.0
492,1778662490.8253624,1.1544526,0.26303443,0.58418137,0.0,0.0,0.0
493,1778662490.835363,1.1544526,0.26303443,0.58418137,0.0,0.0,0.0
494,1778662490.845365,1.1544526,0.26303443,0.58418137,0.0,0.0,0.0
495,1778662490.8553667,1.1544526,0.26303443,0.58418137,0.0,0.0,0.0
496,1778662490.865368,1.1544526,0.26303443,0.58418137,0.0,0.0,0.0
497,1778662490.8753707,1.1544526,0.26303443,0.58418137,0.0,0.0,0.0
498,1778662490.8853724,1.1544526,0.26303443,0.58418137,0.0,0.0,0.0
499,1778662490.8953733,1.1544526,0.26303443,0.58418137,0.0,0.0,0.0
500,1778662490.9053748,1.1544526,0.26303443,0.58418137,0.0,0.0,0.0
501,1778662490.9153762,1.1544526,0.26303443,0.58418137,0.0,0.0,0.0
502,1778662490.9253774,1.1544526,0.26303443,0.58418137,0.0,0.0,0.0
503,1778662490.9353793,1.1544526,0.26303443,0.58418137,0.0,0.0,0.0
504,1778662490.945381,1.1544526,0.26303443,0.58418137,0.0,0.0,0.0
505,1778662490.955382,1.1544526,0.26303443,0.58418137,0.0,0.0,0.0
506,1778662490.9653835,1.1544526,0.26303443,0.58418137,0.0,0.0,0.0
507,1778662490.975386,1.1544526,0.26303443,0.58418137,0.0,0.0,0.0
508,1778662490.9853883,1.1544526,0.26303443,0.58418137,0.0,0.0,0.0
509,1778662490.9953911,1.1544526,0.26303443,0.58418137,0.0,0.0,0.0
510,1778662491.0053928,1.1544526,0.26303443,0.58418137,0.0,0.0,0.0
511,1778662491.0153933,1.1544526,0.26303443,0.58418137,0.0,0.0,0.0
512,1778662491.0253947,1.1544526,0.26303443,0.58418137,0.0,0.0,0.0
513,1778662491.0353956,1.1544526,0.26303443,0.58418137,0.0,0.0,0.0
514,1778662491.0453978,1.1544526,0.26303443,0.58418137,0.0,0.0,0.0
515,1778662491.0553992,1.0880682,0.337227,0.48265368,0.0,0.0,0.0
516,1778662491.0654004,1.0880682,0.337227,0.48265368,0.0,0.0,0.0
517,1778662491.075402,1.0880682,0.337227,0.48265368,0.0,0.0,0.0
518,1778662491.085404,1.0880682,0.337227,0.48265368,0.0,0.0,0.0
519,1778662491.0954044,1.0880682,0.337227,0.48265368,0.0,0.0,0.0
520,1778662491.1054058,1.0880682,0.337227,0.48265368,0.0,0.0,0.0
521,1778662491.1154113,1.0880682,0.337227,0.48265368,0.0,0.0,0.0
522,1778662491.1254141,1.0880682,0.337227,0.48265368,0.0,0.0,0.0
523,1778662491.135415,1.0880682,0.337227,0.48265368,0.0,0.0,0.0
524,1778662491.1454177,1.0880682,0.337227,0.48265368,0.0,0.0,0.0
525,1778662491.1554193,1.0880682,0.337227,0.48265368,0.0,0.0,0.0
526,1778662491.1654203,1.0880682,0.337227,0.48265368,0.0,0.0,0.0
527,1778662491.1754215,1.0880682,0.337227,0.48265368,0.0,0.0,0.0
528,1778662491.185423,1.0880682,0.337227,0.48265368,0.0,0.0,0.0
529,1778662491.195425,1.0880682,0.337227,0.48265368,0.0,0.0,0.0
530,1778662491.2054257,1.0880682,0.337227,0.48265368,0.0,0.0,0.0
531,1778662491.2154279,1.0880682,0.337227,0.48265368,0.0,0.0,0.0
532,1778662491.2254293,1.0880682,0.337227,0.48265368,0.0,0.0,0.0
533,1778662491.235431,1.0880682,0.337227,0.48265368,0.0,0.0,0.0
534,1778662491.2454324,1.0880682,0.337227,0.48265368,0.0,0.0,0.0
535,1778662491.2554348,1.0880682,0.337227,0.48265368,0.0,0.0,0.0
536,1778662491.265436,1.0880682,0.337227,0.48265368,0.0,0.0,0.0
537,1778662491.2754376,1.0880682,0.337227,0.48265368,0.0,0.0,0.0
538,1778662491.2854397,1.0880682,0.337227,0.48265368,0.0,0.0,0.0
539,1778662491.2954414,1.0880682,0.337227,0.48265368,0.0,0.0,0.0
540,1778662491.3054426,1.0880682,0.337227,0.48265368,0.0,0.0,0.0
541,1778662491.3154435,1.0880682,0.337227,0.48265368,0.0,0.0,0.0
542,1778662491.3254466,1.0880682,0.337227,0.48265368,0.0,0.0,0.0
543,1778662491.3354495,1.0880682,0.337227,0.48265368,0.0,0.0,0.0
544,1778662491.3454504,1.0880682,0.337227,0.48265368,0.0,0.0,0.0
545,1778662491.3554518,1.0880682,0.337227,0.48265368,0.0,0.0,0.0
546,1778662491.365453,1.0880682,0.337227,0.48265368,0.0,0.0,0.0
547,1778662491.3754537,1.0880682,0.337227,0.48265368,0.0,0.0,0.0
548,1778662491.3854542,1.0880682,0.337227,0.48265368,0.0,0.0,0.0
549,1778662491.395456,1.0138757,0.42704076,0.27178842,0.0,0.0,0.0
550,1778662491.4054575,1.0138757,0.42704076,0.27178842,0.0,0.0,0.0
551,1778662491.4154582,1.0138757,0.42704076,0.27178842,0.0,0.0,0.0
552,1778662491.4254591,1.0138757,0.42704076,0.27178842,0.0,0.0,0.0
553,1778662491.4355125,1.0138757,0.42704076,0.27178842,0.0,0.0,0.0
554,1778662491.4455152,1.0138757,0.42704076,0.27178842,0.0,0.0,0.0
555,1778662491.4555173,1.0138757,0.42704076,0.27178842,0.0,0.0,0.0
556,1778662491.4655201,1.0138757,0.42704076,0.27178842,0.0,0.0,0.0
557,1778662491.475522,1.0138757,0.42704076,0.27178842,0.0,0.0,0.0
558,1778662491.485523,1.0138757,0.42704076,0.27178842,0.0,0.0,0.0
559,1778662491.4955246,1.0138757,0.42704076,0.27178842,0.0,0.0,0.0
560,1778662491.5055265,1.0138757,0.42704076,0.27178842,0.0,0.0,0.0
561,1778662491.5155275,1.0138757,0.42704076,0.27178842,0.0,0.0,0.0
562,1778662491.5255287,1.0138757,0.42704076,0.27178842,0.0,0.0,0.0
563,1778662491.5355291,1.0138757,0.42704076,0.27178842,0.0,0.0,0.0
564,1778662491.5455306,1.0373052,0.4621842,0.22492947,0.0,0.0,0.0
565,1778662491.5555317,1.0373052,0.4621842,0.22492947,0.0,0.0,0.0
566,1778662491.5655324,1.0373052,0.4621842,0.22492947,0.0,0.0,0.0
567,1778662491.5755343,1.0373052,0.4621842,0.22492947,0.0,0.0,0.0
568,1778662491.5855358,1.0373052,0.4621842,0.22492947,0.0,0.0,0.0
569,1778662491.5955365,1.0373052,0.4621842,0.22492947,0.0,0.0,0.0
570,1778662491.6055381,1.0373052,0.4621842,0.22492947,0.0,0.0,0.0
571,1778662491.6155393,1.0373052,0.4621842,0.22492947,0.0,0.0,0.0
572,1778662491.625541,1.0373052,0.4621842,0.22492947,0.0,0.0,0.0
573,1778662491.6355436,1.0373052,0.4621842,0.22492947,0.0,0.0,0.0
574,1778662491.645545,1.0373052,0.4621842,0.22492947,0.0,0.0,0.0
575,1778662491.655546,1.0373052,0.4621842,0.22492947,0.0,0.0,0.0
576,1778662491.665547,1.0373052,0.4621842,0.22492947,0.0,0.0,0.0
577,1778662491.6755483,1.0373052,0.4621842,0.22492947,0.0,0.0,0.0
578,1778662491.6855495,1.0373052,0.4621842,0.22492947,0.0,0.0,0.0
579,1778662491.695551,1.0373052,0.4621842,0.22492947,0.0,0.0,0.0
580,1778662491.7055519,1.0373052,0.4621842,0.22492947,0.0,0.0,0.0
581,1778662491.7155528,1.0373052,0.4621842,0.22492947,0.0,0.0,0.0
582,1778662491.7255538,1.0373052,0.4621842,0.22492947,0.0,0.0,0.0
583,1778662491.7355552,1.0373052,0.4621842,0.22492947,0.0,0.0,0.0
584,1778662491.745556,1.0373052,0.4621842,0.22492947,0.0,0.0,0.0
585,1778662491.7555568,1.0373052,0.4621842,0.22492947,0.0,0.0,0.0
586,1778662491.7655582,1.0607346,0.505139,0.19369018,0.0,0.0,0.0
587,1778662491.7755606,1.0607346,0.505139,0.19369018,0.0,0.0,0.0
588,1778662491.7855613,1.0607346,0.505139,0.19369018,0.0,0.0,0.0
589,1778662491.7955627,1.0607346,0.505139,0.19369018,0.0,0.0,0.0
590,1778662491.8055642,1.0607346,0.505139,0.19369018,0.0,0.0,0.0
591,1778662491.8155649,1.0607346,0.505139,0.19369018,0.0,0.0,0.0
592,1778662491.8255665,1.0607346,0.505139,0.19369018,0.0,0.0,0.0
593,1778662491.8355699,1.0607346,0.505139,0.19369018,0.0,0.0,0.0
594,1778662491.8455732,1.0646389,0.60666674,0.13121158,0.0,0.0,0.0
595,1778662491.8555746,1.0646389,0.60666674,0.13121158,0.0,0.0,0.0
596,1778662491.8655753,1.0646389,0.60666674,0.13121158,0.0,0.0,0.0
597,1778662491.875577,1.0646389,0.60666674,0.13121158,0.0,0.0,0.0
598,1778662491.885578,1.0646389,0.60666674,0.13121158,0.0,0.0,0.0
599,1778662491.8955786,1.0646389,0.60666674,0.13121158,0.0,0.0,0.0
600,1778662491.9055812,1.0646389,0.60666674,0.13121158,0.0,0.0,0.0
601,1778662491.9155824,1.0646389,0.60666674,0.13121158,0.0,0.0,0.0
602,1778662491.9255838,1.0646389,0.60666674,0.13121158,0.0,0.0,0.0
603,1778662491.9355862,1.0646389,0.60666674,0.13121158,0.0,0.0,0.0
604,1778662491.9455874,1.0646389,0.60666674,0.13121158,0.0,0.0,0.0
605,1778662491.955589,1.0646389,0.60666674,0.13121158,0.0,0.0,0.0
606,1778662491.9655902,1.0646389,0.60666674,0.13121158,0.0,0.0,0.0
607,1778662491.9755995,1.0646389,0.60666674,0.13121158,0.0,0.0,0.0
608,1778662491.9856007,1.0646389,0.60666674,0.13121158,0.0,0.0,0.0
609,1778662491.9956012,1.0646389,0.60666674,0.13121158,0.0,0.0,0.0
610,1778662492.0056024,1.0646389,0.60666674,0.13121158,0.0,0.0,0.0
611,1778662492.0156043,1.0607346,0.505139,0.19369018,0.0,0.0,0.0
612,1778662492.0256052,1.0607346,0.505139,0.19369018,0.0,0.0,0.0
613,1778662492.035606,1.0607346,0.505139,0.19369018,0.0,0.0,0.0
614,1778662492.0456076,1.0607346,0.505139,0.19369018,0.0,0.0,0.0
615,1778662492.0556092,1.0607346,0.505139,0.19369018,0.0,0.0,0.0
616,1778662492.0656128,1.0607346,0.505139,0.19369018,0.0,0.0,0.0
617,1778662492.0756142,1.0607346,0.505139,0.19369018,0.0,0.0,0.0
618,1778662492.0856154,1.0607346,0.505139,0.19369018,0.0,0.0,0.0
619,1778662492.0956166,1.0607346,0.505139,0.19369018,0.0,0.0,0.0
620,1778662492.1056178,1.0607346,0.505139,0.19369018,0.0,0.0,0.0
621,1778662492.1156201,1.0607346,0.505139,0.19369018,0.0,0.0,0.0
622,1778662492.1256218,1.0607346,0.505139,0.19369018,0.0,0.0,0.0
623,1778662492.1356227,1.0607346,0.505139,0.19369018,0.0,0.0,0.0
624,1778662492.1456246,1.0607346,0.505139,0.19369018,0.0,0.0,0.0
625,1778662492.1556258,1.0607346,0.505139,0.19369018,0.0,0.0,0.0
626,1778662492.1656268,1.0607346,0.505139,0.19369018,0.0,0.0,0.0
627,1778662492.175629,1.0607346,0.505139,0.19369018,0.0,0.0,0.0
628,1778662492.1856303,1.0607346,0.505139,0.19369018,0.0,0.0,0.0
629,1778662492.1956308,1.0607346,0.505139,0.19369018,0.0,0.0,0.0
630,1778662492.2056322,1.0607346,0.637906,0.1273059,0.0,0.0,0.0
631,1778662492.2156332,1.0607346,0.637906,0.1273059,0.0,0.0,0.0
632,1778662492.2256343,1.0607346,0.637906,0.1273059,0.0,0.0,0.0
633,1778662492.2356358,1.0607346,0.637906,0.1273059,0.0,0.0,0.0
634,1778662492.245637,1.0607346,0.637906,0.1273059,0.0,0.0,0.0
635,1778662492.2556393,1.0607346,0.637906,0.1273059,0.0,0.0,0.0
636,1778662492.2656415,1.0607346,0.637906,0.1273059,0.0,0.0,0.0
637,1778662492.2756438,1.0607346,0.637906,0.1273059,0.0,0.0,0.0
638,1778662492.2856479,1.0607346,0.637906,0.1273059,0.0,0.0,0.0
639,1778662492.2956498,1.0607346,0.637906,0.1273059,0.0,0.0,0.0
640,1778662492.3056502,1.0607346,0.637906,0.1273059,0.0,0.0,0.0
641,1778662492.3156512,1.0607346,0.637906,0.1273059,0.0,0.0,0.0
642,1778662492.3256533,1.0607346,0.637906,0.1273059,0.0,0.0,0.0
643,1778662492.3356543,1.0607346,0.637906,0.1273059,0.0,0.0,0.0
644,1778662492.3456552,1.0607346,0.637906,0.1273059,0.0,0.0,0.0
645,1778662492.355657,1.0607346,0.637906,0.1273059,0.0,0.0,0.0
646,1778662492.365659,1.0607346,0.637906,0.1273059,0.0,0.0,0.0
647,1778662492.3756602,1.0607346,0.637906,0.1273059,0.0,0.0,0.0
648,1778662492.385661,1.0607346,0.637906,0.1273059,0.0,0.0,0.0
649,1778662492.3956618,1.0333995,0.75114924,0.23664343,0.0,0.0,0.0
650,1778662492.4056625,1.0333995,0.75114924,0.23664343,0.0,0.0,0.0
651,1778662492.4156632,1.0333995,0.75114924,0.23664343,0.0,0.0,0.0
652,1778662492.4256642,1.0333995,0.75114924,0.23664343,0.0,0.0,0.0
653,1778662492.4356654,1.0333995,0.75114924,0.23664343,0.0,0.0,0.0
654,1778662492.445666,1.0333995,0.75114924,0.23664343,0.0,0.0,0.0
655,1778662492.4556673,1.0333995,0.75114924,0.23664343,0.0,0.0,0.0
656,1778662492.4656682,1.0333995,0.75114924,0.23664343,0.0,0.0,0.0
657,1778662492.4756687,1.0333995,0.75114924,0.23664343,0.0,0.0,0.0
658,1778662492.48567,1.0216856,0.8019123,0.28740805,0.0,0.0,0.0
659,1778662492.495671,1.0216856,0.8019123,0.28740805,0.0,0.0,0.0
660,1778662492.5056717,1.0216856,0.8019123,0.28740805,0.0,0.0,0.0
661,1778662492.5156734,1.0216856,0.8019123,0.28740805,0.0,0.0,0.0
662,1778662492.525675,1.0216856,0.8019123,0.28740805,0.0,0.0,0.0
663,1778662492.535676,1.0216856,0.8019123,0.28740805,0.0,0.0,0.0
664,1778662492.545706,1.0216856,0.8019123,0.28740805,0.0,0.0,0.0
665,1778662492.555707,1.0216856,0.8019123,0.28740805,0.0,0.0,0.0
666,1778662492.5657086,1.0216856,0.8019123,0.28740805,0.0,0.0,0.0
667,1778662492.5757096,1.0216856,0.8019123,0.28740805,0.0,0.0,0.0
668,1778662492.5857105,1.0216856,0.8019123,0.28740805,0.0,0.0,0.0
669,1778662492.595712,1.0216856,0.8019123,0.28740805,0.0,0.0,0.0
670,1778662492.6057131,1.0216856,0.8019123,0.28740805,0.0,0.0,0.0
671,1778662492.615715,1.0216856,0.8019123,0.28740805,0.0,0.0,0.0
672,1778662492.6257162,1.0216856,0.8019123,0.28740805,0.0,0.0,0.0
673,1778662492.6357217,1.0216856,0.8019123,0.28740805,0.0,0.0,0.0
674,1778662492.6457255,1.0216856,0.8019123,0.28740805,0.0,0.0,0.0
675,1778662492.6557276,1.0216856,0.8019123,0.28740805,0.0,0.0,0.0
676,1778662492.6657286,1.0216856,0.8019123,0.28740805,0.0,0.0,0.0
677,1778662492.67573,1.0216856,0.8019123,0.28740805,0.0,0.0,0.0
678,1778662492.685731,1.0216856,0.8019123,0.28740805,0.0,0.0,0.0
679,1778662492.6957319,1.0216856,0.8019123,0.28740805,0.0,0.0,0.0
680,1778662492.7057338,1.0216856,0.8019123,0.28740805,0.0,0.0,0.0
681,1778662492.7157352,1.0216856,0.8019123,0.28740805,0.0,0.0,0.0
682,1778662492.7257361,1.0216856,0.8019123,0.28740805,0.0,0.0,0.0
683,1778662492.7357373,1.0216856,0.8019123,0.28740805,0.0,0.0,0.0
684,1778662492.745739,1.0216856,0.8019123,0.28740805,0.0,0.0,0.0
685,1778662492.7557411,1.0216856,0.8019123,0.28740805,0.0,0.0,0.0
686,1778662492.7657433,1.0216856,0.8019123,0.28740805,0.0,0.0,0.0
687,1778662492.7757447,1.0216856,0.8019123,0.28740805,0.0,0.0,0.0
688,1778662492.785747,1.0216856,0.8019123,0.28740805,0.0,0.0,0.0
689,1778662492.7957482,1.0216856,0.8019123,0.28740805,0.0,0.0,0.0
690,1778662492.8057506,1.0216856,0.8019123,0.28740805,0.0,0.0,0.0
691,1778662492.815752,1.0216856,0.8019123,0.28740805,0.0,0.0,0.0
692,1778662492.8257527,1.0216856,0.8019123,0.28740805,0.0,0.0,0.0
693,1778662492.835754,1.0216856,0.8019123,0.28740805,0.0,0.0,0.0
694,1778662492.8457549,1.0216856,0.8019123,0.28740805,0.0,0.0,0.0
695,1778662492.8557558,1.0216856,0.8019123,0.28740805,0.0,0.0,0.0
696,1778662492.8657575,1.0216856,0.8019123,0.28740805,0.0,0.0,0.0
697,1778662492.8757608,1.0216856,0.8019123,0.28740805,0.0,0.0,0.0
698,1778662492.8857641,1.0216856,0.8019123,0.28740805,0.0,0.0,0.0
699,1778662492.8957658,0.9982561,0.9542047,0.37722027,0.0,0.0,0.0
700,1778662492.9057667,0.9982561,0.9542047,0.37722027,0.0,0.0,0.0
701,1778662492.9157689,0.9982561,0.9542047,0.37722027,0.0,0.0,0.0
702,1778662492.9257698,0.9982561,0.9542047,0.37722027,0.0,0.0,0.0
703,1778662492.9357703,0.9982561,0.9542047,0.37722027,0.0,0.0,0.0
704,1778662492.945773,0.9982561,0.9542047,0.37722027,0.0,0.0,0.0
705,1778662492.9557745,1.0216856,0.8019123,0.28740805,0.0,0.0,0.0
706,1778662492.9657757,1.0216856,0.8019123,0.28740805,0.0,0.0,0.0
707,1778662492.9757776,1.0216856,0.8019123,0.28740805,0.0,0.0,0.0
708,1778662492.9857786,1.0216856,0.8019123,0.28740805,0.0,0.0,0.0
709,1778662492.995782,1.0216856,0.8019123,0.28740805,0.0,0.0,0.0
710,1778662493.0057836,1.0216856,0.8019123,0.28740805,0.0,0.0,0.0
711,1778662493.0157845,1.0216856,0.8019123,0.28740805,0.0,0.0,0.0
712,1778662493.0257907,1.0216856,0.8019123,0.28740805,0.0,0.0,0.0
713,1778662493.0357924,1.0216856,0.8019123,0.28740805,0.0,0.0,0.0
714,1778662493.045793,1.0216856,0.8019123,0.28740805,0.0,0.0,0.0
715,1778662493.0557952,1.0216856,0.8019123,0.28740805,0.0,0.0,0.0
716,1778662493.0657973,1.0021602,0.97763413,0.36550632,0.0,0.0,0.0
717,1778662493.0757987,1.0021602,0.97763413,0.36550632,0.0,0.0,0.0
718,1778662493.0858,1.0021602,0.97763413,0.36550632,0.0,0.0,0.0
719,1778662493.0958152,1.0021602,0.97763413,0.36550632,0.0,0.0,0.0
720,1778662493.1058168,1.0021602,0.97763413,0.36550632,0.0,0.0,0.0
721,1778662493.1158178,1.0021602,0.97763413,0.36550632,0.0,0.0,0.0
722,1778662493.1258183,1.0021602,0.97763413,0.36550632,0.0,0.0,0.0
723,1778662493.1358197,1.0021602,0.97763413,0.36550632,0.0,0.0,0.0
724,1778662493.1458213,1.0021602,0.97763413,0.36550632,0.0,0.0,0.0
725,1778662493.1558223,1.0021602,0.97763413,0.36550632,0.0,0.0,0.0
726,1778662493.1658235,1.0021602,0.97763413,0.36550632,0.0,0.0,0.0
727,1778662493.1758244,1.0021602,0.97763413,0.36550632,0.0,0.0,0.0
728,1778662493.185825,1.0021602,0.97763413,0.36550632,0.0,0.0,0.0
729,1778662493.1958258,1.0021602,0.97763413,0.36550632,0.0,0.0,0.0
730,1778662493.2058268,1.0021602,0.97763413,0.36550632,0.0,0.0,0.0
731,1778662493.2158277,1.0021602,0.97763413,0.36550632,0.0,0.0,0.0
732,1778662493.2258291,1.0021602,0.97763413,0.36550632,0.0,0.0,0.0
733,1778662493.2358308,1.0021602,0.97763413,0.36550632,0.0,0.0,0.0
734,1778662493.2458324,1.0021602,0.97763413,0.36550632,0.0,0.0,0.0
735,1778662493.2558336,1.0021602,0.97763413,0.36550632,0.0,0.0,0.0
736,1778662493.2658353,1.0021602,0.97763413,0.36550632,0.0,0.0,0.0
737,1778662493.2758365,1.0021602,0.97763413,0.36550632,0.0,0.0,0.0
738,1778662493.2858374,1.0021602,0.97763413,0.36550632,0.0,0.0,0.0
739,1778662493.295839,0.99044627,1.0166832,0.31474167,0.0,0.0,0.0
740,1778662493.30584,0.99044627,1.0166832,0.31474167,0.0,0.0,0.0
741,1778662493.315841,0.99044627,1.0166832,0.31474167,0.0,0.0,0.0
742,1778662493.3258417,0.99044627,1.0166832,0.31474167,0.0,0.0,0.0
743,1778662493.3358424,0.99044627,1.0166832,0.31474167,0.0,0.0,0.0
744,1778662493.3458436,0.99044627,1.0166832,0.31474167,0.0,0.0,0.0
745,1778662493.3558464,0.97873074,1.032303,0.28350237,0.0,0.0,0.0
746,1778662493.3658488,0.97873074,1.032303,0.28350237,0.0,0.0,0.0
747,1778662493.37585,0.97873074,1.032303,0.28350237,0.0,0.0,0.0
748,1778662493.3858511,0.97873074,1.032303,0.28350237,0.0,0.0,0.0
749,1778662493.395852,0.97873074,1.032303,0.28350237,0.0,0.0,0.0
750,1778662493.405853,0.97873074,1.032303,0.28350237,0.0,0.0,0.0
751,1778662493.415854,0.97873074,1.032303,0.28350237,0.0,0.0,0.0
752,1778662493.4258542,0.97873074,1.032303,0.28350237,0.0,0.0,0.0
753,1778662493.435856,0.97873074,1.032303,0.28350237,0.0,0.0,0.0
754,1778662493.4458573,0.97873074,1.032303,0.28350237,0.0,0.0,0.0
755,1778662493.4558582,0.97873074,1.032303,0.28350237,0.0,0.0,0.0
756,1778662493.4658601,0.97873074,1.032303,0.28350237,0.0,0.0,0.0
757,1778662493.4758625,0.97873074,1.032303,0.28350237,0.0,0.0,0.0
758,1778662493.4858632,0.97873074,1.032303,0.28350237,0.0,0.0,0.0
759,1778662493.4958646,0.9631111,1.1299249,0.23664343,0.0,0.0,0.0
760,1778662493.5058663,0.9631111,1.1299249,0.23664343,0.0,0.0,0.0
761,1778662493.51587,0.9631111,1.1299249,0.23664343,0.0,0.0,0.0
762,1778662493.525876,0.9631111,1.1299249,0.23664343,0.0,0.0,0.0
763,1778662493.5358772,0.9631111,1.1299249,0.23664343,0.0,0.0,0.0
764,1778662493.545878,0.9631111,1.1299249,0.23664343,0.0,0.0,0.0
765,1778662493.5558789,0.9748266,1.1845937,0.23664343,0.0,0.0,0.0
766,1778662493.5658793,0.9748266,1.1845937,0.23664343,0.0,0.0,0.0
767,1778662493.5758805,0.9748266,1.1845937,0.23664343,0.0,0.0,0.0
768,1778662493.585882,1.0060658,1.2353584,0.24445325,0.0,0.0,0.0
769,1778662493.5958836,1.0060658,1.2353584,0.24445325,0.0,0.0,0.0
770,1778662493.605885,1.0060658,1.2353584,0.24445325,0.0,0.0,0.0
771,1778662493.6158857,1.0060658,1.2353584,0.24445325,0.0,0.0,0.0
772,1778662493.6258876,1.0060658,1.2353584,0.24445325,0.0,0.0,0.0
773,1778662493.6358888,1.0060658,1.2353584,0.24445325,0.0,0.0,0.0
774,1778662493.6458895,1.0060658,1.2353584,0.24445325,0.0,0.0,0.0
775,1778662493.655891,1.0060658,1.2353584,0.24445325,0.0,0.0,0.0
776,1778662493.6658928,1.0060658,1.2353584,0.24445325,0.0,0.0,0.0
777,1778662493.675894,1.0060658,1.2353584,0.24445325,0.0,0.0,0.0
778,1778662493.6858947,1.0060658,1.2353584,0.24445325,0.0,0.0,0.0
779,1778662493.6958961,1.0060658,1.2353584,0.24445325,0.0,0.0,0.0
780,1778662493.705898,1.0060658,1.2353584,0.24445325,0.0,0.0,0.0
781,1778662493.715899,1.0060658,1.2353584,0.24445325,0.0,0.0,0.0
782,1778662493.7259002,1.045115,1.3837451,0.2952179,0.0,0.0,0.0
783,1778662493.735901,1.045115,1.3837451,0.2952179,0.0,0.0,0.0
784,1778662493.745902,1.045115,1.3837451,0.2952179,0.0,0.0,0.0
785,1778662493.755903,1.045115,1.3837451,0.2952179,0.0,0.0,0.0
786,1778662493.765905,1.045115,1.3837451,0.2952179,0.0,0.0,0.0
787,1778662493.7759058,1.045115,1.3837451,0.2952179,0.0,0.0,0.0
788,1778662493.7859068,1.045115,1.3837451,0.2952179,0.0,0.0,0.0
789,1778662493.7959094,1.045115,1.3837451,0.2952179,0.0,0.0,0.0
790,1778662493.8059108,1.045115,1.3837451,0.2952179,0.0,0.0,0.0
791,1778662493.8159132,1.045115,1.3837451,0.2952179,0.0,0.0,0.0
792,1778662493.8259146,1.045115,1.3837451,0.2952179,0.0,0.0,0.0
793,1778662493.8359158,1.045115,1.3837451,0.2952179,0.0,0.0,0.0
794,1778662493.845917,1.045115,1.3837451,0.2952179,0.0,0.0,0.0
795,1778662493.8559184,1.045115,1.3837451,0.2952179,0.0,0.0,0.0
796,1778662493.8659189,1.045115,1.3837451,0.2952179,0.0,0.0,0.0
797,1778662493.87592,1.045115,1.3837451,0.2952179,0.0,0.0,0.0
798,1778662493.885921,1.045115,1.3837451,0.2952179,0.0,0.0,0.0
799,1778662493.8959215,1.045115,1.3837451,0.2952179,0.0,0.0,0.0
800,1778662493.9059253,1.142737,1.5750865,0.36941046,0.0,0.0,0.0
801,1778662493.9159276,1.142737,1.5750865,0.36941046,0.0,0.0,0.0
802,1778662493.9259315,1.142737,1.5750865,0.36941046,0.0,0.0,0.0
803,1778662493.935933,1.142737,1.5750865,0.36941046,0.0,0.0,0.0
804,1778662493.9459338,1.142737,1.5750865,0.36941046,0.0,0.0,0.0
805,1778662493.9559343,1.142737,1.5750865,0.36941046,0.0,0.0,0.0
806,1778662493.9659357,1.142737,1.5750865,0.36941046,0.0,0.0,0.0
807,1778662493.9759376,1.142737,1.5750865,0.36941046,0.0,0.0,0.0
808,1778662493.9859395,1.142737,1.5750865,0.36941046,0.0,0.0,0.0
809,1778662493.9959424,1.142737,1.5750865,0.36941046,0.0,0.0,0.0
810,1778662494.005943,1.142737,1.5750865,0.36941046,0.0,0.0,0.0
811,1778662494.015945,1.142737,1.5750865,0.36941046,0.0,0.0,0.0
812,1778662494.0259464,1.142737,1.5750865,0.36941046,0.0,0.0,0.0
813,1778662494.035947,1.142737,1.5750865,0.36941046,0.0,0.0,0.0
814,1778662494.0459483,1.142737,1.5750865,0.36941046,0.0,0.0,0.0
815,1778662494.0559514,1.142737,1.5750865,0.36941046,0.0,0.0,0.0
816,1778662494.0659533,1.142737,1.5750865,0.36941046,0.0,0.0,0.0
817,1778662494.0759542,1.142737,1.5750865,0.36941046,0.0,0.0,0.0
818,1778662494.0859551,1.142737,1.5750865,0.36941046,0.0,0.0,0.0
819,1778662494.095957,1.142737,1.5750865,0.36941046,0.0,0.0,0.0
820,1778662494.105958,1.142737,1.5750865,0.36941046,0.0,0.0,0.0
821,1778662494.115959,1.142737,1.5750865,0.36941046,0.0,0.0,0.0
822,1778662494.1259606,1.142737,1.5750865,0.36941046,0.0,0.0,0.0
823,1778662494.135962,1.142737,1.5750865,0.36941046,0.0,0.0,0.0
824,1778662494.1459632,1.142737,1.5750865,0.36941046,0.0,0.0,0.0
825,1778662494.1559646,1.142737,1.5750865,0.36941046,0.0,0.0,0.0
826,1778662494.1659653,1.142737,1.5750865,0.36941046,0.0,0.0,0.0
827,1778662494.17597,1.142737,1.5750865,0.36941046,0.0,0.0,0.0
828,1778662494.1859715,1.142737,1.5750865,0.36941046,0.0,0.0,0.0
829,1778662494.1959727,1.142737,1.5750865,0.36941046,0.0,0.0,0.0
830,1778662494.2059734,1.142737,1.5750865,0.36941046,0.0,0.0,0.0
831,1778662494.2159753,1.142737,1.5750865,0.36941046,0.0,0.0,0.0
832,1778662494.225976,1.142737,1.5750865,0.36941046,0.0,0.0,0.0
833,1778662494.235977,1.142737,1.5750865,0.36941046,0.0,0.0,0.0
834,1778662494.2459786,1.142737,1.5750865,0.36941046,0.0,0.0,0.0
835,1778662494.2559798,1.142737,1.5750865,0.36941046,0.0,0.0,0.0
836,1778662494.2659807,1.142737,1.5750865,0.36941046,0.0,0.0,0.0
837,1778662494.2759821,1.3262687,1.7742362,0.45141438,0.0,0.0,0.0
838,1778662494.285983,1.3262687,1.7742362,0.45141438,0.0,0.0,0.0
839,1778662494.2959855,1.3262687,1.7742362,0.45141438,0.0,0.0,0.0
840,1778662494.3059878,1.3262687,1.7742362,0.45141438,0.0,0.0,0.0
841,1778662494.3159888,1.3262687,1.7742362,0.45141438,0.0,0.0,0.0
842,1778662494.3259897,1.3262687,1.7742362,0.45141438,0.0,0.0,0.0
843,1778662494.3359902,1.3262687,1.7742362,0.45141438,0.0,0.0,0.0
844,1778662494.3459916,1.3262687,1.7742362,0.45141438,0.0,0.0,0.0
845,1778662494.3559937,1.3262687,1.7742362,0.45141438,0.0,0.0,0.0
846,1778662494.365995,1.3262687,1.7742362,0.45141438,0.0,0.0,0.0
847,1778662494.3759968,1.3262687,1.7742362,0.45141438,0.0,0.0,0.0
848,1778662494.3859985,1.3262687,1.7742362,0.45141438,0.0,0.0,0.0
849,1778662494.3959997,1.3262687,1.7742362,0.45141438,0.0,0.0,0.0
850,1778662494.4060013,1.5293242,1.9499581,0.5451323,0.0,0.0,0.0
851,1778662494.416004,1.5293242,1.9499581,0.5451323,0.0,0.0,0.0
852,1778662494.426005,1.5293242,1.9499581,0.5451323,0.0,0.0,0.0
853,1778662494.436006,1.5293242,1.9499581,0.5451323,0.0,0.0,0.0
854,1778662494.4460068,1.5293242,1.9499581,0.5451323,0.0,0.0,0.0
855,1778662494.456008,1.5293242,1.9499581,0.5451323,0.0,0.0,0.0
856,1778662494.4660087,1.5293242,1.9499581,0.5451323,0.0,0.0,0.0
857,1778662494.4760091,1.5293242,1.9499581,0.5451323,0.0,0.0,0.0
858,1778662494.48601,1.5293242,1.9499581,0.5451323,0.0,0.0,0.0
859,1778662494.496011,1.5293242,1.9499581,0.5451323,0.0,0.0,0.0
860,1778662494.5060117,1.5293242,1.9499581,0.5451323,0.0,0.0,0.0
861,1778662494.5160155,1.5293242,1.9499581,0.5451323,0.0,0.0,0.0
862,1778662494.5260184,1.5293242,1.9499581,0.5451323,0.0,0.0,0.0
863,1778662494.5360196,1.5293242,1.9499581,0.5451323,0.0,0.0,0.0
864,1778662494.5460212,1.5293242,1.9499581,0.5451323,0.0,0.0,0.0
865,1778662494.556022,1.5293242,1.9499581,0.5451323,0.0,0.0,0.0
866,1778662494.5660226,1.5293242,1.9499581,0.5451323,0.0,0.0,0.0
867,1778662494.5760238,1.5293242,1.9499581,0.5451323,0.0,0.0,0.0
868,1778662494.5860243,1.5293242,1.9499581,0.5451323,0.0,0.0,0.0
869,1778662494.5960257,1.5293242,1.9499581,0.5451323,0.0,0.0,0.0
870,1778662494.6060278,1.7167599,2.094439,0.59589535,0.0,0.0,0.0
871,1778662494.6160293,1.7167599,2.094439,0.59589535,0.0,0.0,0.0
872,1778662494.6260307,1.7167599,2.094439,0.59589535,0.0,0.0,0.0
873,1778662494.6360328,1.8182876,2.137394,0.59199125,0.0,0.0,0.0
874,1778662494.6460357,1.8182876,2.137394,0.59199125,0.0,0.0,0.0
875,1778662494.6560378,1.8182876,2.137394,0.59199125,0.0,0.0,0.0
876,1778662494.6660385,1.8182876,2.137394,0.59199125,0.0,0.0,0.0
877,1778662494.6760395,1.8182876,2.137394,0.59199125,0.0,0.0,0.0
878,1778662494.6860404,1.8182876,2.137394,0.59199125,0.0,0.0,0.0
879,1778662494.6960409,1.8182876,2.137394,0.59199125,0.0,0.0,0.0
880,1778662494.7060425,1.8182876,2.137394,0.59199125,0.0,0.0,0.0
881,1778662494.7160435,1.8182876,2.137394,0.59199125,0.0,0.0,0.0
882,1778662494.726044,1.8182876,2.137394,0.59199125,0.0,0.0,0.0
883,1778662494.7360454,1.9120055,2.1569176,0.56856173,0.0,0.0,0.0
884,1778662494.7460473,1.9120055,2.1569176,0.56856173,0.0,0.0,0.0
885,1778662494.7560494,1.9120055,2.1569176,0.56856173,0.0,0.0,0.0
886,1778662494.7660508,1.9120055,2.1569176,0.56856173,0.0,0.0,0.0
887,1778662494.7760518,1.9120055,2.1569176,0.56856173,0.0,0.0,0.0
888,1778662494.7860525,1.9120055,2.1569176,0.56856173,0.0,0.0,0.0
889,1778662494.7960548,1.9120055,2.1569176,0.56856173,0.0,0.0,0.0
890,1778662494.8060563,1.9120055,2.1569176,0.56856173,0.0,0.0,0.0
891,1778662494.816058,1.9120055,2.1569176,0.56856173,0.0,0.0,0.0
892,1778662494.8260596,1.9120055,2.1569176,0.56856173,0.0,0.0,0.0
893,1778662494.8360605,1.9120055,2.1569176,0.56856173,0.0,0.0,0.0
894,1778662494.8460612,1.9120055,2.1569176,0.56856173,0.0,0.0,0.0
895,1778662494.8560624,1.9120055,2.1569176,0.56856173,0.0,0.0,0.0
896,1778662494.8660634,1.9120055,2.1569176,0.56856173,0.0,0.0,0.0
897,1778662494.876065,1.9120055,2.1569176,0.56856173,0.0,0.0,0.0
898,1778662494.8860657,1.9120055,2.1569176,0.56856173,0.0,0.0,0.0
899,1778662494.8960676,1.9120055,2.1569176,0.56856173,0.0,0.0,0.0
900,1778662494.906069,1.9120055,2.1569176,0.56856173,0.0,0.0,0.0
901,1778662494.91607,1.9120055,2.1569176,0.56856173,0.0,0.0,0.0
902,1778662494.926071,1.9120055,2.1569176,0.56856173,0.0,0.0,0.0
903,1778662494.936072,1.9120055,2.1569176,0.56856173,0.0,0.0,0.0
904,1778662494.9460728,1.9120055,2.1569176,0.56856173,0.0,0.0,0.0
905,1778662494.9560738,1.9120055,2.1569176,0.56856173,0.0,0.0,0.0
906,1778662494.9660747,1.9120055,2.1569176,0.56856173,0.0,0.0,0.0
907,1778662494.976075,1.9120055,2.1569176,0.56856173,0.0,0.0,0.0
908,1778662494.986076,1.9120055,2.1569176,0.56856173,0.0,0.0,0.0
909,1778662494.9960794,1.9120055,2.1569176,0.56856173,0.0,0.0,0.0
910,1778662495.006081,1.9120055,2.1569176,0.56856173,0.0,0.0,0.0
911,1778662495.0160823,1.9120055,2.1569176,0.56856173,0.0,0.0,0.0
912,1778662495.0260828,1.9120055,2.1569176,0.56856173,0.0,0.0,0.0
913,1778662495.0360835,1.9120055,2.1569176,0.56856173,0.0,0.0,0.0
914,1778662495.0460842,1.9120055,2.1569176,0.56856173,0.0,0.0,0.0
915,1778662495.056085,1.9120055,2.1569176,0.56856173,0.0,0.0,0.0
916,1778662495.066087,1.9120055,2.1569176,0.56856173,0.0,0.0,0.0
917,1778662495.076088,1.9120055,2.1569176,0.56856173,0.0,0.0,0.0
918,1778662495.086089,1.9120055,2.1569176,0.56856173,0.0,0.0,0.0
919,1778662495.0960898,1.9120055,2.1569176,0.56856173,0.0,0.0,0.0
920,1778662495.1060905,1.9120055,2.1569176,0.56856173,0.0,0.0,0.0
921,1778662495.1160924,1.9120055,2.1569176,0.56856173,0.0,0.0,0.0
922,1778662495.1260936,1.9120055,2.1569176,0.56856173,0.0,0.0,0.0
923,1778662495.1360948,1.9120055,2.1569176,0.56856173,0.0,0.0,0.0
924,1778662495.1460965,1.9120055,2.1569176,0.56856173,0.0,0.0,0.0
925,1778662495.1560972,1.9120055,2.1569176,0.56856173,0.0,0.0,0.0
926,1778662495.166098,1.9120055,2.1569176,0.56856173,0.0,0.0,0.0
927,1778662495.1760988,1.9120055,2.1569176,0.56856173,0.0,0.0,0.0
928,1778662495.1860995,1.9120055,2.1569176,0.56856173,0.0,0.0,0.0
929,1778662495.1961002,1.9120055,2.1569176,0.56856173,0.0,0.0,0.0
930,1778662495.2061017,1.9120055,2.1569176,0.56856173,0.0,0.0,0.0
931,1778662495.2161021,1.9120055,2.1569176,0.56856173,0.0,0.0,0.0
932,1778662495.2261028,1.9120055,2.1569176,0.56856173,0.0,0.0,0.0
933,1778662495.236105,1.9120055,2.1569176,0.56856173,0.0,0.0,0.0
934,1778662495.2461066,1.9120055,2.1569176,0.56856173,0.0,0.0,0.0
935,1778662495.2561088,1.9120055,2.1569176,0.56856173,0.0,0.0,0.0
936,1778662495.2661107,1.9120055,2.1569176,0.56856173,0.0,0.0,0.0
937,1778662495.2761111,1.9120055,2.1569176,0.56856173,0.0,0.0,0.0
938,1778662495.286112,1.9861996,2.043676,0.27569255,0.0,0.0,0.0
939,1778662495.2961137,1.9861996,2.043676,0.27569255,0.0,0.0,0.0
940,1778662495.3061147,1.9861996,2.043676,0.27569255,0.0,0.0,0.0
941,1778662495.3161156,1.9861996,2.043676,0.27569255,0.0,0.0,0.0
942,1778662495.3261163,1.9861996,2.043676,0.27569255,0.0,0.0,0.0
943,1778662495.3361168,1.9861996,2.043676,0.27569255,0.0,0.0,0.0
944,1778662495.3461185,2.0291529,2.094439,0.35769647,0.0,0.0,0.0
945,1778662495.3561194,2.0291529,2.094439,0.35769647,0.0,0.0,0.0
946,1778662495.3661213,2.0291529,2.094439,0.35769647,0.0,0.0,0.0
947,1778662495.3761225,2.0291529,2.094439,0.35769647,0.0,0.0,0.0
948,1778662495.386123,2.0291529,2.094439,0.35769647,0.0,0.0,0.0
949,1778662495.3961244,2.0291529,2.094439,0.35769647,0.0,0.0,0.0
950,1778662495.406125,2.0291529,2.094439,0.35769647,0.0,0.0,0.0
951,1778662495.4161255,2.0291529,2.094439,0.35769647,0.0,0.0,0.0
952,1778662495.4261272,2.0291529,2.094439,0.35769647,0.0,0.0,0.0
953,1778662495.436128,2.0291529,2.094439,0.35769647,0.0,0.0,0.0
954,1778662495.4461286,2.0291529,2.094439,0.35769647,0.0,0.0,0.0
955,1778662495.4561296,2.0291529,2.094439,0.35769647,0.0,0.0,0.0
956,1778662495.4661307,2.0291529,2.094439,0.35769647,0.0,0.0,0.0
957,1778662495.4761326,2.0291529,2.094439,0.35769647,0.0,0.0,0.0
958,1778662495.4861336,2.0291529,2.094439,0.35769647,0.0,0.0,0.0
959,1778662495.496134,2.0291529,2.094439,0.35769647,0.0,0.0,0.0
960,1778662495.5061355,2.0291529,2.094439,0.35769647,0.0,0.0,0.0
961,1778662495.5161374,2.0291529,2.094439,0.35769647,0.0,0.0,0.0
962,1778662495.526143,2.0291529,2.094439,0.35769647,0.0,0.0,0.0
963,1778662495.536144,2.0291529,2.094439,0.35769647,0.0,0.0,0.0
964,1778662495.5461452,2.0291529,2.094439,0.35769647,0.0,0.0,0.0
965,1778662495.5561461,2.0291529,2.094439,0.35769647,0.0,0.0,0.0
966,1778662495.5661495,2.0291529,2.094439,0.35769647,0.0,0.0,0.0
967,1778662495.5761516,2.0291529,2.094439,0.35769647,0.0,0.0,0.0
968,1778662495.5861542,2.0291529,2.094439,0.35769647,0.0,0.0,0.0
969,1778662495.5961564,1.7362852,1.86405,0.053113338,0.0,0.0,0.0
970,1778662495.6061575,1.7362852,1.86405,0.053113338,0.0,0.0,0.0
971,1778662495.616159,1.7362852,1.86405,0.053113338,0.0,0.0,0.0
972,1778662495.6261594,1.7362852,1.86405,0.053113338,0.0,0.0,0.0
973,1778662495.6361692,1.7362852,1.86405,0.053113338,0.0,0.0,0.0
974,1778662495.6461742,1.7362852,1.86405,0.053113338,0.0,0.0,0.0
975,1778662495.6561751,1.7362852,1.86405,0.053113338,0.0,0.0,0.0
976,1778662495.6661766,1.9861996,2.043676,0.27569255,0.0,0.0,0.0
977,1778662495.6761773,1.9861996,2.043676,0.27569255,0.0,0.0,0.0
978,1778662495.686178,1.9861996,2.043676,0.27569255,0.0,0.0,0.0
979,1778662495.6961792,1.9861996,2.043676,0.27569255,0.0,0.0,0.0
980,1778662495.7061806,1.9861996,2.043676,0.27569255,0.0,0.0,0.0
981,1778662495.7161813,1.9861996,2.043676,0.27569255,0.0,0.0,0.0
982,1778662495.7261832,1.9861996,2.043676,0.27569255,0.0,0.0,0.0
983,1778662495.7361841,1.9861996,2.043676,0.27569255,0.0,0.0,0.0
984,1778662495.7461858,1.9861996,2.043676,0.27569255,0.0,0.0,0.0
985,1778662495.7561877,1.9861996,2.043676,0.27569255,0.0,0.0,0.0
986,1778662495.7661884,1.9861996,2.043676,0.27569255,0.0,0.0,0.0
987,1778662495.776189,1.9861996,2.043676,0.27569255,0.0,0.0,0.0
988,1778662495.78619,1.9861996,2.043676,0.27569255,0.0,0.0,0.0
989,1778662495.7961912,1.9861996,2.043676,0.27569255,0.0,0.0,0.0
990,1778662495.806193,1.501989,1.7547125,-0.021080771,0.0,0.0,0.0
991,1778662495.816195,1.501989,1.7547125,-0.021080771,0.0,0.0,0.0
992,1778662495.8261957,1.501989,1.7547125,-0.021080771,0.0,0.0,0.0
993,1778662495.836197,1.501989,1.7547125,-0.021080771,0.0,0.0,0.0
994,1778662495.8461986,1.501989,1.7547125,-0.021080771,0.0,0.0,0.0
995,1778662495.8561993,1.501989,1.7547125,-0.021080771,0.0,0.0,0.0
996,1778662495.866201,1.501989,1.7547125,-0.021080771,0.0,0.0,0.0
997,1778662495.8762019,1.501989,1.7547125,-0.021080771,0.0,0.0,0.0
998,1778662495.886204,1.501989,1.7547125,-0.021080771,0.0,0.0,0.0
999,1778662495.8962061,1.501989,1.7547125,-0.021080771,0.0,0.0,0.0
1000,1778662495.9062073,1.501989,1.7547125,-0.021080771,0.0,0.0,0.0
