id,timestamp,acc_x,acc_y,acc_z,gyro_x,gyro_y,gyro_z
1,1778662593.0070362,-0.1263602,-1.5176071,-0.27099514,0.0,0.0,0.0
2,1778662593.017038,-0.1263602,-1.5176071,-0.27099514,0.0,0.0,0.0
3,1778662593.0270412,-0.1263602,-1.5176071,-0.27099514,0.0,0.0,0.0
4,1778662593.0370426,-0.1263602,-1.5176071,-0.27099514,0.0,0.0,0.0
5,1778662593.047044,-0.1263602,-1.5176071,-0.27099514,0.0,0.0,0.0
6,1778662593.0570445,-0.1263602,-1.5176071,-0.27099514,0.0,0.0,0.0
7,1778662593.0670455,-0.1263602,-1.5176071,-0.27099514,0.0,0.0,0.0
8,1778662593.077046,-0.1263602,-1.5176071,-0.27099514,0.0,0.0,0.0
9,1778662593.087048,-0.05997746,-1.5097972,-0.2983303,0.0,0.0,0.0
10,1778662593.097049,-0.05997746,-1.5097972,-0.2983303,0.0,0.0,0.0
11,1778662593.1070504,-0.05997746,-1.5097972,-0.2983303,0.0,0.0,0.0
12,1778662593.1170514,-0.05997746,-1.5097972,-0.2983303,0.0,0.0,0.0
13,1778662593.1270528,-0.05997746,-1.5097972,-0.2983303,0.0,0.0,0.0
14,1778662593.1370535,-0.05997746,-1.5097972,-0.2983303,0.0,0.0,0.0
15,1778662593.1470551,-0.05997746,-1.5097972,-0.2983303,0.0,0.0,0.0
16,1778662593.1570563,-0.05997746,-1.5097972,-0.2983303,0.0,0.0,0.0
17,1778662593.1670582,-0.05997746,-1.5097972,-0.2983303,0.0,0.0,0.0
18,1778662593.1770597,-0.013118514,-1.5176071,-0.34128356,0.0,0.0,0.0
19,1778662593.1870606,-0.013118514,-1.5176071,-0.34128356,0.0,0.0,0.0
20,1778662593.1970613,-0.013118514,-1.5176071,-0.34128356,0.0,0.0,0.0
21,1778662593.2070627,-0.013118514,-1.5176071,-0.34128356,0.0,0.0,0.0
22,1778662593.2170637,-0.013118514,-1.5176071,-0.34128356,0.0,0.0,0.0
23,1778662593.2270656,0.022026474,-1.5332267,-0.38033268,0.0,0.0,0.0
24,1778662593.2370665,0.022026474,-1.5332267,-0.38033268,0.0,0.0,0.0
25,1778662593.2470677,0.022026474,-1.5332267,-0.38033268,0.0,0.0,0.0
26,1778662593.2570698,0.022026474,-1.5332267,-0.38033268,0.0,0.0,0.0
27,1778662593.2670705,0.022026474,-1.5332267,-0.38033268,0.0,0.0,0.0
28,1778662593.277072,0.022026474,-1.5332267,-0.38033268,0.0,0.0,0.0
29,1778662593.2870734,0.022026474,-1.5332267,-0.38033268,0.0,0.0,0.0
30,1778662593.297074,0.022026474,-1.5332267,-0.38033268,0.0,0.0,0.0
31,1778662593.3070745,0.022026474,-1.5332267,-0.38033268,0.0,0.0,0.0
32,1778662593.3170757,0.045455948,-1.5683717,-0.40766785,0.0,0.0,0.0
33,1778662593.3270774,0.045455948,-1.5683717,-0.40766785,0.0,0.0,0.0
34,1778662593.3370788,0.045455948,-1.5683717,-0.40766785,0.0,0.0,0.0
35,1778662593.3470798,0.045455948,-1.5683717,-0.40766785,0.0,0.0,0.0
36,1778662593.3570824,0.045455948,-1.5683717,-0.40766785,0.0,0.0,0.0
37,1778662593.367083,0.045455948,-1.5683717,-0.40766785,0.0,0.0,0.0
38,1778662593.3770843,0.045455948,-1.5683717,-0.40766785,0.0,0.0,0.0
39,1778662593.3870869,0.045455948,-1.5683717,-0.40766785,0.0,0.0,0.0
40,1778662593.3970883,0.045455948,-1.5683717,-0.40766785,0.0,0.0,0.0
41,1778662593.4070916,0.045455948,-1.5683717,-0.40766785,0.0,0.0,0.0
42,1778662593.417094,0.045455948,-1.5683717,-0.40766785,0.0,0.0,0.0
43,1778662593.427096,0.045455948,-1.5683717,-0.40766785,0.0,0.0,0.0
44,1778662593.437097,0.045455948,-1.5683717,-0.40766785,0.0,0.0,0.0
45,1778662593.4470994,0.045455948,-1.5683717,-0.40766785,0.0,0.0,0.0
46,1778662593.4571018,0.045455948,-1.5683717,-0.40766785,0.0,0.0,0.0
47,1778662593.4671032,0.045455948,-1.5683717,-0.40766785,0.0,0.0,0.0
48,1778662593.477105,0.045455948,-1.5683717,-0.40766785,0.0,0.0,0.0
49,1778662593.487106,0.045455948,-1.5683717,-0.40766785,0.0,0.0,0.0
50,1778662593.497107,0.045455948,-1.5683717,-0.40766785,0.0,0.0,0.0
51,1778662593.5071092,0.045455948,-1.5683717,-0.40766785,0.0,0.0,0.0
52,1778662593.5171108,0.045455948,-1.5683717,-0.40766785,0.0,0.0,0.0
53,1778662593.5271144,0.045455948,-1.5683717,-0.40766785,0.0,0.0,0.0
54,1778662593.5371165,0.045455948,-1.5683717,-0.40766785,0.0,0.0,0.0
55,1778662593.5471175,0.045455948,-1.5683717,-0.40766785,0.0,0.0,0.0
56,1778662593.5571187,0.045455948,-1.5683717,-0.40766785,0.0,0.0,0.0
57,1778662593.5671194,0.045455948,-1.5683717,-0.40766785,0.0,0.0,0.0
58,1778662593.5771205,0.045455948,-1.5683717,-0.40766785,0.0,0.0,0.0
59,1778662593.5871224,0.045455948,-1.5683717,-0.40766785,0.0,0.0,0.0
60,1778662593.5971231,0.045455948,-1.5683717,-0.40766785,0.0,0.0,0.0
61,1778662593.6071246,0.045455948,-1.5683717,-0.40766785,0.0,0.0,0.0
62,1778662593.6171265,0.045455948,-1.5683717,-0.40766785,0.0,0.0,0.0
63,1778662593.627128,0.045455948,-1.5683717,-0.40766785,0.0,0.0,0.0
64,1778662593.6371305,0.045455948,-1.5683717,-0.40766785,0.0,0.0,0.0
65,1778662593.6471353,0.045455948,-1.5683717,-0.40766785,0.0,0.0,0.0
66,1778662593.6571379,0.045455948,-1.5683717,-0.40766785,0.0,0.0,0.0
67,1778662593.6671395,0.045455948,-1.5683717,-0.40766785,0.0,0.0,0.0
68,1778662593.6771414,0.045455948,-1.5683717,-0.40766785,0.0,0.0,0.0
69,1778662593.6871433,0.045455948,-1.5683717,-0.40766785,0.0,0.0,0.0
70,1778662593.6971443,0.045455948,-1.5683717,-0.40766785,0.0,0.0,0.0
71,1778662593.707145,0.045455948,-1.5683717,-0.40766785,0.0,0.0,0.0
72,1778662593.7171464,0.045455948,-1.5683717,-0.40766785,0.0,0.0,0.0
73,1778662593.7271478,0.045455948,-1.5683717,-0.40766785,0.0,0.0,0.0
74,1778662593.737149,0.045455948,-1.5683717,-0.40766785,0.0,0.0,0.0
75,1778662593.7471516,0.045455948,-1.5683717,-0.40766785,0.0,0.0,0.0
76,1778662593.7571552,0.045455948,-1.5683717,-0.40766785,0.0,0.0,0.0
77,1778662593.7671611,0.045455948,-1.5683717,-0.40766785,0.0,0.0,0.0
78,1778662593.7771635,0.045455948,-1.5683717,-0.40766785,0.0,0.0,0.0
79,1778662593.7872376,-0.31770167,-1.8456212,-0.60291344,0.0,0.0,0.0
80,1778662593.7972383,-0.31770167,-1.8456212,-0.60291344,0.0,0.0,0.0
81,1778662593.8072395,-0.31770167,-1.8456212,-0.60291344,0.0,0.0,0.0
82,1778662593.81724,-0.31770167,-1.8456212,-0.60291344,0.0,0.0,0.0
83,1778662593.8272421,-0.31770167,-1.8456212,-0.60291344,0.0,0.0,0.0
84,1778662593.8372447,-0.31770167,-1.8456212,-0.60291344,0.0,0.0,0.0
85,1778662593.847246,-0.31770167,-1.8456212,-0.60291344,0.0,0.0,0.0
86,1778662593.8572493,-0.31770167,-1.8456212,-0.60291344,0.0,0.0,0.0
87,1778662593.867251,-0.31770167,-1.8456212,-0.60291344,0.0,0.0,0.0
88,1778662593.8772519,-0.31770167,-1.8456212,-0.60291344,0.0,0.0,0.0
89,1778662593.887253,-0.31770167,-1.8456212,-0.60291344,0.0,0.0,0.0
90,1778662593.8972545,-0.31770167,-1.8456212,-0.60291344,0.0,0.0,0.0
91,1778662593.9072554,-0.31770167,-1.8456212,-0.60291344,0.0,0.0,0.0
92,1778662593.9172573,-0.31770167,-1.8456212,-0.60291344,0.0,0.0,0.0
93,1778662593.9272606,-0.31770167,-1.8456212,-0.60291344,0.0,0.0,0.0
94,1778662593.9372625,-0.31770167,-1.8456212,-0.60291344,0.0,0.0,0.0
95,1778662593.947264,-0.31770167,-1.8456212,-0.60291344,0.0,0.0,0.0
96,1778662593.9572647,-0.31770167,-1.8456212,-0.60291344,0.0,0.0,0.0
97,1778662593.9672658,-0.9385835,-1.5410365,-0.677106,0.0,0.0,0.0
98,1778662593.9772673,-0.9385835,-1.5410365,-0.677106,0.0,0.0,0.0
99,1778662593.9872677,-0.9385835,-1.5410365,-0.677106,0.0,0.0,0.0
100,1778662593.9972694,-0.9385835,-1.5410365,-0.677106,0.0,0.0,0.0
101,1778662594.0072703,-0.9385835,-1.5410365,-0.677106,0.0,0.0,0.0
102,1778662594.0172722,-0.9385835,-1.5410365,-0.677106,0.0,0.0,0.0
103,1778662594.0272737,-0.9385835,-1.5410365,-0.677106,0.0,0.0,0.0
104,1778662594.0372746,-0.9385835,-1.5410365,-0.677106,0.0,0.0,0.0
105,1778662594.0472753,-0.9385835,-1.5410365,-0.677106,0.0,0.0,0.0
106,1778662594.0572772,-0.9385835,-1.5410365,-0.677106,0.0,0.0,0.0
107,1778662594.0672781,-0.9385835,-1.5410365,-0.677106,0.0,0.0,0.0
108,1778662594.077279,-0.9385835,-1.5410365,-0.677106,0.0,0.0,0.0
109,1778662594.0872827,-0.9385835,-1.5410365,-0.677106,0.0,0.0,0.0
110,1778662594.0972836,-0.9385835,-1.5410365,-0.677106,0.0,0.0,0.0
111,1778662594.107286,-0.9385835,-1.5410365,-0.677106,0.0,0.0,0.0
112,1778662594.1172876,-1.0596349,-1.64647,-0.8098746,0.0,0.0,0.0
113,1778662594.1272886,-1.0596349,-1.64647,-0.8098746,0.0,0.0,0.0
114,1778662594.1372895,-1.0596349,-1.64647,-0.8098746,0.0,0.0,0.0
115,1778662594.147291,-1.0596349,-1.64647,-0.8098746,0.0,0.0,0.0
116,1778662594.157292,-1.0596349,-1.64647,-0.8098746,0.0,0.0,0.0
117,1778662594.167295,-1.0596349,-1.64647,-0.8098746,0.0,0.0,0.0
118,1778662594.177296,-1.0596349,-1.64647,-0.8098746,0.0,0.0,0.0
119,1778662594.1872985,-1.0596349,-1.64647,-0.8098746,0.0,0.0,0.0
120,1778662594.1973002,-1.0596349,-1.64647,-0.8098746,0.0,0.0,0.0
121,1778662594.2073007,-1.0596349,-1.64647,-0.8098746,0.0,0.0,0.0
122,1778662594.217303,-1.0596349,-1.64647,-0.8098746,0.0,0.0,0.0
123,1778662594.2273054,-1.0596349,-1.64647,-0.8098746,0.0,0.0,0.0
124,1778662594.2373083,-1.0596349,-1.64647,-0.8098746,0.0,0.0,0.0
125,1778662594.247311,-1.0596349,-1.64647,-0.8098746,0.0,0.0,0.0
126,1778662594.2573128,-1.0596349,-1.64647,-0.8098746,0.0,0.0,0.0
127,1778662594.2673137,-1.0596349,-1.64647,-0.8098746,0.0,0.0,0.0
128,1778662594.277316,-1.0596349,-1.64647,-0.8098746,0.0,0.0,0.0
129,1778662594.2873192,-1.0596349,-1.64647,-0.8098746,0.0,0.0,0.0
130,1778662594.297322,-1.0596349,-1.64647,-0.8098746,0.0,0.0,0.0
131,1778662594.3073235,-1.0596349,-1.64647,-0.8098746,0.0,0.0,0.0
132,1778662594.3173246,-1.0596349,-1.64647,-0.8098746,0.0,0.0,0.0
133,1778662594.3273263,-1.0596349,-1.64647,-0.8098746,0.0,0.0,0.0
134,1778662594.3373272,-1.0596349,-1.64647,-0.8098746,0.0,0.0,0.0
135,1778662594.3473284,-1.0596349,-1.64647,-0.8098746,0.0,0.0,0.0
136,1778662594.3573294,-1.0596349,-1.64647,-0.8098746,0.0,0.0,0.0
137,1778662594.3673315,-1.0596349,-1.64647,-0.8098746,0.0,0.0,0.0
138,1778662594.3773406,-1.0596349,-1.64647,-0.8098746,0.0,0.0,0.0
139,1778662594.3873432,-1.0596349,-1.64647,-0.8098746,0.0,0.0,0.0
140,1778662594.3973436,-1.0596349,-1.64647,-0.8098746,0.0,0.0,0.0
141,1778662594.4073472,-0.09512089,-1.3262671,-0.22804189,0.0,0.0,0.0
142,1778662594.4173484,-0.09512089,-1.3262671,-0.22804189,0.0,0.0,0.0
143,1778662594.427349,-0.09512089,-1.3262671,-0.22804189,0.0,0.0,0.0
144,1778662594.4373505,-0.09512089,-1.3262671,-0.22804189,0.0,0.0,0.0
145,1778662594.4473524,-0.09512089,-1.3262671,-0.22804189,0.0,0.0,0.0
146,1778662594.4573545,-0.09512089,-1.3262671,-0.22804189,0.0,0.0,0.0
147,1778662594.4673574,-0.09512089,-1.3262671,-0.22804189,0.0,0.0,0.0
148,1778662594.4773605,-0.09512089,-1.3262671,-0.22804189,0.0,0.0,0.0
149,1778662594.4873638,-0.09512089,-1.3262671,-0.22804189,0.0,0.0,0.0
150,1778662594.4973655,-0.09512089,-1.3262671,-0.22804189,0.0,0.0,0.0
151,1778662594.5073671,-0.09512089,-1.3262671,-0.22804189,0.0,0.0,0.0
152,1778662594.5173678,-0.09512089,-1.3262671,-0.22804189,0.0,0.0,0.0
153,1778662594.5273693,-0.09512089,-1.3262671,-0.22804189,0.0,0.0,0.0
154,1778662594.5373714,-0.09512089,-1.3262671,-0.22804189,0.0,0.0,0.0
155,1778662594.5473728,-0.09512089,-1.3262671,-0.22804189,0.0,0.0,0.0
156,1778662594.5573735,-0.09512089,-1.3262671,-0.22804189,0.0,0.0,0.0
157,1778662594.5673742,-0.09512089,-1.3262671,-0.22804189,0.0,0.0,0.0
158,1778662594.577377,-0.09512089,-1.3262671,-0.22804189,0.0,0.0,0.0
159,1778662594.5873787,-0.09512089,-1.3262671,-0.22804189,0.0,0.0,0.0
160,1778662594.5973797,-0.09512089,-1.3262671,-0.22804189,0.0,0.0,0.0
161,1778662594.6073816,-0.09512089,-1.3262671,-0.22804189,0.0,0.0,0.0
162,1778662594.6173832,-0.09512089,-1.3262671,-0.22804189,0.0,0.0,0.0
163,1778662594.6273856,-0.09512089,-1.3262671,-0.22804189,0.0,0.0,0.0
164,1778662594.6373863,-0.09512089,-1.3262671,-0.22804189,0.0,0.0,0.0
165,1778662594.647387,-0.09512089,-1.3262671,-0.22804189,0.0,0.0,0.0
166,1778662594.6573896,-0.09512089,-1.3262671,-0.22804189,0.0,0.0,0.0
167,1778662594.6673913,-0.09512089,-1.3262671,-0.22804189,0.0,0.0,0.0
168,1778662594.677393,-0.09512089,-1.3262671,-0.22804189,0.0,0.0,0.0
169,1778662594.687395,-0.09512089,-1.3262671,-0.22804189,0.0,0.0,0.0
170,1778662594.697397,-0.09512089,-1.3262671,-0.22804189,0.0,0.0,0.0
171,1778662594.7073984,-0.09512089,-1.3262671,-0.22804189,0.0,0.0,0.0
172,1778662594.7173998,-0.09512089,-1.3262671,-0.22804189,0.0,0.0,0.0
173,1778662594.7274048,-0.09512089,-1.3262671,-0.22804189,0.0,0.0,0.0
174,1778662594.737407,-0.09512089,-1.3262671,-0.22804189,0.0,0.0,0.0
175,1778662594.7474084,-0.09512089,-1.3262671,-0.22804189,0.0,0.0,0.0
176,1778662594.7574093,-0.09512089,-1.3262671,-0.22804189,0.0,0.0,0.0
177,1778662594.7674108,-0.09512089,-1.3262671,-0.22804189,0.0,0.0,0.0
178,1778662594.7774134,-0.09512089,-1.3262671,-0.22804189,0.0,0.0,0.0
179,1778662594.7874146,-0.09512089,-1.3262671,-0.22804189,0.0,0.0,0.0
180,1778662594.797417,-0.09512089,-1.3262671,-0.22804189,0.0,0.0,0.0
181,1778662594.8074188,-0.09512089,-1.3262671,-0.22804189,0.0,0.0,0.0
182,1778662594.8174195,-0.09512089,-1.3262671,-0.22804189,0.0,0.0,0.0
183,1778662594.8274207,-0.09512089,-1.3262671,-0.22804189,0.0,0.0,0.0
184,1778662594.8374224,0.08841076,-1.2559787,-0.14994365,0.0,0.0,0.0
185,1778662594.847423,0.08841076,-1.2559787,-0.14994365,0.0,0.0,0.0
186,1778662594.8574245,0.5140454,-1.119306,0.010158527,0.0,0.0,0.0
187,1778662594.8674254,0.5140454,-1.119306,0.010158527,0.0,0.0,0.0
188,1778662594.8774264,0.5140454,-1.119306,0.010158527,0.0,0.0,0.0
189,1778662594.887428,0.5140454,-1.119306,0.010158527,0.0,0.0,0.0
190,1778662594.8974288,0.5140454,-1.119306,0.010158527,0.0,0.0,0.0
191,1778662594.9074302,0.5140454,-1.119306,0.010158527,0.0,0.0,0.0
192,1778662594.9174316,0.5140454,-1.119306,0.010158527,0.0,0.0,0.0
193,1778662594.9274325,0.5140454,-1.119306,0.010158527,0.0,0.0,0.0
194,1778662594.9374332,0.5140454,-1.119306,0.010158527,0.0,0.0,0.0
195,1778662594.9474368,0.9826364,-0.9162506,0.23664343,0.0,0.0,0.0
196,1778662594.9574394,0.9826364,-0.9162506,0.23664343,0.0,0.0,0.0
197,1778662594.9674408,0.9826364,-0.9162506,0.23664343,0.0,0.0,0.0
198,1778662594.9774415,0.9826364,-0.9162506,0.23664343,0.0,0.0,0.0
199,1778662594.9874432,0.9826364,-0.9162506,0.23664343,0.0,0.0,0.0
200,1778662594.9974456,0.9826364,-0.9162506,0.23664343,0.0,0.0,0.0
201,1778662595.0074508,0.9826364,-0.9162506,0.23664343,0.0,0.0,0.0
202,1778662595.017454,0.9826364,-0.9162506,0.23664343,0.0,0.0,0.0
203,1778662595.0274558,0.9826364,-0.9162506,0.23664343,0.0,0.0,0.0
204,1778662595.0374568,0.9826364,-0.9162506,0.23664343,0.0,0.0,0.0
205,1778662595.0474586,0.9826364,-0.9162506,0.23664343,0.0,0.0,0.0
206,1778662595.057461,0.9826364,-0.9162506,0.23664343,0.0,0.0,0.0
207,1778662595.0674622,0.9826364,-0.9162506,0.23664343,0.0,0.0,0.0
208,1778662595.0774639,0.9826364,-0.9162506,0.23664343,0.0,0.0,0.0
209,1778662595.0874655,0.9826364,-0.9162506,0.23664343,0.0,0.0,0.0
210,1778662595.0974667,0.9826364,-0.9162506,0.23664343,0.0,0.0,0.0
211,1778662595.1074684,0.9826364,-0.9162506,0.23664343,0.0,0.0,0.0
212,1778662595.1174695,0.9826364,-0.9162506,0.23664343,0.0,0.0,0.0
213,1778662595.1274703,0.9826364,-0.9162506,0.23664343,0.0,0.0,0.0
214,1778662595.1374726,0.9826364,-0.9162506,0.23664343,0.0,0.0,0.0
215,1778662595.1474736,0.9826364,-0.9162506,0.23664343,0.0,0.0,0.0
216,1778662595.1574755,0.9826364,-0.9162506,0.23664343,0.0,0.0,0.0
217,1778662595.1674776,0.9826364,-0.9162506,0.23664343,0.0,0.0,0.0
218,1778662595.177479,0.9826364,-0.9162506,0.23664343,0.0,0.0,0.0
219,1778662595.1874816,0.9826364,-0.9162506,0.23664343,0.0,0.0,0.0
220,1778662595.1974835,1.416081,-0.67024034,0.5177971,0.0,0.0,0.0
221,1778662595.2074842,1.416081,-0.67024034,0.5177971,0.0,0.0,0.0
222,1778662595.2174866,1.416081,-0.67024034,0.5177971,0.0,0.0,0.0
223,1778662595.227488,1.416081,-0.67024034,0.5177971,0.0,0.0,0.0
224,1778662595.237489,1.416081,-0.67024034,0.5177971,0.0,0.0,0.0
225,1778662595.2474904,1.416081,-0.67024034,0.5177971,0.0,0.0,0.0
226,1778662595.2575016,1.416081,-0.67024034,0.5177971,0.0,0.0,0.0
227,1778662595.2675035,1.416081,-0.67024034,0.5177971,0.0,0.0,0.0
228,1778662595.2775068,1.416081,-0.67024034,0.5177971,0.0,0.0,0.0
229,1778662595.2875094,1.416081,-0.67024034,0.5177971,0.0,0.0,0.0
230,1778662595.2975123,1.416081,-0.67024034,0.5177971,0.0,0.0,0.0
231,1778662595.3075142,1.416081,-0.67024034,0.5177971,0.0,0.0,0.0
232,1778662595.3175154,1.416081,-0.67024034,0.5177971,0.0,0.0,0.0
233,1778662595.3275194,1.416081,-0.67024034,0.5177971,0.0,0.0,0.0
234,1778662595.337522,1.416081,-0.67024034,0.5177971,0.0,0.0,0.0
235,1778662595.3475225,1.416081,-0.67024034,0.5177971,0.0,0.0,0.0
236,1778662595.3575242,1.416081,-0.67024034,0.5177971,0.0,0.0,0.0
237,1778662595.367525,1.416081,-0.67024034,0.5177971,0.0,0.0,0.0
238,1778662595.3775256,1.416081,-0.67024034,0.5177971,0.0,0.0,0.0
239,1778662595.3875272,1.416081,-0.67024034,0.5177971,0.0,0.0,0.0
240,1778662595.3975291,1.416081,-0.67024034,0.5177971,0.0,0.0,0.0
241,1778662595.4075315,1.416081,-0.67024034,0.5177971,0.0,0.0,0.0
242,1778662595.4175339,1.416081,-0.67024034,0.5177971,0.0,0.0,0.0
243,1778662595.4275346,1.416081,-0.67024034,0.5177971,0.0,0.0,0.0
244,1778662595.4375355,1.416081,-0.67024034,0.5177971,0.0,0.0,0.0
245,1778662595.447538,1.416081,-0.67024034,0.5177971,0.0,0.0,0.0
246,1778662595.457539,1.416081,-0.67024034,0.5177971,0.0,0.0,0.0
247,1778662595.4675405,1.416081,-0.67024034,0.5177971,0.0,0.0,0.0
248,1778662595.477542,1.416081,-0.67024034,0.5177971,0.0,0.0,0.0
249,1778662595.4875426,1.416081,-0.67024034,0.5177971,0.0,0.0,0.0
250,1778662595.4975445,1.416081,-0.67024034,0.5177971,0.0,0.0,0.0
251,1778662595.5075479,1.416081,-0.67024034,0.5177971,0.0,0.0,0.0
252,1778662595.5175493,1.416081,-0.67024034,0.5177971,0.0,0.0,0.0
253,1778662595.5275517,1.416081,-0.67024034,0.5177971,0.0,0.0,0.0
254,1778662595.5375528,1.416081,-0.67024034,0.5177971,0.0,0.0,0.0
255,1778662595.5475543,1.416081,-0.67024034,0.5177971,0.0,0.0,0.0
256,1778662595.5575554,1.416081,-0.67024034,0.5177971,0.0,0.0,0.0
257,1778662595.567556,1.416081,-0.67024034,0.5177971,0.0,0.0,0.0
258,1778662595.5775578,1.416081,-0.67024034,0.5177971,0.0,0.0,0.0
259,1778662595.587559,1.416081,-0.67024034,0.5177971,0.0,0.0,0.0
260,1778662595.5975602,1.416081,-0.67024034,0.5177971,0.0,0.0,0.0
261,1778662595.6075616,1.416081,-0.67024034,0.5177971,0.0,0.0,0.0
262,1778662595.6175625,1.416081,-0.67024034,0.5177971,0.0,0.0,0.0
263,1778662595.627564,1.416081,-0.67024034,0.5177971,0.0,0.0,0.0
264,1778662595.6375659,1.6777108,-0.41642183,0.779427,0.0,0.0,0.0
265,1778662595.647567,1.6777108,-0.41642183,0.779427,0.0,0.0,0.0
266,1778662595.657569,1.6777108,-0.41642183,0.779427,0.0,0.0,0.0
267,1778662595.66757,1.6777108,-0.41642183,0.779427,0.0,0.0,0.0
268,1778662595.6775708,1.6777108,-0.41642183,0.779427,0.0,0.0,0.0
269,1778662595.6875753,1.7479992,-0.16260175,0.97076845,0.0,0.0,0.0
270,1778662595.6975768,1.7479992,-0.16260175,0.97076845,0.0,0.0,0.0
271,1778662595.7075787,1.7479992,-0.16260175,0.97076845,0.0,0.0,0.0
272,1778662595.7175808,1.7479992,-0.16260175,0.97076845,0.0,0.0,0.0
273,1778662595.7275815,1.7479992,-0.16260175,0.97076845,0.0,0.0,0.0
274,1778662595.7375832,1.7479992,-0.16260175,0.97076845,0.0,0.0,0.0
275,1778662595.7475855,1.7479992,-0.16260175,0.97076845,0.0,0.0,0.0
276,1778662595.7575865,1.7479992,-0.16260175,0.97076845,0.0,0.0,0.0
277,1778662595.7675881,1.7479992,-0.16260175,0.97076845,0.0,0.0,0.0
278,1778662595.7775908,1.7479992,-0.16260175,0.97076845,0.0,0.0,0.0
279,1778662595.7875924,1.7479992,-0.16260175,0.97076845,0.0,0.0,0.0
280,1778662595.797594,1.7479992,-0.16260175,0.97076845,0.0,0.0,0.0
281,1778662595.8075948,1.7479992,-0.16260175,0.97076845,0.0,0.0,0.0
282,1778662595.8175972,1.7479992,-0.16260175,0.97076845,0.0,0.0,0.0
283,1778662595.827598,1.7479992,-0.16260175,0.97076845,0.0,0.0,0.0
284,1778662595.837599,1.7479992,-0.16260175,0.97076845,0.0,0.0,0.0
285,1778662595.8476002,1.7479992,-0.16260175,0.97076845,0.0,0.0,0.0
286,1778662595.857602,1.7479992,-0.16260175,0.97076845,0.0,0.0,0.0
287,1778662595.8676026,1.7479992,-0.16260175,0.97076845,0.0,0.0,0.0
288,1778662595.877605,1.7479992,-0.16260175,0.97076845,0.0,0.0,0.0
289,1778662595.887606,1.7479992,-0.16260175,0.97076845,0.0,0.0,0.0
290,1778662595.897607,1.7479992,-0.16260175,0.97076845,0.0,0.0,0.0
291,1778662595.907609,1.7479992,-0.16260175,0.97076845,0.0,0.0,0.0
292,1778662595.9176104,1.7479992,-0.16260175,0.97076845,0.0,0.0,0.0
293,1778662595.9276133,1.7479992,-0.16260175,0.97076845,0.0,0.0,0.0
294,1778662595.9376152,1.7479992,-0.16260175,0.97076845,0.0,0.0,0.0
295,1778662595.947616,1.7479992,-0.16260175,0.97076845,0.0,0.0,0.0
296,1778662595.9576182,1.7479992,-0.16260175,0.97076845,0.0,0.0,0.0
297,1778662595.9676197,1.7479992,-0.16260175,0.97076845,0.0,0.0,0.0
298,1778662595.9776204,1.7479992,-0.16260175,0.97076845,0.0,0.0,0.0
299,1778662595.9876215,1.7479992,-0.16260175,0.97076845,0.0,0.0,0.0
300,1778662595.9976225,1.7479992,-0.16260175,0.97076845,0.0,0.0,0.0
301,1778662596.0076237,1.7870483,-0.049358524,1.0566765,0.0,0.0,0.0
302,1778662596.0176246,1.7870483,-0.049358524,1.0566765,0.0,0.0,0.0
303,1778662596.0276253,1.7870483,-0.049358524,1.0566765,0.0,0.0,0.0
304,1778662596.0376275,1.7870483,-0.049358524,1.0566765,0.0,0.0,0.0
305,1778662596.0476289,1.7870483,-0.049358524,1.0566765,0.0,0.0,0.0
306,1778662596.0576293,1.7870483,-0.049358524,1.0566765,0.0,0.0,0.0
307,1778662596.0676312,1.7870483,-0.049358524,1.0566765,0.0,0.0,0.0
308,1778662596.0776331,1.7870483,-0.049358524,1.0566765,0.0,0.0,0.0
309,1778662596.0876377,1.7870483,-0.049358524,1.0566765,0.0,0.0,0.0
310,1778662596.097642,1.7870483,-0.049358524,1.0566765,0.0,0.0,0.0
311,1778662596.1076458,1.7870483,-0.049358524,1.0566765,0.0,0.0,0.0
312,1778662596.1176488,1.7870483,-0.049358524,1.0566765,0.0,0.0,0.0
313,1778662596.127651,1.7870483,-0.049358524,1.0566765,0.0,0.0,0.0
314,1778662596.137652,1.7870483,-0.049358524,1.0566765,0.0,0.0,0.0
315,1778662596.1476536,1.7870483,-0.049358524,1.0566765,0.0,0.0,0.0
316,1778662596.157655,1.7870483,-0.049358524,1.0566765,0.0,0.0,0.0
317,1778662596.1676557,1.7870483,-0.049358524,1.0566765,0.0,0.0,0.0
318,1778662596.1776571,1.7870483,-0.049358524,1.0566765,0.0,0.0,0.0
319,1778662596.1876595,1.7870483,-0.049358524,1.0566765,0.0,0.0,0.0
320,1778662596.197661,1.7870483,-0.049358524,1.0566765,0.0,0.0,0.0
321,1778662596.2076616,1.7870483,-0.049358524,1.0566765,0.0,0.0,0.0
322,1778662596.2176626,1.7870483,-0.049358524,1.0566765,0.0,0.0,0.0
323,1778662596.227665,1.7870483,-0.049358524,1.0566765,0.0,0.0,0.0
324,1778662596.2376685,1.7870483,-0.049358524,1.0566765,0.0,0.0,0.0
325,1778662596.2476695,1.7870483,-0.049358524,1.0566765,0.0,0.0,0.0
326,1778662596.2576709,1.7870483,-0.049358524,1.0566765,0.0,0.0,0.0
327,1778662596.2676725,1.7870483,-0.049358524,1.0566765,0.0,0.0,0.0
328,1778662596.2776732,1.7870483,-0.049358524,1.0566765,0.0,0.0,0.0
329,1778662596.2876747,1.7870483,-0.049358524,1.0566765,0.0,0.0,0.0
330,1778662596.2976758,1.7870483,-0.049358524,1.0566765,0.0,0.0,0.0
331,1778662596.3076766,1.7870483,-0.049358524,1.0566765,0.0,0.0,0.0
332,1778662596.317679,1.7870483,-0.049358524,1.0566765,0.0,0.0,0.0
333,1778662596.3277364,1.7870483,-0.049358524,1.0566765,0.0,0.0,0.0
334,1778662596.3377373,1.7870483,-0.049358524,1.0566765,0.0,0.0,0.0
335,1778662596.3477383,1.7870483,-0.049358524,1.0566765,0.0,0.0,0.0
336,1778662596.3577404,1.7870483,-0.049358524,1.0566765,0.0,0.0,0.0
337,1778662596.3677425,1.7870483,-0.049358524,1.0566765,0.0,0.0,0.0
338,1778662596.3777437,1.7870483,-0.049358524,1.0566765,0.0,0.0,0.0
339,1778662596.3877444,1.7870483,-0.049358524,1.0566765,0.0,0.0,0.0
340,1778662596.3977454,1.7870483,-0.049358524,1.0566765,0.0,0.0,0.0
341,1778662596.407746,1.7870483,-0.049358524,1.0566765,0.0,0.0,0.0
342,1778662596.417747,1.7870483,-0.049358524,1.0566765,0.0,0.0,0.0
343,1778662596.4277487,1.8807663,0.056073327,1.1503944,0.0,0.0,0.0
344,1778662596.4377494,1.8807663,0.056073327,1.1503944,0.0,0.0,0.0
345,1778662596.4477508,1.8807663,0.056073327,1.1503944,0.0,0.0,0.0
346,1778662596.457752,1.8807663,0.056073327,1.1503944,0.0,0.0,0.0
347,1778662596.467753,1.8807663,0.056073327,1.1503944,0.0,0.0,0.0
348,1778662596.4777546,2.501648,0.27084428,1.7166075,0.0,0.0,0.0
349,1778662596.4877553,2.501648,0.27084428,1.7166075,0.0,0.0,0.0
350,1778662596.497756,2.501648,0.27084428,1.7166075,0.0,0.0,0.0
351,1778662596.5077577,2.501648,0.27084428,1.7166075,0.0,0.0,0.0
352,1778662596.5177586,2.501648,0.27084428,1.7166075,0.0,0.0,0.0
353,1778662596.527763,2.501648,0.27084428,1.7166075,0.0,0.0,0.0
354,1778662596.537765,2.501648,0.27084428,1.7166075,0.0,0.0,0.0
355,1778662596.5477662,2.501648,0.27084428,1.7166075,0.0,0.0,0.0
356,1778662596.5577674,2.501648,0.27084428,1.7166075,0.0,0.0,0.0
357,1778662596.5677686,2.501648,0.27084428,1.7166075,0.0,0.0,0.0
358,1778662596.5777693,2.501648,0.27084428,1.7166075,0.0,0.0,0.0
359,1778662596.587771,2.501648,0.27084428,1.7166075,0.0,0.0,0.0
360,1778662596.5977724,2.501648,0.27084428,1.7166075,0.0,0.0,0.0
361,1778662596.6077735,2.501648,0.27084428,1.7166075,0.0,0.0,0.0
362,1778662596.6177745,2.501648,0.27084428,1.7166075,0.0,0.0,0.0
363,1778662596.6277754,2.501648,0.27084428,1.7166075,0.0,0.0,0.0
364,1778662596.6377773,2.501648,0.27084428,1.7166075,0.0,0.0,0.0
365,1778662596.6477785,1.8807663,0.056073327,1.1503944,0.0,0.0,0.0
366,1778662596.6577795,1.8807663,0.056073327,1.1503944,0.0,0.0,0.0
367,1778662596.6677814,1.8807663,0.056073327,1.1503944,0.0,0.0,0.0
368,1778662596.6777825,1.8807663,0.056073327,1.1503944,0.0,0.0,0.0
369,1778662596.6877835,1.8807663,0.056073327,1.1503944,0.0,0.0,0.0
370,1778662596.697786,1.8807663,0.056073327,1.1503944,0.0,0.0,0.0
371,1778662596.7077878,1.8807663,0.056073327,1.1503944,0.0,0.0,0.0
372,1778662596.7177887,1.8807663,0.056073327,1.1503944,0.0,0.0,0.0
373,1778662596.7277906,2.4625988,0.54809225,2.04462,0.0,0.0,0.0
374,1778662596.7377915,2.4625988,0.54809225,2.04462,0.0,0.0,0.0
375,1778662596.7477925,2.4625988,0.54809225,2.04462,0.0,0.0,0.0
376,1778662596.757794,2.4625988,0.54809225,2.04462,0.0,0.0,0.0
377,1778662596.767795,2.4625988,0.54809225,2.04462,0.0,0.0,0.0
378,1778662596.7777956,2.4625988,0.54809225,2.04462,0.0,0.0,0.0
379,1778662596.787797,2.4625988,0.54809225,2.04462,0.0,0.0,0.0
380,1778662596.797798,2.4625988,0.54809225,2.04462,0.0,0.0,0.0
381,1778662596.8077993,2.4625988,0.54809225,2.04462,0.0,0.0,0.0
382,1778662596.8178017,2.501648,0.27084428,1.7166075,0.0,0.0,0.0
383,1778662596.827803,2.501648,0.27084428,1.7166075,0.0,0.0,0.0
384,1778662596.8378048,2.501648,0.27084428,1.7166075,0.0,0.0,0.0
385,1778662596.847806,2.501648,0.27084428,1.7166075,0.0,0.0,0.0
386,1778662596.8578079,2.501648,0.27084428,1.7166075,0.0,0.0,0.0
387,1778662596.8678086,2.501648,0.27084428,1.7166075,0.0,0.0,0.0
388,1778662596.8778098,2.501648,0.27084428,1.7166075,0.0,0.0,0.0
389,1778662596.887812,2.501648,0.27084428,1.7166075,0.0,0.0,0.0
390,1778662596.8978138,2.501648,0.27084428,1.7166075,0.0,0.0,0.0
391,1778662596.907815,2.501648,0.27084428,1.7166075,0.0,0.0,0.0
392,1778662596.917816,2.501648,0.27084428,1.7166075,0.0,0.0,0.0
393,1778662596.9278169,2.501648,0.27084428,1.7166075,0.0,0.0,0.0
394,1778662596.937818,2.501648,0.27084428,1.7166075,0.0,0.0,0.0
395,1778662596.947819,2.501648,0.27084428,1.7166075,0.0,0.0,0.0
396,1778662596.9578197,2.501648,0.27084428,1.7166075,0.0,0.0,0.0
397,1778662596.967821,2.501648,0.27084428,1.7166075,0.0,0.0,0.0
398,1778662596.9778223,2.501648,0.27084428,1.7166075,0.0,0.0,0.0
399,1778662596.987823,2.501648,0.27084428,1.7166075,0.0,0.0,0.0
400,1778662596.9978244,2.501648,0.27084428,1.7166075,0.0,0.0,0.0
401,1778662597.0078273,2.501648,0.27084428,1.7166075,0.0,0.0,0.0
402,1778662597.017829,2.501648,0.27084428,1.7166075,0.0,0.0,0.0
403,1778662597.0278304,2.501648,0.27084428,1.7166075,0.0,0.0,0.0
404,1778662597.0378318,2.3571656,0.61057085,2.05243,0.0,0.0,0.0
405,1778662597.0478323,2.3571656,0.61057085,2.05243,0.0,0.0,0.0
406,1778662597.0578334,2.3571656,0.61057085,2.05243,0.0,0.0,0.0
407,1778662597.0678349,2.3571656,0.61057085,2.05243,0.0,0.0,0.0
408,1778662597.0778358,2.3571656,0.61057085,2.05243,0.0,0.0,0.0
409,1778662597.0878367,2.3571656,0.61057085,2.05243,0.0,0.0,0.0
410,1778662597.0978377,2.3571656,0.61057085,2.05243,0.0,0.0,0.0
411,1778662597.1078384,2.3571656,0.61057085,2.05243,0.0,0.0,0.0
412,1778662597.1178403,2.3571656,0.61057085,2.05243,0.0,0.0,0.0
413,1778662597.1278415,2.3571656,0.61057085,2.05243,0.0,0.0,0.0
414,1778662597.1378424,2.3571656,0.61057085,2.05243,0.0,0.0,0.0
415,1778662597.1478438,2.064298,0.66133547,1.8962334,0.0,0.0,0.0
416,1778662597.1578445,2.064298,0.66133547,1.8962334,0.0,0.0,0.0
417,1778662597.167846,2.064298,0.66133547,1.8962334,0.0,0.0,0.0
418,1778662597.177848,1.8417171,0.64962,1.7087977,0.0,0.0,0.0
419,1778662597.18785,1.8417171,0.64962,1.7087977,0.0,0.0,0.0
420,1778662597.197851,1.8417171,0.64962,1.7087977,0.0,0.0,0.0
421,1778662597.207852,1.8417171,0.64962,1.7087977,0.0,0.0,0.0
422,1778662597.217853,1.8417171,0.64962,1.7087977,0.0,0.0,0.0
423,1778662597.2278535,1.8417171,0.64962,1.7087977,0.0,0.0,0.0
424,1778662597.237854,1.8417171,0.64962,1.7087977,0.0,0.0,0.0
425,1778662597.2478564,1.8417171,0.64962,1.7087977,0.0,0.0,0.0
426,1778662597.2578573,1.8417171,0.64962,1.7087977,0.0,0.0,0.0
427,1778662597.2678583,1.8417171,0.64962,1.7087977,0.0,0.0,0.0
428,1778662597.2778597,1.8417171,0.64962,1.7087977,0.0,0.0,0.0
429,1778662597.2878604,1.8417171,0.64962,1.7087977,0.0,0.0,0.0
430,1778662597.2978632,1.8417171,0.64962,1.7087977,0.0,0.0,0.0
431,1778662597.307865,1.8417171,0.64962,1.7087977,0.0,0.0,0.0
432,1778662597.317866,1.8417171,0.64962,1.7087977,0.0,0.0,0.0
433,1778662597.3278668,1.8417171,0.64962,1.7087977,0.0,0.0,0.0
434,1778662597.3378692,1.8417171,0.64962,1.7087977,0.0,0.0,0.0
435,1778662597.3478703,1.8417171,0.64962,1.7087977,0.0,0.0,0.0
436,1778662597.3578708,1.8417171,0.64962,1.7087977,0.0,0.0,0.0
437,1778662597.3678715,1.8417171,0.64962,1.7087977,0.0,0.0,0.0
438,1778662597.3778727,1.8417171,0.64962,1.7087977,0.0,0.0,0.0
439,1778662597.3878736,1.8417171,0.64962,1.7087977,0.0,0.0,0.0
440,1778662597.3978744,1.8417171,0.64962,1.7087977,0.0,0.0,0.0
441,1778662597.4078755,1.8417171,0.64962,1.7087977,0.0,0.0,0.0
442,1778662597.4178767,1.8417171,0.64962,1.7087977,0.0,0.0,0.0
443,1778662597.4278774,1.8417171,0.64962,1.7087977,0.0,0.0,0.0
444,1778662597.4378788,1.8417171,0.64962,1.7087977,0.0,0.0,0.0
445,1778662597.4479415,1.8417171,0.64962,1.7087977,0.0,0.0,0.0
446,1778662597.4579427,1.8417171,0.64962,1.7087977,0.0,0.0,0.0
447,1778662597.4679434,1.8417171,0.64962,1.7087977,0.0,0.0,0.0
448,1778662597.4779444,1.8417171,0.64962,1.7087977,0.0,0.0,0.0
449,1778662597.4879456,1.8417171,0.64962,1.7087977,0.0,0.0,0.0
450,1778662597.497947,1.8417171,0.64962,1.7087977,0.0,0.0,0.0
451,1778662597.5079477,1.8417171,0.64962,1.7087977,0.0,0.0,0.0
452,1778662597.5179486,1.7792385,0.637906,1.6228896,0.0,0.0,0.0
453,1778662597.5279498,1.7792385,0.637906,1.6228896,0.0,0.0,0.0
454,1778662597.5379508,1.7792385,0.637906,1.6228896,0.0,0.0,0.0
455,1778662597.5479522,1.7792385,0.637906,1.6228896,0.0,0.0,0.0
456,1778662597.5579534,1.7792385,0.637906,1.6228896,0.0,0.0,0.0
457,1778662597.5679567,1.7792385,0.637906,1.6228896,0.0,0.0,0.0
458,1778662597.5779595,1.6425674,0.6300962,1.4705973,0.0,0.0,0.0
459,1778662597.5879602,1.6425674,0.6300962,1.4705973,0.0,0.0,0.0
460,1778662597.5979612,1.6425674,0.6300962,1.4705973,0.0,0.0,0.0
461,1778662597.6079626,1.6425674,0.6300962,1.4705973,0.0,0.0,0.0
462,1778662597.617964,1.6425674,0.6300962,1.4705973,0.0,0.0,0.0
463,1778662597.6279647,1.6425674,0.6300962,1.4705973,0.0,0.0,0.0
464,1778662597.637966,1.6425674,0.6300962,1.4705973,0.0,0.0,0.0
465,1778662597.6479692,1.6425674,0.6300962,1.4705973,0.0,0.0,0.0
466,1778662597.657971,1.6425674,0.6300962,1.4705973,0.0,0.0,0.0
467,1778662597.6679716,1.6425674,0.6300962,1.4705973,0.0,0.0,0.0
468,1778662597.677973,1.6425674,0.6300962,1.4705973,0.0,0.0,0.0
469,1778662597.6879745,1.6425674,0.6300962,1.4705973,0.0,0.0,0.0
470,1778662597.6979756,1.6425674,0.6300962,1.4705973,0.0,0.0,0.0
471,1778662597.7079773,1.6425674,0.6300962,1.4705973,0.0,0.0,0.0
472,1778662597.717979,1.6425674,0.6300962,1.4705973,0.0,0.0,0.0
473,1778662597.7279804,1.6425674,0.6300962,1.4705973,0.0,0.0,0.0
474,1778662597.737982,1.6425674,0.6300962,1.4705973,0.0,0.0,0.0
475,1778662597.7479832,1.6425674,0.6300962,1.4705973,0.0,0.0,0.0
476,1778662597.757985,1.6425674,0.6300962,1.4705973,0.0,0.0,0.0
477,1778662597.7679858,1.6425674,0.6300962,1.4705973,0.0,0.0,0.0
478,1778662597.7779865,1.6425674,0.6300962,1.4705973,0.0,0.0,0.0
479,1778662597.7879882,1.6425674,0.6300962,1.4705973,0.0,0.0,0.0
480,1778662597.7979891,1.6425674,0.6300962,1.4705973,0.0,0.0,0.0
481,1778662597.8079898,1.6425674,0.6300962,1.4705973,0.0,0.0,0.0
482,1778662597.817991,1.6425674,0.6300962,1.4705973,0.0,0.0,0.0
483,1778662597.8279946,1.6425674,0.6300962,1.4705973,0.0,0.0,0.0
484,1778662597.8379958,1.6425674,0.6300962,1.4705973,0.0,0.0,0.0
485,1778662597.8479972,1.6425674,0.6300962,1.4705973,0.0,0.0,0.0
486,1778662597.8579993,1.6425674,0.6300962,1.4705973,0.0,0.0,0.0
487,1778662597.8680007,1.6425674,0.6300962,1.4705973,0.0,0.0,0.0
488,1778662597.8780022,1.6425674,0.6300962,1.4705973,0.0,0.0,0.0
489,1778662597.8880029,1.6425674,0.6300962,1.4705973,0.0,0.0,0.0
490,1778662597.898004,1.6425674,0.6300962,1.4705973,0.0,0.0,0.0
491,1778662597.9080055,1.4629399,0.67695516,1.298781,0.0,0.0,0.0
492,1778662597.9180064,1.4629399,0.67695516,1.298781,0.0,0.0,0.0
493,1778662597.9280076,1.4629399,0.67695516,1.298781,0.0,0.0,0.0
494,1778662597.9380093,1.4629399,0.67695516,1.298781,0.0,0.0,0.0
495,1778662597.948011,1.4629399,0.67695516,1.298781,0.0,0.0,0.0
496,1778662597.9580128,1.4629399,0.67695516,1.298781,0.0,0.0,0.0
497,1778662597.9680145,1.4629399,0.67695516,1.298781,0.0,0.0,0.0
498,1778662597.978016,1.4629399,0.67695516,1.298781,0.0,0.0,0.0
499,1778662597.9880168,1.4629399,0.67695516,1.298781,0.0,0.0,0.0
500,1778662597.9980183,1.4629399,0.67695516,1.298781,0.0,0.0,0.0
501,1778662598.0080194,1.4629399,0.67695516,1.298781,0.0,0.0,0.0
502,1778662598.018021,1.4629399,0.67695516,1.298781,0.0,0.0,0.0
503,1778662598.0280218,1.4629399,0.67695516,1.298781,0.0,0.0,0.0
504,1778662598.0380235,1.3145531,0.7550534,1.1074396,0.0,0.0,0.0
505,1778662598.0480247,1.3145531,0.7550534,1.1074396,0.0,0.0,0.0
506,1778662598.0580258,1.3145531,0.7550534,1.1074396,0.0,0.0,0.0
507,1778662598.0680292,1.3145531,0.7550534,1.1074396,0.0,0.0,0.0
508,1778662598.0780303,1.3145531,0.7550534,1.1074396,0.0,0.0,0.0
509,1778662598.0880313,1.3145531,0.7550534,1.1074396,0.0,0.0,0.0
510,1778662598.0980337,1.3145531,0.7550534,1.1074396,0.0,0.0,0.0
511,1778662598.1080346,1.3145531,0.7550534,1.1074396,0.0,0.0,0.0
512,1778662598.1180377,1.3145531,0.7550534,1.1074396,0.0,0.0,0.0
513,1778662598.1280391,1.3145531,0.7550534,1.1074396,0.0,0.0,0.0
514,1778662598.1380403,1.3145531,0.7550534,1.1074396,0.0,0.0,0.0
515,1778662598.148043,1.2755041,0.7980082,1.0293413,0.0,0.0,0.0
516,1778662598.1580453,1.2755041,0.7980082,1.0293413,0.0,0.0,0.0
517,1778662598.1680484,1.2755041,0.7980082,1.0293413,0.0,0.0,0.0
518,1778662598.178051,1.2755041,0.7980082,1.0293413,0.0,0.0,0.0
519,1778662598.1880536,1.2755041,0.7980082,1.0293413,0.0,0.0,0.0
520,1778662598.1980557,1.2755041,0.7980082,1.0293413,0.0,0.0,0.0
521,1778662598.2080603,1.2755041,0.7980082,1.0293413,0.0,0.0,0.0
522,1778662598.2180626,1.2755041,0.7980082,1.0293413,0.0,0.0,0.0
523,1778662598.2280657,1.2755041,0.7980082,1.0293413,0.0,0.0,0.0
524,1778662598.2380683,1.2755041,0.7980082,1.0293413,0.0,0.0,0.0
525,1778662598.2480693,1.2755041,0.7980082,1.0293413,0.0,0.0,0.0
526,1778662598.258072,1.2755041,0.7980082,1.0293413,0.0,0.0,0.0
527,1778662598.2680743,1.2755041,0.7980082,1.0293413,0.0,0.0,0.0
528,1778662598.2780752,1.2755041,0.7980082,1.0293413,0.0,0.0,0.0
529,1778662598.2880766,1.2755041,0.7980082,1.0293413,0.0,0.0,0.0
530,1778662598.2980776,1.2755041,0.7980082,1.0293413,0.0,0.0,0.0
531,1778662598.3080792,1.2755041,0.7980082,1.0293413,0.0,0.0,0.0
532,1778662598.3180807,1.2755041,0.7980082,1.0293413,0.0,0.0,0.0
533,1778662598.3280814,1.2755041,0.7980082,1.0293413,0.0,0.0,0.0
534,1778662598.3380826,1.2755041,0.7980082,1.0293413,0.0,0.0,0.0
535,1778662598.3480837,1.2833139,0.83315164,0.96295863,0.0,0.0,0.0
536,1778662598.358085,1.2833139,0.83315164,0.96295863,0.0,0.0,0.0
537,1778662598.3680866,1.2833139,0.83315164,0.96295863,0.0,0.0,0.0
538,1778662598.3780878,1.2833139,0.83315164,0.96295863,0.0,0.0,0.0
539,1778662598.3880892,1.2833139,0.83315164,0.96295863,0.0,0.0,0.0
540,1778662598.398091,1.2833139,0.83315164,0.96295863,0.0,0.0,0.0
541,1778662598.408092,1.2833139,0.83315164,0.96295863,0.0,0.0,0.0
542,1778662598.4180932,1.2833139,0.83315164,0.96295863,0.0,0.0,0.0
543,1778662598.4280946,1.2833139,0.83315164,0.96295863,0.0,0.0,0.0
544,1778662598.4380956,1.2833139,0.83315164,0.96295863,0.0,0.0,0.0
545,1778662598.4480968,1.2833139,0.83315164,0.96295863,0.0,0.0,0.0
546,1778662598.4580977,1.2833139,0.83315164,0.96295863,0.0,0.0,0.0
547,1778662598.4680996,1.2833139,0.83315164,0.96295863,0.0,0.0,0.0
548,1778662598.4781008,1.2833139,0.83315164,0.96295863,0.0,0.0,0.0
549,1778662598.4881027,1.2833139,0.83315164,0.96295863,0.0,0.0,0.0
550,1778662598.4981039,1.2833139,0.83315164,0.96295863,0.0,0.0,0.0
551,1778662598.5081055,1.2833139,0.83315164,0.96295863,0.0,0.0,0.0
552,1778662598.5181065,1.2833139,0.83315164,0.96295863,0.0,0.0,0.0
553,1778662598.5281072,1.2833139,0.83315164,0.96295863,0.0,0.0,0.0
554,1778662598.5381098,1.2833139,0.83315164,0.96295863,0.0,0.0,0.0
555,1778662598.548111,1.2833139,0.83315164,0.96295863,0.0,0.0,0.0
556,1778662598.5581121,1.2833139,0.83315164,0.96295863,0.0,0.0,0.0
557,1778662598.5681126,1.2833139,0.83315164,0.96295863,0.0,0.0,0.0
558,1778662598.5781143,1.4395103,0.8995359,0.92000383,0.0,0.0,0.0
559,1778662598.588115,1.4395103,0.8995359,0.92000383,0.0,0.0,0.0
560,1778662598.5981157,1.4395103,0.8995359,0.92000383,0.0,0.0,0.0
561,1778662598.6081178,1.4395103,0.8995359,0.92000383,0.0,0.0,0.0
562,1778662598.6181195,1.4395103,0.8995359,0.92000383,0.0,0.0,0.0
563,1778662598.6281204,1.4395103,0.8995359,0.92000383,0.0,0.0,0.0
564,1778662598.6381214,1.4395103,0.8995359,0.92000383,0.0,0.0,0.0
565,1778662598.648125,1.4395103,0.8995359,0.92000383,0.0,0.0,0.0
566,1778662598.6581256,1.4395103,0.8995359,0.92000383,0.0,0.0,0.0
567,1778662598.668127,1.8104779,1.1338307,0.8770506,0.0,0.0,0.0
568,1778662598.6781282,1.8104779,1.1338307,0.8770506,0.0,0.0,0.0
569,1778662598.6881294,1.8104779,1.1338307,0.8770506,0.0,0.0,0.0
570,1778662598.6981308,1.8104779,1.1338307,0.8770506,0.0,0.0,0.0
571,1778662598.7081318,1.8104779,1.1338307,0.8770506,0.0,0.0,0.0
572,1778662598.718133,1.8104779,1.1338307,0.8770506,0.0,0.0,0.0
573,1778662598.7281346,1.8104779,1.1338307,0.8770506,0.0,0.0,0.0
574,1778662598.7381353,1.8104779,1.1338307,0.8770506,0.0,0.0,0.0
575,1778662598.7481365,1.8104779,1.1338307,0.8770506,0.0,0.0,0.0
576,1778662598.7581382,1.8104779,1.1338307,0.8770506,0.0,0.0,0.0
577,1778662598.7681391,1.8104779,1.1338307,0.8770506,0.0,0.0,0.0
578,1778662598.7781403,1.8104779,1.1338307,0.8770506,0.0,0.0,0.0
579,1778662598.788142,1.8104779,1.1338307,0.8770506,0.0,0.0,0.0
580,1778662598.798144,1.8104779,1.1338307,0.8770506,0.0,0.0,0.0
581,1778662598.8081455,1.8104779,1.1338307,0.8770506,0.0,0.0,0.0
582,1778662598.818146,1.8104779,1.1338307,0.8770506,0.0,0.0,0.0
583,1778662598.8281484,1.8104779,1.1338307,0.8770506,0.0,0.0,0.0
584,1778662598.838151,1.8534327,1.1924036,0.8380015,0.0,0.0,0.0
585,1778662598.8481522,1.8534327,1.1924036,0.8380015,0.0,0.0,0.0
586,1778662598.8581536,1.8534327,1.1924036,0.8380015,0.0,0.0,0.0
587,1778662598.8681564,1.8534327,1.1924036,0.8380015,0.0,0.0,0.0
588,1778662598.8781571,1.8534327,1.1924036,0.8380015,0.0,0.0,0.0
589,1778662598.8881578,1.8534327,1.1924036,0.8380015,0.0,0.0,0.0
590,1778662598.8981588,1.8534327,1.1924036,0.8380015,0.0,0.0,0.0
591,1778662598.90816,1.8534327,1.1924036,0.8380015,0.0,0.0,0.0
592,1778662598.9181614,1.8534327,1.1924036,0.8380015,0.0,0.0,0.0
593,1778662598.9281652,1.8534327,1.1924036,0.8380015,0.0,0.0,0.0
594,1778662598.9381678,1.8534327,1.1924036,0.8380015,0.0,0.0,0.0
595,1778662598.948169,1.8534327,1.1924036,0.8380015,0.0,0.0,0.0
596,1778662598.958171,1.8534327,1.1924036,0.8380015,0.0,0.0,0.0
597,1778662598.9681726,1.8534327,1.1924036,0.8380015,0.0,0.0,0.0
598,1778662598.9781733,1.8534327,1.1924036,0.8380015,0.0,0.0,0.0
599,1778662598.9881747,1.8534327,1.1924036,0.8380015,0.0,0.0,0.0
600,1778662598.9981759,1.8534327,1.1924036,0.8380015,0.0,0.0,0.0
601,1778662599.008177,1.8534327,1.1924036,0.8380015,0.0,0.0,0.0
602,1778662599.0181775,1.8534327,1.1924036,0.8380015,0.0,0.0,0.0
603,1778662599.028178,1.8612424,1.250978,0.7950466,0.0,0.0,0.0
604,1778662599.038179,1.8612424,1.250978,0.7950466,0.0,0.0,0.0
605,1778662599.0481803,1.8612424,1.250978,0.7950466,0.0,0.0,0.0
606,1778662599.0581825,1.8612424,1.250978,0.7950466,0.0,0.0,0.0
607,1778662599.068184,1.8612424,1.250978,0.7950466,0.0,0.0,0.0
608,1778662599.0781858,1.8612424,1.250978,0.7950466,0.0,0.0,0.0
609,1778662599.0881875,1.8612424,1.250978,0.7950466,0.0,0.0,0.0
610,1778662599.098188,1.8612424,1.250978,0.7950466,0.0,0.0,0.0
611,1778662599.1081896,1.8612424,1.250978,0.7950466,0.0,0.0,0.0
612,1778662599.1181905,1.8612424,1.250978,0.7950466,0.0,0.0,0.0
613,1778662599.1281917,1.6894263,1.4462236,0.7872368,0.0,0.0,0.0
614,1778662599.1381927,1.6894263,1.4462236,0.7872368,0.0,0.0,0.0
615,1778662599.1481931,1.6894263,1.4462236,0.7872368,0.0,0.0,0.0
616,1778662599.158195,1.6894263,1.4462236,0.7872368,0.0,0.0,0.0
617,1778662599.1682048,1.6894263,1.4462236,0.7872368,0.0,0.0,0.0
618,1778662599.1782062,1.6894263,1.4462236,0.7872368,0.0,0.0,0.0
619,1778662599.1882074,1.5996126,1.5282276,0.79895234,0.0,0.0,0.0
620,1778662599.1982086,1.5996126,1.5282276,0.79895234,0.0,0.0,0.0
621,1778662599.2082095,1.5996126,1.5282276,0.79895234,0.0,0.0,0.0
622,1778662599.2182102,1.5996126,1.5282276,0.79895234,0.0,0.0,0.0
623,1778662599.228213,1.5996126,1.5282276,0.79895234,0.0,0.0,0.0
624,1778662599.238215,1.5996126,1.5282276,0.79895234,0.0,0.0,0.0
625,1778662599.2482164,1.5996126,1.5282276,0.79895234,0.0,0.0,0.0
626,1778662599.2582176,1.5996126,1.5282276,0.79895234,0.0,0.0,0.0
627,1778662599.2682195,1.5996126,1.5282276,0.79895234,0.0,0.0,0.0
628,1778662599.2782214,1.5996126,1.5282276,0.79895234,0.0,0.0,0.0
629,1778662599.2882218,1.5996126,1.5282276,0.79895234,0.0,0.0,0.0
630,1778662599.2982223,1.5996126,1.5282276,0.79895234,0.0,0.0,0.0
631,1778662599.308225,1.5996126,1.5282276,0.79895234,0.0,0.0,0.0
632,1778662599.3182273,1.5996126,1.5282276,0.79895234,0.0,0.0,0.0
633,1778662599.328229,1.5996126,1.5282276,0.79895234,0.0,0.0,0.0
634,1778662599.3382325,1.5996126,1.5282276,0.79895234,0.0,0.0,0.0
635,1778662599.3482337,1.5996126,1.5282276,0.79895234,0.0,0.0,0.0
636,1778662599.3582346,1.5996126,1.5282276,0.79895234,0.0,0.0,0.0
637,1778662599.3682353,1.5996126,1.5282276,0.79895234,0.0,0.0,0.0
638,1778662599.3782368,1.5996126,1.5282276,0.79895234,0.0,0.0,0.0
639,1778662599.3882382,1.5996126,1.5282276,0.79895234,0.0,0.0,0.0
640,1778662599.3982387,1.5996126,1.5282276,0.79895234,0.0,0.0,0.0
641,1778662599.4082396,1.5996126,1.5282276,0.79895234,0.0,0.0,0.0
642,1778662599.4182403,1.5996126,1.5282276,0.79895234,0.0,0.0,0.0
643,1778662599.4282594,1.5996126,1.5282276,0.79895234,0.0,0.0,0.0
644,1778662599.4382608,1.5996126,1.5282276,0.79895234,0.0,0.0,0.0
645,1778662599.4482625,1.5996126,1.5282276,0.79895234,0.0,0.0,0.0
646,1778662599.4582636,1.5996126,1.5282276,0.79895234,0.0,0.0,0.0
647,1778662599.4682653,1.5996126,1.5282276,0.79895234,0.0,0.0,0.0
648,1778662599.4782658,1.5996126,1.5282276,0.79895234,0.0,0.0,0.0
649,1778662599.4882667,1.5996126,1.5282276,0.79895234,0.0,0.0,0.0
650,1778662599.4982686,1.4473202,1.6883281,0.7716172,0.0,0.0,0.0
651,1778662599.5082698,1.4473202,1.6883281,0.7716172,0.0,0.0,0.0
652,1778662599.518271,1.4473202,1.6883281,0.7716172,0.0,0.0,0.0
653,1778662599.5283084,1.4473202,1.6883281,0.7716172,0.0,0.0,0.0
654,1778662599.53831,1.4473202,1.6883281,0.7716172,0.0,0.0,0.0
655,1778662599.548311,1.4473202,1.6883281,0.7716172,0.0,0.0,0.0
656,1778662599.5583115,1.4473202,1.6883281,0.7716172,0.0,0.0,0.0
657,1778662599.5683155,1.4473202,1.6883281,0.7716172,0.0,0.0,0.0
658,1778662599.5783172,1.3653178,1.8796697,0.6818034,0.0,0.0,0.0
659,1778662599.588318,1.3653178,1.8796697,0.6818034,0.0,0.0,0.0
660,1778662599.5983195,1.3653178,1.8796697,0.6818034,0.0,0.0,0.0
661,1778662599.6083205,1.3653178,1.8796697,0.6818034,0.0,0.0,0.0
662,1778662599.618321,1.3653178,1.8796697,0.6818034,0.0,0.0,0.0
663,1778662599.6283216,1.3653178,1.8796697,0.6818034,0.0,0.0,0.0
664,1778662599.638324,1.3653178,1.8796697,0.6818034,0.0,0.0,0.0
665,1778662599.648325,1.3653178,1.8796697,0.6818034,0.0,0.0,0.0
666,1778662599.6583276,1.3653178,1.8796697,0.6818034,0.0,0.0,0.0
667,1778662599.668329,1.3653178,1.8796697,0.6818034,0.0,0.0,0.0
668,1778662599.6783302,1.3653178,1.8796697,0.6818034,0.0,0.0,0.0
669,1778662599.6883316,1.3653178,1.8796697,0.6818034,0.0,0.0,0.0
670,1778662599.698332,1.3653178,1.8796697,0.6818034,0.0,0.0,0.0
671,1778662599.708333,1.3653178,1.8796697,0.6818034,0.0,0.0,0.0
672,1778662599.718334,1.3653178,1.8796697,0.6818034,0.0,0.0,0.0
673,1778662599.7283385,1.3653178,1.8796697,0.6818034,0.0,0.0,0.0
674,1778662599.7383432,1.3770318,2.1061544,0.4982733,0.0,0.0,0.0
675,1778662599.7483456,1.3653178,1.8796697,0.6818034,0.0,0.0,0.0
676,1778662599.7583466,1.3653178,1.8796697,0.6818034,0.0,0.0,0.0
677,1778662599.768348,1.3653178,1.8796697,0.6818034,0.0,0.0,0.0
678,1778662599.7783492,1.3653178,1.8796697,0.6818034,0.0,0.0,0.0
679,1778662599.7883515,1.3653178,1.8796697,0.6818034,0.0,0.0,0.0
680,1778662599.7983534,1.3653178,1.8796697,0.6818034,0.0,0.0,0.0
681,1778662599.8083544,1.3653178,1.8796697,0.6818034,0.0,0.0,0.0
682,1778662599.818356,1.3653178,1.8796697,0.6818034,0.0,0.0,0.0
683,1778662599.8283584,1.3653178,1.8796697,0.6818034,0.0,0.0,0.0
684,1778662599.8383596,1.3653178,1.8796697,0.6818034,0.0,0.0,0.0
685,1778662599.8483613,1.3653178,1.8796697,0.6818034,0.0,0.0,0.0
686,1778662599.8583636,1.404367,2.211588,0.3616006,0.0,0.0,0.0
687,1778662599.8683646,1.404367,2.211588,0.3616006,0.0,0.0,0.0
688,1778662599.8783653,1.404367,2.211588,0.3616006,0.0,0.0,0.0
689,1778662599.8883672,1.404367,2.211588,0.3616006,0.0,0.0,0.0
690,1778662599.898369,1.404367,2.211588,0.3616006,0.0,0.0,0.0
691,1778662599.9083703,1.404367,2.211588,0.3616006,0.0,0.0,0.0
692,1778662599.9183707,1.404367,2.211588,0.3616006,0.0,0.0,0.0
693,1778662599.928372,1.501989,2.3990238,0.068732984,0.0,0.0,0.0
694,1778662599.938373,1.501989,2.3990238,0.068732984,0.0,0.0,0.0
695,1778662599.948374,1.501989,2.3990238,0.068732984,0.0,0.0,0.0
696,1778662599.9583757,1.501989,2.3990238,0.068732984,0.0,0.0,0.0
697,1778662599.9683769,1.501989,2.3990238,0.068732984,0.0,0.0,0.0
698,1778662599.9783778,1.501989,2.3990238,0.068732984,0.0,0.0,0.0
699,1778662599.9883797,1.4512259,2.3131156,0.22492947,0.0,0.0,0.0
700,1778662599.998381,1.4512259,2.3131156,0.22492947,0.0,0.0,0.0
701,1778662600.0083814,1.4512259,2.3131156,0.22492947,0.0,0.0,0.0
702,1778662600.0183835,1.4512259,2.3131156,0.22492947,0.0,0.0,0.0
703,1778662600.0283856,1.4512259,2.3131156,0.22492947,0.0,0.0,0.0
704,1778662600.038387,1.4512259,2.3131156,0.22492947,0.0,0.0,0.0
705,1778662600.0483887,1.4512259,2.3131156,0.22492947,0.0,0.0,0.0
706,1778662600.0583897,1.4512259,2.3131156,0.22492947,0.0,0.0,0.0
707,1778662600.0683901,1.4512259,2.3131156,0.22492947,0.0,0.0,0.0
708,1778662600.0783913,1.4512259,2.3131156,0.22492947,0.0,0.0,0.0
709,1778662600.0883918,1.4512259,2.3131156,0.22492947,0.0,0.0,0.0
710,1778662600.0983925,1.4512259,2.3131156,0.22492947,0.0,0.0,0.0
711,1778662600.1083934,1.4512259,2.3131156,0.22492947,0.0,0.0,0.0
712,1778662600.118399,1.4512259,2.3131156,0.22492947,0.0,0.0,0.0
713,1778662600.1284006,1.4512259,2.3131156,0.22492947,0.0,0.0,0.0
714,1778662600.1384013,1.4512259,2.3131156,0.22492947,0.0,0.0,0.0
715,1778662600.1484027,1.4512259,2.3131156,0.22492947,0.0,0.0,0.0
716,1778662600.1584048,1.4512259,2.3131156,0.22492947,0.0,0.0,0.0
717,1778662600.1684058,1.4512259,2.3131156,0.22492947,0.0,0.0,0.0
718,1778662600.1784067,1.5097988,2.5317907,-0.21632639,0.0,0.0,0.0
719,1778662600.188408,1.5097988,2.5317907,-0.21632639,0.0,0.0,0.0
720,1778662600.1984088,1.5097988,2.5317907,-0.21632639,0.0,0.0,0.0
721,1778662600.2084146,1.5097988,2.5317907,-0.21632639,0.0,0.0,0.0
722,1778662600.2184165,1.5097988,2.5317907,-0.21632639,0.0,0.0,0.0
723,1778662600.2284176,1.5097988,2.5317907,-0.21632639,0.0,0.0,0.0
724,1778662600.2384195,1.5097988,2.5317907,-0.21632639,0.0,0.0,0.0
725,1778662600.2484207,1.5097988,2.5317907,-0.21632639,0.0,0.0,0.0
726,1778662600.2584224,1.5097988,2.5317907,-0.21632639,0.0,0.0,0.0
727,1778662600.2684245,1.5097988,2.5317907,-0.21632639,0.0,0.0,0.0
728,1778662600.2784257,1.5097988,2.5317907,-0.21632639,0.0,0.0,0.0
729,1778662600.2884276,1.4980848,2.566934,-0.3217598,0.0,0.0,0.0
730,1778662600.298429,1.4980848,2.566934,-0.3217598,0.0,0.0,0.0
731,1778662600.3084302,1.4980848,2.566934,-0.3217598,0.0,0.0,0.0
732,1778662600.3184311,1.4980848,2.566934,-0.3217598,0.0,0.0,0.0
733,1778662600.328432,1.4980848,2.566934,-0.3217598,0.0,0.0,0.0
734,1778662600.3384337,1.4980848,2.566934,-0.3217598,0.0,0.0,0.0
735,1778662600.3484356,1.4980848,2.566934,-0.3217598,0.0,0.0,0.0
736,1778662600.3584363,1.4980848,2.566934,-0.3217598,0.0,0.0,0.0
737,1778662600.3684382,1.4980848,2.566934,-0.3217598,0.0,0.0,0.0
738,1778662600.378439,1.4980848,2.566934,-0.3217598,0.0,0.0,0.0
739,1778662600.38844,1.4980848,2.566934,-0.3217598,0.0,0.0,0.0
740,1778662600.3984413,1.4980848,2.566934,-0.3217598,0.0,0.0,0.0
741,1778662600.408442,1.4980848,2.566934,-0.3217598,0.0,0.0,0.0
742,1778662600.418443,1.4980848,2.566934,-0.3217598,0.0,0.0,0.0
743,1778662600.428447,1.4980848,2.566934,-0.3217598,0.0,0.0,0.0
744,1778662600.4384487,1.4980848,2.566934,-0.3217598,0.0,0.0,0.0
745,1778662600.4484508,1.4980848,2.566934,-0.3217598,0.0,0.0,0.0
746,1778662600.458452,1.4980848,2.566934,-0.3217598,0.0,0.0,0.0
747,1778662600.4684532,1.4980848,2.566934,-0.3217598,0.0,0.0,0.0
748,1778662600.4784548,1.4980848,2.566934,-0.3217598,0.0,0.0,0.0
749,1778662600.4884567,1.4980848,2.566934,-0.3217598,0.0,0.0,0.0
750,1778662600.4984584,1.4980848,2.566934,-0.3217598,0.0,0.0,0.0
751,1778662600.5084598,1.4980848,2.566934,-0.3217598,0.0,0.0,0.0
752,1778662600.518461,1.443416,2.5474105,-0.37642854,0.0,0.0,0.0
753,1778662600.5284622,1.443416,2.5474105,-0.37642854,0.0,0.0,0.0
754,1778662600.5384629,1.443416,2.5474105,-0.37642854,0.0,0.0,0.0
755,1778662600.548465,1.443416,2.5474105,-0.37642854,0.0,0.0,0.0
756,1778662600.5584671,1.443416,2.5474105,-0.37642854,0.0,0.0,0.0
757,1778662600.5684686,1.443416,2.5474105,-0.37642854,0.0,0.0,0.0
758,1778662600.5784693,1.443416,2.5474105,-0.37642854,0.0,0.0,0.0
759,1778662600.5884705,1.443416,2.5474105,-0.37642854,0.0,0.0,0.0
760,1778662600.598473,1.443416,2.5474105,-0.37642854,0.0,0.0,0.0
761,1778662600.608479,1.443416,2.5474105,-0.37642854,0.0,0.0,0.0
762,1778662600.6184816,1.443416,2.5474105,-0.37642854,0.0,0.0,0.0
763,1778662600.6284823,1.443416,2.5474105,-0.37642854,0.0,0.0,0.0
764,1778662600.6384835,1.443416,2.5474105,-0.37642854,0.0,0.0,0.0
765,1778662600.6484847,1.443416,2.5474105,-0.37642854,0.0,0.0,0.0
766,1778662600.6584861,1.443416,2.5474105,-0.37642854,0.0,0.0,0.0
767,1778662600.6684868,1.443416,2.5474105,-0.37642854,0.0,0.0,0.0
768,1778662600.678488,1.4863693,2.566934,-0.3842384,0.0,0.0,0.0
769,1778662600.6884887,1.4863693,2.566934,-0.3842384,0.0,0.0,0.0
770,1778662600.69849,1.4863693,2.566934,-0.3842384,0.0,0.0,0.0
771,1778662600.7084918,1.4863693,2.566934,-0.3842384,0.0,0.0,0.0
772,1778662600.7184927,1.4863693,2.566934,-0.3842384,0.0,0.0,0.0
773,1778662600.7284942,1.4863693,2.566934,-0.3842384,0.0,0.0,0.0
774,1778662600.7384949,1.4863693,2.566934,-0.3842384,0.0,0.0,0.0
775,1778662600.7484953,1.4863693,2.566934,-0.3842384,0.0,0.0,0.0
776,1778662600.7584965,1.4863693,2.566934,-0.3842384,0.0,0.0,0.0
777,1778662600.7684984,1.4863693,2.566934,-0.3842384,0.0,0.0,0.0
778,1778662600.7784996,1.4863693,2.566934,-0.3842384,0.0,0.0,0.0
779,1778662600.7885005,1.4863693,2.566934,-0.3842384,0.0,0.0,0.0
780,1778662600.7985015,1.4863693,2.566934,-0.3842384,0.0,0.0,0.0
781,1778662600.8085034,1.4863693,2.566934,-0.3842384,0.0,0.0,0.0
782,1778662600.8185048,1.4863693,2.566934,-0.3842384,0.0,0.0,0.0
783,1778662600.8285058,1.4863693,2.566934,-0.3842384,0.0,0.0,0.0
784,1778662600.838508,1.2520746,2.488836,-0.14994365,0.0,0.0,0.0
785,1778662600.8485103,1.2520746,2.488836,-0.14994365,0.0,0.0,0.0
786,1778662600.8585112,1.2520746,2.488836,-0.14994365,0.0,0.0,0.0
787,1778662600.8685133,1.2520746,2.488836,-0.14994365,0.0,0.0,0.0
788,1778662600.8785143,1.2520746,2.488836,-0.14994365,0.0,0.0,0.0
789,1778662600.8885148,1.2520746,2.488836,-0.14994365,0.0,0.0,0.0
790,1778662600.8985164,1.2520746,2.488836,-0.14994365,0.0,0.0,0.0
791,1778662600.9085176,1.2520746,2.488836,-0.14994365,0.0,0.0,0.0
792,1778662600.9185183,1.2520746,2.488836,-0.14994365,0.0,0.0,0.0
793,1778662600.9285197,1.2520746,2.488836,-0.14994365,0.0,0.0,0.0
794,1778662600.9385207,1.2520746,2.488836,-0.14994365,0.0,0.0,0.0
795,1778662600.9485214,1.2520746,2.488836,-0.14994365,0.0,0.0,0.0
796,1778662600.958524,1.2520746,2.488836,-0.14994365,0.0,0.0,0.0
797,1778662600.9685254,1.2520746,2.488836,-0.14994365,0.0,0.0,0.0
798,1778662600.9785268,1.2520746,2.488836,-0.14994365,0.0,0.0,0.0
799,1778662600.988528,1.2520746,2.488836,-0.14994365,0.0,0.0,0.0
800,1778662600.998529,1.2520746,2.488836,-0.14994365,0.0,0.0,0.0
801,1778662601.0085301,1.2520746,2.488836,-0.14994365,0.0,0.0,0.0
802,1778662601.0185313,1.2520746,2.488836,-0.14994365,0.0,0.0,0.0
803,1778662601.028532,1.2520746,2.488836,-0.14994365,0.0,0.0,0.0
804,1778662601.0385332,1.2520746,2.488836,-0.14994365,0.0,0.0,0.0
805,1778662601.0485337,1.2520746,2.488836,-0.14994365,0.0,0.0,0.0
806,1778662601.0585353,1.2520746,2.488836,-0.14994365,0.0,0.0,0.0
807,1778662601.0685363,1.2520746,2.488836,-0.14994365,0.0,0.0,0.0
808,1778662601.078537,1.2520746,2.488836,-0.14994365,0.0,0.0,0.0
809,1778662601.0885384,1.0138757,2.449787,0.11949607,0.0,0.0,0.0
810,1778662601.0985398,1.0138757,2.449787,0.11949607,0.0,0.0,0.0
811,1778662601.1085405,1.0138757,2.449787,0.11949607,0.0,0.0,0.0
812,1778662601.1185412,1.0138757,2.449787,0.11949607,0.0,0.0,0.0
813,1778662601.1285439,1.0138757,2.449787,0.11949607,0.0,0.0,0.0
814,1778662601.138545,1.0138757,2.449787,0.11949607,0.0,0.0,0.0
815,1778662601.1485455,1.0138757,2.449787,0.11949607,0.0,0.0,0.0
816,1778662601.1585464,1.0138757,2.449787,0.11949607,0.0,0.0,0.0
817,1778662601.1685472,1.0138757,2.449787,0.11949607,0.0,0.0,0.0
818,1778662601.1785483,1.0138757,2.449787,0.11949607,0.0,0.0,0.0
819,1778662601.1885488,1.0138757,2.449787,0.11949607,0.0,0.0,0.0
820,1778662601.1985507,1.0138757,2.449787,0.11949607,0.0,0.0,0.0
821,1778662601.208553,1.0138757,2.449787,0.11949607,0.0,0.0,0.0
822,1778662601.218554,1.0138757,2.449787,0.11949607,0.0,0.0,0.0
823,1778662601.2285564,1.0138757,2.449787,0.11949607,0.0,0.0,0.0
824,1778662601.2385573,1.0138757,2.449787,0.11949607,0.0,0.0,0.0
825,1778662601.248558,1.0138757,2.449787,0.11949607,0.0,0.0,0.0
826,1778662601.2585616,0.79129493,2.438073,0.43969887,0.0,0.0,0.0
827,1778662601.2685633,0.79129493,2.438073,0.43969887,0.0,0.0,0.0
828,1778662601.2785647,0.79129493,2.438073,0.43969887,0.0,0.0,0.0
829,1778662601.2885678,0.79129493,2.438073,0.43969887,0.0,0.0,0.0
830,1778662601.298569,0.79129493,2.438073,0.43969887,0.0,0.0,0.0
831,1778662601.3085694,0.79129493,2.438073,0.43969887,0.0,0.0,0.0
832,1778662601.3185713,0.79129493,2.438073,0.43969887,0.0,0.0,0.0
833,1778662601.3285723,0.79129493,2.438073,0.43969887,0.0,0.0,0.0
834,1778662601.3385746,0.79129493,2.438073,0.43969887,0.0,0.0,0.0
835,1778662601.3485765,0.79129493,2.438073,0.43969887,0.0,0.0,0.0
836,1778662601.358578,0.79129493,2.438073,0.43969887,0.0,0.0,0.0
837,1778662601.36858,0.79129493,2.438073,0.43969887,0.0,0.0,0.0
838,1778662601.3785813,0.79129493,2.438073,0.43969887,0.0,0.0,0.0
839,1778662601.3885822,0.79129493,2.438073,0.43969887,0.0,0.0,0.0
840,1778662601.398584,0.79129493,2.438073,0.43969887,0.0,0.0,0.0
841,1778662601.4085846,0.79129493,2.438073,0.43969887,0.0,0.0,0.0
842,1778662601.4185877,0.79129493,2.438073,0.43969887,0.0,0.0,0.0
843,1778662601.428589,0.79129493,2.438073,0.43969887,0.0,0.0,0.0
844,1778662601.4385903,0.79129493,2.438073,0.43969887,0.0,0.0,0.0
845,1778662601.448593,0.79129493,2.438073,0.43969887,0.0,0.0,0.0
846,1778662601.458595,0.79129493,2.438073,0.43969887,0.0,0.0,0.0
847,1778662601.4685962,0.79129493,2.438073,0.43969887,0.0,0.0,0.0
848,1778662601.4785972,0.79129493,2.438073,0.43969887,0.0,0.0,0.0
849,1778662601.4886,0.79129493,2.438073,0.43969887,0.0,0.0,0.0
850,1778662601.498601,0.79129493,2.438073,0.43969887,0.0,0.0,0.0
851,1778662601.5086024,0.43985286,2.566934,0.92390954,0.0,0.0,0.0
852,1778662601.5186036,0.43985286,2.566934,0.92390954,0.0,0.0,0.0
853,1778662601.5286045,0.43985286,2.566934,0.92390954,0.0,0.0,0.0
854,1778662601.5386055,0.43985286,2.566934,0.92390954,0.0,0.0,0.0
855,1778662601.5486064,0.43985286,2.566934,0.92390954,0.0,0.0,0.0
856,1778662601.558607,0.43985286,2.566934,0.92390954,0.0,0.0,0.0
857,1778662601.5686083,0.43985286,2.566934,0.92390954,0.0,0.0,0.0
858,1778662601.578609,0.43985286,2.566934,0.92390954,0.0,0.0,0.0
859,1778662601.5886104,0.43985286,2.566934,0.92390954,0.0,0.0,0.0
860,1778662601.5986128,0.43985286,2.566934,0.92390954,0.0,0.0,0.0
861,1778662601.6086164,0.43985286,2.566934,0.92390954,0.0,0.0,0.0
862,1778662601.6186192,0.43985286,2.566934,0.92390954,0.0,0.0,0.0
863,1778662601.6286213,0.43985286,2.566934,0.92390954,0.0,0.0,0.0
864,1778662601.6386223,0.43985286,2.566934,0.92390954,0.0,0.0,0.0
865,1778662601.648623,0.43985286,2.566934,0.92390954,0.0,0.0,0.0
866,1778662601.6586661,0.43985286,2.566934,0.92390954,0.0,0.0,0.0
867,1778662601.6686692,0.43985286,2.566934,0.92390954,0.0,0.0,0.0
868,1778662601.6786704,0.43985286,2.566934,0.92390954,0.0,0.0,0.0
869,1778662601.6886714,0.43985286,2.566934,0.92390954,0.0,0.0,0.0
870,1778662601.6986737,0.43985286,2.566934,0.92390954,0.0,0.0,0.0
871,1778662601.7086751,0.43985286,2.566934,0.92390954,0.0,0.0,0.0
872,1778662601.7186759,0.43985286,2.566934,0.92390954,0.0,0.0,0.0
873,1778662601.7286777,0.43985286,2.566934,0.92390954,0.0,0.0,0.0
874,1778662601.7386794,0.43985286,2.566934,0.92390954,0.0,0.0,0.0
875,1778662601.7486806,0.43985286,2.566934,0.92390954,0.0,0.0,0.0
876,1778662601.7586815,0.40861356,2.6020792,1.0879159,0.0,0.0,0.0
877,1778662601.7686825,0.40861356,2.6020792,1.0879159,0.0,0.0,0.0
878,1778662601.7786844,0.40861356,2.6020792,1.0879159,0.0,0.0,0.0
879,1778662601.788687,0.40861356,2.6020792,1.0879159,0.0,0.0,0.0
880,1778662601.7986896,0.40861356,2.6020792,1.0879159,0.0,0.0,0.0
881,1778662601.8086922,0.40861356,2.6020792,1.0879159,0.0,0.0,0.0
882,1778662601.8186932,0.40861356,2.6020792,1.0879159,0.0,0.0,0.0
883,1778662601.8286943,0.40861356,2.6020792,1.0879159,0.0,0.0,0.0
884,1778662601.8386962,0.40861356,2.6020792,1.0879159,0.0,0.0,0.0
885,1778662601.8486986,0.40861356,2.6020792,1.0879159,0.0,0.0,0.0
886,1778662601.8587008,0.40861356,2.6020792,1.0879159,0.0,0.0,0.0
887,1778662601.8687024,0.40861356,2.6020792,1.0879159,0.0,0.0,0.0
888,1778662601.878703,0.40861356,2.6020792,1.0879159,0.0,0.0,0.0
889,1778662601.8887057,0.40861356,2.6020792,1.0879159,0.0,0.0,0.0
890,1778662601.8987076,0.40861356,2.6020792,1.0879159,0.0,0.0,0.0
891,1778662601.9087086,0.40861356,2.6020792,1.0879159,0.0,0.0,0.0
892,1778662601.91871,0.40861356,2.6020792,1.0879159,0.0,0.0,0.0
893,1778662601.928711,0.40861356,2.6020792,1.0879159,0.0,0.0,0.0
894,1778662601.9387116,0.40861356,2.6020792,1.0879159,0.0,0.0,0.0
895,1778662601.9487126,0.40861356,2.6020792,1.0879159,0.0,0.0,0.0
896,1778662601.9587154,0.51014125,2.6528423,1.4432621,0.0,0.0,0.0
897,1778662601.9687169,0.51014125,2.6528423,1.4432621,0.0,0.0,0.0
898,1778662601.9787178,0.51014125,2.6528423,1.4432621,0.0,0.0,0.0
899,1778662601.9887185,0.51014125,2.6528423,1.4432621,0.0,0.0,0.0
900,1778662601.998721,0.51014125,2.6528423,1.4432621,0.0,0.0,0.0
901,1778662602.008722,0.51014125,2.6528423,1.4432621,0.0,0.0,0.0
902,1778662602.0187242,0.51014125,2.6528423,1.4432621,0.0,0.0,0.0
903,1778662602.0287259,0.70148116,2.7114167,1.6775583,0.0,0.0,0.0
904,1778662602.0387266,0.70148116,2.7114167,1.6775583,0.0,0.0,0.0
905,1778662602.0487275,0.70148116,2.7114167,1.6775583,0.0,0.0,0.0
906,1778662602.0587287,0.70148116,2.7114167,1.6775583,0.0,0.0,0.0
907,1778662602.0687296,0.70148116,2.7114167,1.6775583,0.0,0.0,0.0
908,1778662602.0787306,0.70148116,2.7114167,1.6775583,0.0,0.0,0.0
909,1778662602.088732,0.70148116,2.7114167,1.6775583,0.0,0.0,0.0
910,1778662602.098733,0.70148116,2.7114167,1.6775583,0.0,0.0,0.0
911,1778662602.1087337,0.70148116,2.7114167,1.6775583,0.0,0.0,0.0
912,1778662602.118735,0.70148116,2.7114167,1.6775583,0.0,0.0,0.0
913,1778662602.1287363,0.70148116,2.7114167,1.6775583,0.0,0.0,0.0
914,1778662602.1387389,0.70148116,2.7114167,1.6775583,0.0,0.0,0.0
915,1778662602.1487415,0.70148116,2.7114167,1.6775583,0.0,0.0,0.0
916,1778662602.1587424,0.70148116,2.7114167,1.6775583,0.0,0.0,0.0
917,1778662602.1687462,0.70148116,2.7114167,1.6775583,0.0,0.0,0.0
918,1778662602.178748,0.70148116,2.7114167,1.6775583,0.0,0.0,0.0
919,1778662602.1887488,0.70148116,2.7114167,1.6775583,0.0,0.0,0.0
920,1778662602.1987503,0.70148116,2.7114167,1.6775583,0.0,0.0,0.0
921,1778662602.2087512,0.70148116,2.7114167,1.6775583,0.0,0.0,0.0
922,1778662602.2187529,0.70148116,2.7114167,1.6775583,0.0,0.0,0.0
923,1778662602.2287538,0.70148116,2.7114167,1.6775583,0.0,0.0,0.0
924,1778662602.2387543,0.70148116,2.7114167,1.6775583,0.0,0.0,0.0
925,1778662602.2487557,0.70148116,2.7114167,1.6775583,0.0,0.0,0.0
926,1778662602.258757,0.70148116,2.7114167,1.6775583,0.0,0.0,0.0
927,1778662602.2687597,0.70148116,2.7114167,1.6775583,0.0,0.0,0.0
928,1778662602.2787616,0.80691457,2.742656,1.7087977,0.0,0.0,0.0
929,1778662602.288765,0.80691457,2.742656,1.7087977,0.0,0.0,0.0
930,1778662602.298766,0.80691457,2.742656,1.7087977,0.0,0.0,0.0
931,1778662602.3087673,0.80691457,2.742656,1.7087977,0.0,0.0,0.0
932,1778662602.318768,0.80691457,2.742656,1.7087977,0.0,0.0,0.0
933,1778662602.328769,0.80691457,2.742656,1.7087977,0.0,0.0,0.0
934,1778662602.3387706,0.80691457,2.742656,1.7087977,0.0,0.0,0.0
935,1778662602.3487718,0.80691457,2.742656,1.7087977,0.0,0.0,0.0
936,1778662602.3587725,0.80691457,2.742656,1.7087977,0.0,0.0,0.0
937,1778662602.368774,0.80691457,2.742656,1.7087977,0.0,0.0,0.0
938,1778662602.378775,0.80691457,2.742656,1.7087977,0.0,0.0,0.0
939,1778662602.3887768,0.80691457,2.742656,1.7087977,0.0,0.0,0.0
940,1778662602.398779,0.80691457,2.742656,1.7087977,0.0,0.0,0.0
941,1778662602.40878,0.80691457,2.742656,1.7087977,0.0,0.0,0.0
942,1778662602.4187822,0.80691457,2.742656,1.7087977,0.0,0.0,0.0
943,1778662602.4287837,0.80691457,2.742656,1.7087977,0.0,0.0,0.0
944,1778662602.4387846,0.80691457,2.742656,1.7087977,0.0,0.0,0.0
945,1778662602.448785,0.80691457,2.742656,1.7087977,0.0,0.0,0.0
946,1778662602.4587874,1.0880682,2.8051345,1.693178,0.0,0.0,0.0
947,1778662602.4687886,1.0880682,2.8051345,1.693178,0.0,0.0,0.0
948,1778662602.4787898,1.0880682,2.8051345,1.693178,0.0,0.0,0.0
949,1778662602.4887912,1.0880682,2.8051345,1.693178,0.0,0.0,0.0
950,1778662602.4987924,1.0880682,2.8051345,1.693178,0.0,0.0,0.0
951,1778662602.5087936,1.0880682,2.8051345,1.693178,0.0,0.0,0.0
952,1778662602.518794,1.0880682,2.8051345,1.693178,0.0,0.0,0.0
953,1778662602.5287967,1.0880682,2.8051345,1.693178,0.0,0.0,0.0
954,1778662602.5387979,1.0880682,2.8051345,1.693178,0.0,0.0,0.0
955,1778662602.5487988,1.0880682,2.8051345,1.693178,0.0,0.0,0.0
956,1778662602.5588002,1.0880682,2.8051345,1.693178,0.0,0.0,0.0
957,1778662602.5688012,1.0880682,2.8051345,1.693178,0.0,0.0,0.0
958,1778662602.578802,1.0880682,2.8051345,1.693178,0.0,0.0,0.0
959,1778662602.588803,1.0880682,2.8051345,1.693178,0.0,0.0,0.0
960,1778662602.5988038,1.0880682,2.8051345,1.693178,0.0,0.0,0.0
961,1778662602.6088057,1.2637901,2.8402781,1.6970822,0.0,0.0,0.0
962,1778662602.618807,1.2637901,2.8402781,1.6970822,0.0,0.0,0.0
963,1778662602.628808,1.2637901,2.8402781,1.6970822,0.0,0.0,0.0
964,1778662602.6388102,1.2637901,2.8402781,1.6970822,0.0,0.0,0.0
965,1778662602.6488113,1.2637901,2.8402781,1.6970822,0.0,0.0,0.0
966,1778662602.6588125,1.2637901,2.8402781,1.6970822,0.0,0.0,0.0
967,1778662602.6688147,1.2637901,2.8402781,1.6970822,0.0,0.0,0.0
968,1778662602.6788158,1.2637901,2.8402781,1.6970822,0.0,0.0,0.0
969,1778662602.6888168,1.2637901,2.8402781,1.6970822,0.0,0.0,0.0
970,1778662602.6988177,1.2637901,2.8402781,1.6970822,0.0,0.0,0.0
971,1778662602.7088182,1.2637901,2.8402781,1.6970822,0.0,0.0,0.0
972,1778662602.7188194,1.2637901,2.8402781,1.6970822,0.0,0.0,0.0
973,1778662602.7288246,1.2637901,2.8402781,1.6970822,0.0,0.0,0.0
974,1778662602.7388272,1.2637901,2.8402781,1.6970822,0.0,0.0,0.0
975,1778662602.7488284,1.2637901,2.8402781,1.6970822,0.0,0.0,0.0
976,1778662602.7588298,1.2637901,2.8402781,1.6970822,0.0,0.0,0.0
977,1778662602.7688305,1.2637901,2.8402781,1.6970822,0.0,0.0,0.0
978,1778662602.778832,1.2637901,2.8402781,1.6970822,0.0,0.0,0.0
979,1778662602.7888336,1.2637901,2.8402781,1.6970822,0.0,0.0,0.0
980,1778662602.7988343,1.2637901,2.8402781,1.6970822,0.0,0.0,0.0
981,1778662602.8088355,1.2637901,2.8402781,1.6970822,0.0,0.0,0.0
982,1778662602.8188362,1.2637901,2.8402781,1.6970822,0.0,0.0,0.0
983,1778662602.8288376,1.6464715,2.8715174,1.6267937,0.0,0.0,0.0
984,1778662602.8388402,1.6464715,2.8715174,1.6267937,0.0,0.0,0.0
985,1778662602.8488424,1.6464715,2.8715174,1.6267937,0.0,0.0,0.0
986,1778662602.8588455,1.6464715,2.8715174,1.6267937,0.0,0.0,0.0
987,1778662602.8688471,1.6464715,2.8715174,1.6267937,0.0,0.0,0.0
988,1778662602.8788478,1.6464715,2.8715174,1.6267937,0.0,0.0,0.0
989,1778662602.8888495,1.6464715,2.8715174,1.6267937,0.0,0.0,0.0
990,1778662602.8988504,1.6464715,2.8715174,1.6267937,0.0,0.0,0.0
991,1778662602.9088547,1.6464715,2.8715174,1.6267937,0.0,0.0,0.0
992,1778662602.9188566,1.2637901,2.8402781,1.6970822,0.0,0.0,0.0
993,1778662602.928858,1.2637901,2.8402781,1.6970822,0.0,0.0,0.0
994,1778662602.9388607,1.2637901,2.8402781,1.6970822,0.0,0.0,0.0
995,1778662602.9488628,1.2637901,2.8402781,1.6970822,0.0,0.0,0.0
996,1778662602.9588642,1.2637901,2.8402781,1.6970822,0.0,0.0,0.0
997,1778662602.9688675,1.2637901,2.8402781,1.6970822,0.0,0.0,0.0
998,1778662602.978869,1.2637901,2.8402781,1.6970822,0.0,0.0,0.0
999,1778662602.98887,1.2637901,2.8402781,1.6970822,0.0,0.0,0.0
1000,1778662602.998872,1.2637901,2.8402781,1.6970822,0.0,0.0,0.0
