id,timestamp,acc_x,acc_y,acc_z,gyro_x,gyro_y,gyro_z
1,1778656898.4680037,-0.024832472,-0.16260175,-0.3842384,0.0,0.0,0.0
2,1778656898.5180075,-0.013118514,-0.1508878,-0.4193818,0.0,0.0,0.0
3,1778656898.5680106,0.061075594,-0.111838676,-0.267091,0.0,0.0,0.0
4,1778656898.6180127,0.061075594,-0.111838676,-0.267091,0.0,0.0,0.0
5,1778656898.6680162,0.2563212,0.052169193,-0.25147137,0.0,0.0,0.0
6,1778656898.7180185,0.30708584,0.10683796,-0.24756567,0.0,0.0,0.0
7,1778656898.768021,0.30708584,0.10683796,-0.24756567,0.0,0.0,0.0
8,1778656898.8180237,0.30708584,0.10683796,-0.24756567,0.0,0.0,0.0
9,1778656898.8680277,0.32270548,0.16931656,-0.31394997,0.0,0.0,0.0
10,1778656898.9180305,0.43204302,0.20445998,-0.29442462,0.0,0.0,0.0
11,1778656898.968033,0.22117777,0.07169297,0.03749369,0.0,0.0,0.0
12,1778656899.0180352,0.22117777,0.07169297,0.03749369,0.0,0.0,0.0
13,1778656899.0680373,0.22117777,0.07169297,0.03749369,0.0,0.0,0.0
14,1778656899.1180398,0.15479349,0.14979121,0.13121158,0.0,0.0,0.0
15,1778656899.168042,0.15479349,0.14979121,0.13121158,0.0,0.0,0.0
16,1778656899.2180436,0.1352697,0.15760104,0.14292555,0.0,0.0,0.0
17,1778656899.268047,0.09231489,0.020929893,-0.083559364,0.0,0.0,0.0
18,1778656899.3180506,0.12355419,-0.39689648,-0.41157198,0.0,0.0,0.0
19,1778656899.3680527,0.12355419,-0.39689648,-0.41157198,0.0,0.0,0.0
20,1778656899.418055,-0.72771823,-3.1967208,-1.2589387,0.0,0.0,0.0
21,1778656899.468058,-0.8058165,-2.646129,-1.4893293,0.0,0.0,0.0
22,1778656899.5180602,-0.8878188,-1.814382,-1.2706542,0.0,0.0,0.0
23,1778656899.568062,-0.8878188,-1.6230404,-1.1847461,0.0,0.0,0.0
24,1778656899.6180644,-0.96982276,-1.119306,-0.9465457,0.0,0.0,0.0
25,1778656899.6680665,-0.79019684,-1.419985,-0.8254942,0.0,0.0,0.0
26,1778656899.7180693,-0.9737269,-1.2325492,-0.8254942,0.0,0.0,0.0
27,1778656899.7680714,-0.53247106,-1.5878955,-0.8567335,0.0,0.0,0.0
28,1778656899.8180747,-0.33722544,-1.5722759,-0.845018,0.0,0.0,0.0
29,1778656899.8680773,-0.26693702,-1.5293226,-0.83330405,0.0,0.0,0.0
30,1778656899.91808,-0.26693702,-1.5293226,-0.83330405,0.0,0.0,0.0
31,1778656899.9680824,-0.071691416,-1.3028376,-0.7083453,0.0,0.0,0.0
32,1778656900.0180845,-0.071691416,-1.3028376,-0.7083453,0.0,0.0,0.0
33,1778656900.0680873,-0.071691416,-1.3028376,-0.7083453,0.0,0.0,0.0
34,1778656900.1181033,0.0025011348,-1.1427355,-0.55995864,0.0,0.0,0.0
35,1778656900.1681054,0.0025011348,-1.1427355,-0.55995864,0.0,0.0,0.0
36,1778656900.2181077,0.0025011348,-0.9045366,-0.41547766,0.0,0.0,0.0
37,1778656900.268111,0.0025011348,-0.9045366,-0.41547766,0.0,0.0,0.0
38,1778656900.3181143,0.0025011348,-0.9045366,-0.41547766,0.0,0.0,0.0
39,1778656900.368117,0.09231489,-0.5804281,-0.22023207,0.0,0.0,0.0
40,1778656900.41812,0.18993847,-0.42032596,0.025778176,0.0,0.0,0.0
41,1778656900.468123,0.18993847,-0.42032596,0.025778176,0.0,0.0,0.0
42,1778656900.5181258,0.11574437,0.13417158,0.24445325,0.0,0.0,0.0
43,1778656900.5681283,0.08450507,0.16150673,0.20540413,0.0,0.0,0.0
44,1778656900.6181307,0.08450507,0.16150673,0.20540413,0.0,0.0,0.0
45,1778656900.6681325,0.21336795,0.32160735,-0.22023207,0.0,0.0,0.0
46,1778656900.718134,0.2563212,0.337227,-0.2592812,0.0,0.0,0.0
47,1778656900.7681358,0.23289172,0.36456215,-0.4818604,0.0,0.0,0.0
48,1778656900.8181376,0.23289172,0.36456215,-0.4818604,0.0,0.0,0.0
49,1778656900.8681395,0.15479349,0.29036805,-0.4506211,0.0,0.0,0.0
50,1778656900.9181411,0.12355419,0.22007963,-0.49748006,0.0,0.0,0.0
51,1778656900.9681427,0.12355419,0.22007963,-0.49748006,0.0,0.0,0.0
52,1778656901.0181446,0.07278956,0.102932274,-0.55605453,0.0,0.0,0.0
53,1778656901.0681472,0.07278956,0.102932274,-0.55605453,0.0,0.0,0.0
54,1778656901.1181495,-0.17712483,-0.24069999,-0.72787064,0.0,0.0,0.0
55,1778656901.1681519,-0.36846474,-0.38908666,-0.57167417,0.0,0.0,0.0
56,1778656901.218155,-0.36846474,-0.38908666,-0.57167417,0.0,0.0,0.0
57,1778656901.26816,-0.36846474,-0.38908666,-0.57167417,0.0,0.0,0.0
58,1778656901.3181622,-0.44656298,-3.1147184,-1.192556,0.0,0.0,0.0
59,1778656901.3681638,-0.58713984,-3.6067374,-1.723624,0.0,0.0,0.0
60,1778656901.4181654,-0.58713984,-3.6067374,-1.723624,0.0,0.0,0.0
61,1778656901.4681673,0.40080374,-5.8169208,-1.2628444,0.0,0.0,0.0
62,1778656901.518171,0.40080374,-5.8169208,-1.2628444,0.0,0.0,0.0
63,1778656901.5681736,0.64681244,-2.177538,-0.17727725,0.0,0.0,0.0
64,1778656901.618175,0.64681244,-2.177538,-0.17727725,0.0,0.0,0.0
65,1778656901.6681788,0.45156682,-1.3457909,-0.18118295,0.0,0.0,0.0
66,1778656901.7181811,0.45156682,-1.3457909,-0.18118295,0.0,0.0,0.0
67,1778656901.7681828,0.45156682,-1.3457909,-0.18118295,0.0,0.0,0.0
68,1778656901.8181846,0.45156682,-1.3457909,-0.18118295,0.0,0.0,0.0
69,1778656901.868186,0.45156682,-1.3457909,-0.18118295,0.0,0.0,0.0
70,1778656901.9181879,0.15479349,-1.8924801,-0.61853313,0.0,0.0,0.0
71,1778656901.9681897,0.15479349,-1.8924801,-0.61853313,0.0,0.0,0.0
72,1778656902.0181913,0.15479349,-1.8924801,-0.61853313,0.0,0.0,0.0
73,1778656902.068193,0.15088935,-1.8924801,-0.3920482,0.0,0.0,0.0
74,1778656902.1181943,0.15088935,-1.8924801,-0.3920482,0.0,0.0,0.0
75,1778656902.1681957,0.15088935,-1.8924801,-0.3920482,0.0,0.0,0.0
76,1778656902.2181976,0.014216649,-1.599611,-0.41547766,0.0,0.0,0.0
77,1778656902.268201,0.014216649,-1.599611,-0.41547766,0.0,0.0,0.0
78,1778656902.3182044,0.014216649,-1.599611,-0.41547766,0.0,0.0,0.0
79,1778656902.368206,-0.0053086895,-1.4590342,-0.43500146,0.0,0.0,0.0
80,1778656902.4182074,-0.18102896,-0.9592054,-0.083559364,0.0,0.0,0.0
81,1778656902.46821,-0.3216058,-0.59604776,-0.18118295,0.0,0.0,0.0
82,1778656902.5182118,-0.3216058,-0.59604776,-0.18118295,0.0,0.0,0.0
83,1778656902.5682135,-0.34894097,-0.45547095,-0.2553755,0.0,0.0,0.0
84,1778656902.6182148,-0.34894097,-0.45547095,-0.2553755,0.0,0.0,0.0
85,1778656902.6682165,-0.34894097,-0.45547095,-0.2553755,0.0,0.0,0.0
86,1778656902.7182186,-0.36846474,-0.29536876,-0.25147137,0.0,0.0,0.0
87,1778656902.7682207,-0.36846474,-0.29536876,-0.25147137,0.0,0.0,0.0
88,1778656902.8182225,-0.19664861,-0.27974913,-0.20070674,0.0,0.0,0.0
89,1778656902.8682253,-0.14588553,-0.25631964,-0.2241362,0.0,0.0,0.0
90,1778656902.9182272,-0.08731107,-0.053264216,-0.134324,0.0,0.0,0.0
91,1778656902.968229,0.12745988,0.5363783,0.16635501,0.0,0.0,0.0
92,1778656903.0182304,0.12745988,0.5363783,0.16635501,0.0,0.0,0.0
93,1778656903.0682356,0.47890198,0.2669386,0.16635501,0.0,0.0,0.0
94,1778656903.118238,0.5413806,-0.06107404,-0.18899277,0.0,0.0,0.0
95,1778656903.168239,0.4749963,-0.6546207,-0.7708239,0.0,0.0,0.0
96,1778656903.2182407,0.30318016,-0.853772,-0.89578265,0.0,0.0,0.0
97,1778656903.2682428,-0.2591272,-1.6191348,-1.3878015,0.0,0.0,0.0
98,1778656903.3183641,-0.2591272,-1.6191348,-1.3878015,0.0,0.0,0.0
99,1778656903.3683677,-0.34503528,-2.5563152,-1.579143,0.0,0.0,0.0
100,1778656903.4183707,-0.76286167,-2.9077573,-1.3604664,0.0,0.0,0.0
101,1778656903.4683743,-0.9502974,-1.0021586,-1.0324538,0.0,0.0,0.0
102,1778656903.5183766,-0.9502974,-1.0021586,-1.0324538,0.0,0.0,0.0
103,1778656903.568379,-0.9502974,-1.0021586,-1.0324538,0.0,0.0,0.0
104,1778656903.6183808,-0.9502974,-1.0021586,-1.0324538,0.0,0.0,0.0
105,1778656903.6683826,-1.012776,-0.9201563,-0.7200608,0.0,0.0,0.0
106,1778656903.7183843,-1.012776,-0.9201563,-0.7200608,0.0,0.0,0.0
107,1778656903.7683864,-0.83705574,-1.1114962,-0.677106,0.0,0.0,0.0
108,1778656903.8183877,-0.83705574,-1.1114962,-0.677106,0.0,0.0,0.0
109,1778656903.8683918,-0.62618893,-1.2286435,-0.7630141,0.0,0.0,0.0
110,1778656903.9183948,-0.62618893,-1.2286435,-0.7630141,0.0,0.0,0.0
111,1778656903.968397,-0.62618893,-1.2286435,-0.7630141,0.0,0.0,0.0
112,1778656904.018399,-0.62618893,-1.2286435,-0.7630141,0.0,0.0,0.0
113,1778656904.0684006,-0.4856121,-1.2755024,-0.7786337,0.0,0.0,0.0
114,1778656904.1184022,-0.4856121,-1.2755024,-0.7786337,0.0,0.0,0.0
115,1778656904.1684039,-0.2903665,-1.2559787,-0.7708239,0.0,0.0,0.0
116,1778656904.2184055,-0.2903665,-1.2559787,-0.7708239,0.0,0.0,0.0
117,1778656904.2684078,-0.24741325,-1.2247394,-0.74739444,0.0,0.0,0.0
118,1778656904.3184094,-0.24741325,-1.2247394,-0.74739444,0.0,0.0,0.0
119,1778656904.368411,0.037646122,-0.81472284,-0.44281128,0.0,0.0,0.0
120,1778656904.4184132,0.037646122,-0.81472284,-0.44281128,0.0,0.0,0.0
121,1778656904.4684153,0.037646122,-0.81472284,-0.44281128,0.0,0.0,0.0
122,1778656904.518417,0.42813733,-0.43985128,0.068732984,0.0,0.0,0.0
123,1778656904.5684187,0.42813733,-0.43985128,0.068732984,0.0,0.0,0.0
124,1778656904.6184204,0.6858615,-0.3148941,0.33036134,0.0,0.0,0.0
125,1778656904.668423,0.6819574,-0.2524155,0.36941046,0.0,0.0,0.0
126,1778656904.718424,0.6819574,-0.2524155,0.36941046,0.0,0.0,0.0
127,1778656904.7684267,0.6819574,-0.2524155,0.36941046,0.0,0.0,0.0
128,1778656904.8184292,0.32270548,-0.08450351,0.20540413,0.0,0.0,0.0
129,1778656904.8684332,0.32270548,-0.08450351,0.20540413,0.0,0.0,0.0
130,1778656904.918436,0.1938426,0.059979014,0.0648273,0.0,0.0,0.0
131,1778656904.968438,0.1938426,0.059979014,0.0648273,0.0,0.0,0.0
132,1778656905.01844,0.20555812,0.32160735,-0.103084706,0.0,0.0,0.0
133,1778656905.0684416,0.20555812,0.32160735,-0.103084706,0.0,0.0,0.0
134,1778656905.118443,0.20555812,0.32160735,-0.103084706,0.0,0.0,0.0
135,1778656905.1684444,0.26803672,0.67695516,-0.6419626,0.0,0.0,0.0
136,1778656905.218446,0.26803672,0.67695516,-0.6419626,0.0,0.0,0.0
137,1778656905.2684476,-0.28646237,-0.7873877,-0.028890595,0.0,0.0,0.0
138,1778656905.3184505,-0.23960342,-0.88891697,0.23664343,0.0,0.0,0.0
139,1778656905.3684528,-0.28255668,-1.9861981,-0.89187694,0.0,0.0,0.0
140,1778656905.4184542,-1.012776,-4.282288,-2.3327918,0.0,0.0,0.0
141,1778656905.4684565,-2.0085294,-8.093487,-2.4577491,0.0,0.0,0.0
142,1778656905.518458,-2.0085294,-8.093487,-2.4577491,0.0,0.0,0.0
143,1778656905.56846,0.6429083,-3.9620852,-0.50919557,0.0,0.0,0.0
144,1778656905.6184616,0.6429083,-3.9620852,-0.50919557,0.0,0.0,0.0
145,1778656905.6684659,0.7834851,-2.9468064,-0.3529991,0.0,0.0,0.0
146,1778656905.7184675,0.7405303,-1.298932,-0.02498646,0.0,0.0,0.0
147,1778656905.768469,0.7405303,-1.298932,-0.02498646,0.0,0.0,0.0
148,1778656905.818471,0.7405303,-1.298932,-0.02498646,0.0,0.0,0.0
149,1778656905.8684745,0.7405303,-1.298932,-0.02498646,0.0,0.0,0.0
150,1778656905.9184766,0.53357077,-1.38484,-0.278805,0.0,0.0,0.0
151,1778656905.9684787,0.49061593,-1.64647,-0.7669198,0.0,0.0,0.0
152,1778656906.0184803,0.49061593,-1.64647,-0.7669198,0.0,0.0,0.0
153,1778656906.0684817,0.3500391,-1.8339057,-0.5482447,0.0,0.0,0.0
154,1778656906.1184871,0.15869917,-1.8495253,-0.4545268,0.0,0.0,0.0
155,1778656906.1685154,0.15869917,-1.8495253,-0.4545268,0.0,0.0,0.0
156,1778656906.2185175,0.12745988,-1.8182861,-0.43890715,0.0,0.0,0.0
157,1778656906.2685192,0.12745988,-1.8182861,-0.43890715,0.0,0.0,0.0
158,1778656906.3185205,0.12745988,-1.8182861,-0.43890715,0.0,0.0,0.0
159,1778656906.368522,0.12745988,-1.8182861,-0.43890715,0.0,0.0,0.0
160,1778656906.4185243,0.05326577,-1.6074208,-0.47795627,0.0,0.0,0.0
161,1778656906.4685261,0.05326577,-1.6074208,-0.47795627,0.0,0.0,0.0
162,1778656906.5185277,0.061075594,-1.3301712,-0.34128356,0.0,0.0,0.0
163,1778656906.5685294,0.061075594,-1.3301712,-0.34128356,0.0,0.0,0.0
164,1778656906.6185312,0.061075594,-1.3301712,-0.34128356,0.0,0.0,0.0
165,1778656906.6685333,-0.0014029997,-1.1700706,-0.2241362,0.0,0.0,0.0
166,1778656906.718536,-0.0014029997,-1.1700706,-0.2241362,0.0,0.0,0.0
167,1778656906.7685375,-0.169315,-0.60385764,-0.23975585,0.0,0.0,0.0
168,1778656906.81854,-0.20445843,-0.43204147,-0.2553755,0.0,0.0,0.0
169,1778656906.8685417,-0.20445843,-0.43204147,-0.2553755,0.0,0.0,0.0
170,1778656906.9185429,-0.20445843,-0.43204147,-0.2553755,0.0,0.0,0.0
171,1778656906.9685447,-0.29817632,-0.3070843,-0.17727725,0.0,0.0,0.0
172,1778656907.0185463,-0.34894097,-0.36175305,-0.099179015,0.0,0.0,0.0
173,1778656907.0685503,-0.34894097,-0.36175305,-0.099179015,0.0,0.0,0.0
174,1778656907.1185536,-0.34894097,-0.36175305,-0.099179015,0.0,0.0,0.0
175,1778656907.168558,-0.34894097,-0.36175305,-0.099179015,0.0,0.0,0.0
176,1778656907.2185595,-0.32941562,-0.33441788,-0.048415933,0.0,0.0,0.0
177,1778656907.268561,-0.27084273,-0.21727052,-0.12651418,0.0,0.0,0.0
178,1778656907.3185627,-0.27084273,-0.21727052,-0.12651418,0.0,0.0,0.0
179,1778656907.368565,-0.27084273,-0.21727052,-0.12651418,0.0,0.0,0.0
180,1778656907.418567,-0.25131738,-0.1469821,-0.18899277,0.0,0.0,0.0
181,1778656907.4685688,-0.14197984,-0.123552635,-0.021080771,0.0,0.0,0.0
182,1778656907.5185704,-0.08731107,-0.13136245,0.033588,0.0,0.0,0.0
183,1778656907.568572,0.045455948,-0.1469821,0.26788273,0.0,0.0,0.0
184,1778656907.618574,0.1977483,0.48561367,0.2913122,0.0,0.0,0.0
185,1778656907.668576,0.1977483,0.48561367,0.2913122,0.0,0.0,0.0
186,1778656907.718578,0.1977483,0.48561367,0.2913122,0.0,0.0,0.0
187,1778656907.7685807,0.57261986,0.8253418,0.029683866,0.0,0.0,0.0
188,1778656907.8185833,0.57261986,0.8253418,0.029683866,0.0,0.0,0.0
189,1778656907.868585,0.57261986,0.5793316,-0.017176636,0.0,0.0,0.0
190,1778656907.9185872,0.57261986,0.5793316,-0.017176636,0.0,0.0,0.0
191,1778656907.9685898,0.63509846,-0.19384106,-0.23975585,0.0,0.0,0.0
192,1778656908.018592,0.63509846,-0.19384106,-0.23975585,0.0,0.0,0.0
193,1778656908.068594,0.43594715,-0.84596217,-0.7395846,0.0,0.0,0.0
194,1778656908.1185951,0.43594715,-0.84596217,-0.7395846,0.0,0.0,0.0
195,1778656908.1685965,0.35394478,-1.0216839,-0.96997523,0.0,0.0,0.0
196,1778656908.2185981,0.35394478,-1.0216839,-0.96997523,0.0,0.0,0.0
197,1778656908.2686012,-0.071691416,-1.8690507,-1.5439981,0.0,0.0,0.0
198,1778656908.318603,-0.2903665,-2.6578429,-1.5557135,0.0,0.0,0.0
199,1778656908.368606,-0.2903665,-2.6578429,-1.5557135,0.0,0.0,0.0
200,1778656908.418609,-0.48170796,-2.8374689,-1.3409426,0.0,0.0,0.0
