id,timestamp,acc_x,acc_y,acc_z,gyro_x,gyro_y,gyro_z
1,1778656405.1837993,-0.5910455,-1.3887458,-1.0754086,0.0,0.0,0.0
2,1778656405.2338033,-0.5910455,-1.3887458,-1.0754086,0.0,0.0,0.0
3,1778656405.2838068,-0.5910455,-1.3887458,-1.0754086,0.0,0.0,0.0
4,1778656405.3338094,-0.8878188,-1.6972345,0.27959824,0.0,0.0,0.0
5,1778656405.383812,-0.8878188,-1.6972345,0.27959824,0.0,0.0,0.0
6,1778656405.4338155,-0.8878188,-1.6972345,0.27959824,0.0,0.0,0.0
7,1778656405.4838178,-1.8601427,-2.5563152,0.3928399,0.0,0.0,0.0
8,1778656405.5338202,-1.8601427,-2.5563152,0.3928399,0.0,0.0,0.0
9,1778656405.583823,-1.8601427,-2.5563152,0.3928399,0.0,0.0,0.0
10,1778656405.6338253,-1.840619,-2.911663,-0.14603797,0.0,0.0,0.0
11,1778656405.6838272,-1.840619,-2.911663,-0.14603797,0.0,0.0,0.0
12,1778656405.7338293,-1.840619,-2.911663,-0.14603797,0.0,0.0,0.0
13,1778656405.7838318,-1.3564082,-3.536449,-1.6650511,0.0,0.0,0.0
14,1778656405.8338346,-1.3564082,-3.536449,-1.6650511,0.0,0.0,0.0
15,1778656405.883838,-1.2978354,-3.5989275,-1.3682762,0.0,0.0,0.0
16,1778656405.9338398,-1.2392609,-3.571594,-0.9309261,0.0,0.0,0.0
17,1778656405.9838424,-1.2665961,-3.1732914,-0.20851655,0.0,0.0,0.0
18,1778656406.0338457,-1.2665961,-3.1732914,-0.20851655,0.0,0.0,0.0
19,1778656406.0838494,-1.4891769,-2.6344135,-0.28271067,0.0,0.0,0.0
20,1778656406.1338522,-1.4891769,-2.6344135,-0.28271067,0.0,0.0,0.0
21,1778656406.1838565,-1.5047965,-2.6305094,-0.3178541,0.0,0.0,0.0
22,1778656406.233859,-1.5047965,-2.6305094,-0.3178541,0.0,0.0,0.0
23,1778656406.283867,-0.880009,-1.6503756,-0.18118295,0.0,0.0,0.0
24,1778656406.3338711,-0.880009,-1.6503756,-0.18118295,0.0,0.0,0.0
25,1778656406.3838763,-0.79800665,-1.4824636,-0.16946743,0.0,0.0,0.0
26,1778656406.4338806,-0.79800665,-1.4824636,-0.16946743,0.0,0.0,0.0
27,1778656406.483883,-0.79800665,-1.4824636,-0.16946743,0.0,0.0,0.0
28,1778656406.5338855,-0.34113112,-0.7288148,-0.24756567,0.0,0.0,0.0
29,1778656406.583887,-0.34113112,-0.7288148,-0.24756567,0.0,0.0,0.0
30,1778656406.6338894,-0.34113112,-0.7288148,-0.24756567,0.0,0.0,0.0
31,1778656406.6838923,-0.46218264,-0.9162506,-0.18899277,0.0,0.0,0.0
32,1778656406.733894,-0.46218264,-0.9162506,-0.18899277,0.0,0.0,0.0
33,1778656406.783897,-0.34113112,-0.7288148,-0.24756567,0.0,0.0,0.0
34,1778656406.8338993,-0.2317936,-0.5687126,-0.267091,0.0,0.0,0.0
35,1778656406.8839016,-0.2317936,-0.5687126,-0.267091,0.0,0.0,0.0
36,1778656406.933904,-0.08340693,-0.33051375,-0.27490085,0.0,0.0,0.0
37,1778656406.9839063,-0.08340693,-0.33051375,-0.27490085,0.0,0.0,0.0
38,1778656407.0339084,-0.08340693,-0.33051375,-0.27490085,0.0,0.0,0.0
39,1778656407.083911,-0.032642297,-0.2719393,-0.267091,0.0,0.0,0.0
40,1778656407.1339128,-0.032642297,-0.2719393,-0.267091,0.0,0.0,0.0
41,1778656407.183916,-0.032642297,-0.2719393,-0.267091,0.0,0.0,0.0
42,1778656407.233918,-0.032642297,-0.2719393,-0.267091,0.0,0.0,0.0
43,1778656407.2839205,-0.032642297,-0.2719393,-0.267091,0.0,0.0,0.0
44,1778656407.3339233,0.1977483,-0.025929052,-0.013270946,0.0,0.0,0.0
45,1778656407.3839252,0.1626033,-0.07669369,-0.14994365,0.0,0.0,0.0
46,1778656407.4339275,0.1977483,-0.025929052,-0.013270946,0.0,0.0,0.0
47,1778656407.4839294,0.1977483,-0.025929052,-0.013270946,0.0,0.0,0.0
48,1778656407.5339315,0.1977483,-0.025929052,-0.013270946,0.0,0.0,0.0
49,1778656407.5839336,0.1977483,-0.025929052,-0.013270946,0.0,0.0,0.0
50,1778656407.633936,0.1977483,-0.025929052,-0.013270946,0.0,0.0,0.0
51,1778656407.683938,0.1977483,-0.025929052,-0.013270946,0.0,0.0,0.0
52,1778656407.7339401,0.1977483,-0.025929052,-0.013270946,0.0,0.0,0.0
53,1778656407.7839427,0.1977483,-0.025929052,-0.013270946,0.0,0.0,0.0
54,1778656407.8339446,0.28365636,-0.10012316,0.017968351,0.0,0.0,0.0
55,1778656407.8839462,0.28365636,-0.10012316,0.017968351,0.0,0.0,0.0
56,1778656407.9339483,0.28365636,-0.10012316,0.017968351,0.0,0.0,0.0
57,1778656407.9839504,0.29146618,-0.09621747,0.006254392,0.0,0.0,0.0
58,1778656408.033952,0.29146618,-0.09621747,0.006254392,0.0,0.0,0.0
59,1778656408.0839536,0.29146618,-0.09621747,0.006254392,0.0,0.0,0.0
60,1778656408.1339562,0.2602269,-0.07669369,-0.03670042,0.0,0.0,0.0
61,1778656408.1839583,0.23289172,-0.072788,-0.040606108,0.0,0.0,0.0
62,1778656408.2339606,0.23289172,-0.029834742,-0.056225758,0.0,0.0,0.0
63,1778656408.2839627,0.23289172,-0.029834742,-0.056225758,0.0,0.0,0.0
64,1778656408.3339646,0.23289172,-0.029834742,-0.056225758,0.0,0.0,0.0
65,1778656408.383968,0.23289172,-0.029834742,-0.056225758,0.0,0.0,0.0
66,1778656408.43397,0.23289172,-0.029834742,-0.056225758,0.0,0.0,0.0
67,1778656408.4839716,0.23289172,-0.029834742,-0.056225758,0.0,0.0,0.0
68,1778656408.5339742,0.29146618,0.07169297,-0.11089453,0.0,0.0,0.0
69,1778656408.5839767,0.29146618,0.07169297,-0.11089453,0.0,0.0,0.0
70,1778656408.6339784,0.29146618,0.07169297,-0.11089453,0.0,0.0,0.0
71,1778656408.6839797,0.29146618,0.07169297,-0.11089453,0.0,0.0,0.0
72,1778656408.733981,0.29146618,0.07169297,-0.11089453,0.0,0.0,0.0
73,1778656408.7839828,0.34222928,0.11074209,-0.1616576,0.0,0.0,0.0
74,1778656408.8339844,0.32270548,0.12636174,-0.12651418,0.0,0.0,0.0
75,1778656408.8839858,0.32270548,0.12636174,-0.12651418,0.0,0.0,0.0
76,1778656408.9339879,0.24460724,0.11074209,0.0023487024,0.0,0.0,0.0
77,1778656408.9839916,0.24460724,0.11074209,0.0023487024,0.0,0.0,0.0
78,1778656409.0339937,0.18603279,0.09512245,0.017968351,0.0,0.0,0.0
79,1778656409.0839953,0.18603279,0.09512245,0.017968351,0.0,0.0,0.0
80,1778656409.1339977,0.18603279,0.09512245,0.017968351,0.0,0.0,0.0
81,1778656409.1839998,0.15479349,0.06778884,0.33817115,0.0,0.0,0.0
82,1778656409.2340012,0.05326577,0.11855192,0.16635501,0.0,0.0,0.0
83,1778656409.2840028,0.05326577,0.11855192,0.16635501,0.0,0.0,0.0
84,1778656409.3340044,0.05326577,0.11855192,0.16635501,0.0,0.0,0.0
85,1778656409.3840058,0.166509,0.024834028,0.39674562,0.0,0.0,0.0
86,1778656409.4340074,0.166509,0.024834028,0.39674562,0.0,0.0,0.0
87,1778656409.4840093,0.11965006,-0.029834742,0.34988666,0.0,0.0,0.0
88,1778656409.5340111,0.041550256,-0.033738878,0.2015,0.0,0.0,0.0
89,1778656409.5840125,0.041550256,-0.033738878,0.2015,0.0,0.0,0.0
90,1778656409.6340141,0.041550256,-0.033738878,0.2015,0.0,0.0,0.0
91,1778656409.6840155,0.041550256,-0.033738878,0.2015,0.0,0.0,0.0
92,1778656409.7340171,0.041550256,-0.033738878,0.2015,0.0,0.0,0.0
93,1778656409.784021,0.041550256,-0.033738878,0.2015,0.0,0.0,0.0
94,1778656409.8340237,-0.009212824,-0.13136245,0.014064217,0.0,0.0,0.0
95,1778656409.884025,-0.009212824,-0.13136245,0.014064217,0.0,0.0,0.0
96,1778656409.9340265,-0.048261944,-0.20555657,-0.29442462,0.0,0.0,0.0
97,1778656409.984028,-0.048261944,-0.20555657,-0.29442462,0.0,0.0,0.0
98,1778656410.0340297,-0.048261944,-0.20555657,-0.29442462,0.0,0.0,0.0
99,1778656410.0840318,-0.16150518,-0.22898604,-0.41157198,0.0,0.0,0.0
100,1778656410.1340334,-0.16150518,-0.22898604,-0.41157198,0.0,0.0,0.0
101,1778656410.1840355,-1.1377332,-3.3099642,0.27569255,0.0,0.0,0.0
102,1778656410.234037,-1.1377332,-3.3099642,0.27569255,0.0,0.0,0.0
103,1778656410.2840393,-1.1377332,-3.3099642,0.27569255,0.0,0.0,0.0
104,1778656410.334041,-1.8640485,-8.093487,-0.6614864,0.0,0.0,0.0
105,1778656410.3840425,-1.8640485,-8.093487,-0.6614864,0.0,0.0,0.0
106,1778656410.434044,-2.227206,-7.784998,-0.16946743,0.0,0.0,0.0
107,1778656410.4840455,-2.227206,-7.784998,-0.16946743,0.0,0.0,0.0
108,1778656410.534047,-0.47780228,-3.536449,-0.7200608,0.0,0.0,0.0
109,1778656410.5840502,-0.47780228,-3.536449,-0.7200608,0.0,0.0,0.0
110,1778656410.6340523,-0.56761605,-2.1502044,-0.09527488,0.0,0.0,0.0
111,1778656410.6840537,-0.59494966,-2.1033454,-0.114798665,0.0,0.0,0.0
112,1778656410.7340553,-0.59494966,-2.1033454,-0.114798665,0.0,0.0,0.0
113,1778656410.784057,-0.59494966,-2.1033454,-0.114798665,0.0,0.0,0.0
114,1778656410.8340583,-0.59494966,-2.1033454,-0.114798665,0.0,0.0,0.0
115,1778656410.8840606,-0.59494966,-2.1033454,-0.114798665,0.0,0.0,0.0
116,1778656410.9340625,-0.59494966,-2.1033454,-0.114798665,0.0,0.0,0.0
117,1778656410.9840636,-0.7199084,-2.0682003,0.02187404,0.0,0.0,0.0
118,1778656411.0340657,-0.7199084,-2.0682003,0.02187404,0.0,0.0,0.0
119,1778656411.0840673,-0.7199084,-2.0682003,0.02187404,0.0,0.0,0.0
120,1778656411.1340692,-0.7199084,-2.0682003,0.02187404,0.0,0.0,0.0
121,1778656411.184071,-0.7199084,-2.0682003,0.02187404,0.0,0.0,0.0
122,1778656411.2340734,-0.78238696,-1.9237195,0.017968351,0.0,0.0,0.0
123,1778656411.2840765,-0.78238696,-1.9237195,0.017968351,0.0,0.0,0.0
124,1778656411.33408,-0.6808577,-1.599611,0.16635501,0.0,0.0,0.0
125,1778656411.3840823,-0.27474687,-0.5843323,-0.103084706,0.0,0.0,0.0
126,1778656411.4340851,-0.27474687,-0.5843323,-0.103084706,0.0,0.0,0.0
127,1778656411.4840887,-0.27474687,-0.5843323,-0.103084706,0.0,0.0,0.0
128,1778656411.5340912,-0.27474687,-0.5843323,-0.103084706,0.0,0.0,0.0
129,1778656411.5840976,-0.27474687,-0.5843323,-0.103084706,0.0,0.0,0.0
130,1778656411.6341004,-0.27474687,-0.5843323,-0.103084706,0.0,0.0,0.0
131,1778656411.6841047,-0.22398376,-0.38908666,-0.12651418,0.0,0.0,0.0
132,1778656411.734108,-0.22398376,-0.38908666,-0.12651418,0.0,0.0,0.0
133,1778656411.7841115,-0.22398376,-0.38908666,-0.12651418,0.0,0.0,0.0
134,1778656411.8341143,0.11184023,-0.2719393,-0.17337312,0.0,0.0,0.0
135,1778656411.884116,0.11184023,-0.2719393,-0.17337312,0.0,0.0,0.0
136,1778656411.9341173,0.11184023,-0.2719393,-0.17337312,0.0,0.0,0.0
137,1778656411.9841187,0.11184023,-0.2719393,-0.17337312,0.0,0.0,0.0
138,1778656412.03412,0.30318016,-0.22508036,-0.20461242,0.0,0.0,0.0
139,1778656412.0841227,0.30318016,-0.22508036,-0.20461242,0.0,0.0,0.0
140,1778656412.1341238,0.46718645,-0.22898604,-0.15775347,0.0,0.0,0.0
141,1778656412.1841257,0.36956444,-0.23289017,-0.18508708,0.0,0.0,0.0
142,1778656412.2341273,0.52185524,0.017024204,-0.032796286,0.0,0.0,0.0
143,1778656412.2841287,0.52185524,0.017024204,-0.032796286,0.0,0.0,0.0
144,1778656412.334131,0.52185524,0.017024204,-0.032796286,0.0,0.0,0.0
145,1778656412.384133,0.3187998,0.34894252,-0.017176636,0.0,0.0,0.0
146,1778656412.4341345,0.6077633,0.10683796,-0.013270946,0.0,0.0,0.0
147,1778656412.484136,0.6077633,0.10683796,-0.013270946,0.0,0.0,0.0
148,1778656412.534137,0.6077633,0.10683796,-0.013270946,0.0,0.0,0.0
149,1778656412.5841403,0.3187998,0.34894252,-0.017176636,0.0,0.0,0.0
150,1778656412.634143,0.3187998,0.34894252,-0.017176636,0.0,0.0,0.0
151,1778656412.684145,0.23289172,0.38018182,-0.032796286,0.0,0.0,0.0
152,1778656412.7341468,0.2563212,0.46608987,-0.114798665,0.0,0.0,0.0
153,1778656412.7841482,0.2563212,0.46608987,-0.114798665,0.0,0.0,0.0
154,1778656412.8341494,0.24070156,0.38799164,-0.18508708,0.0,0.0,0.0
155,1778656412.8841512,0.24070156,0.38799164,-0.18508708,0.0,0.0,0.0
156,1778656412.9341526,0.24070156,0.38799164,-0.18508708,0.0,0.0,0.0
157,1778656412.9841542,0.22898759,0.33332285,-0.16946743,0.0,0.0,0.0
158,1778656413.034156,0.20165244,0.16931656,-0.12651418,0.0,0.0,0.0
159,1778656413.0841577,0.1352697,-0.6429067,-0.43109733,0.0,0.0,0.0
160,1778656413.1341598,0.1352697,-0.6429067,-0.43109733,0.0,0.0,0.0
161,1778656413.1841614,0.10793454,-0.93968004,-0.6810117,0.0,0.0,0.0
162,1778656413.2341635,0.10793454,-0.93968004,-0.6810117,0.0,0.0,0.0
163,1778656413.2841654,0.10793454,-0.93968004,-0.6810117,0.0,0.0,0.0
164,1778656413.3341675,0.10793454,-0.93968004,-0.6810117,0.0,0.0,0.0
165,1778656413.384169,0.13136402,-1.0880667,-0.46624076,0.0,0.0,0.0
166,1778656413.434171,0.13136402,-1.0880667,-0.46624076,0.0,0.0,0.0
167,1778656413.4841728,0.13136402,-1.0880667,-0.46624076,0.0,0.0,0.0
168,1778656413.5341742,-0.39189422,-1.3692204,-0.6966314,0.0,0.0,0.0
169,1778656413.5841753,-0.39189422,-1.3692204,-0.6966314,0.0,0.0,0.0
170,1778656413.6341767,-0.39189422,-1.3692204,-0.6966314,0.0,0.0,0.0
171,1778656413.6841784,-0.39189422,-1.3692204,-0.6966314,0.0,0.0,0.0
172,1778656413.7341824,-0.39189422,-1.3692204,-0.6966314,0.0,0.0,0.0
173,1778656413.7841861,-0.69257325,-1.5410365,-0.90749663,0.0,0.0,0.0
174,1778656413.834188,-2.7270348,-2.263446,0.5099873,0.0,0.0,0.0
175,1778656413.8841906,-3.0901923,-2.9077573,0.7403779,0.0,0.0,0.0
176,1778656413.9341924,-3.0901923,-2.9077573,0.7403779,0.0,0.0,0.0
177,1778656413.9841938,-3.0901923,-2.9077573,0.7403779,0.0,0.0,0.0
178,1778656414.0341952,-2.418546,-3.2982502,-0.6614864,0.0,0.0,0.0
179,1778656414.0841968,-2.418546,-3.2982502,-0.6614864,0.0,0.0,0.0
180,1778656414.1341987,-2.418546,-3.2982502,-0.6614864,0.0,0.0,0.0
181,1778656414.1842012,-1.2158315,-2.9038532,-1.9344893,0.0,0.0,0.0
182,1778656414.2342026,-1.2158315,-2.9038532,-1.9344893,0.0,0.0,0.0
183,1778656414.2842047,-1.5633694,-2.6500332,-0.36861873,0.0,0.0,0.0
184,1778656414.334207,-1.2353568,-2.5797448,-0.15775347,0.0,0.0,0.0
185,1778656414.3842087,-1.2587863,-2.685178,-0.21242224,0.0,0.0,0.0
186,1778656414.43421,-1.2587863,-2.685178,-0.21242224,0.0,0.0,0.0
187,1778656414.4842114,-1.2587863,-2.685178,-0.21242224,0.0,0.0,0.0
188,1778656414.534213,-1.1182095,-2.743751,-1.2589387,0.0,0.0,0.0
189,1778656414.5842147,-1.1182095,-2.743751,-1.2589387,0.0,0.0,0.0
190,1778656414.6342158,-0.9034385,-2.685178,-0.880163,0.0,0.0,0.0
191,1778656414.68422,-1.1182095,-2.743751,-1.2589387,0.0,0.0,0.0
192,1778656414.7342215,-0.96201295,-2.5914602,-0.3608089,0.0,0.0,0.0
193,1778656414.784223,-0.9463933,-2.2478263,-0.056225758,0.0,0.0,0.0
194,1778656414.8342252,-0.9463933,-2.2478263,-0.056225758,0.0,0.0,0.0
195,1778656414.8842268,-0.9463933,-2.2478263,-0.056225758,0.0,0.0,0.0
196,1778656414.9342284,-0.9463933,-2.2478263,-0.056225758,0.0,0.0,0.0
197,1778656414.98423,-0.8878188,-2.0721061,-0.028890595,0.0,0.0,0.0
198,1778656415.0342364,-0.8878188,-2.0721061,-0.028890595,0.0,0.0,0.0
199,1778656415.0842383,-0.8878188,-2.0721061,-0.028890595,0.0,0.0,0.0
200,1778656415.1342397,-0.57933,-1.287218,-0.040606108,0.0,0.0,0.0
