id,timestamp,acc_x,acc_y,acc_z,gyro_x,gyro_y,gyro_z
1,1778662612.5267913,-0.8526754,-1.3379811,0.45141438,0.0,0.0,0.0
2,1778662612.5367947,-0.8526754,-1.3379811,0.45141438,0.0,0.0,0.0
3,1778662612.5467963,-0.8526754,-1.3379811,0.45141438,0.0,0.0,0.0
4,1778662612.5567982,-0.8526754,-1.3379811,0.45141438,0.0,0.0,0.0
5,1778662612.566801,-0.8526754,-1.3379811,0.45141438,0.0,0.0,0.0
6,1778662612.5768027,-0.8526754,-1.3379811,0.45141438,0.0,0.0,0.0
7,1778662612.5868034,-0.8526754,-1.3379811,0.45141438,0.0,0.0,0.0
8,1778662612.5968053,-0.8526754,-1.3379811,0.45141438,0.0,0.0,0.0
9,1778662612.6068072,-0.8526754,-1.3379811,0.45141438,0.0,0.0,0.0
10,1778662612.6168098,-0.8526754,-1.3379811,0.45141438,0.0,0.0,0.0
11,1778662612.626811,-0.8526754,-1.3379811,0.45141438,0.0,0.0,0.0
12,1778662612.6368122,-0.8526754,-1.3379811,0.45141438,0.0,0.0,0.0
13,1778662612.6468136,-0.8526754,-1.3379811,0.45141438,0.0,0.0,0.0
14,1778662612.6568148,-0.8526754,-1.3379811,0.45141438,0.0,0.0,0.0
15,1778662612.6668174,-0.8526754,-1.3379811,0.45141438,0.0,0.0,0.0
16,1778662612.6768186,-0.8526754,-1.3379811,0.45141438,0.0,0.0,0.0
17,1778662612.6868217,-0.8526754,-1.3379811,0.45141438,0.0,0.0,0.0
18,1778662612.696823,-0.8526754,-1.3379811,0.45141438,0.0,0.0,0.0
19,1778662612.7068243,-0.8526754,-1.3379811,0.45141438,0.0,0.0,0.0
20,1778662612.7168255,-0.8526754,-1.3379811,0.45141438,0.0,0.0,0.0
21,1778662612.726827,-0.8526754,-1.3379811,0.45141438,0.0,0.0,0.0
22,1778662612.736829,-0.8526754,-1.3379811,0.45141438,0.0,0.0,0.0
23,1778662612.74683,-0.8526754,-1.3379811,0.45141438,0.0,0.0,0.0
24,1778662612.7568307,-0.8526754,-1.3379811,0.45141438,0.0,0.0,0.0
25,1778662612.7668324,-0.8526754,-1.3379811,0.45141438,0.0,0.0,0.0
26,1778662612.776835,-0.8526754,-1.3379811,0.45141438,0.0,0.0,0.0
27,1778662612.786837,-0.8526754,-1.3379811,0.45141438,0.0,0.0,0.0
28,1778662612.796838,-0.8526754,-1.3379811,0.45141438,0.0,0.0,0.0
29,1778662612.8068404,-0.8526754,-1.3379811,0.45141438,0.0,0.0,0.0
30,1778662612.8168418,-0.8526754,-1.3379811,0.45141438,0.0,0.0,0.0
31,1778662612.8268428,-0.8526754,-1.3379811,0.45141438,0.0,0.0,0.0
32,1778662612.8368447,-0.9932522,-1.5449423,0.1585452,0.0,0.0,0.0
33,1778662612.8468468,-0.9932522,-1.5449423,0.1585452,0.0,0.0,0.0
34,1778662612.8568482,-0.9932522,-1.5449423,0.1585452,0.0,0.0,0.0
35,1778662612.8668509,-0.9932522,-1.5449423,0.1585452,0.0,0.0,0.0
36,1778662612.876852,-0.9932522,-1.5449423,0.1585452,0.0,0.0,0.0
37,1778662612.8868546,-0.9737269,-1.7128543,-0.20461242,0.0,0.0,0.0
38,1778662612.8968565,-0.9737269,-1.7128543,-0.20461242,0.0,0.0,0.0
39,1778662612.9068577,-0.9737269,-1.7128543,-0.20461242,0.0,0.0,0.0
40,1778662612.9168599,-0.9737269,-1.7128543,-0.20461242,0.0,0.0,0.0
41,1778662612.9268618,-0.9737269,-1.7128543,-0.20461242,0.0,0.0,0.0
42,1778662612.936863,-0.9737269,-1.7128543,-0.20461242,0.0,0.0,0.0
43,1778662612.9468644,-0.9737269,-1.7128543,-0.20461242,0.0,0.0,0.0
44,1778662612.9568653,-0.9737269,-1.7128543,-0.20461242,0.0,0.0,0.0
45,1778662612.9668674,-0.9737269,-1.7128543,-0.20461242,0.0,0.0,0.0
46,1778662612.9768689,-0.9737269,-1.7128543,-0.20461242,0.0,0.0,0.0
47,1778662612.9868696,-0.9737269,-1.7128543,-0.20461242,0.0,0.0,0.0
48,1778662612.9968705,-0.9737269,-1.7128543,-0.20461242,0.0,0.0,0.0
49,1778662613.0068731,-0.9737269,-1.7128543,-0.20461242,0.0,0.0,0.0
50,1778662613.0168746,-0.9737269,-1.7128543,-0.20461242,0.0,0.0,0.0
51,1778662613.0268762,-0.9737269,-1.7128543,-0.20461242,0.0,0.0,0.0
52,1778662613.0368786,-0.9737269,-1.7128543,-0.20461242,0.0,0.0,0.0
53,1778662613.046881,-0.9737269,-1.7128543,-0.20461242,0.0,0.0,0.0
54,1778662613.0568826,-0.9737269,-1.7128543,-0.20461242,0.0,0.0,0.0
55,1778662613.066884,-0.9737269,-1.7128543,-0.20461242,0.0,0.0,0.0
56,1778662613.0768895,-0.9737269,-1.7128543,-0.20461242,0.0,0.0,0.0
57,1778662613.0868914,-0.9737269,-1.7128543,-0.20461242,0.0,0.0,0.0
58,1778662613.0968919,-0.9737269,-1.7128543,-0.20461242,0.0,0.0,0.0
59,1778662613.1068943,-0.9737269,-1.7128543,-0.20461242,0.0,0.0,0.0
60,1778662613.1168966,-0.9737269,-1.7128543,-0.20461242,0.0,0.0,0.0
61,1778662613.1268992,-0.9737269,-1.7128543,-0.20461242,0.0,0.0,0.0
62,1778662613.1369011,-0.9737269,-1.7128543,-0.20461242,0.0,0.0,0.0
63,1778662613.146902,-0.9737269,-1.7128543,-0.20461242,0.0,0.0,0.0
64,1778662613.156903,-0.9737269,-1.7128543,-0.20461242,0.0,0.0,0.0
65,1778662613.1669059,-0.9737269,-1.7128543,-0.20461242,0.0,0.0,0.0
66,1778662613.176907,-0.9737269,-1.7128543,-0.20461242,0.0,0.0,0.0
67,1778662613.1869082,-0.9737269,-1.7128543,-0.20461242,0.0,0.0,0.0
68,1778662613.1969097,-0.9737269,-1.7128543,-0.20461242,0.0,0.0,0.0
69,1778662613.2069106,-0.9737269,-1.7128543,-0.20461242,0.0,0.0,0.0
70,1778662613.216911,-0.9737269,-1.7128543,-0.20461242,0.0,0.0,0.0
71,1778662613.2269123,-0.9737269,-1.7128543,-0.20461242,0.0,0.0,0.0
72,1778662613.236913,-0.9737269,-1.7128543,-0.20461242,0.0,0.0,0.0
73,1778662613.246914,-0.9737269,-1.7128543,-0.20461242,0.0,0.0,0.0
74,1778662613.256915,-0.9737269,-1.7128543,-0.20461242,0.0,0.0,0.0
75,1778662613.2669163,-0.9737269,-1.7128543,-0.20461242,0.0,0.0,0.0
76,1778662613.2769175,-0.9737269,-1.7128543,-0.20461242,0.0,0.0,0.0
77,1778662613.2869205,-0.9737269,-1.7128543,-0.20461242,0.0,0.0,0.0
78,1778662613.2969227,-0.9737269,-1.7128543,-0.20461242,0.0,0.0,0.0
79,1778662613.3069236,-0.9737269,-1.7128543,-0.20461242,0.0,0.0,0.0
80,1778662613.3169246,-0.9737269,-1.7128543,-0.20461242,0.0,0.0,0.0
81,1778662613.3269258,-0.9737269,-1.7128543,-0.20461242,0.0,0.0,0.0
82,1778662613.3369272,-0.9737269,-1.7128543,-0.20461242,0.0,0.0,0.0
83,1778662613.3469276,-0.9737269,-1.7128543,-0.20461242,0.0,0.0,0.0
84,1778662613.3569295,-0.73943216,-1.6816149,-0.65367657,0.0,0.0,0.0
85,1778662613.3669322,-0.73943216,-1.6816149,-0.65367657,0.0,0.0,0.0
86,1778662613.3769326,-0.73943216,-1.6816149,-0.65367657,0.0,0.0,0.0
87,1778662613.3869336,-0.73943216,-1.6816149,-0.65367657,0.0,0.0,0.0
88,1778662613.3969355,-0.73943216,-1.6816149,-0.65367657,0.0,0.0,0.0
89,1778662613.4069366,-0.73943216,-1.6816149,-0.65367657,0.0,0.0,0.0
90,1778662613.4169378,-0.73943216,-1.6816149,-0.65367657,0.0,0.0,0.0
91,1778662613.4269388,-0.73943216,-1.6816149,-0.65367657,0.0,0.0,0.0
92,1778662613.43694,-0.73943216,-1.6816149,-0.65367657,0.0,0.0,0.0
93,1778662613.4469433,-0.73943216,-1.6816149,-0.65367657,0.0,0.0,0.0
94,1778662613.4569442,-0.73943216,-1.6816149,-0.65367657,0.0,0.0,0.0
95,1778662613.466946,-0.73943216,-1.6816149,-0.65367657,0.0,0.0,0.0
96,1778662613.4769468,-0.73943216,-1.6816149,-0.65367657,0.0,0.0,0.0
97,1778662613.486948,-0.73943216,-1.6816149,-0.65367657,0.0,0.0,0.0
98,1778662613.4969487,-0.73943216,-1.6816149,-0.65367657,0.0,0.0,0.0
99,1778662613.5069497,-0.73943216,-1.6816149,-0.65367657,0.0,0.0,0.0
100,1778662613.5169504,-0.73943216,-1.6816149,-0.65367657,0.0,0.0,0.0
101,1778662613.5269513,-0.73943216,-1.6816149,-0.65367657,0.0,0.0,0.0
102,1778662613.536952,-0.73943216,-1.6816149,-0.65367657,0.0,0.0,0.0
103,1778662613.546953,-0.73943216,-1.6816149,-0.65367657,0.0,0.0,0.0
104,1778662613.5569541,-0.6105693,-1.6933289,-0.7864451,0.0,0.0,0.0
105,1778662613.5669549,-0.6105693,-1.6933289,-0.7864451,0.0,0.0,0.0
106,1778662613.5769558,-0.6105693,-1.6933289,-0.7864451,0.0,0.0,0.0
107,1778662613.5869575,-0.6105693,-1.6933289,-0.7864451,0.0,0.0,0.0
108,1778662613.596958,-0.6105693,-1.6933289,-0.7864451,0.0,0.0,0.0
109,1778662613.6069615,-0.6105693,-1.6933289,-0.7864451,0.0,0.0,0.0
110,1778662613.616963,-0.6105693,-1.6933289,-0.7864451,0.0,0.0,0.0
111,1778662613.6269636,-0.6105693,-1.6933289,-0.7864451,0.0,0.0,0.0
112,1778662613.636964,-0.6105693,-1.6933289,-0.7864451,0.0,0.0,0.0
113,1778662613.6469655,-0.6105693,-1.6933289,-0.7864451,0.0,0.0,0.0
114,1778662613.6569664,-0.6105693,-1.6933289,-0.7864451,0.0,0.0,0.0
115,1778662613.6669676,-0.6105693,-1.6933289,-0.7864451,0.0,0.0,0.0
116,1778662613.676968,-0.6105693,-1.6933289,-0.7864451,0.0,0.0,0.0
117,1778662613.686969,-0.6105693,-1.6933289,-0.7864451,0.0,0.0,0.0
118,1778662613.6969705,-0.6105693,-1.6933289,-0.7864451,0.0,0.0,0.0
119,1778662613.7069712,-0.6105693,-1.6933289,-0.7864451,0.0,0.0,0.0
120,1778662613.7169733,-0.6105693,-1.6933289,-0.7864451,0.0,0.0,0.0
121,1778662613.726975,-0.6105693,-1.6933289,-0.7864451,0.0,0.0,0.0
122,1778662613.7369754,-0.6105693,-1.6933289,-0.7864451,0.0,0.0,0.0
123,1778662613.7469776,-0.6105693,-1.6933289,-0.7864451,0.0,0.0,0.0
124,1778662613.7569788,-0.6105693,-1.6933289,-0.7864451,0.0,0.0,0.0
125,1778662613.766979,-0.6105693,-1.6933289,-0.7864451,0.0,0.0,0.0
126,1778662613.7769809,-0.6105693,-1.6933289,-0.7864451,0.0,0.0,0.0
127,1778662613.7869823,-0.6105693,-1.6933289,-0.7864451,0.0,0.0,0.0
128,1778662613.7969828,-0.6105693,-1.6933289,-0.7864451,0.0,0.0,0.0
129,1778662613.8069856,-0.6105693,-1.6933289,-0.7864451,0.0,0.0,0.0
130,1778662613.816987,-0.6105693,-1.6933289,-0.7864451,0.0,0.0,0.0
131,1778662613.8269882,-0.6105693,-1.6933289,-0.7864451,0.0,0.0,0.0
132,1778662613.8369896,-0.6105693,-1.6933289,-0.7864451,0.0,0.0,0.0
133,1778662613.84699,-0.6105693,-1.6933289,-0.7864451,0.0,0.0,0.0
134,1778662613.8569913,-0.6105693,-1.6933289,-0.7864451,0.0,0.0,0.0
135,1778662613.8669925,-0.6105693,-1.6933289,-0.7864451,0.0,0.0,0.0
136,1778662613.8769946,-0.6105693,-1.6933289,-0.7864451,0.0,0.0,0.0
137,1778662613.8869956,-0.6105693,-1.6933289,-0.7864451,0.0,0.0,0.0
138,1778662613.8969963,-0.6105693,-1.6933289,-0.7864451,0.0,0.0,0.0
139,1778662613.906997,-0.3567508,-1.7401879,-0.95826125,0.0,0.0,0.0
140,1778662613.916998,-0.3567508,-1.7401879,-0.95826125,0.0,0.0,0.0
141,1778662613.9269986,-0.3567508,-1.7401879,-0.95826125,0.0,0.0,0.0
142,1778662613.937,-0.3567508,-1.7401879,-0.95826125,0.0,0.0,0.0
143,1778662613.9470017,-0.3567508,-1.7401879,-0.95826125,0.0,0.0,0.0
144,1778662613.9570038,-0.3567508,-1.7401879,-0.95826125,0.0,0.0,0.0
145,1778662613.9670055,-0.29817632,-1.7401879,-0.97778505,0.0,0.0,0.0
146,1778662613.9770064,-0.29817632,-1.7401879,-0.97778505,0.0,0.0,0.0
147,1778662613.987007,-0.29817632,-1.7401879,-0.97778505,0.0,0.0,0.0
148,1778662613.997008,-0.29817632,-1.7401879,-0.97778505,0.0,0.0,0.0
149,1778662614.0070105,-0.29817632,-1.7401879,-0.97778505,0.0,0.0,0.0
150,1778662614.0170126,-0.29817632,-1.7401879,-0.97778505,0.0,0.0,0.0
151,1778662614.0270135,-0.29817632,-1.7401879,-0.97778505,0.0,0.0,0.0
152,1778662614.0370142,-0.29817632,-1.7401879,-0.97778505,0.0,0.0,0.0
153,1778662614.0470152,-0.29817632,-1.7401879,-0.97778505,0.0,0.0,0.0
154,1778662614.0570164,-0.29817632,-1.7401879,-0.97778505,0.0,0.0,0.0
155,1778662614.067017,-0.29817632,-1.7401879,-0.97778505,0.0,0.0,0.0
156,1778662614.0770204,-0.29817632,-1.7401879,-0.97778505,0.0,0.0,0.0
157,1778662614.0870225,-0.29817632,-1.7401879,-0.97778505,0.0,0.0,0.0
158,1778662614.0970235,-0.29817632,-1.7401879,-0.97778505,0.0,0.0,0.0
159,1778662614.1070247,-0.29817632,-1.7401879,-0.97778505,0.0,0.0,0.0
160,1778662614.1170254,-0.29817632,-1.7401879,-0.97778505,0.0,0.0,0.0
161,1778662614.1270273,-0.29817632,-1.7401879,-0.97778505,0.0,0.0,0.0
162,1778662614.137028,-0.29817632,-1.7401879,-0.97778505,0.0,0.0,0.0
163,1778662614.147029,-0.29817632,-1.7401879,-0.97778505,0.0,0.0,0.0
164,1778662614.157031,-0.29817632,-1.7401879,-0.97778505,0.0,0.0,0.0
165,1778662614.1670327,-0.29817632,-1.7401879,-0.97778505,0.0,0.0,0.0
166,1778662614.1770341,-0.29817632,-1.7401879,-0.97778505,0.0,0.0,0.0
167,1778662614.1870356,-0.29817632,-1.7401879,-0.97778505,0.0,0.0,0.0
168,1778662614.1970363,-0.29817632,-1.7401879,-0.97778505,0.0,0.0,0.0
169,1778662614.207038,-0.29817632,-1.7401879,-0.97778505,0.0,0.0,0.0
170,1778662614.217039,-0.29817632,-1.7401879,-0.97778505,0.0,0.0,0.0
171,1778662614.2270396,-0.29817632,-1.7401879,-0.97778505,0.0,0.0,0.0
172,1778662614.23704,-0.29817632,-1.7401879,-0.97778505,0.0,0.0,0.0
173,1778662614.2470431,-0.29817632,-1.7401879,-0.97778505,0.0,0.0,0.0
174,1778662614.2570453,-0.29817632,-1.7401879,-0.97778505,0.0,0.0,0.0
175,1778662614.267046,-0.29817632,-1.7401879,-0.97778505,0.0,0.0,0.0
176,1778662614.2770472,-0.29817632,-1.732378,-0.9348318,0.0,0.0,0.0
177,1778662614.2870479,-0.29817632,-1.732378,-0.9348318,0.0,0.0,0.0
178,1778662614.2970486,-0.29817632,-1.732378,-0.9348318,0.0,0.0,0.0
179,1778662614.3070495,-0.29817632,-1.7753328,-0.6419626,0.0,0.0,0.0
180,1778662614.3170507,-0.29817632,-1.7753328,-0.6419626,0.0,0.0,0.0
181,1778662614.3270514,-0.29817632,-1.7753328,-0.6419626,0.0,0.0,0.0
182,1778662614.337052,-0.29817632,-1.7753328,-0.6419626,0.0,0.0,0.0
183,1778662614.3470533,-0.29817632,-1.7753328,-0.6419626,0.0,0.0,0.0
184,1778662614.357055,-0.29817632,-1.7753328,-0.6419626,0.0,0.0,0.0
185,1778662614.3670554,-0.29817632,-1.7753328,-0.6419626,0.0,0.0,0.0
186,1778662614.3770568,-0.29817632,-1.7753328,-0.6419626,0.0,0.0,0.0
187,1778662614.3870583,-0.29817632,-1.7753328,-0.6419626,0.0,0.0,0.0
188,1778662614.397059,-0.29817632,-1.7753328,-0.6419626,0.0,0.0,0.0
189,1778662614.4070594,-0.29817632,-1.7753328,-0.6419626,0.0,0.0,0.0
190,1778662614.4170616,-0.29817632,-1.7753328,-0.6419626,0.0,0.0,0.0
191,1778662614.4270623,-0.29817632,-1.7753328,-0.6419626,0.0,0.0,0.0
192,1778662614.4370637,-0.29817632,-1.7753328,-0.6419626,0.0,0.0,0.0
193,1778662614.4470644,-0.29817632,-1.7753328,-0.6419626,0.0,0.0,0.0
194,1778662614.4570649,-0.29817632,-1.7753328,-0.6419626,0.0,0.0,0.0
195,1778662614.4670665,-0.29817632,-1.7753328,-0.6419626,0.0,0.0,0.0
196,1778662614.477067,-0.29817632,-1.7753328,-0.6419626,0.0,0.0,0.0
197,1778662614.4870677,-0.29817632,-1.7753328,-0.6419626,0.0,0.0,0.0
198,1778662614.4970691,-0.3255115,-1.8768605,-0.14603797,0.0,0.0,0.0
199,1778662614.5070703,-0.3255115,-1.8768605,-0.14603797,0.0,0.0,0.0
200,1778662614.5170708,-0.3255115,-1.8768605,-0.14603797,0.0,0.0,0.0
201,1778662614.5270739,-0.3255115,-1.8768605,-0.14603797,0.0,0.0,0.0
202,1778662614.537076,-0.3255115,-1.8768605,-0.14603797,0.0,0.0,0.0
203,1778662614.5470774,-0.3255115,-1.8768605,-0.14603797,0.0,0.0,0.0
204,1778662614.5570803,-0.30598614,-1.8026664,-0.44671696,0.0,0.0,0.0
205,1778662614.5670826,-0.30598614,-1.8026664,-0.44671696,0.0,0.0,0.0
206,1778662614.5770843,-0.30598614,-1.8026664,-0.44671696,0.0,0.0,0.0
207,1778662614.587099,-0.30598614,-1.8026664,-0.44671696,0.0,0.0,0.0
208,1778662614.5971,-0.30598614,-1.8026664,-0.44671696,0.0,0.0,0.0
209,1778662614.6071022,-0.30598614,-1.8026664,-0.44671696,0.0,0.0,0.0
210,1778662614.6171033,-0.30598614,-1.8026664,-0.44671696,0.0,0.0,0.0
211,1778662614.627104,-0.30598614,-1.8026664,-0.44671696,0.0,0.0,0.0
212,1778662614.6371062,-0.30989185,-2.0525808,-0.005461122,0.0,0.0,0.0
213,1778662614.647107,-0.30989185,-2.0525808,-0.005461122,0.0,0.0,0.0
214,1778662614.6571078,-0.30989185,-2.0525808,-0.005461122,0.0,0.0,0.0
215,1778662614.6671095,-0.30989185,-2.0525808,-0.005461122,0.0,0.0,0.0
216,1778662614.6771102,-0.30989185,-2.0525808,-0.005461122,0.0,0.0,0.0
217,1778662614.687111,-0.30989185,-2.0525808,-0.005461122,0.0,0.0,0.0
218,1778662614.6971123,-0.30989185,-2.0525808,-0.005461122,0.0,0.0,0.0
219,1778662614.7071135,-0.30989185,-2.0525808,-0.005461122,0.0,0.0,0.0
220,1778662614.7171147,-0.30989185,-2.0525808,-0.005461122,0.0,0.0,0.0
221,1778662614.7271152,-0.30989185,-2.0525808,-0.005461122,0.0,0.0,0.0
222,1778662614.7371166,-0.30989185,-2.0525808,-0.005461122,0.0,0.0,0.0
223,1778662614.7471192,-0.30989185,-2.0525808,-0.005461122,0.0,0.0,0.0
224,1778662614.7571204,-0.30989185,-2.0525808,-0.005461122,0.0,0.0,0.0
225,1778662614.767121,-0.30989185,-2.0525808,-0.005461122,0.0,0.0,0.0
226,1778662614.7771223,-0.30989185,-2.0525808,-0.005461122,0.0,0.0,0.0
227,1778662614.787124,-0.30989185,-2.0525808,-0.005461122,0.0,0.0,0.0
228,1778662614.7971253,-0.30989185,-2.0525808,-0.005461122,0.0,0.0,0.0
229,1778662614.8071258,-0.30989185,-2.0525808,-0.005461122,0.0,0.0,0.0
230,1778662614.817127,-0.30989185,-2.0525808,-0.005461122,0.0,0.0,0.0
231,1778662614.827129,-0.30989185,-2.0525808,-0.005461122,0.0,0.0,0.0
232,1778662614.8371294,-0.30989185,-2.0525808,-0.005461122,0.0,0.0,0.0
233,1778662614.8471324,-0.30989185,-2.0525808,-0.005461122,0.0,0.0,0.0
234,1778662614.857134,-0.30989185,-2.0525808,-0.005461122,0.0,0.0,0.0
235,1778662614.867135,-0.30989185,-2.0525808,-0.005461122,0.0,0.0,0.0
236,1778662614.8771355,-0.30989185,-2.0525808,-0.005461122,0.0,0.0,0.0
237,1778662614.8871365,-0.30989185,-2.0525808,-0.005461122,0.0,0.0,0.0
238,1778662614.8971376,-0.34113112,-2.1462986,0.010158527,0.0,0.0,0.0
239,1778662614.907139,-0.34113112,-2.1462986,0.010158527,0.0,0.0,0.0
240,1778662614.9171402,-0.34113112,-2.1462986,0.010158527,0.0,0.0,0.0
241,1778662614.9271412,-0.34113112,-2.1462986,0.010158527,0.0,0.0,0.0
242,1778662614.9371433,-0.34113112,-2.1462986,0.010158527,0.0,0.0,0.0
243,1778662614.9471443,-0.34113112,-2.1462986,0.010158527,0.0,0.0,0.0
244,1778662614.957145,-0.34113112,-2.1462986,0.010158527,0.0,0.0,0.0
245,1778662614.9671466,-1.0479211,-2.4665031,-0.5248152,0.0,0.0,0.0
246,1778662614.9771478,-1.0479211,-2.4665031,-0.5248152,0.0,0.0,0.0
247,1778662614.9871483,-1.0479211,-2.4665031,-0.5248152,0.0,0.0,0.0
248,1778662614.9971492,-1.0479211,-2.4665031,-0.5248152,0.0,0.0,0.0
249,1778662615.0071511,-1.3915533,-2.3884032,-1.243319,0.0,0.0,0.0
250,1778662615.0171525,-1.3915533,-2.3884032,-1.243319,0.0,0.0,0.0
251,1778662615.0271535,-1.3915533,-2.3884032,-1.243319,0.0,0.0,0.0
252,1778662615.0371559,-1.3915533,-2.3884032,-1.243319,0.0,0.0,0.0
253,1778662615.047157,-1.3915533,-2.3884032,-1.243319,0.0,0.0,0.0
254,1778662615.057158,-1.3915533,-2.3884032,-1.243319,0.0,0.0,0.0
255,1778662615.0671587,-1.3915533,-2.3884032,-1.243319,0.0,0.0,0.0
256,1778662615.0771604,-1.3915533,-2.3884032,-1.243319,0.0,0.0,0.0
257,1778662615.0871615,-1.3915533,-2.3884032,-1.243319,0.0,0.0,0.0
258,1778662615.0971625,-1.3915533,-2.3884032,-1.243319,0.0,0.0,0.0
259,1778662615.107164,-1.3485985,-2.3259246,-1.3565623,0.0,0.0,0.0
260,1778662615.117165,-1.3485985,-2.3259246,-1.3565623,0.0,0.0,0.0
261,1778662615.127166,-1.3485985,-2.3259246,-1.3565623,0.0,0.0,0.0
262,1778662615.1371667,-1.3485985,-2.3259246,-1.3565623,0.0,0.0,0.0
263,1778662615.1471694,-1.3485985,-2.3259246,-1.3565623,0.0,0.0,0.0
264,1778662615.1571705,-1.3485985,-2.3259246,-1.3565623,0.0,0.0,0.0
265,1778662615.1671715,-1.3485985,-2.3259246,-1.3565623,0.0,0.0,0.0
266,1778662615.1771727,-1.3485985,-2.3259246,-1.3565623,0.0,0.0,0.0
267,1778662615.1871738,-1.3485985,-2.3259246,-1.3565623,0.0,0.0,0.0
268,1778662615.1971743,-1.3485985,-2.3259246,-1.3565623,0.0,0.0,0.0
269,1778662615.2071774,-1.3485985,-2.3259246,-1.3565623,0.0,0.0,0.0
270,1778662615.21718,-1.3485985,-2.3259246,-1.3565623,0.0,0.0,0.0
271,1778662615.2271812,-1.3485985,-2.3259246,-1.3565623,0.0,0.0,0.0
272,1778662615.2371824,-1.3485985,-2.3259246,-1.3565623,0.0,0.0,0.0
273,1778662615.2471833,-1.3485985,-2.3259246,-1.3565623,0.0,0.0,0.0
274,1778662615.2571864,-1.3485985,-2.3259246,-1.3565623,0.0,0.0,0.0
275,1778662615.2671885,-1.3485985,-2.3259246,-1.3565623,0.0,0.0,0.0
276,1778662615.2771904,-1.3485985,-2.3259246,-1.3565623,0.0,0.0,0.0
277,1778662615.2871919,-1.3485985,-2.3259246,-1.3565623,0.0,0.0,0.0
278,1778662615.2971938,-1.3485985,-2.3259246,-1.3565623,0.0,0.0,0.0
279,1778662615.3071954,-1.3485985,-2.3259246,-1.3565623,0.0,0.0,0.0
280,1778662615.3171964,-1.3485985,-2.3259246,-1.3565623,0.0,0.0,0.0
281,1778662615.327197,-1.3485985,-2.3259246,-1.3565623,0.0,0.0,0.0
282,1778662615.3371985,-1.0518252,-2.0642962,-1.422945,0.0,0.0,0.0
283,1778662615.3471994,-1.0518252,-2.0642962,-1.422945,0.0,0.0,0.0
284,1778662615.3572001,-1.0518252,-2.0642962,-1.422945,0.0,0.0,0.0
285,1778662615.3672032,-1.0518252,-2.0642962,-1.422945,0.0,0.0,0.0
286,1778662615.3772042,-1.0518252,-2.0642962,-1.422945,0.0,0.0,0.0
287,1778662615.3872051,-1.0518252,-2.0642962,-1.422945,0.0,0.0,0.0
288,1778662615.3972063,-1.0518252,-2.0642962,-1.422945,0.0,0.0,0.0
289,1778662615.4072075,-1.0518252,-2.0642962,-1.422945,0.0,0.0,0.0
290,1778662615.417209,-1.0518252,-2.0642962,-1.422945,0.0,0.0,0.0
291,1778662615.4272108,-1.0518252,-2.0642962,-1.422945,0.0,0.0,0.0
292,1778662615.437212,-1.0518252,-2.0642962,-1.422945,0.0,0.0,0.0
293,1778662615.447214,-1.0518252,-2.0642962,-1.422945,0.0,0.0,0.0
294,1778662615.457215,-0.91905814,-1.997912,-1.3682762,0.0,0.0,0.0
295,1778662615.467216,-0.91905814,-1.997912,-1.3682762,0.0,0.0,0.0
296,1778662615.4772174,-0.91905814,-1.997912,-1.3682762,0.0,0.0,0.0
297,1778662615.4872186,-0.91905814,-1.997912,-1.3682762,0.0,0.0,0.0
298,1778662615.4972193,-0.91905814,-1.997912,-1.3682762,0.0,0.0,0.0
299,1778662615.50722,-0.91905814,-1.997912,-1.3682762,0.0,0.0,0.0
300,1778662615.5172493,-0.91905814,-1.997912,-1.3682762,0.0,0.0,0.0
301,1778662615.5272508,-0.91905814,-1.997912,-1.3682762,0.0,0.0,0.0
302,1778662615.5372515,-0.91905814,-1.997912,-1.3682762,0.0,0.0,0.0
303,1778662615.5472524,-0.91905814,-1.997912,-1.3682762,0.0,0.0,0.0
304,1778662615.5572557,-0.91905814,-1.997912,-1.3682762,0.0,0.0,0.0
305,1778662615.5672572,-0.91905814,-1.997912,-1.3682762,0.0,0.0,0.0
306,1778662615.5772583,-0.91905814,-1.997912,-1.3682762,0.0,0.0,0.0
307,1778662615.58726,-0.91905814,-1.997912,-1.3682762,0.0,0.0,0.0
308,1778662615.5972626,-0.91905814,-1.997912,-1.3682762,0.0,0.0,0.0
309,1778662615.6072667,-0.91905814,-1.997912,-1.3682762,0.0,0.0,0.0
310,1778662615.617269,-0.91905814,-1.997912,-1.3682762,0.0,0.0,0.0
311,1778662615.62727,-0.91905814,-1.997912,-1.3682762,0.0,0.0,0.0
312,1778662615.637271,-0.91905814,-1.997912,-1.3682762,0.0,0.0,0.0
313,1778662615.6472723,-0.6183791,-1.8807646,-1.192556,0.0,0.0,0.0
314,1778662615.6572733,-0.6183791,-1.8807646,-1.192556,0.0,0.0,0.0
315,1778662615.6672742,-0.6183791,-1.8807646,-1.192556,0.0,0.0,0.0
316,1778662615.677275,-0.6183791,-1.8807646,-1.192556,0.0,0.0,0.0
317,1778662615.6872754,-0.6183791,-1.8807646,-1.192556,0.0,0.0,0.0
318,1778662615.6972764,-0.6183791,-1.8807646,-1.192556,0.0,0.0,0.0
319,1778662615.7072773,-0.6183791,-1.8807646,-1.192556,0.0,0.0,0.0
320,1778662615.7172782,-0.6183791,-1.8807646,-1.192556,0.0,0.0,0.0
321,1778662615.7272797,-0.31379598,-1.7128543,-0.9192121,0.0,0.0,0.0
322,1778662615.7372813,-0.31379598,-1.7128543,-0.9192121,0.0,0.0,0.0
323,1778662615.747282,-0.31379598,-1.7128543,-0.9192121,0.0,0.0,0.0
324,1778662615.757283,-0.31379598,-1.7128543,-0.9192121,0.0,0.0,0.0
325,1778662615.7672846,-0.31379598,-1.7128543,-0.9192121,0.0,0.0,0.0
326,1778662615.7772858,-0.31379598,-1.7128543,-0.9192121,0.0,0.0,0.0
327,1778662615.7872868,-0.31379598,-1.7128543,-0.9192121,0.0,0.0,0.0
328,1778662615.7972882,-0.31379598,-1.7128543,-0.9192121,0.0,0.0,0.0
329,1778662615.8072896,-0.31379598,-1.7128543,-0.9192121,0.0,0.0,0.0
330,1778662615.8172903,-0.31379598,-1.7128543,-0.9192121,0.0,0.0,0.0
331,1778662615.8272913,-0.31379598,-1.7128543,-0.9192121,0.0,0.0,0.0
332,1778662615.8372943,-0.31379598,-1.7128543,-0.9192121,0.0,0.0,0.0
333,1778662615.8472955,-0.31379598,-1.7128543,-0.9192121,0.0,0.0,0.0
334,1778662615.8572977,-0.31379598,-1.7128543,-0.9192121,0.0,0.0,0.0
335,1778662615.867299,-0.31379598,-1.7128543,-0.9192121,0.0,0.0,0.0
336,1778662615.8773003,-0.31379598,-1.7128543,-0.9192121,0.0,0.0,0.0
337,1778662615.8873014,-0.31379598,-1.7128543,-0.9192121,0.0,0.0,0.0
338,1778662615.8973033,-0.032642297,-1.5176071,-0.6380569,0.0,0.0,0.0
339,1778662615.9073048,-0.032642297,-1.5176071,-0.6380569,0.0,0.0,0.0
340,1778662615.9173052,-0.032642297,-1.5176071,-0.6380569,0.0,0.0,0.0
341,1778662615.9273074,-0.032642297,-1.5176071,-0.6380569,0.0,0.0,0.0
342,1778662615.9373083,-0.032642297,-1.5176071,-0.6380569,0.0,0.0,0.0
343,1778662615.9473093,-0.032642297,-1.5176071,-0.6380569,0.0,0.0,0.0
344,1778662615.9573107,0.13917384,-1.4356047,-0.50138575,0.0,0.0,0.0
345,1778662615.9673123,0.13917384,-1.4356047,-0.50138575,0.0,0.0,0.0
346,1778662615.9773133,0.13917384,-1.4356047,-0.50138575,0.0,0.0,0.0
347,1778662615.9873142,0.13917384,-1.4356047,-0.50138575,0.0,0.0,0.0
348,1778662615.9973154,0.13917384,-1.4356047,-0.50138575,0.0,0.0,0.0
349,1778662616.007316,0.13917384,-1.4356047,-0.50138575,0.0,0.0,0.0
350,1778662616.0173166,0.13917384,-1.4356047,-0.50138575,0.0,0.0,0.0
351,1778662616.027318,0.13917384,-1.4356047,-0.50138575,0.0,0.0,0.0
352,1778662616.0373187,0.13917384,-1.4356047,-0.50138575,0.0,0.0,0.0
353,1778662616.0473225,0.13917384,-1.4356047,-0.50138575,0.0,0.0,0.0
354,1778662616.0573251,0.13917384,-1.4356047,-0.50138575,0.0,0.0,0.0
355,1778662616.067327,0.13917384,-1.4356047,-0.50138575,0.0,0.0,0.0
356,1778662616.0773284,0.13917384,-1.4356047,-0.50138575,0.0,0.0,0.0
357,1778662616.08733,0.13917384,-1.4356047,-0.50138575,0.0,0.0,0.0
358,1778662616.0973318,0.13917384,-1.4356047,-0.50138575,0.0,0.0,0.0
359,1778662616.1073327,0.13917384,-1.4356047,-0.50138575,0.0,0.0,0.0
360,1778662616.1173346,0.13917384,-1.4356047,-0.50138575,0.0,0.0,0.0
361,1778662616.127337,0.29927602,-1.3653163,-0.36471304,0.0,0.0,0.0
362,1778662616.1373384,0.29927602,-1.3653163,-0.36471304,0.0,0.0,0.0
363,1778662616.1473398,0.29927602,-1.3653163,-0.36471304,0.0,0.0,0.0
364,1778662616.1573408,0.29927602,-1.3653163,-0.36471304,0.0,0.0,0.0
365,1778662616.1673422,0.29927602,-1.3653163,-0.36471304,0.0,0.0,0.0
366,1778662616.1773431,0.5179511,-1.2130239,-0.03670042,0.0,0.0,0.0
367,1778662616.1873443,0.5179511,-1.2130239,-0.03670042,0.0,0.0,0.0
368,1778662616.1973464,0.5179511,-1.2130239,-0.03670042,0.0,0.0,0.0
369,1778662616.207348,0.5179511,-1.2130239,-0.03670042,0.0,0.0,0.0
370,1778662616.2173493,0.5179511,-1.2130239,-0.03670042,0.0,0.0,0.0
371,1778662616.22735,0.5179511,-1.2130239,-0.03670042,0.0,0.0,0.0
372,1778662616.2373524,0.6702419,-1.0412078,0.40064976,0.0,0.0,0.0
373,1778662616.247353,0.6702419,-1.0412078,0.40064976,0.0,0.0,0.0
374,1778662616.2573555,0.6702419,-1.0412078,0.40064976,0.0,0.0,0.0
375,1778662616.2673562,0.6702419,-1.0412078,0.40064976,0.0,0.0,0.0
376,1778662616.2773576,0.6702419,-1.0412078,0.40064976,0.0,0.0,0.0
377,1778662616.2873583,0.6702419,-1.0412078,0.40064976,0.0,0.0,0.0
378,1778662616.297359,0.6702419,-1.0412078,0.40064976,0.0,0.0,0.0
379,1778662616.3073597,0.6702419,-1.0412078,0.40064976,0.0,0.0,0.0
380,1778662616.3173614,0.6702419,-1.0412078,0.40064976,0.0,0.0,0.0
381,1778662616.3273628,0.6702419,-1.0412078,0.40064976,0.0,0.0,0.0
382,1778662616.3373644,0.6702419,-1.0412078,0.40064976,0.0,0.0,0.0
383,1778662616.3473675,1.1544526,-0.7483386,1.2441124,0.0,0.0,0.0
384,1778662616.3573697,1.1544526,-0.7483386,1.2441124,0.0,0.0,0.0
385,1778662616.3673723,1.1544526,-0.7483386,1.2441124,0.0,0.0,0.0
386,1778662616.3773742,1.669901,-0.39689648,1.7439411,0.0,0.0,0.0
387,1778662616.387375,1.669901,-0.39689648,1.7439411,0.0,0.0,0.0
388,1778662616.397376,1.669901,-0.39689648,1.7439411,0.0,0.0,0.0
389,1778662616.4073775,1.669901,-0.39689648,1.7439411,0.0,0.0,0.0
390,1778662616.4173791,1.669901,-0.39689648,1.7439411,0.0,0.0,0.0
391,1778662616.4273806,1.669901,-0.39689648,1.7439411,0.0,0.0,0.0
392,1778662616.4373827,1.669901,-0.39689648,1.7439411,0.0,0.0,0.0
393,1778662616.4473844,1.669901,-0.39689648,1.7439411,0.0,0.0,0.0
394,1778662616.457386,1.669901,-0.39689648,1.7439411,0.0,0.0,0.0
395,1778662616.4673867,1.669901,-0.39689648,1.7439411,0.0,0.0,0.0
396,1778662616.4773881,1.669901,-0.39689648,1.7439411,0.0,0.0,0.0
397,1778662616.4873888,1.669901,-0.39689648,1.7439411,0.0,0.0,0.0
398,1778662616.4973896,1.669901,-0.39689648,1.7439411,0.0,0.0,0.0
399,1778662616.507391,1.669901,-0.39689648,1.7439411,0.0,0.0,0.0
400,1778662616.5173924,1.669901,-0.39689648,1.7439411,0.0,0.0,0.0
401,1778662616.5273962,1.669901,-0.39689648,1.7439411,0.0,0.0,0.0
402,1778662616.537398,1.669901,-0.39689648,1.7439411,0.0,0.0,0.0
403,1778662616.5473993,1.669901,-0.39689648,1.7439411,0.0,0.0,0.0
404,1778662616.5574005,1.8846719,-0.26412946,1.8806138,0.0,0.0,0.0
405,1778662616.5674021,1.8846719,-0.26412946,1.8806138,0.0,0.0,0.0
406,1778662616.5774033,1.8846719,-0.26412946,1.8806138,0.0,0.0,0.0
407,1778662616.5874045,1.8846719,-0.26412946,1.8806138,0.0,0.0,0.0
408,1778662616.5974052,1.8846719,-0.26412946,1.8806138,0.0,0.0,0.0
409,1778662616.607406,1.8846719,-0.26412946,1.8806138,0.0,0.0,0.0
410,1778662616.6174078,1.8846719,-0.26412946,1.8806138,0.0,0.0,0.0
411,1778662616.6274095,1.8846719,-0.26412946,1.8806138,0.0,0.0,0.0
412,1778662616.6374102,1.8846719,-0.26412946,1.8806138,0.0,0.0,0.0
413,1778662616.6474113,1.8846719,-0.26412946,1.8806138,0.0,0.0,0.0
414,1778662616.6574125,1.8846719,-0.26412946,1.8806138,0.0,0.0,0.0
415,1778662616.6674142,2.3064024,-0.072788,2.0719538,0.0,0.0,0.0
416,1778662616.677416,2.3064024,-0.072788,2.0719538,0.0,0.0,0.0
417,1778662616.687417,2.3064024,-0.072788,2.0719538,0.0,0.0,0.0
418,1778662616.697418,2.3064024,-0.072788,2.0719538,0.0,0.0,0.0
419,1778662616.7074187,2.3064024,-0.072788,2.0719538,0.0,0.0,0.0
420,1778662616.7174196,2.3064024,-0.072788,2.0719538,0.0,0.0,0.0
421,1778662616.7274203,2.3064024,-0.072788,2.0719538,0.0,0.0,0.0
422,1778662616.7374218,2.3064024,-0.072788,2.0719538,0.0,0.0,0.0
423,1778662616.7474225,2.3064024,-0.072788,2.0719538,0.0,0.0,0.0
424,1778662616.757423,2.3064024,-0.072788,2.0719538,0.0,0.0,0.0
425,1778662616.7674236,2.3064024,-0.072788,2.0719538,0.0,0.0,0.0
426,1778662616.7774253,2.3064024,-0.072788,2.0719538,0.0,0.0,0.0
427,1778662616.7874267,2.3064024,-0.072788,2.0719538,0.0,0.0,0.0
428,1778662616.7974274,2.3064024,-0.072788,2.0719538,0.0,0.0,0.0
429,1778662616.8074293,2.3064024,-0.072788,2.0719538,0.0,0.0,0.0
430,1778662616.8174303,2.3064024,-0.072788,2.0719538,0.0,0.0,0.0
431,1778662616.827431,2.3064024,-0.072788,2.0719538,0.0,0.0,0.0
432,1778662616.8374329,2.4079301,0.052169193,2.103193,0.0,0.0,0.0
433,1778662616.8474338,2.4079301,0.052169193,2.103193,0.0,0.0,0.0
434,1778662616.8574345,2.4079301,0.052169193,2.103193,0.0,0.0,0.0
435,1778662616.8674357,2.4079301,0.052169193,2.103193,0.0,0.0,0.0
436,1778662616.8774369,2.4079301,0.052169193,2.103193,0.0,0.0,0.0
437,1778662616.8874376,2.4079301,0.052169193,2.103193,0.0,0.0,0.0
438,1778662616.8974388,2.4079301,0.052169193,2.103193,0.0,0.0,0.0
439,1778662616.9074397,2.4079301,0.052169193,2.103193,0.0,0.0,0.0
440,1778662616.9174404,2.4079301,0.052169193,2.103193,0.0,0.0,0.0
441,1778662616.9274418,2.4079301,0.052169193,2.103193,0.0,0.0,0.0
442,1778662616.9374423,2.4079301,0.052169193,2.103193,0.0,0.0,0.0
443,1778662616.9474437,2.4079301,0.052169193,2.103193,0.0,0.0,0.0
444,1778662616.957445,2.4079301,0.052169193,2.103193,0.0,0.0,0.0
445,1778662616.9674456,2.4079301,0.052169193,2.103193,0.0,0.0,0.0
446,1778662616.9774468,2.4079301,0.052169193,2.103193,0.0,0.0,0.0
447,1778662616.987449,2.4079301,0.052169193,2.103193,0.0,0.0,0.0
448,1778662616.9974496,2.4079301,0.052169193,2.103193,0.0,0.0,0.0
449,1778662617.0074506,2.4079301,0.052169193,2.103193,0.0,0.0,0.0
450,1778662617.0174518,2.4079301,0.052169193,2.103193,0.0,0.0,0.0
451,1778662617.0274537,2.4079301,0.052169193,2.103193,0.0,0.0,0.0
452,1778662617.037455,2.4079301,0.052169193,2.103193,0.0,0.0,0.0
453,1778662617.047457,2.4079301,0.052169193,2.103193,0.0,0.0,0.0
454,1778662617.0574586,2.4079301,0.052169193,2.103193,0.0,0.0,0.0
455,1778662617.06746,2.4079301,0.052169193,2.103193,0.0,0.0,0.0
456,1778662617.0774608,2.4079301,0.052169193,2.103193,0.0,0.0,0.0
457,1778662617.0874648,2.4079301,0.052169193,2.103193,0.0,0.0,0.0
458,1778662617.0974672,2.4079301,0.052169193,2.103193,0.0,0.0,0.0
459,1778662617.1074681,2.4079301,0.052169193,2.103193,0.0,0.0,0.0
460,1778662617.1174705,2.4079301,0.052169193,2.103193,0.0,0.0,0.0
461,1778662617.1274748,2.4079301,0.052169193,2.103193,0.0,0.0,0.0
462,1778662617.1374764,2.4079301,0.052169193,2.103193,0.0,0.0,0.0
463,1778662617.147477,2.4079301,0.052169193,2.103193,0.0,0.0,0.0
464,1778662617.1574793,2.361071,0.11074209,2.0719538,0.0,0.0,0.0
465,1778662617.1674802,2.361071,0.11074209,2.0719538,0.0,0.0,0.0
466,1778662617.1774812,2.361071,0.11074209,2.0719538,0.0,0.0,0.0
467,1778662617.187482,2.361071,0.11074209,2.0719538,0.0,0.0,0.0
468,1778662617.1974833,2.361071,0.11074209,2.0719538,0.0,0.0,0.0
469,1778662617.2074845,2.361071,0.11074209,2.0719538,0.0,0.0,0.0
470,1778662617.2174854,2.361071,0.11074209,2.0719538,0.0,0.0,0.0
471,1778662617.227487,2.115061,0.23569928,1.9313768,0.0,0.0,0.0
472,1778662617.2374887,2.115061,0.23569928,1.9313768,0.0,0.0,0.0
473,1778662617.2474892,2.115061,0.23569928,1.9313768,0.0,0.0,0.0
474,1778662617.2574902,2.115061,0.23569928,1.9313768,0.0,0.0,0.0
475,1778662617.2674909,2.115061,0.23569928,1.9313768,0.0,0.0,0.0
476,1778662617.277492,2.115061,0.23569928,1.9313768,0.0,0.0,0.0
477,1778662617.2874932,2.115061,0.23569928,1.9313768,0.0,0.0,0.0
478,1778662617.297494,2.115061,0.23569928,1.9313768,0.0,0.0,0.0
479,1778662617.3074949,2.115061,0.23569928,1.9313768,0.0,0.0,0.0
480,1778662617.3174958,1.9783897,0.25131893,1.8415647,0.0,0.0,0.0
481,1778662617.3274965,1.9783897,0.25131893,1.8415647,0.0,0.0,0.0
482,1778662617.337498,1.9783897,0.25131893,1.8415647,0.0,0.0,0.0
483,1778662617.3474987,1.9783897,0.25131893,1.8415647,0.0,0.0,0.0
484,1778662617.3574998,1.9783897,0.25131893,1.8415647,0.0,0.0,0.0
485,1778662617.3675017,1.9783897,0.25131893,1.8415647,0.0,0.0,0.0
486,1778662617.3775032,1.9783897,0.25131893,1.8415647,0.0,0.0,0.0
487,1778662617.387504,1.9783897,0.25131893,1.8415647,0.0,0.0,0.0
488,1778662617.3975053,1.9783897,0.25131893,1.8415647,0.0,0.0,0.0
489,1778662617.4075062,1.9783897,0.25131893,1.8415647,0.0,0.0,0.0
490,1778662617.417507,1.9783897,0.25131893,1.8415647,0.0,0.0,0.0
491,1778662617.4275086,1.9783897,0.25131893,1.8415647,0.0,0.0,0.0
492,1778662617.437509,1.9783897,0.25131893,1.8415647,0.0,0.0,0.0
493,1778662617.4475105,1.9783897,0.25131893,1.8415647,0.0,0.0,0.0
494,1778662617.4575117,1.9783897,0.25131893,1.8415647,0.0,0.0,0.0
495,1778662617.4675124,1.9783897,0.25131893,1.8415647,0.0,0.0,0.0
496,1778662617.4775136,1.9783897,0.25131893,1.8415647,0.0,0.0,0.0
497,1778662617.4875143,1.9783897,0.25131893,1.8415647,0.0,0.0,0.0
498,1778662617.4975157,1.9783897,0.25131893,1.8415647,0.0,0.0,0.0
499,1778662617.5075169,1.9783897,0.25131893,1.8415647,0.0,0.0,0.0
500,1778662617.5175176,1.9783897,0.25131893,1.8415647,0.0,0.0,0.0
501,1778662617.5275187,1.9783897,0.25131893,1.8415647,0.0,0.0,0.0
502,1778662617.53752,1.9783897,0.25131893,1.8415647,0.0,0.0,0.0
503,1778662617.547521,1.9783897,0.25131893,1.8415647,0.0,0.0,0.0
504,1778662617.557522,1.9783897,0.25131893,1.8415647,0.0,0.0,0.0
505,1778662617.5675235,1.5800872,0.24350911,1.4862169,0.0,0.0,0.0
506,1778662617.5775242,1.5800872,0.24350911,1.4862169,0.0,0.0,0.0
507,1778662617.5875251,1.5800872,0.24350911,1.4862169,0.0,0.0,0.0
508,1778662617.5975263,1.5800872,0.24350911,1.4862169,0.0,0.0,0.0
509,1778662617.6075282,1.5800872,0.24350911,1.4862169,0.0,0.0,0.0
510,1778662617.6175292,1.5800872,0.24350911,1.4862169,0.0,0.0,0.0
511,1778662617.62753,1.5800872,0.24350911,1.4862169,0.0,0.0,0.0
512,1778662617.637532,1.5800872,0.24350911,1.4862169,0.0,0.0,0.0
513,1778662617.6475325,1.5800872,0.24350911,1.4862169,0.0,0.0,0.0
514,1778662617.6575332,1.5800872,0.24350911,1.4862169,0.0,0.0,0.0
515,1778662617.667534,1.5800872,0.24350911,1.4862169,0.0,0.0,0.0
516,1778662617.6775348,1.5800872,0.24350911,1.4862169,0.0,0.0,0.0
517,1778662617.6875355,1.5800872,0.24350911,1.4862169,0.0,0.0,0.0
518,1778662617.6975372,1.5800872,0.24350911,1.4862169,0.0,0.0,0.0
519,1778662617.7075388,1.5800872,0.24350911,1.4862169,0.0,0.0,0.0
520,1778662617.7175405,1.5332283,0.23569928,1.4081186,0.0,0.0,0.0
521,1778662617.7275443,1.5332283,0.23569928,1.4081186,0.0,0.0,0.0
522,1778662617.737546,1.5332283,0.23569928,1.4081186,0.0,0.0,0.0
523,1778662617.747547,1.5332283,0.23569928,1.4081186,0.0,0.0,0.0
524,1778662617.757548,1.5332283,0.23569928,1.4081186,0.0,0.0,0.0
525,1778662617.767549,1.5332283,0.23569928,1.4081186,0.0,0.0,0.0
526,1778662617.7775512,1.5332283,0.23569928,1.4081186,0.0,0.0,0.0
527,1778662617.7875524,1.5332283,0.23569928,1.4081186,0.0,0.0,0.0
528,1778662617.797553,1.5332283,0.23569928,1.4081186,0.0,0.0,0.0
529,1778662617.8075545,1.5332283,0.23569928,1.4081186,0.0,0.0,0.0
530,1778662617.817555,1.5332283,0.23569928,1.4081186,0.0,0.0,0.0
531,1778662617.8275554,1.5332283,0.23569928,1.4081186,0.0,0.0,0.0
532,1778662617.8375564,1.5332283,0.23569928,1.4081186,0.0,0.0,0.0
533,1778662617.8475578,1.5332283,0.23569928,1.4081186,0.0,0.0,0.0
534,1778662617.857559,1.5332283,0.23569928,1.4081186,0.0,0.0,0.0
535,1778662617.867561,1.4668455,0.25912875,1.3222106,0.0,0.0,0.0
536,1778662617.877562,1.4668455,0.25912875,1.3222106,0.0,0.0,0.0
537,1778662617.8875635,1.4668455,0.25912875,1.3222106,0.0,0.0,0.0
538,1778662617.8975642,1.4668455,0.25912875,1.3222106,0.0,0.0,0.0
539,1778662617.9075658,1.4668455,0.25912875,1.3222106,0.0,0.0,0.0
540,1778662617.917567,1.4668455,0.25912875,1.3222106,0.0,0.0,0.0
541,1778662617.927568,1.4668455,0.25912875,1.3222106,0.0,0.0,0.0
542,1778662617.9375703,1.4668455,0.25912875,1.3222106,0.0,0.0,0.0
543,1778662617.9475713,1.4668455,0.25912875,1.3222106,0.0,0.0,0.0
544,1778662617.957572,1.4668455,0.25912875,1.3222106,0.0,0.0,0.0
545,1778662617.9675753,1.4668455,0.25912875,1.3222106,0.0,0.0,0.0
546,1778662617.9775765,1.4668455,0.25912875,1.3222106,0.0,0.0,0.0
547,1778662617.9875777,1.4668455,0.25912875,1.3222106,0.0,0.0,0.0
548,1778662617.9975796,1.4668455,0.25912875,1.3222106,0.0,0.0,0.0
549,1778662618.0075808,1.4668455,0.25912875,1.3222106,0.0,0.0,0.0
550,1778662618.0175812,1.4668455,0.25912875,1.3222106,0.0,0.0,0.0
551,1778662618.0275826,1.4668455,0.3098934,1.271446,0.0,0.0,0.0
552,1778662618.0375836,1.4668455,0.3098934,1.271446,0.0,0.0,0.0
553,1778662618.047585,1.4668455,0.3098934,1.271446,0.0,0.0,0.0
554,1778662618.057586,1.4668455,0.3098934,1.271446,0.0,0.0,0.0
555,1778662618.0675867,1.4668455,0.3098934,1.271446,0.0,0.0,0.0
556,1778662618.0775883,1.4668455,0.3098934,1.271446,0.0,0.0,0.0
557,1778662618.0875907,1.4668455,0.3098934,1.271446,0.0,0.0,0.0
558,1778662618.0975928,1.4668455,0.3098934,1.271446,0.0,0.0,0.0
559,1778662618.107594,1.4668455,0.3098934,1.271446,0.0,0.0,0.0
560,1778662618.1175952,1.4668455,0.3098934,1.271446,0.0,0.0,0.0
561,1778662618.1275964,1.4668455,0.3098934,1.271446,0.0,0.0,0.0
562,1778662618.1375978,1.4668455,0.3098934,1.271446,0.0,0.0,0.0
563,1778662618.1475987,1.4668455,0.3098934,1.271446,0.0,0.0,0.0
564,1778662618.1576004,1.4668455,0.3098934,1.271446,0.0,0.0,0.0
565,1778662618.167602,1.4668455,0.3098934,1.271446,0.0,0.0,0.0
566,1778662618.1776025,1.4668455,0.3098934,1.271446,0.0,0.0,0.0
567,1778662618.1876037,1.4668455,0.3098934,1.271446,0.0,0.0,0.0
568,1778662618.1976054,1.4668455,0.3098934,1.271446,0.0,0.0,0.0
569,1778662618.2076063,1.4668455,0.3098934,1.271446,0.0,0.0,0.0
570,1778662618.2176075,1.4668455,0.3098934,1.271446,0.0,0.0,0.0
571,1778662618.22761,1.45513,0.38799164,1.2675418,0.0,0.0,0.0
572,1778662618.237611,1.45513,0.38799164,1.2675418,0.0,0.0,0.0
573,1778662618.247612,1.45513,0.38799164,1.2675418,0.0,0.0,0.0
574,1778662618.2576134,1.45513,0.38799164,1.2675418,0.0,0.0,0.0
575,1778662618.267614,1.45513,0.38799164,1.2675418,0.0,0.0,0.0
576,1778662618.2776146,1.45513,0.38799164,1.2675418,0.0,0.0,0.0
577,1778662618.2876153,1.45513,0.38799164,1.2675418,0.0,0.0,0.0
578,1778662618.2976172,1.45513,0.38799164,1.2675418,0.0,0.0,0.0
579,1778662618.3076186,1.45513,0.38799164,1.2675418,0.0,0.0,0.0
580,1778662618.3176198,1.45513,0.38799164,1.2675418,0.0,0.0,0.0
581,1778662618.3276222,1.45513,0.38799164,1.2675418,0.0,0.0,0.0
582,1778662618.3376255,1.45513,0.38799164,1.2675418,0.0,0.0,0.0
583,1778662618.3476284,1.45513,0.38799164,1.2675418,0.0,0.0,0.0
584,1778662618.3576298,1.45513,0.38799164,1.2675418,0.0,0.0,0.0
585,1778662618.3676305,1.45513,0.38799164,1.2675418,0.0,0.0,0.0
586,1778662618.3776314,1.45513,0.38799164,1.2675418,0.0,0.0,0.0
587,1778662618.3876321,1.45513,0.38799164,1.2675418,0.0,0.0,0.0
588,1778662618.3976328,1.45513,0.38799164,1.2675418,0.0,0.0,0.0
589,1778662618.4076343,1.45513,0.38799164,1.2675418,0.0,0.0,0.0
590,1778662618.4176369,1.45513,0.38799164,1.2675418,0.0,0.0,0.0
591,1778662618.4276397,1.45513,0.38799164,1.2675418,0.0,0.0,0.0
592,1778662618.4376423,1.45513,0.38799164,1.2675418,0.0,0.0,0.0
593,1778662618.4476464,1.45513,0.38799164,1.2675418,0.0,0.0,0.0
594,1778662618.457649,1.45513,0.38799164,1.2675418,0.0,0.0,0.0
595,1778662618.467651,1.45513,0.38799164,1.2675418,0.0,0.0,0.0
596,1778662618.4776525,1.45513,0.38799164,1.2675418,0.0,0.0,0.0
597,1778662618.4876552,1.45513,0.38799164,1.2675418,0.0,0.0,0.0
598,1778662618.4976566,1.45513,0.38799164,1.2675418,0.0,0.0,0.0
599,1778662618.507658,1.45513,0.38799164,1.2675418,0.0,0.0,0.0
600,1778662618.5176606,1.45513,0.38799164,1.2675418,0.0,0.0,0.0
601,1778662618.5276618,1.45513,0.38799164,1.2675418,0.0,0.0,0.0
602,1778662618.5376627,1.45513,0.38799164,1.2675418,0.0,0.0,0.0
603,1778662618.5476644,1.45513,0.38799164,1.2675418,0.0,0.0,0.0
604,1778662618.5576663,1.45513,0.38799164,1.2675418,0.0,0.0,0.0
605,1778662618.5676672,1.45513,0.38799164,1.2675418,0.0,0.0,0.0
606,1778662618.5776696,1.45513,0.38799164,1.2675418,0.0,0.0,0.0
607,1778662618.5876706,1.45513,0.38799164,1.2675418,0.0,0.0,0.0
608,1778662618.597673,1.45513,0.38799164,1.2675418,0.0,0.0,0.0
609,1778662618.6076748,1.404367,0.45047024,1.2909713,0.0,0.0,0.0
610,1778662618.617676,1.404367,0.45047024,1.2909713,0.0,0.0,0.0
611,1778662618.6276767,1.404367,0.45047024,1.2909713,0.0,0.0,0.0
612,1778662618.6376786,1.404367,0.45047024,1.2909713,0.0,0.0,0.0
613,1778662618.6476796,1.404367,0.45047024,1.2909713,0.0,0.0,0.0
614,1778662618.657681,1.404367,0.45047024,1.2909713,0.0,0.0,0.0
615,1778662618.6676834,1.404367,0.45047024,1.2909713,0.0,0.0,0.0
616,1778662618.6776843,1.404367,0.45047024,1.2909713,0.0,0.0,0.0
617,1778662618.687686,1.404367,0.45047024,1.2909713,0.0,0.0,0.0
618,1778662618.6976867,1.404367,0.45047024,1.2909713,0.0,0.0,0.0
619,1778662618.7076888,1.3379827,0.52856845,1.3144008,0.0,0.0,0.0
620,1778662618.7176902,1.3379827,0.52856845,1.3144008,0.0,0.0,0.0
621,1778662618.7276907,1.3379827,0.52856845,1.3144008,0.0,0.0,0.0
622,1778662618.7376916,1.3379827,0.52856845,1.3144008,0.0,0.0,0.0
623,1778662618.7476933,1.3379827,0.52856845,1.3144008,0.0,0.0,0.0
624,1778662618.7576942,1.3379827,0.52856845,1.3144008,0.0,0.0,0.0
625,1778662618.7676957,1.3379827,0.52856845,1.3144008,0.0,0.0,0.0
626,1778662618.7776966,1.3379827,0.52856845,1.3144008,0.0,0.0,0.0
627,1778662618.787698,1.3379827,0.52856845,1.3144008,0.0,0.0,0.0
628,1778662618.7977002,1.3379827,0.52856845,1.3144008,0.0,0.0,0.0
629,1778662618.807702,1.3379827,0.52856845,1.3144008,0.0,0.0,0.0
630,1778662618.8177035,1.3379827,0.52856845,1.3144008,0.0,0.0,0.0
631,1778662618.827709,1.3379827,0.52856845,1.3144008,0.0,0.0,0.0
632,1778662618.8377097,1.3379827,0.52856845,1.3144008,0.0,0.0,0.0
633,1778662618.8477118,1.3379827,0.52856845,1.3144008,0.0,0.0,0.0
634,1778662618.8577142,1.3379827,0.52856845,1.3144008,0.0,0.0,0.0
635,1778662618.867716,1.3379827,0.52856845,1.3144008,0.0,0.0,0.0
636,1778662618.877718,1.3379827,0.52856845,1.3144008,0.0,0.0,0.0
637,1778662618.8877187,1.3379827,0.52856845,1.3144008,0.0,0.0,0.0
638,1778662618.8977196,1.3379827,0.52856845,1.3144008,0.0,0.0,0.0
639,1778662618.9077218,1.3379827,0.52856845,1.3144008,0.0,0.0,0.0
640,1778662618.9177227,1.3379827,0.52856845,1.3144008,0.0,0.0,0.0
641,1778662618.9277234,1.3379827,0.52856845,1.3144008,0.0,0.0,0.0
642,1778662618.9377244,1.2833139,0.8292475,1.3222106,0.0,0.0,0.0
643,1778662618.947725,1.2833139,0.8292475,1.3222106,0.0,0.0,0.0
644,1778662618.9577262,1.2833139,0.8292475,1.3222106,0.0,0.0,0.0
645,1778662618.9677272,1.2833139,0.8292475,1.3222106,0.0,0.0,0.0
646,1778662618.977728,1.2833139,0.8292475,1.3222106,0.0,0.0,0.0
647,1778662618.9877288,1.2833139,0.8292475,1.3222106,0.0,0.0,0.0
648,1778662618.9977298,1.2833139,0.8292475,1.3222106,0.0,0.0,0.0
649,1778662619.0077302,1.2833139,0.8292475,1.3222106,0.0,0.0,0.0
650,1778662619.0177317,1.2833139,0.8292475,1.3222106,0.0,0.0,0.0
651,1778662619.0277324,1.2833139,0.8292475,1.3222106,0.0,0.0,0.0
652,1778662619.0377355,1.2833139,0.8292475,1.3222106,0.0,0.0,0.0
653,1778662619.0477371,1.2833139,0.8292475,1.3222106,0.0,0.0,0.0
654,1778662619.057738,1.2833139,0.8292475,1.3222106,0.0,0.0,0.0
655,1778662619.0677397,1.2833139,0.8292475,1.3222106,0.0,0.0,0.0
656,1778662619.077742,1.2833139,0.8292475,1.3222106,0.0,0.0,0.0
657,1778662619.0877435,1.2833139,0.8292475,1.3222106,0.0,0.0,0.0
658,1778662619.0977447,1.2833139,0.8292475,1.3222106,0.0,0.0,0.0
659,1778662619.107746,1.2833139,0.8292475,1.3222106,0.0,0.0,0.0
660,1778662619.117748,1.2833139,0.8292475,1.3222106,0.0,0.0,0.0
661,1778662619.1277492,1.2833139,0.8292475,1.3222106,0.0,0.0,0.0
662,1778662619.13775,1.2833139,0.8292475,1.3222106,0.0,0.0,0.0
663,1778662619.1477523,1.2833139,0.8292475,1.3222106,0.0,0.0,0.0
664,1778662619.1577537,1.2833139,0.8292475,1.3222106,0.0,0.0,0.0
665,1778662619.1677544,1.2833139,0.8292475,1.3222106,0.0,0.0,0.0
666,1778662619.177756,1.3614122,0.91515553,1.3183049,0.0,0.0,0.0
667,1778662619.1877573,1.3614122,0.91515553,1.3183049,0.0,0.0,0.0
668,1778662619.1977584,1.3614122,0.91515553,1.3183049,0.0,0.0,0.0
669,1778662619.2077603,1.3614122,0.91515553,1.3183049,0.0,0.0,0.0
670,1778662619.217761,1.3614122,0.91515553,1.3183049,0.0,0.0,0.0
671,1778662619.2277622,1.3614122,0.91515553,1.3183049,0.0,0.0,0.0
672,1778662619.237764,1.3614122,0.91515553,1.3183049,0.0,0.0,0.0
673,1778662619.2477682,1.3614122,0.91515553,1.3183049,0.0,0.0,0.0
674,1778662619.2577715,1.3614122,0.91515553,1.3183049,0.0,0.0,0.0
675,1778662619.267774,1.3614122,0.91515553,1.3183049,0.0,0.0,0.0
676,1778662619.2777755,1.3614122,0.91515553,1.3183049,0.0,0.0,0.0
677,1778662619.2877772,1.3614122,0.91515553,1.3183049,0.0,0.0,0.0
678,1778662619.2977786,1.3614122,0.91515553,1.3183049,0.0,0.0,0.0
679,1778662619.307779,1.3614122,0.91515553,1.3183049,0.0,0.0,0.0
680,1778662619.3177805,1.3614122,0.91515553,1.3183049,0.0,0.0,0.0
681,1778662619.3277817,1.3614122,0.91515553,1.3183049,0.0,0.0,0.0
682,1778662619.3377829,1.3614122,0.91515553,1.3183049,0.0,0.0,0.0
683,1778662619.3477845,1.3614122,0.91515553,1.3183049,0.0,0.0,0.0
684,1778662619.3577852,1.3614122,0.91515553,1.3183049,0.0,0.0,0.0
685,1778662619.3677876,1.3614122,0.91515553,1.3183049,0.0,0.0,0.0
686,1778662619.3777902,1.3614122,0.91515553,1.3183049,0.0,0.0,0.0
687,1778662619.3877916,1.3614122,0.91515553,1.3183049,0.0,0.0,0.0
688,1778662619.3977933,1.3614122,0.91515553,1.3183049,0.0,0.0,0.0
689,1778662619.4077961,1.3614122,0.91515553,1.3183049,0.0,0.0,0.0
690,1778662619.4177985,1.3614122,0.91515553,1.3183049,0.0,0.0,0.0
691,1778662619.4277995,1.3614122,0.91515553,1.3183049,0.0,0.0,0.0
692,1778662619.4378011,1.3614122,0.91515553,1.3183049,0.0,0.0,0.0
693,1778662619.4478028,1.3614122,0.91515553,1.3183049,0.0,0.0,0.0
694,1778662619.4578037,1.3614122,0.91515553,1.3183049,0.0,0.0,0.0
695,1778662619.4678047,1.3614122,0.91515553,1.3183049,0.0,0.0,0.0
696,1778662619.4778066,1.9354349,1.3290763,1.2519221,0.0,0.0,0.0
697,1778662619.4878075,1.9354349,1.3290763,1.2519221,0.0,0.0,0.0
698,1778662619.4978082,1.9354349,1.3290763,1.2519221,0.0,0.0,0.0
699,1778662619.5078113,1.9354349,1.3290763,1.2519221,0.0,0.0,0.0
700,1778662619.517813,1.9354349,1.3290763,1.2519221,0.0,0.0,0.0
701,1778662619.527815,1.9354349,1.3290763,1.2519221,0.0,0.0,0.0
702,1778662619.5378165,1.888576,1.1767839,1.2753516,0.0,0.0,0.0
703,1778662619.5478175,1.888576,1.1767839,1.2753516,0.0,0.0,0.0
704,1778662619.5578182,1.888576,1.1767839,1.2753516,0.0,0.0,0.0
705,1778662619.5678198,1.888576,1.1767839,1.2753516,0.0,0.0,0.0
706,1778662619.577821,1.888576,1.1767839,1.2753516,0.0,0.0,0.0
707,1778662619.5878222,1.888576,1.1767839,1.2753516,0.0,0.0,0.0
708,1778662619.597824,1.888576,1.1767839,1.2753516,0.0,0.0,0.0
709,1778662619.607826,1.888576,1.1767839,1.2753516,0.0,0.0,0.0
710,1778662619.617829,1.888576,1.1767839,1.2753516,0.0,0.0,0.0
711,1778662619.6278305,1.888576,1.1767839,1.2753516,0.0,0.0,0.0
712,1778662619.6378314,1.888576,1.1767839,1.2753516,0.0,0.0,0.0
713,1778662619.647833,1.888576,1.1767839,1.2753516,0.0,0.0,0.0
714,1778662619.6578343,1.888576,1.1767839,1.2753516,0.0,0.0,0.0
715,1778662619.667835,1.888576,1.1767839,1.2753516,0.0,0.0,0.0
716,1778662619.6778357,1.888576,1.1767839,1.2753516,0.0,0.0,0.0
717,1778662619.6878362,1.888576,1.1767839,1.2753516,0.0,0.0,0.0
718,1778662619.697837,1.888576,1.1767839,1.2753516,0.0,0.0,0.0
719,1778662619.7078388,1.7597147,1.4891784,1.1660141,0.0,0.0,0.0
720,1778662619.7178397,1.7597147,1.4891784,1.1660141,0.0,0.0,0.0
721,1778662619.7278419,1.7597147,1.4891784,1.1660141,0.0,0.0,0.0
722,1778662619.737843,1.7597147,1.4891784,1.1660141,0.0,0.0,0.0
723,1778662619.7478445,1.7597147,1.4891784,1.1660141,0.0,0.0,0.0
724,1778662619.7578452,1.7597147,1.4891784,1.1660141,0.0,0.0,0.0
725,1778662619.7678463,1.7597147,1.4891784,1.1660141,0.0,0.0,0.0
726,1778662619.7778468,1.7597147,1.4891784,1.1660141,0.0,0.0,0.0
727,1778662619.7878482,1.7597147,1.4891784,1.1660141,0.0,0.0,0.0
728,1778662619.7978492,1.7597147,1.4891784,1.1660141,0.0,0.0,0.0
729,1778662619.8078516,1.7597147,1.4891784,1.1660141,0.0,0.0,0.0
730,1778662619.8178556,1.7597147,1.4891784,1.1660141,0.0,0.0,0.0
731,1778662619.8278575,1.7597147,1.4891784,1.1660141,0.0,0.0,0.0
732,1778662619.8378587,1.7597147,1.4891784,1.1660141,0.0,0.0,0.0
733,1778662619.847861,1.7597147,1.4891784,1.1660141,0.0,0.0,0.0
734,1778662619.8578622,1.7597147,1.4891784,1.1660141,0.0,0.0,0.0
735,1778662619.8678632,1.7597147,1.4891784,1.1660141,0.0,0.0,0.0
736,1778662619.877865,1.7597147,1.4891784,1.1660141,0.0,0.0,0.0
737,1778662619.887866,1.7597147,1.4891784,1.1660141,0.0,0.0,0.0
738,1778662619.8978672,1.7597147,1.4891784,1.1660141,0.0,0.0,0.0
739,1778662619.9078681,1.7597147,1.4891784,1.1660141,0.0,0.0,0.0
740,1778662619.9178708,1.7597147,1.4891784,1.1660141,0.0,0.0,0.0
741,1778662619.9278736,1.7597147,1.4891784,1.1660141,0.0,0.0,0.0
742,1778662619.937875,1.7597147,1.4891784,1.1660141,0.0,0.0,0.0
743,1778662619.9478765,1.7597147,1.4891784,1.1660141,0.0,0.0,0.0
744,1778662619.9578779,1.7597147,1.4891784,1.1660141,0.0,0.0,0.0
745,1778662619.9678795,1.7597147,1.4891784,1.1660141,0.0,0.0,0.0
746,1778662619.9778812,1.7597147,1.4891784,1.1660141,0.0,0.0,0.0
747,1778662619.9878862,1.7597147,1.4891784,1.1660141,0.0,0.0,0.0
748,1778662619.9978871,1.7597147,1.4891784,1.1660141,0.0,0.0,0.0
749,1778662620.0078888,1.7597147,1.4891784,1.1660141,0.0,0.0,0.0
750,1778662620.01789,1.7597147,1.4891784,1.1660141,0.0,0.0,0.0
751,1778662620.0278916,1.7597147,1.4891784,1.1660141,0.0,0.0,0.0
752,1778662620.0378935,1.7597147,1.4891784,1.1660141,0.0,0.0,0.0
753,1778662620.0478945,1.7597147,1.4891784,1.1660141,0.0,0.0,0.0
754,1778662620.0578957,1.7597147,1.4891784,1.1660141,0.0,0.0,0.0
755,1778662620.0678968,1.7597147,1.4891784,1.1660141,0.0,0.0,0.0
756,1778662620.0778975,1.7597147,1.4891784,1.1660141,0.0,0.0,0.0
757,1778662620.0879004,1.7597147,1.4891784,1.1660141,0.0,0.0,0.0
758,1778662620.0979025,1.7597147,1.4891784,1.1660141,0.0,0.0,0.0
759,1778662620.1079042,1.7597147,1.4891784,1.1660141,0.0,0.0,0.0
760,1778662620.1179087,1.7597147,1.4891784,1.1660141,0.0,0.0,0.0
761,1778662620.1279135,1.7597147,1.4891784,1.1660141,0.0,0.0,0.0
762,1778662620.1379166,1.7597147,1.4891784,1.1660141,0.0,0.0,0.0
763,1778662620.147918,1.7597147,1.4891784,1.1660141,0.0,0.0,0.0
764,1778662620.157919,1.7597147,1.4891784,1.1660141,0.0,0.0,0.0
765,1778662620.1679204,1.7597147,1.4891784,1.1660141,0.0,0.0,0.0
766,1778662620.1779213,1.7597147,1.4891784,1.1660141,0.0,0.0,0.0
767,1778662620.1879218,1.7597147,1.4891784,1.1660141,0.0,0.0,0.0
768,1778662620.1979237,1.7597147,1.4891784,1.1660141,0.0,0.0,0.0
769,1778662620.207925,1.7597147,1.4891784,1.1660141,0.0,0.0,0.0
770,1778662620.2179272,1.7597147,1.4891784,1.1660141,0.0,0.0,0.0
771,1778662620.227929,1.7597147,1.4891784,1.1660141,0.0,0.0,0.0
772,1778662620.23793,1.7597147,1.4891784,1.1660141,0.0,0.0,0.0
773,1778662620.2479317,1.7597147,1.4891784,1.1660141,0.0,0.0,0.0
774,1778662620.2579331,1.5605634,1.6297553,1.0293413,0.0,0.0,0.0
775,1778662620.2679338,1.5605634,1.6297553,1.0293413,0.0,0.0,0.0
776,1778662620.2779353,1.5605634,1.6297553,1.0293413,0.0,0.0,0.0
777,1778662620.2879384,1.5605634,1.6297553,1.0293413,0.0,0.0,0.0
778,1778662620.2979398,1.5605634,1.6297553,1.0293413,0.0,0.0,0.0
779,1778662620.3079402,1.5605634,1.6297553,1.0293413,0.0,0.0,0.0
780,1778662620.3179412,1.5605634,1.6297553,1.0293413,0.0,0.0,0.0
781,1778662620.327943,1.4629399,1.7039478,0.9668628,0.0,0.0,0.0
782,1778662620.337945,1.4629399,1.7039478,0.9668628,0.0,0.0,0.0
783,1778662620.3479455,1.4629399,1.7039478,0.9668628,0.0,0.0,0.0
784,1778662620.3579478,1.4629399,1.7039478,0.9668628,0.0,0.0,0.0
785,1778662620.3679485,1.4629399,1.7039478,0.9668628,0.0,0.0,0.0
786,1778662620.377949,1.4629399,1.7039478,0.9668628,0.0,0.0,0.0
787,1778662620.3879519,1.3614122,1.7820461,0.92781365,0.0,0.0,0.0
788,1778662620.3979533,1.3614122,1.7820461,0.92781365,0.0,0.0,0.0
789,1778662620.4079547,1.3614122,1.7820461,0.92781365,0.0,0.0,0.0
790,1778662620.417956,1.3614122,1.7820461,0.92781365,0.0,0.0,0.0
791,1778662620.4279575,1.3614122,1.7820461,0.92781365,0.0,0.0,0.0
792,1778662620.4379587,1.3614122,1.7820461,0.92781365,0.0,0.0,0.0
793,1778662620.4479601,1.3614122,1.7820461,0.92781365,0.0,0.0,0.0
794,1778662620.4579623,1.3614122,1.7820461,0.92781365,0.0,0.0,0.0
795,1778662620.4679651,1.3614122,1.7820461,0.92781365,0.0,0.0,0.0
796,1778662620.4779668,1.3614122,1.7820461,0.92781365,0.0,0.0,0.0
797,1778662620.4879675,1.3614122,1.7820461,0.92781365,0.0,0.0,0.0
798,1778662620.4979696,1.3614122,1.7820461,0.92781365,0.0,0.0,0.0
799,1778662620.5079713,1.3614122,1.7820461,0.92781365,0.0,0.0,0.0
800,1778662620.5179722,1.3614122,1.7820461,0.92781365,0.0,0.0,0.0
801,1778662620.5279734,1.3614122,1.7820461,0.92781365,0.0,0.0,0.0
802,1778662620.537975,1.3614122,1.7820461,0.92781365,0.0,0.0,0.0
803,1778662620.547976,1.3614122,1.7820461,0.92781365,0.0,0.0,0.0
804,1778662620.5579767,1.3614122,1.7820461,0.92781365,0.0,0.0,0.0
805,1778662620.5679796,1.3614122,1.7820461,0.92781365,0.0,0.0,0.0
806,1778662620.577982,1.3614122,1.7820461,0.92781365,0.0,0.0,0.0
807,1778662620.5879831,1.3614122,1.7820461,0.92781365,0.0,0.0,0.0
808,1778662620.5979838,1.3614122,1.7820461,0.92781365,0.0,0.0,0.0
809,1778662620.6079867,1.0802585,2.1139643,0.86924076,0.0,0.0,0.0
810,1778662620.617988,1.0802585,2.1139643,0.86924076,0.0,0.0,0.0
811,1778662620.627989,1.0802585,2.1139643,0.86924076,0.0,0.0,0.0
812,1778662620.6379914,1.3614122,1.7820461,0.92781365,0.0,0.0,0.0
813,1778662620.6479924,1.3614122,1.7820461,0.92781365,0.0,0.0,0.0
814,1778662620.6579936,1.3614122,1.7820461,0.92781365,0.0,0.0,0.0
815,1778662620.6679955,1.3614122,1.7820461,0.92781365,0.0,0.0,0.0
816,1778662620.6779969,1.3614122,1.7820461,0.92781365,0.0,0.0,0.0
817,1778662620.6879973,1.3614122,1.7820461,0.92781365,0.0,0.0,0.0
818,1778662620.697999,1.3614122,1.7820461,0.92781365,0.0,0.0,0.0
819,1778662620.7080002,1.3614122,1.7820461,0.92781365,0.0,0.0,0.0
820,1778662620.7180016,1.3614122,1.7820461,0.92781365,0.0,0.0,0.0
821,1778662620.728003,1.3614122,1.7820461,0.92781365,0.0,0.0,0.0
822,1778662620.7380037,1.3614122,1.7820461,0.92781365,0.0,0.0,0.0
823,1778662620.7480044,1.3614122,1.7820461,0.92781365,0.0,0.0,0.0
824,1778662620.7580051,1.3614122,1.7820461,0.92781365,0.0,0.0,0.0
825,1778662620.768008,1.045115,2.2311118,0.8301916,0.0,0.0,0.0
826,1778662620.7780094,1.045115,2.2311118,0.8301916,0.0,0.0,0.0
827,1778662620.7880108,1.045115,2.2311118,0.8301916,0.0,0.0,0.0
828,1778662620.7980142,1.045115,2.2311118,0.8301916,0.0,0.0,0.0
829,1778662620.8080158,1.045115,2.2311118,0.8301916,0.0,0.0,0.0
830,1778662620.8180168,1.045115,2.2311118,0.8301916,0.0,0.0,0.0
831,1778662620.828018,1.045115,2.2311118,0.8301916,0.0,0.0,0.0
832,1778662620.8380187,1.045115,2.2311118,0.8301916,0.0,0.0,0.0
833,1778662620.8480215,1.045115,2.2311118,0.8301916,0.0,0.0,0.0
834,1778662620.8580234,1.1505469,2.5161712,0.70132875,0.0,0.0,0.0
835,1778662620.8680243,1.1505469,2.5161712,0.70132875,0.0,0.0,0.0
836,1778662620.878026,1.1505469,2.5161712,0.70132875,0.0,0.0,0.0
837,1778662620.8880274,1.1505469,2.5161712,0.70132875,0.0,0.0,0.0
838,1778662620.8980284,1.1505469,2.5161712,0.70132875,0.0,0.0,0.0
839,1778662620.9080296,1.1505469,2.5161712,0.70132875,0.0,0.0,0.0
840,1778662620.918032,1.1505469,2.5161712,0.70132875,0.0,0.0,0.0
841,1778662620.928035,1.1505469,2.5161712,0.70132875,0.0,0.0,0.0
842,1778662620.9380364,1.1505469,2.5161712,0.70132875,0.0,0.0,0.0
843,1778662620.9480374,1.1505469,2.5161712,0.70132875,0.0,0.0,0.0
844,1778662620.958039,1.1505469,2.5161712,0.70132875,0.0,0.0,0.0
845,1778662620.968041,1.1505469,2.5161712,0.70132875,0.0,0.0,0.0
846,1778662620.9780421,1.1505469,2.5161712,0.70132875,0.0,0.0,0.0
847,1778662620.9880438,1.1505469,2.5161712,0.70132875,0.0,0.0,0.0
848,1778662620.9980447,1.1505469,2.5161712,0.70132875,0.0,0.0,0.0
849,1778662621.008046,1.1505469,2.5161712,0.70132875,0.0,0.0,0.0
850,1778662621.0180483,1.1505469,2.5161712,0.70132875,0.0,0.0,0.0
851,1778662621.0280492,1.1505469,2.5161712,0.70132875,0.0,0.0,0.0
852,1778662621.0380523,1.1505469,2.5161712,0.70132875,0.0,0.0,0.0
853,1778662621.0480535,1.1505469,2.5161712,0.70132875,0.0,0.0,0.0
854,1778662621.058054,1.1505469,2.5161712,0.70132875,0.0,0.0,0.0
855,1778662621.0680563,1.1505469,2.5161712,0.70132875,0.0,0.0,0.0
856,1778662621.0780573,1.1505469,2.5161712,0.70132875,0.0,0.0,0.0
857,1778662621.0880578,1.1505469,2.5161712,0.70132875,0.0,0.0,0.0
858,1778662621.0980594,1.1505469,2.5161712,0.70132875,0.0,0.0,0.0
859,1778662621.1080608,1.1505469,2.5161712,0.70132875,0.0,0.0,0.0
860,1778662621.1180618,1.1505469,2.5161712,0.70132875,0.0,0.0,0.0
861,1778662621.1280668,1.1505469,2.5161712,0.70132875,0.0,0.0,0.0
862,1778662621.138069,1.1505469,2.5161712,0.70132875,0.0,0.0,0.0
863,1778662621.1480694,1.1505469,2.5161712,0.70132875,0.0,0.0,0.0
864,1778662621.1580715,1.1817862,2.6020792,0.60370517,0.0,0.0,0.0
865,1778662621.1680722,1.1817862,2.6020792,0.60370517,0.0,0.0,0.0
866,1778662621.1780741,1.1817862,2.6020792,0.60370517,0.0,0.0,0.0
867,1778662621.1880755,1.1817862,2.6020792,0.60370517,0.0,0.0,0.0
868,1778662621.1980765,1.1817862,2.6020792,0.60370517,0.0,0.0,0.0
869,1778662621.2080774,1.1817862,2.6020792,0.60370517,0.0,0.0,0.0
870,1778662621.2180781,1.1817862,2.6020792,0.60370517,0.0,0.0,0.0
871,1778662621.2280803,1.1817862,2.6020792,0.60370517,0.0,0.0,0.0
872,1778662621.2380824,1.1817862,2.6020792,0.60370517,0.0,0.0,0.0
873,1778662621.2480829,1.1817862,2.6020792,0.60370517,0.0,0.0,0.0
874,1778662621.2580845,1.1817862,2.6020792,0.60370517,0.0,0.0,0.0
875,1778662621.2680857,1.1817862,2.6020792,0.60370517,0.0,0.0,0.0
876,1778662621.2780864,1.1817862,2.6020792,0.60370517,0.0,0.0,0.0
877,1778662621.2880886,1.1817862,2.6020792,0.60370517,0.0,0.0,0.0
878,1778662621.2980895,1.1817862,2.6020792,0.60370517,0.0,0.0,0.0
879,1778662621.3080907,1.1817862,2.6020792,0.60370517,0.0,0.0,0.0
880,1778662621.3180923,1.1817862,2.6020792,0.60370517,0.0,0.0,0.0
881,1778662621.3280935,1.1817862,2.6020792,0.60370517,0.0,0.0,0.0
882,1778662621.3380945,1.1817862,2.6020792,0.60370517,0.0,0.0,0.0
883,1778662621.348096,1.1817862,2.6020792,0.60370517,0.0,0.0,0.0
884,1778662621.3580966,1.1817862,2.6020792,0.60370517,0.0,0.0,0.0
885,1778662621.3680973,1.1817862,2.6020792,0.60370517,0.0,0.0,0.0
886,1778662621.3780985,1.1817862,2.6020792,0.60370517,0.0,0.0,0.0
887,1778662621.3880997,1.1817862,2.6020792,0.60370517,0.0,0.0,0.0
888,1778662621.3981013,1.1817862,2.6020792,0.60370517,0.0,0.0,0.0
889,1778662621.4081025,1.1817862,2.6020792,0.60370517,0.0,0.0,0.0
890,1778662621.4181046,1.1817862,2.6020792,0.60370517,0.0,0.0,0.0
891,1778662621.428107,1.1817862,2.6020792,0.60370517,0.0,0.0,0.0
892,1778662621.4381077,1.1817862,2.6020792,0.60370517,0.0,0.0,0.0
893,1778662621.448109,1.1817862,2.6020792,0.60370517,0.0,0.0,0.0
894,1778662621.4581106,1.1817862,2.6020792,0.60370517,0.0,0.0,0.0
895,1778662621.468111,1.1817862,2.6020792,0.60370517,0.0,0.0,0.0
896,1778662621.478113,1.1817862,2.6020792,0.60370517,0.0,0.0,0.0
897,1778662621.488116,1.1817862,2.6020792,0.60370517,0.0,0.0,0.0
898,1778662621.498118,1.1817862,2.6020792,0.60370517,0.0,0.0,0.0
899,1778662621.5081203,1.1817862,2.6020792,0.60370517,0.0,0.0,0.0
900,1778662621.5181222,1.1817862,2.6020792,0.60370517,0.0,0.0,0.0
901,1778662621.5281248,1.1817862,2.6020792,0.60370517,0.0,0.0,0.0
902,1778662621.5381267,1.1817862,2.6020792,0.60370517,0.0,0.0,0.0
903,1778662621.548128,1.1817862,2.6020792,0.60370517,0.0,0.0,0.0
904,1778662621.5581288,1.1974058,2.8324683,0.16635501,0.0,0.0,0.0
905,1778662621.5681298,1.1974058,2.8324683,0.16635501,0.0,0.0,0.0
906,1778662621.5781305,1.1974058,2.8324683,0.16635501,0.0,0.0,0.0
907,1778662621.5881321,1.1974058,2.8324683,0.16635501,0.0,0.0,0.0
908,1778662621.598133,1.1974058,2.8324683,0.16635501,0.0,0.0,0.0
909,1778662621.6081338,1.1974058,2.8324683,0.16635501,0.0,0.0,0.0
910,1778662621.6181352,1.1974058,2.8324683,0.16635501,0.0,0.0,0.0
911,1778662621.6281362,1.1974058,2.8324683,0.16635501,0.0,0.0,0.0
912,1778662621.6381388,1.1974058,2.8324683,0.16635501,0.0,0.0,0.0
913,1778662621.6481404,1.1974058,2.8324683,0.16635501,0.0,0.0,0.0
914,1778662621.6581414,1.1974058,2.8324683,0.16635501,0.0,0.0,0.0
915,1778662621.668142,1.1974058,2.8324683,0.16635501,0.0,0.0,0.0
916,1778662621.6781437,1.1974058,2.8324683,0.16635501,0.0,0.0,0.0
917,1778662621.6881447,1.1974058,2.8324683,0.16635501,0.0,0.0,0.0
918,1778662621.6981454,1.1974058,2.8324683,0.16635501,0.0,0.0,0.0
919,1778662621.7081463,1.1974058,2.8324683,0.16635501,0.0,0.0,0.0
920,1778662621.7181468,1.1974058,2.8324683,0.16635501,0.0,0.0,0.0
921,1778662621.7281485,1.1974058,2.8324683,0.16635501,0.0,0.0,0.0
922,1778662621.738149,1.1974058,2.8324683,0.16635501,0.0,0.0,0.0
923,1778662621.7481508,1.1974058,2.8324683,0.16635501,0.0,0.0,0.0
924,1778662621.7581518,1.1974058,2.8324683,0.16635501,0.0,0.0,0.0
925,1778662621.7681532,1.1974058,2.8324683,0.16635501,0.0,0.0,0.0
926,1778662621.7781546,1.1974058,2.8324683,0.16635501,0.0,0.0,0.0
927,1778662621.7881563,1.1974058,2.8324683,0.16635501,0.0,0.0,0.0
928,1778662621.798157,1.1974058,2.8324683,0.16635501,0.0,0.0,0.0
929,1778662621.8081598,0.86158335,3.0589547,0.14292555,0.0,0.0,0.0
930,1778662621.8181605,0.86158335,3.0589547,0.14292555,0.0,0.0,0.0
931,1778662621.828163,0.86158335,3.0589547,0.14292555,0.0,0.0,0.0
932,1778662621.8381648,0.86158335,3.0589547,0.14292555,0.0,0.0,0.0
933,1778662621.8481658,0.86158335,3.0589547,0.14292555,0.0,0.0,0.0
934,1778662621.8581688,1.1974058,2.8324683,0.16635501,0.0,0.0,0.0
935,1778662621.8681707,1.1974058,2.8324683,0.16635501,0.0,0.0,0.0
936,1778662621.878172,1.1974058,2.8324683,0.16635501,0.0,0.0,0.0
937,1778662621.8881733,1.1974058,2.8324683,0.16635501,0.0,0.0,0.0
938,1778662621.898175,1.1974058,2.8324683,0.16635501,0.0,0.0,0.0
939,1778662621.908176,1.1974058,2.8324683,0.16635501,0.0,0.0,0.0
940,1778662621.9181774,1.1974058,2.8324683,0.16635501,0.0,0.0,0.0
941,1778662621.9281795,1.1974058,2.8324683,0.16635501,0.0,0.0,0.0
942,1778662621.938182,1.1974058,2.8324683,0.16635501,0.0,0.0,0.0
943,1778662621.9481838,1.1974058,2.8324683,0.16635501,0.0,0.0,0.0
944,1778662621.9581845,1.1974058,2.8324683,0.16635501,0.0,0.0,0.0
945,1778662621.9681869,1.1974058,2.8324683,0.16635501,0.0,0.0,0.0
946,1778662621.9781885,1.1974058,2.8324683,0.16635501,0.0,0.0,0.0
947,1778662621.9881907,1.1974058,2.8324683,0.16635501,0.0,0.0,0.0
948,1778662621.9981933,1.1974058,2.8324683,0.16635501,0.0,0.0,0.0
949,1778662622.008195,1.1974058,2.8324683,0.16635501,0.0,0.0,0.0
950,1778662622.0181954,1.1974058,2.8324683,0.16635501,0.0,0.0,0.0
951,1778662622.0281963,1.1974058,2.8324683,0.16635501,0.0,0.0,0.0
952,1778662622.0381997,1.1974058,2.8324683,0.16635501,0.0,0.0,0.0
953,1778662622.0482006,1.1974058,2.8324683,0.16635501,0.0,0.0,0.0
954,1778662622.0582018,1.1974058,2.8324683,0.16635501,0.0,0.0,0.0
955,1778662622.0682027,1.1974058,2.8324683,0.16635501,0.0,0.0,0.0
956,1778662622.0782046,1.1974058,2.8324683,0.16635501,0.0,0.0,0.0
957,1778662622.088206,0.69367135,3.1565766,0.34598097,0.0,0.0,0.0
958,1778662622.0982072,0.69367135,3.1565766,0.34598097,0.0,0.0,0.0
959,1778662622.108209,0.69367135,3.1565766,0.34598097,0.0,0.0,0.0
960,1778662622.1182106,0.69367135,3.1565766,0.34598097,0.0,0.0,0.0
961,1778662622.1282113,0.69367135,3.1565766,0.34598097,0.0,0.0,0.0
962,1778662622.1382127,0.69367135,3.1565766,0.34598097,0.0,0.0,0.0
963,1778662622.1482134,0.69367135,3.1565766,0.34598097,0.0,0.0,0.0
964,1778662622.1582153,0.69367135,3.1565766,0.34598097,0.0,0.0,0.0
965,1778662622.1682162,0.69367135,3.1565766,0.34598097,0.0,0.0,0.0
966,1778662622.1782174,0.69367135,3.1565766,0.34598097,0.0,0.0,0.0
967,1778662622.1882193,0.69367135,3.1565766,0.34598097,0.0,0.0,0.0
968,1778662622.1982205,0.69367135,3.1565766,0.34598097,0.0,0.0,0.0
969,1778662622.2082489,0.69367135,3.1565766,0.34598097,0.0,0.0,0.0
970,1778662622.2182503,0.69367135,3.1565766,0.34598097,0.0,0.0,0.0
971,1778662622.2282531,0.69367135,3.1565766,0.34598097,0.0,0.0,0.0
972,1778662622.238254,0.69367135,3.1565766,0.34598097,0.0,0.0,0.0
973,1778662622.2482588,0.6038592,3.2112455,0.6739936,0.0,0.0,0.0
974,1778662622.2582617,0.6038592,3.2112455,0.6739936,0.0,0.0,0.0
975,1778662622.2682626,0.6038592,3.2112455,0.6739936,0.0,0.0,0.0
976,1778662622.2782636,0.6038592,3.2112455,0.6739936,0.0,0.0,0.0
977,1778662622.2882643,0.6038592,3.2112455,0.6739936,0.0,0.0,0.0
978,1778662622.298265,0.6038592,3.2112455,0.6739936,0.0,0.0,0.0
979,1778662622.3082662,0.5999535,3.222961,0.86533505,0.0,0.0,0.0
980,1778662622.3182669,0.5999535,3.222961,0.86533505,0.0,0.0,0.0
981,1778662622.328268,0.5999535,3.222961,0.86533505,0.0,0.0,0.0
982,1778662622.3382692,0.5999535,3.222961,0.86533505,0.0,0.0,0.0
983,1778662622.3482711,0.5999535,3.222961,0.86533505,0.0,0.0,0.0
984,1778662622.3582733,0.6390026,3.2542002,1.080106,0.0,0.0,0.0
985,1778662622.368274,0.6390026,3.2542002,1.080106,0.0,0.0,0.0
986,1778662622.3782756,0.6390026,3.2542002,1.080106,0.0,0.0,0.0
987,1778662622.388277,0.6390026,3.2542002,1.080106,0.0,0.0,0.0
988,1778662622.3982775,0.6390026,3.2542002,1.080106,0.0,0.0,0.0
989,1778662622.4082816,0.6390026,3.2542002,1.080106,0.0,0.0,0.0
990,1778662622.418283,0.6390026,3.2542002,1.080106,0.0,0.0,0.0
991,1778662622.4282837,0.6390026,3.2542002,1.080106,0.0,0.0,0.0
992,1778662622.4382844,0.6390026,3.2542002,1.080106,0.0,0.0,0.0
993,1778662622.4482849,0.6390026,3.2542002,1.080106,0.0,0.0,0.0
994,1778662622.4582863,0.6390026,3.2542002,1.080106,0.0,0.0,0.0
995,1778662622.4682875,0.6390026,3.2542002,1.080106,0.0,0.0,0.0
996,1778662622.4782882,0.6390026,3.2542002,1.080106,0.0,0.0,0.0
997,1778662622.4882898,0.6390026,3.2542002,1.080106,0.0,0.0,0.0
998,1778662622.4982913,0.6390026,3.2542002,1.080106,0.0,0.0,0.0
999,1778662622.5082924,0.6390026,3.2542002,1.080106,0.0,0.0,0.0
1000,1778662622.5182943,0.6390026,3.2542002,1.080106,0.0,0.0,0.0
