id,timestamp,acc_x,acc_y,acc_z,gyro_x,gyro_y,gyro_z
0,1778598640173,1.0294503,2.5005727,1.1480547,1.2738068,1.9970711,-1.8251126
1,1778598640183,0.8884055,2.2808647,1.1468961,1.7580702,1.6829338,-2.501035
2,1778598640193,0.846025,2.0511563,1.1839105,2.208278,1.4702,-2.9646819
3,1778598640203,0.8365122,1.7167464,1.1615921,2.8347201,1.351234,-3.5081992
4,1778598640213,0.8365122,1.7167464,1.1615921,2.8347201,1.351234,-3.5081992
5,1778598640223,0.8365122,1.7167464,1.1615921,2.8347201,1.351234,-3.5081992
6,1778598640233,1.2477558,0.85383034,1.2011676,4.11769,1.5755742,-4.0920334
7,1778598640243,1.6994286,0.64326924,1.2462922,4.3305764,1.7938058,-4.33134
8,1778598640253,2.2258005,0.39996237,1.2516584,4.873025,2.0341814,-5.013982
9,1778598640263,2.3547106,0.32800692,1.2182418,5.0480375,1.9420934,-5.2816935
10,1778598640273,3.3184252,0.10726235,1.3451395,5.289024,0.30909783,-6.2202883
11,1778598640283,3.3184252,0.10726235,1.3451395,5.289024,0.30909783,-6.2202883
12,1778598640293,4.9978523,-0.44362345,1.8541325,5.3139167,-1.4796684,-6.67523
13,1778598640303,4.9978523,-0.44362345,1.8541325,5.4050884,-1.7612772,-6.81298
14,1778598640313,5.8355846,-1.2840992,1.384532,5.2542048,-1.5867225,-7.000516
15,1778598640323,5.640451,-1.6036912,0.8962718,4.360814,-1.1847731,-7.038389
16,1778598640333,5.187376,-2.025667,0.58119243,3.201392,-1.0161743,-6.9595876
17,1778598640343,4.3539734,-2.4470332,0.7271156,1.8275561,-0.36926803,-6.8632236
18,1778598640353,4.3539734,-2.4470332,0.7271156,1.4330899,0.23136522,-6.786255
19,1778598640363,2.3723335,-3.0269449,1.4936237,1.4330899,0.23136522,-6.786255
20,1778598640373,1.554298,-3.3076932,1.3811781,3.755447,0.977079,-6.06635
21,1778598640383,0.4189269,-3.5615494,0.7072364,6.189745,-0.6617198,-4.6056185
22,1778598640393,-0.3840468,-3.6146014,0.011281146,6.189745,-0.6617198,-4.6056185
23,1778598640403,-1.6435106,-3.4052596,-1.1106136,5.9739566,-0.98837996,-3.5424075
24,1778598640413,-1.6435106,-3.4052596,-1.1106136,4.672203,-0.45769078,-1.5758796
25,1778598640423,-1.8981595,-3.2990952,-1.4024599,3.4217618,0.12629639,-0.09972375
26,1778598640433,-1.9679806,-3.1864665,-1.5575908,1.9489655,0.54305923,1.4869987
27,1778598640443,-1.8126059,-3.0781064,-1.507649,0.46853364,0.6226244,2.9562824
28,1778598640453,-1.4924042,-2.9983456,-1.2569027,-0.7458665,0.40210205,4.168086
29,1778598640463,-1.4924042,-2.9983456,-1.2569027,-0.7458665,0.40210205,4.168086
30,1778598640473,-0.5341775,-2.7380257,-0.36746046,-0.7458665,0.40210205,4.168086
31,1778598640483,-0.12738548,-2.4763641,-0.10348164,-2.0645719,-1.3327552,6.9391236
32,1778598640493,0.031038398,-2.4076405,-0.0983594,-2.170557,-1.1985176,7.2729616
33,1778598640503,0.23501371,-2.3122692,-0.08287069,-2.634509,-0.65484756,7.977442
34,1778598640513,0.34239805,-2.2579975,-0.08098034,-2.8851166,-0.41431937,8.210945
35,1778598640523,0.9987778,-2.054937,-0.03500204,-4.0889792,0.86544335,8.776759
36,1778598640533,1.2114731,-1.9512113,-0.010732334,-4.9254065,1.7171422,8.867015
37,1778598640543,1.4590485,-1.7990683,-0.00085370836,-5.792988,2.233018,8.892518
38,1778598640553,1.9089528,-1.6135697,0.13537374,-6.748992,2.3906212,8.973916
39,1778598640563,2.5449047,-1.3292849,0.4744789,-7.3290086,1.9211712,9.26087
40,1778598640573,4.2426257,-0.6077794,1.3739216,-7.212639,0.4474588,9.311725
41,1778598640583,5.7589946,0.16732684,2.0053,-6.6766043,0.1282817,8.3462515
42,1778598640593,6.061512,0.69247943,2.397579,-6.2195244,0.27076602,7.106959
43,1778598640603,5.968946,1.2468411,2.8055296,-5.779091,0.4746423,6.1007113
44,1778598640613,5.2203045,1.744675,2.9434645,-4.3208027,1.9427042,3.8982365
45,1778598640623,4.460748,1.7783353,3.0401773,-3.0498974,2.0259347,2.8513663
46,1778598640633,4.460748,1.7783353,3.0401773,-3.0498974,2.0259347,2.8513663
47,1778598640643,3.182198,1.718271,2.432154,-0.21609358,0.97051215,1.8727602
48,1778598640653,2.891998,1.7055264,2.0585349,0.5891795,0.5688683,1.6899587
49,1778598640663,2.8001635,1.7025993,1.9314543,0.9783007,0.39538252,1.5621351
50,1778598640673,1.9070015,1.7043067,1.0136567,1.6374242,0.3315471,0.9621128
51,1778598640683,1.6536942,1.7335157,0.7319939,1.6215417,0.5007568,0.7840455
52,1778598640693,1.3303825,1.7430894,0.39532796,1.4173601,0.74174315,0.40378192
53,1778598640703,1.3303825,1.7430894,0.39532796,1.4173601,0.74174315,0.40378192
54,1778598640713,1.3303825,1.7430894,0.39532796,1.4173601,0.74174315,0.40378192
55,1778598640723,0.42929336,1.8132155,0.13836174,1.028697,0.6817256,-0.50991976
56,1778598640733,0.2824555,1.794312,0.15854584,1.018465,0.33750305,-1.2339478
57,1778598640743,0.15067953,1.744614,0.25336844,1.1133019,0.110413894,-1.6410894
58,1778598640753,0.134642,1.6913183,0.3810588,1.2356277,-0.038026363,-1.8390098
59,1778598640763,0.134642,1.6913183,0.3810588,1.2356277,-0.038026363,-1.8390098
60,1778598640773,0.134642,1.6913183,0.3810588,1.2356277,-0.038026363,-1.8390098
61,1778598640783,0.134642,1.6913183,0.3810588,1.2356277,-0.038026363,-1.8390098
62,1778598640793,0.73504287,1.0609156,0.8197429,3.132975,0.18891008,-3.3646457
63,1778598640803,0.73504287,1.0609156,0.8197429,3.3017266,0.13545936,-3.853796
64,1778598640813,1.2019604,0.9223099,0.75888574,3.3017266,0.13545936,-3.853796
65,1778598640823,1.2019604,0.9223099,0.75888574,3.3017266,0.13545936,-3.853796
66,1778598640833,1.6528404,0.8232798,0.9000525,3.238502,0.18325958,-4.2178717
67,1778598640843,1.6528404,0.8232798,0.9000525,3.238502,0.18325958,-4.2178717
68,1778598640853,3.9917574,0.30898145,1.9985313,3.5877643,0.5360342,-4.8899765
69,1778598640863,4.8252206,0.021464668,2.2495825,4.084703,0.40943244,-5.075832
70,1778598640873,5.6939907,-0.33154374,2.1691508,4.5895834,0.05100725,-5.280472
71,1778598640883,5.6939907,-0.33154374,2.1691508,4.5895834,0.05100725,-5.280472
72,1778598640893,5.6939907,-0.33154374,2.1691508,4.5895834,0.05100725,-5.280472
73,1778598640903,5.6939907,-0.33154374,2.1691508,4.5895834,0.05100725,-5.280472
74,1778598640913,4.6180134,-1.9602363,0.5000902,1.3686435,0.61727935,-7.183317
75,1778598640923,3.5789282,-2.4522772,0.88023424,0.6462954,0.788627,-7.0382366
76,1778598640933,2.6878397,-2.7351596,1.3080032,0.788627,0.7535023,-6.637051
77,1778598640943,2.6878397,-2.7351596,1.3080032,1.7510452,0.5213735,-6.051384
78,1778598640953,0.09963996,-3.1687214,0.7177248,3.5306485,-0.028863383,-5.2720723
79,1778598640963,0.09963996,-3.1687214,0.7177248,5.1019464,-0.8341365,-4.3756275
80,1778598640973,-0.46941763,-3.2152486,0.07957781,5.5003834,-1.7330247,-2.4425447
81,1778598640983,-0.85389125,-3.192991,-0.4411233,5.5003834,-1.7330247,-2.4425447
82,1778598640993,-1.1515306,-3.08207,-0.82602376,4.6299005,-1.430341,-1.2589933
83,1778598641003,-1.2725742,-3.0832288,-1.2516584,3.3652565,-0.7141015,-0.23365596
84,1778598641013,-1.6804639,-3.196345,-1.5409436,0.03940081,0.267559,1.606881
85,1778598641023,-1.7430286,-3.2328105,-1.2531219,-1.5431983,0.33017266,2.777299
86,1778598641033,-1.7430286,-3.2328105,-1.2531219,-1.5431983,0.33017266,2.777299
87,1778598641043,-1.6931474,-3.2564096,-0.9618854,-2.5410466,-0.5233588,5.053688
88,1778598641053,-1.1250657,-3.0704231,-0.3030055,-2.490803,-0.74082685,5.5185566
89,1778598641063,-0.28641915,-2.7490628,-0.17726645,-2.0793853,-1.3927728,6.8230596
90,1778598641073,0.048905294,-2.6101522,-0.20921952,-1.9857702,-1.58321,7.196298
91,1778598641083,0.48149154,-2.3495884,-0.3386783,-2.13925,-1.717753,7.639939
92,1778598641093,0.8847468,-2.1939695,-0.4495994,-2.803566,-1.5859588,7.950869
93,1778598641103,1.1641533,-2.1100621,-0.36258212,-3.388164,-1.3501649,8.097935
94,1778598641113,1.7420528,-1.8963301,-0.02414775,-4.7731485,-0.34666604,8.392067
95,1778598641123,2.1961038,-1.7164416,0.3353854,-5.381112,0.14065172,8.632136
96,1778598641133,2.8643744,-1.4201438,0.70248,-5.638286,0.3491095,8.782562
97,1778598641143,3.603137,-0.9977411,1.165068,-5.4449472,0.013286319,8.615186
98,1778598641153,4.0938973,-0.7036386,1.3902031,-5.205488,-0.24785857,8.453764
99,1778598641163,5.134751,0.12726352,2.4069088,-3.323565,-1.1757629,7.7280564
100,1778598641173,5.5342865,0.83895135,2.443618,-1.7088956,-1.4544702,7.234172
101,1778598641183,5.564898,1.4916114,1.6644872,-0.54000485,-0.97524637,6.133698
102,1778598641193,4.637527,1.6765003,0.48630884,-1.3578007,0.65393126,4.554611
103,1778598641203,3.8532126,1.6952208,0.53033584,-2.7966938,1.7530305,3.694513
104,1778598641213,3.6960692,1.7048556,0.7927902,-3.1151073,1.8553505,3.2308662
105,1778598641223,3.6960692,1.7048556,0.7927902,-3.1151073,1.8553505,3.2308662
106,1778598641233,3.1360366,1.7398577,1.2170222,-2.7866144,1.6064229,2.797152
107,1778598641243,2.839251,1.753578,1.2041556,-1.4527903,0.8436049,2.1481075
108,1778598641253,2.6719851,1.8485225,1.0502442,-0.19150625,-0.05971208,1.7340937
109,1778598641263,2.6559477,2.0157273,0.79852223,0.559858,-0.31978795,0.95814216
110,1778598641273,2.3952618,2.1121964,0.5320433,0.8246681,-0.26435193,0.2096795
111,1778598641283,2.0510342,2.1204896,0.29019985,0.7359399,0.018325957,-0.48334712
112,1778598641293,1.7420528,2.0615227,0.122629106,0.40133846,0.5279403,-1.112691
113,1778598641303,1.384715,1.9135872,0.11744587,-0.12140947,1.3888022,-1.8522961
114,1778598641313,1.384715,1.9135872,0.11744587,-0.34330627,2.158034,-2.417194
115,1778598641323,0.6297928,1.627412,0.3273362,-0.34330627,2.158034,-2.417194
116,1778598641333,0.39563283,1.5430778,0.45124584,0.63148195,2.0645719,-2.8718302
117,1778598641343,0.33294627,1.4788668,0.46996644,1.2292136,1.5042557,-2.967278
118,1778598641353,0.34544697,1.3603233,0.40673104,2.7259862,-0.41172317,-3.35365
119,1778598641363,0.70827305,1.1904963,0.24629487,2.7259862,-0.41172317,-3.35365
120,1778598641373,1.1023813,1.0663427,0.29221216,2.7000244,-0.81214535,-4.0286565
121,1778598641383,1.1023813,1.0663427,0.29221216,2.7000244,-0.81214535,-4.0286565
122,1778598641393,1.8159596,0.7333355,0.54515374,2.132225,0.016340645,-4.997336
123,1778598641403,2.1743953,0.5183839,0.7565076,1.866346,0.68294734,-5.4530416
124,1778598641413,2.1743953,0.5183839,0.7565076,1.866346,0.68294734,-5.4530416
125,1778598641423,2.1743953,0.5183839,0.7565076,2.329382,0.9129381,-6.155842
126,1778598641433,3.0545075,0.031099375,1.3614819,1.8901697,1.0474812,-5.806732
127,1778598641443,3.8366263,-0.3978281,1.6435716,3.485139,-0.5920811,-6.168059
128,1778598641453,3.8366263,-0.3978281,1.6435716,3.485139,-0.5920811,-6.168059
129,1778598641463,3.8366263,-0.3978281,1.6435716,3.485139,-0.5920811,-6.168059
130,1778598641473,3.8366263,-0.3978281,1.6435716,3.485139,-0.5920811,-6.168059
131,1778598641483,5.7032595,-1.440145,0.25946635,4.301408,-1.238682,-6.114914
132,1778598641493,4.246589,-2.1663458,0.32788497,-0.6693556,1.9657644,-6.9215612
133,1778598641503,3.3078148,-2.5153296,0.7306524,-0.6693556,1.9657644,-6.9215612
134,1778598641513,3.3078148,-2.5153296,0.7306524,-0.6693556,1.9657644,-6.9215612
135,1778598641523,3.3078148,-2.5153296,0.7306524,-0.6693556,1.9657644,-6.9215612
136,1778598641533,3.3078148,-2.5153296,0.7306524,-0.6693556,1.9657644,-6.9215612
137,1778598641543,0.38977882,-3.1162186,0.87444127,0.8046622,2.5659394,-6.0913954
138,1778598641553,-0.60466945,-3.0136516,-0.31800637,3.9692497,0.2843578,-4.244139
139,1778598641563,-0.60466945,-3.0136516,-0.31800637,3.9692497,0.2843578,-4.244139
140,1778598641573,-0.60466945,-3.0136516,-0.31800637,3.9692497,0.2843578,-4.244139
141,1778598641583,-0.60466945,-3.0136516,-0.31800637,3.9692497,0.2843578,-4.244139
142,1778598641593,-0.60466945,-3.0136516,-0.31800637,3.9692497,0.2843578,-4.244139
143,1778598641603,-1.0356092,-2.8827293,-1.0349385,3.6800048,-0.6009387,-0.9857838
144,1778598641613,-1.1096989,-2.7772963,-0.89163744,-1.9292651,-0.6553057,4.075693
145,1778598641623,-1.1096989,-2.7772963,-0.89163744,-1.9292651,-0.6553057,4.075693
146,1778598641633,-0.22903776,-2.4988043,-0.21580528,-1.9886718,-1.0743593,5.561012
147,1778598641643,0.097749606,-2.2609856,-0.2315379,-1.6055065,-1.1910346,5.969986
148,1778598641653,0.25660032,-2.1239045,-0.35343525,-1.5100589,-1.2423472,6.2705317
149,1778598641663,0.4441113,-1.9244416,-0.50948095,-1.7599027,-1.1129965,6.487389
150,1778598641673,0.5752165,-1.7910192,-0.6404032,-2.2924244,-0.8268061,6.6932507
151,1778598641683,0.7168101,-1.6906475,-0.77474034,-3.3904548,-0.321926,6.948592
152,1778598641693,0.7873021,-1.6577187,-0.82267,-4.2416954,-0.0047342055,7.1437635
153,1778598641703,1.0892099,-1.6995504,-0.7650446,-6.176153,0.6123924,7.6196275
154,1778598641713,1.8051053,-1.753456,-0.42435405,-7.4892077,0.9842566,7.9449134
155,1778598641723,1.8051053,-1.753456,-0.42435405,-9.082955,1.336115,8.340907
156,1778598641733,2.8224206,-1.7762622,0.078785084,-10.431746,1.3946054,8.272184
157,1778598641743,4.803451,-0.80693734,3.3497686,-10.689684,1.1779009,8.037765
158,1778598641753,4.803451,-0.80693734,3.3497686,-4.3687553,-3.2241468,5.6404243
159,1778598641763,5.1297503,0.1515942,4.039565,-2.701246,-3.4524577,5.068349
160,1778598641773,4.6342945,1.1681778,3.0089562,-1.2696834,-2.435978,4.6450195
161,1778598641783,4.6817365,1.3666651,2.523135,-1.229519,-1.2812898,4.426482
162,1778598641793,4.4686146,1.6614385,2.1586626,-2.0134118,1.1264355,3.3716707
163,1778598641803,3.9162652,1.7080265,2.0931098,-2.3709207,2.059074,2.553264
164,1778598641813,3.1953082,1.6990626,2.1986039,-2.2542455,2.1256583,1.7829629
165,1778598641823,2.7935774,1.6832079,2.4184337,-1.295187,1.2680036,1.2579242
166,1778598641833,2.5088658,1.6738172,2.4800227,-0.4109596,0.6921103,1.0016663
167,1778598641843,2.1640286,1.6285096,2.0809143,1.1661417,0.1777618,0.5342017
168,1778598641853,1.9270637,1.6085695,1.6548527,1.7757853,0.27748555,0.26236662
169,1778598641863,1.5735065,1.6560721,1.197021,2.0204368,0.7254025,-0.052381694
170,1778598641873,1.5735065,1.6560721,1.197021,2.0204368,0.7254025,-0.052381694
171,1778598641883,0.77791125,1.6267412,0.5807656,1.986381,1.5445728,-0.54412824
172,1778598641893,0.77791125,1.6267412,0.5807656,2.0489948,1.6481144,-0.89766645
173,1778598641903,0.77791125,1.6267412,0.5807656,2.0489948,1.6481144,-0.89766645
174,1778598641913,0.47527164,1.390386,0.42081723,2.2021692,1.4410311,-1.264033
175,1778598641923,0.47527164,1.390386,0.42081723,2.2021692,1.4410311,-1.264033
176,1778598641933,0.3983159,1.235072,0.45996585,2.7162123,0.6391178,-1.805565
177,1778598641943,0.597169,0.8786488,0.47850356,3.9692497,-0.9246973,-2.2682953
178,1778598641953,0.8845028,0.82437736,0.48447952,4.094324,-1.0841331,-2.4785857
179,1778598641963,1.1612263,0.7671179,0.4850283,4.0955462,-0.97600996,-2.8435776
180,1778598641973,1.1612263,0.7671179,0.4850283,4.0955462,-0.97600996,-2.8435776
181,1778598641983,1.7482117,0.57710683,0.4416111,3.641826,0.06841691,-4.089285
182,1778598641993,1.879561,0.47716197,0.47679612,3.3276885,0.37033707,-4.4186935
183,1778598642003,2.2845845,0.22074458,0.7305914,3.1096096,0.6232353,-4.951979
184,1778598642013,2.4290442,0.0954324,0.8860883,3.1841352,0.50610185,-5.1615057
185,1778598642023,2.746502,-0.1674488,1.1283585,3.5210273,-0.019242255,-5.3210945
186,1778598642033,3.1551843,-0.4897237,1.352335,4.062254,-0.8052731,-5.1089716
187,1778598642043,4.3106174,-0.73370135,1.478013,4.646088,-1.6334536,-4.7702465
188,1778598642053,5.13347,-0.7866922,1.3031858,4.8522553,-1.9654589,-4.8055243
189,1778598642063,5.7223463,-0.846025,0.6885158,4.139681,-1.6007724,-5.5842247
190,1778598642073,5.764848,-1.1262852,0.30544463,2.6945267,-1.1780536,-6.1570635
191,1778598642083,5.2609777,-1.6962576,0.28446782,0.45616361,-0.18402316,-6.9925747
192,1778598642093,4.7138724,-2.0594494,0.5266771,-0.68936145,0.5552765,-7.282888
193,1778598642103,2.5648448,-2.7765033,1.6971112,-0.8381071,2.3237314,-6.8128276
194,1778598642113,2.5648448,-2.7765033,1.6971112,-0.8381071,2.3237314,-6.8128276
195,1778598642123,0.9362132,-2.86596,1.4143509,1.2759448,2.0538816,-5.978691
196,1778598642133,0.33032414,-2.8754725,0.82901174,4.7931542,0.11682798,-4.560109
197,1778598642143,0.33032414,-2.8754725,0.82901174,4.7931542,0.11682798,-4.560109
198,1778598642153,0.33032414,-2.8754725,0.82901174,4.7931542,0.11682798,-4.560109
199,1778598642163,0.33032414,-2.8754725,0.82901174,4.7931542,0.11682798,-4.560109
200,1778598642173,0.33032414,-2.8754725,0.82901174,4.7931542,0.11682798,-4.560109
201,1778598642183,-1.4427061,-2.508683,-1.1050035,1.2298244,-0.27290404,0.92057395
202,1778598642193,-1.2677569,-2.5191104,-0.8931009,-0.269697,0.58062744,2.523637
203,1778598642203,-1.2677569,-2.5191104,-0.8931009,-0.269697,0.58062744,2.523637
204,1778598642213,-1.2677569,-2.5191104,-0.8931009,-0.269697,0.58062744,2.523637
205,1778598642223,-1.2677569,-2.5191104,-0.8931009,-0.269697,0.58062744,2.523637
206,1778598642233,-0.48941877,-2.2790353,-0.48472342,-0.8597928,0.6966918,3.3501377
207,1778598642243,-0.38416874,-2.1592114,-0.556313,-1.2788464,-0.5346598,5.181512
208,1778598642253,-0.30879852,-2.145918,-0.64491564,-1.5143349,-0.6563747,5.592777
209,1778598642263,-0.30879852,-2.145918,-0.64491564,-1.5143349,-0.6563747,5.592777
210,1778598642273,-0.30879852,-2.145918,-0.64491564,-1.5143349,-0.6563747,5.592777
211,1778598642283,-0.30879852,-2.145918,-0.64491564,-1.5143349,-0.6563747,5.592777
212,1778598642293,-0.30879852,-2.145918,-0.64491564,-1.5143349,-0.6563747,5.592777
213,1778598642303,1.7726034,-1.5483221,-0.21379296,-6.1833305,-0.08536842,7.8645844
214,1778598642313,2.0650594,-1.3594086,0.3608747,-6.1833305,-0.08536842,7.8645844
215,1778598642323,2.0650594,-1.3594086,0.3608747,-5.9647937,-1.4071281,7.855574
216,1778598642333,2.4011767,-1.317394,1.1054304,-5.9647937,-1.4071281,7.855574
217,1778598642343,2.4011767,-1.317394,1.1054304,-5.329494,-2.5294402,8.764542
218,1778598642353,4.0552363,-1.112443,1.5035024,-3.9548943,-2.7743971,11.324984
219,1778598642363,5.2665877,-1.0440243,1.6512548,-3.983147,-0.9062186,11.823603
220,1778598642373,6.0770617,-0.62686586,1.7624198,-3.983147,-0.9062186,11.823603
221,1778598642383,6.0770617,-0.62686586,1.7624198,-3.983147,-0.9062186,11.823603
222,1778598642393,6.4744024,0.042868353,1.6460718,-4.4102945,2.3445008,9.835388
223,1778598642403,5.915772,1.3997767,1.3777024,-5.711743,4.151746,3.1989486
224,1778598642413,4.8572955,1.07427,1.7482728,-5.8010817,4.467563,0.2695443
225,1778598642423,3.808881,0.5334458,1.9710296,-5.340795,4.549419,-0.80939645
226,1778598642433,2.6381416,0.33373898,2.2838528,-3.287066,3.503923,-1.6571246
227,1778598642443,2.1636627,0.3782538,2.3262942,-2.331978,2.7714956,-1.6713274
228,1778598642453,1.3954473,0.655648,1.5681403,0.44898596,0.3846924,-1.5202909
229,1778598642463,1.3954473,0.655648,1.5681403,1.7847955,-0.86391616,-1.452943
230,1778598642473,1.1686656,0.93121284,1.018657,2.59633,-1.6584991,-1.5607607
231,1778598642483,1.0089613,1.11226,0.6454645,2.4161248,-1.3976597,-1.8614591
232,1778598642493,0.67888105,1.1713488,0.5697893,2.17804,-1.0795516,-2.011121
233,1778598642503,0.67888105,1.1713488,0.5697893,0.9947941,1.1420126,-2.6284003
234,1778598642513,0.46600276,1.0860391,0.80602264,0.9947941,1.1420126,-2.6284003
235,1778598642523,0.2891632,1.0018877,1.0431097,0.9947941,1.1420126,-2.6284003
236,1778598642533,0.2891632,1.0018877,1.0431097,0.9947941,1.1420126,-2.6284003
237,1778598642543,0.119641125,0.5726553,1.2420846,4.252538,0.6441574,-2.5932758
238,1778598642553,0.39788908,0.44191605,0.9818866,5.30903,0.27351493,-2.519361
239,1778598642563,0.39788908,0.44191605,0.9818866,5.30903,0.27351493,-2.519361
240,1778598642573,1.2803186,0.45118487,0.51448125,5.956547,-0.37843102,-2.8367054
241,1778598642583,1.838461,0.47161287,0.34928867,5.7123537,-0.6412558,-3.6494617
242,1778598642593,2.3459904,0.44728217,0.30251765,5.115538,-0.7247916,-4.7600145
243,1778598642603,2.52594,0.20208496,0.39112037,4.3319507,-0.7162395,-5.4525833
244,1778598642613,2.81303,-0.07939488,0.65576994,3.6888626,-0.6739371,-5.511837
245,1778598642623,3.422639,-0.3838029,1.056952,3.3385313,-0.5329799,-5.296965
246,1778598642633,4.284396,-0.77589893,1.2915998,3.3797648,-0.16875152,-5.063309
247,1778598642643,5.379826,-1.3752631,1.1929965,3.7418551,0.47907108,-5.20671
248,1778598642653,5.4142795,-1.5272843,0.8502325,3.8423424,0.6012441,-5.5626917
249,1778598642663,5.2006693,-1.7671763,0.46460027,2.8150198,-0.36453384,-6.269768
250,1778598642673,4.88309,-2.0213375,0.39679146,2.2163718,-0.6568329,-6.5684814
251,1778598642683,4.3480587,-2.1644557,0.5647281,2.2163718,-0.6568329,-6.5684814
252,1778598642693,3.5258763,-2.4450207,0.96633685,1.9643899,-0.57818395,-6.7367744
253,1778598642703,1.9025501,-2.7770522,0.9897529,2.5428793,-0.30192015,-6.5274005
254,1778598642713,1.9025501,-2.7770522,0.9897529,3.362355,-0.29123,-6.108805
255,1778598642723,0.46594182,-2.8302872,0.09299323,4.3337836,-0.60154957,-5.4945803
256,1778598642733,-0.13220283,-2.7707105,-0.38203448,4.636009,-1.2788464,-4.3510404
257,1778598642743,-0.13220283,-2.7707105,-0.38203448,4.636009,-1.2788464,-4.3510404
258,1778598642753,-0.9723128,-2.6128354,-0.89139354,2.520888,-1.0612257,-2.6207647
259,1778598642763,-1.1728734,-2.5946636,-0.93017626,1.5538884,-0.7124216,-1.967597
260,1778598642773,-1.3830684,-2.6684482,-1.0239623,0.66523224,-0.5337435,-1.2716687
261,1778598642783,-1.7351623,-2.7509532,-1.0050586,-0.48731774,-0.5626069,-0.2060143
262,1778598642793,-1.8652918,-2.8579717,-0.8471836,-1.5337299,-0.5439755,1.0633637
263,1778598642803,-1.8026052,-2.892181,-0.55369085,-2.2621868,-0.48670688,2.371226
264,1778598642813,-1.6880863,-2.8900466,-0.40496266,-2.5213463,-0.4978552,3.326314
265,1778598642823,-1.6880863,-2.8900466,-0.40496266,-2.5781567,-0.5751296,4.1225767
266,1778598642833,-1.1811055,-2.6566794,-0.2034265,-2.475226,-0.88407475,5.161964
267,1778598642843,-1.1811055,-2.6566794,-0.2034265,-2.475226,-0.88407475,5.161964
268,1778598642853,-1.1811055,-2.6566794,-0.2034265,-2.475226,-0.88407475,5.161964
269,1778598642863,-1.1811055,-2.6566794,-0.2034265,-2.475226,-0.88407475,5.161964
270,1778598642873,0.2762356,-2.1293924,-0.26788148,-2.988811,-1.2076806,7.0733614
271,1778598642883,0.5313725,-2.0057878,-0.21617115,-3.571271,-0.9410379,7.4624825
272,1778598642893,0.94048166,-1.8781583,-0.106957465,-4.0688205,-0.7677049,7.8929896
273,1778598642903,0.94048166,-1.8781583,-0.106957465,-4.0688205,-0.7677049,7.8929896
274,1778598642913,0.94048166,-1.8781583,-0.106957465,-4.0688205,-0.7677049,7.8929896
275,1778598642923,3.7342424,-0.85712314,0.88358814,-4.5724792,-0.8332202,8.636413
276,1778598642933,5.923455,0.4306349,1.8730972,-2.5764768,-1.9824104,7.9636974
277,1778598642943,6.353968,1.1727513,1.7620541,-1.3246613,-1.1714869,6.312987
278,1778598642953,6.353968,1.1727513,1.7620541,-1.278541,0.31597003,5.0654473
279,1778598642963,6.353968,1.1727513,1.7620541,-1.278541,0.31597003,5.0654473
280,1778598642973,6.353968,1.1727513,1.7620541,-1.278541,0.31597003,5.0654473
281,1778598642983,6.353968,1.1727513,1.7620541,-1.278541,0.31597003,5.0654473
282,1778598642993,5.5120897,2.0056658,0.82187724,-2.7278187,2.6917777,1.1586586
283,1778598643003,2.9280977,1.7190636,1.3584329,-1.6293303,1.7240144,-0.0012217305
284,1778598643013,2.9280977,1.7190636,1.3584329,-0.8347474,1.5636623,-0.3662137
285,1778598643023,1.8954766,1.6291195,1.1372614,0.28955013,1.4772248,-0.8321512
286,1778598643033,1.5999714,1.6091793,0.96786135,0.6079636,1.4485142,-0.98670006
287,1778598643043,1.1203703,1.5903367,0.725957,1.2819008,1.4057536,-1.3773484
288,1778598643053,0.68211293,1.5683842,0.49624845,1.8208365,1.3805555,-1.7408133
289,1778598643063,0.32617757,1.522101,0.28660208,2.1809416,1.323745,-2.0821342
290,1778598643073,0.1273245,1.410936,0.20263378,2.4098635,1.2148583,-2.334727
291,1778598643083,-0.2277572,1.1200653,0.30160296,3.1412218,0.6965391,-2.7047586
292,1778598643093,-0.2277572,1.1200653,0.30160296,3.1412218,0.6965391,-2.7047586
293,1778598643103,-0.26233238,0.96841013,0.34062964,3.7513235,0.30100384,-2.8362474
294,1778598643113,-0.23196477,0.7884607,0.23544057,4.133267,0.06765333,-2.9087875
295,1778598643123,-0.16446081,0.67479545,0.080614455,4.317443,-0.066737026,-3.0025554
296,1778598643133,-0.041465834,0.6318661,-0.009268833,4.2642975,-0.111177474,-3.089451
297,1778598643143,-0.041465834,0.6318661,-0.009268833,4.2642975,-0.111177474,-3.089451
298,1778598643153,1.3692262,0.8543791,0.2497097,3.2586606,0.2593123,-3.3518176
299,1778598643163,1.9454794,0.97639847,0.41136545,3.157868,0.2003638,-3.8599048
300,1778598643173,1.9454794,0.97639847,0.41136545,3.157868,0.2003638,-3.8599048
301,1778598643183,2.9023035,0.99463123,0.8973694,3.059824,-0.10644327,-5.3139167
302,1778598643193,3.469349,0.82925564,1.2783062,3.2371275,-0.26542094,-5.4588447
303,1778598643203,4.4212947,0.5116762,1.4716103,3.6622899,-0.2649628,-5.283679
304,1778598643213,5.3555565,0.2564174,1.240926,4.0063596,-0.11499538,-5.2369475
305,1778598643223,5.8380237,0.009695687,0.7507755,3.912439,-0.15378532,-5.456401
306,1778598643233,5.8411946,-0.23970911,0.18373023,2.8087585,-0.3801109,-6.014121
307,1778598643243,4.8483925,-1.3794707,0.31837222,2.1012237,-0.43860126,-6.221357
308,1778598643253,4.8483925,-1.3794707,0.31837222,-0.5885687,0.10873401,-6.781368
309,1778598643263,3.7866235,-1.9590777,0.9254808,-1.5480852,1.3319917,-6.637051
310,1778598643273,2.9484036,-2.2146416,1.4133751,-1.2707524,1.7980819,-6.2909956
311,1778598643283,2.9484036,-2.2146416,1.4133751,-1.2707524,1.7980819,-6.2909956
312,1778598643293,0.7707767,-2.5077682,0.9735934,3.3819027,0.6252206,-3.954436
313,1778598643303,0.027013771,-2.6271656,0.1460451,4.779715,-0.49220467,-2.9452868
314,1778598643313,0.027013771,-2.6271656,0.1460451,4.779715,-0.49220467,-2.9452868
315,1778598643323,-0.31593305,-2.648752,-0.3059325,4.830264,-0.89720833,-2.2618814
316,1778598643333,-0.31593305,-2.648752,-0.3059325,4.830264,-0.89720833,-2.2618814
317,1778598643343,-0.31593305,-2.648752,-0.3059325,4.830264,-0.89720833,-2.2618814
318,1778598643353,-1.5361872,-2.9148042,-1.2632444,0.04596761,-0.14492778,1.6759088
319,1778598643363,-1.5846046,-3.026091,-1.0829899,0.04596761,-0.14492778,1.6759088
320,1778598643373,-1.4470357,-3.0853019,-0.8128523,-2.084883,0.06047566,4.1964917
321,1778598643383,-1.2054971,-3.0831068,-0.59021735,-2.3683245,-0.11224649,4.9307513
322,1778598643393,-0.66180694,-2.8844366,-0.18714507,-2.166739,-0.86727595,5.9907556
323,1778598643403,-0.25678328,-2.6833274,-0.10464026,-1.6423112,-1.4624114,6.547101
324,1778598643413,0.07841921,-2.488438,-0.15872878,-1.3406965,-1.7383698,6.851159
325,1778598643423,0.27611366,-2.3282456,-0.28739482,-1.3242031,-1.7353154,7.170489
326,1778598643433,0.406853,-2.199092,-0.37197292,-1.5560265,-1.5703819,7.4130025
327,1778598643443,0.68308866,-2.034082,-0.3614845,-1.5560265,-1.5703819,7.4130025
328,1778598643453,0.9846306,-1.9061477,-0.2669668,-2.7614164,-0.7893906,8.285471
329,1778598643463,1.6674144,-1.6294243,-0.077382565,-3.4680347,-0.4746423,8.667567
330,1778598643473,2.2074459,-1.2812333,0.16494864,-3.7030652,-0.5748242,8.768054
331,1778598643483,2.7096093,-1.0085344,0.48240623,-3.632052,-0.8219192,8.8905325
332,1778598643493,5.3176274,0.62826836,1.1540917,-1.5494597,-1.0800097,7.9493423
333,1778598643503,5.3176274,0.62826836,1.1540917,-1.0926852,-0.45540005,6.7567806
334,1778598643513,5.07304,1.703453,0.74321413,-1.1027645,-0.09025534,6.1043763
335,1778598643523,5.0285254,2.0092025,0.58064365,-1.1027645,-0.09025534,6.1043763
336,1778598643533,5.0285254,2.0092025,0.58064365,-1.3084733,0.24465153,5.660125
337,1778598643543,5.0285254,2.0092025,0.58064365,-1.3084733,0.24465153,5.660125
338,1778598643553,5.0285254,2.0092025,0.58064365,-1.3084733,0.24465153,5.660125
339,1778598643563,3.6650918,2.58448,0.8362074,-3.3096678,1.6751453,1.2545645
340,1778598643573,3.2465918,2.4659364,1.1336638,-3.3096678,1.6751453,1.2545645
341,1778598643583,2.8037002,2.300988,1.3130034,-1.8774943,0.74128497,0.14813483
342,1778598643593,2.3808706,2.1360393,1.2913558,-0.79473567,0.31902438,-0.33750305
343,1778598643603,2.3808706,2.1360393,1.2913558,-0.79473567,0.31902438,-0.33750305
344,1778598643613,2.3808706,2.1360393,1.2913558,-0.79473567,0.31902438,-0.33750305
345,1778598643623,1.9139531,1.8918786,0.9845696,0.6543894,0.4343252,-1.0946705
346,1778598643633,1.4968556,1.5126492,0.4080726,1.4776831,1.0905472,-2.385276
347,1778598643643,1.4968556,1.5126492,0.4080726,1.6656768,1.1713341,-2.9985847
348,1778598643653,1.1123209,1.2306206,0.27416235,1.8443549,1.1812607,-3.6007452
349,1778598643663,1.1123209,1.2306206,0.27416235,1.8443549,1.1812607,-3.6007452
350,1778598643673,1.1123209,1.2306206,0.27416235,1.8443549,1.1812607,-3.6007452
351,1778598643683,0.74540937,0.8473056,0.292761,2.5599835,0.96867955,-4.2082505
352,1778598643693,0.9088945,0.45423386,0.3577038,2.754544,0.8564331,-4.2468877
353,1778598643703,0.9088945,0.45423386,0.3577038,3.1451924,0.5720753,-4.254218
354,1778598643713,1.2619029,0.42313445,0.31922594,3.3614388,0.43890667,-4.41625
355,1778598643723,2.1175015,0.33703187,0.25623447,3.4860551,0.28680122,-5.410739
356,1778598643733,2.4048355,0.21409786,0.2572711,3.3409748,0.34101552,-6.0063324
357,1778598643743,2.4048355,0.21409786,0.2572711,3.3409748,0.34101552,-6.0063324
358,1778598643753,2.4048355,0.21409786,0.2572711,3.3409748,0.34101552,-6.0063324
359,1778598643763,2.7128413,-0.004024625,0.3405077,3.0691397,-0.06001751,-6.1117067
360,1778598643773,4.0436506,-0.936762,0.5450928,3.2107077,-0.17837265,-5.884007
361,1778598643783,4.425197,-1.4700857,-0.06683317,3.1850514,-0.54550266,-5.6133933
362,1778598643793,4.425197,-1.4700857,-0.06683317,2.7433958,-1.0667235,-5.4586916
363,1778598643803,4.3308625,-1.7126609,-0.14324006,1.5784758,-1.7136297,-5.440213
364,1778598643813,4.3308625,-1.7126609,-0.14324006,1.5784758,-1.7136297,-5.440213
365,1778598643823,4.3308625,-1.7126609,-0.14324006,1.5784758,-1.7136297,-5.440213
366,1778598643833,2.6951573,-2.2976341,0.94157934,-0.29856038,-1.7574593,-5.5423803
367,1778598643843,1.6225337,-2.549295,1.2692204,0.032375857,0.2182316,-4.803386
368,1778598643853,1.0165228,-2.7264397,1.1420178,0.92271197,0.7144069,-4.162436
369,1778598643863,-0.3752658,-2.8025415,0.31325,2.630233,0.58184916,-2.1093178
370,1778598643873,-0.8005955,-2.7554655,0.019452354,2.7111726,0.47342056,-1.5700763
371,1778598643883,-0.8005955,-2.7554655,0.019452354,2.3361015,0.23777929,0.63545257
372,1778598643893,-1.4073381,-2.4931333,-0.7413237,1.7676913,0.18616119,1.9570595
373,1778598643903,-1.3678846,-2.4339225,-0.8776122,1.0303769,0.13836098,3.2420146
374,1778598643913,-1.1140894,-2.3861148,-0.88877136,-0.05513059,-0.01740966,4.722294
375,1778598643923,-0.8438907,-2.342027,-0.7355917,-0.66859204,-0.1348485,5.4663277
376,1778598643933,-0.13714215,-2.2184832,-0.35819164,-1.4876096,-0.35934147,6.5031185
377,1778598643943,0.3081887,-2.0854876,-0.17458336,-1.7179058,-0.38362336,6.726848
378,1778598643953,0.6202191,-1.8961473,-0.093359105,-1.8710803,-0.2603813,6.594596
379,1778598643963,0.64003736,-1.7543095,-0.11390909,-2.0567832,-0.12889257,6.3261204
380,1778598643973,0.39087647,-1.6351563,-0.17586392,-2.6343563,0.013744468,6.2497625
381,1778598643983,0.39087647,-1.6351563,-0.17586392,-3.1010575,0.076052725,6.571994
382,1778598643993,0.30757892,-1.639425,-0.13281263,-3.1010575,0.076052725,6.571994
383,1778598644003,0.6707708,-1.69766,0.14787449,-3.7358992,0.03940081,7.5089083
384,1778598644013,1.2027531,-1.6268632,0.23373315,-3.8658607,-0.013439035,7.8018184
385,1778598644023,1.2027531,-1.6268632,0.23373315,-3.9190059,0.0009162979,7.8650427
386,1778598644033,2.3885539,-1.3237967,0.3612406,-3.9197695,-0.10552697,7.726071
387,1778598644043,2.944623,-1.0559152,0.90297955,-3.5781431,-0.56107974,7.7043853
388,1778598644053,3.831992,-0.5860708,1.4840499,-2.403144,-1.4953982,8.049677
389,1778598644063,3.831992,-0.5860708,1.4840499,-2.403144,-1.4953982,8.049677
390,1778598644073,4.7261906,-0.08384635,1.5019779,-1.3684908,-1.6071864,8.081137
391,1778598644083,4.7261906,-0.08384635,1.5019779,-1.3684908,-1.6071864,8.081137
392,1778598644093,5.582338,0.6125358,1.0648792,-1.3684908,-1.6071864,8.081137
393,1778598644103,5.2540264,1.5275891,0.7365064,-1.1220068,0.1572978,6.7761755
394,1778598644113,4.6609426,1.5905806,1.1312855,-2.604424,2.3674083,2.4808764
395,1778598644123,3.825589,1.6588163,1.3769706,-1.0315987,0.89766645,1.4825699
396,1778598644133,3.3063517,1.6284487,1.1143333,0.7058548,-0.61926466,0.87949324
397,1778598644143,2.5540514,1.6855251,0.009634708,1.4767667,-1.1265882,0.43142357
398,1778598644153,2.5540514,1.6855251,0.009634708,1.3509285,-0.70081514,0.031306844
399,1778598644163,2.2212882,1.6694876,-0.24641682,0.8213083,-0.016340645,-0.3578143
400,1778598644173,1.8431562,1.6523526,-0.2947733,0.1956296,0.603993,-0.8034405
401,1778598644183,1.5681403,1.6064352,-0.2570272,0.05497787,0.7005097,-0.9601275
402,1778598644193,1.4234977,1.5774701,-0.20501198,-0.012980887,0.7254025,-1.1123856
403,1778598644203,0.69424784,1.4660002,0.16525355,-0.012980887,0.7254025,-1.1123856
404,1778598644213,0.69424784,1.4660002,0.16525355,1.8287778,-0.38744128,-2.8677068
405,1778598644223,0.4355742,1.4106921,0.13604453,1.8287778,-0.38744128,-2.8677068
406,1778598644233,0.4355742,1.4106921,0.13604453,1.8287778,-0.38744128,-2.8677068
407,1778598644243,0.4355742,1.4106921,0.13604453,1.8287778,-0.38744128,-2.8677068
408,1778598644253,0.25519782,1.3855686,0.100432694,2.003638,-0.43768495,-2.9739974
409,1778598644263,0.44215995,1.1367736,-0.03225798,2.1569653,-0.12370021,-3.4074063
410,1778598644273,0.6784542,1.1206142,-0.05335677,2.0438025,-0.071013086,-3.617544
411,1778598644283,0.6784542,1.1206142,-0.05335677,2.0438025,-0.071013086,-3.617544
412,1778598644293,0.6784542,1.1206142,-0.05335677,2.0438025,-0.071013086,-3.617544
413,1778598644303,0.6784542,1.1206142,-0.05335677,2.0438025,-0.071013086,-3.617544
414,1778598644313,1.8244967,0.9256028,0.45417285,2.5900686,-0.38515055,-5.2703924
415,1778598644323,2.9076695,0.72144455,0.5138105,3.4087808,-0.93691456,-5.4611354
416,1778598644333,3.6102717,0.64967203,0.33849534,3.7591121,-1.3509285,-5.5342865
417,1778598644343,4.4480643,0.503444,0.09140777,3.9161043,-1.7858646,-5.6172113
418,1778598644353,4.4480643,0.503444,0.09140777,3.9161043,-1.7858646,-5.6172113
419,1778598644363,4.4480643,0.503444,0.09140777,3.9161043,-1.7858646,-5.6172113
420,1778598644373,4.4480643,0.503444,0.09140777,3.9161043,-1.7858646,-5.6172113
421,1778598644383,6.077306,-0.25611252,-0.96377575,2.516612,-2.7366762,-6.161645
422,1778598644393,6.0516334,-2.2839746,-0.30800578,-4.578435,0.027488936,-7.4667587
423,1778598644403,3.8620546,-2.8616912,1.3802634,-3.9112175,0.6750061,-7.4163623
424,1778598644413,3.8620546,-2.8616912,1.3802634,-2.1919372,0.49846604,-7.0890913
425,1778598644423,2.9019377,-2.9105966,1.794251,-2.1919372,0.49846604,-7.0890913
426,1778598644433,1.5639937,-3.0579224,1.4342301,1.3669637,-0.57986385,-6.165463
427,1778598644443,0.41234115,-3.1691482,0.44453815,3.3406694,-1.4173601,-4.904179
428,1778598644453,-0.18397415,-3.10823,-0.06896744,3.172376,-1.3206906,-4.1153994
429,1778598644463,-0.5433854,-3.03225,-0.2923341,2.6180158,-0.9274462,-3.2849278
430,1778598644473,-0.84498835,-2.9852962,-0.4352693,1.7484491,-0.27840182,-2.286316
431,1778598644483,-1.3922764,-3.0071878,-0.7255911,1.0503827,0.02733622,-1.4709635
432,1778598644493,-1.3922764,-3.0071878,-0.7255911,0.11346822,-0.04886922,-0.35720345
433,1778598644503,-1.3694092,-2.9342566,-0.51716435,-0.9126327,-0.32788193,0.96486163
434,1778598644513,-1.1362249,-2.8065662,-0.3638627,-1.6029104,-0.7646506,2.2785273
435,1778598644523,-0.9738373,-2.6968036,-0.33825144,-1.6850718,-1.087951,2.7186558
436,1778598644533,-0.7139441,-2.4549603,-0.34837398,-1.6850718,-1.087951,2.7186558
437,1778598644543,-0.6734539,-2.3104398,-0.33855635,-1.6103935,-2.796541,4.107305
438,1778598644553,-0.6734539,-2.3104398,-0.33855635,-1.6103935,-2.796541,4.107305
439,1778598644563,-0.31776243,-2.1189651,-0.14531335,-1.7884607,-2.8732047,5.7470202
440,1778598644573,0.12043386,-2.0005436,-0.06445498,-1.7884607,-2.8732047,5.7470202
441,1778598644583,0.12043386,-2.0005436,-0.06445498,-2.0535762,-1.8290832,7.1601043
442,1778598644593,0.8610868,-1.642413,-0.15452121,-2.133905,-1.6116152,7.634594
443,1778598644603,1.0798801,-1.5886903,-0.08378538,-2.1415408,-1.6424639,8.144819
444,1778598644613,1.4885625,-1.4409987,0.20068243,-1.8413006,-1.7977765,9.135948
445,1778598644623,1.8158987,-1.3171501,0.34471524,-1.4182764,-1.9404135,9.871888
446,1778598644633,3.919009,-0.40093803,0.5572277,-0.20280726,-1.8939877,11.237325
447,1778598644643,5.7802763,0.63076854,0.15677744,0.2750421,-0.82772243,11.286194
448,1778598644653,6.6414847,1.1931794,-0.27422333,-0.41340306,0.89965177,10.2886505
449,1778598644663,7.010592,1.8629136,-0.63887876,-0.41340306,0.89965177,10.2886505
450,1778598644673,7.010592,1.8629136,-0.63887876,-1.8975002,2.4572055,8.588307
451,1778598644683,5.117067,1.7965682,0.37557068,-3.9666536,3.3466253,4.967556
452,1778598644693,4.1151185,1.7541877,1.3703848,-2.9466612,2.2797492,3.9212968
453,1778598644703,3.2299445,1.7516875,1.3747144,1.3434454,0.29123,2.925281
454,1778598644713,3.2299445,1.7516875,1.3747144,1.3434454,0.29123,2.925281
455,1778598644723,2.1797612,1.5622253,0.12927583,2.7727172,0.40194935,2.4274259
456,1778598644733,1.8769997,1.498624,-0.12592198,2.7727172,0.40194935,2.4274259
457,1778598644743,1.9324907,1.5858852,-0.2209885,2.1285598,1.3552046,2.6041186
458,1778598644753,2.1354904,1.7532731,-0.242941,0.7673995,2.8528934,1.9385809
459,1778598644763,2.1354904,1.7532731,-0.242941,0.7673995,2.8528934,1.9385809
460,1778598644773,2.1354904,1.7532731,-0.242941,0.7673995,2.8528934,1.9385809
461,1778598644783,0.9065772,1.6139356,0.29715148,0.5145013,1.8147279,-0.57894754
462,1778598644793,0.43478146,1.481001,0.46947864,2.1928535,-0.12858713,-2.0247128
463,1778598644803,0.24135554,1.3789219,0.47661316,2.9498682,-0.5539021,-2.2849414
464,1778598644813,0.14397182,1.3040395,0.40929216,3.4002287,-0.70386946,-2.4404066
465,1778598644823,-0.04189269,1.1542747,0.117384896,3.7760634,-0.7005097,-2.6019804
466,1778598644833,-0.025733208,1.0957956,-0.05329579,3.5253034,-0.50426924,-2.513863
467,1778598644843,0.7583979,1.1031132,-0.040673107,3.1236594,-0.22357668,-2.4894285
468,1778598644853,0.7583979,1.1031132,-0.040673107,2.6250408,0.10247265,-2.69697
469,1778598644863,1.7294303,1.1181141,0.3406906,2.4352143,0.117744274,-3.1410692
470,1778598644873,1.958224,1.1008569,0.42898846,2.6743681,-0.25381452,-4.371199
471,1778598644883,2.5780163,0.92877364,0.6025351,2.6743681,-0.25381452,-4.371199
472,1778598644893,2.9048035,0.81175464,0.7032117,3.3270776,-0.8671232,-5.818033
473,1778598644903,2.9048035,0.81175464,0.7032117,3.3270776,-0.8671232,-5.818033
474,1778598644913,3.5755136,0.769801,0.778704,3.4185545,-0.8677341,-5.7610703
475,1778598644923,3.5755136,0.769801,0.778704,3.4185545,-0.8677341,-5.7610703
476,1778598644933,3.5755136,0.769801,0.778704,3.4185545,-0.8677341,-5.7610703
477,1778598644943,3.5755136,0.769801,0.778704,3.4185545,-0.8677341,-5.7610703
478,1778598644953,6.1762137,-1.0050586,-0.51155424,1.2287555,-1.3626876,-7.4696603
479,1778598644963,5.529286,-1.8888906,0.028355313,-0.30176744,-1.1614076,-7.6466584
480,1778598644973,5.053953,-2.1769562,0.46325874,-2.3051,0.012064588,-7.8291545
481,1778598644983,3.722412,-2.701621,1.5577128,-1.8399261,0.8660542,-7.653683
482,1778598644993,2.6557035,-2.8787045,1.8815733,0.14462234,0.7861836,-7.3484035
483,1778598645003,2.6557035,-2.8787045,1.8815733,0.14462234,0.7861836,-7.3484035
484,1778598645013,2.6557035,-2.8787045,1.8815733,0.14462234,0.7861836,-7.3484035
485,1778598645023,2.6557035,-2.8787045,1.8815733,0.14462234,0.7861836,-7.3484035
486,1778598645033,-0.9093213,-3.3096445,-0.24141651,4.030794,-1.8646661,-4.2007675
487,1778598645043,-1.314223,-3.2158582,-0.45856333,3.0460796,-1.422247,-2.947425
488,1778598645053,-1.5229547,-3.2029917,-0.6016815,1.6740762,-0.3640757,-1.3921618
489,1778598645063,-1.5229547,-3.2029917,-0.6016815,1.6740762,-0.3640757,-1.3921618
490,1778598645073,-1.5229547,-3.2029917,-0.6016815,1.6740762,-0.3640757,-1.3921618
491,1778598645083,-1.5229547,-3.2029917,-0.6016815,1.6740762,-0.3640757,-1.3921618
492,1778598645093,-1.4436818,-3.2157974,-0.33172667,-2.210874,0.06719518,4.3742533
493,1778598645103,-1.3273945,-3.0867653,-0.286846,-2.1536055,-0.38362336,5.426163
494,1778598645113,-1.1671413,-2.9892597,-0.28446782,-2.039679,-0.88438016,6.296341
495,1778598645123,-1.1671413,-2.9892597,-0.28446782,-2.039679,-0.88438016,6.296341
496,1778598645133,-0.12098267,-2.5548441,-0.26324704,-2.0059288,-1.372156,8.039445
497,1778598645143,0.30635932,-2.394408,-0.29361472,-2.1986568,-1.3055718,8.44903
498,1778598645153,0.78809476,-2.2168977,-0.27239394,-2.6039658,-1.125672,8.80043
499,1778598645163,1.0670135,-2.0942686,-0.25849068,-2.911231,-0.93324935,8.937111
500,1778598645173,1.6952819,-1.823521,-0.16921718,-3.6534324,-0.549626,9.04218
501,1778598645183,2.142137,-1.5429559,0.120738745,-3.9939897,-0.44180828,9.122814
502,1778598645193,2.7654052,-1.2396455,0.4999682,-3.9939897,-0.44180828,9.122814
503,1778598645203,3.6283214,-0.7544952,1.0343287,-3.1085405,-1.0645854,9.330356
504,1778598645213,5.8946733,0.33056808,1.4393523,-0.43325618,-1.655903,9.074403
505,1778598645223,6.6050806,0.92974937,0.9109068,-0.43325618,-1.655903,9.074403
506,1778598645233,6.3267717,1.4309982,0.31178647,0.11530081,-0.5564982,7.4695077
507,1778598645243,6.3267717,1.4309982,0.31178647,-1.7707456,2.104736,4.361425
508,1778598645253,6.3267717,1.4309982,0.31178647,-1.7707456,2.104736,4.361425
509,1778598645263,5.2378054,1.4597802,0.14506944,-2.4437664,2.7267497,3.6352592
510,1778598645273,3.9513283,1.4078261,0.8379757,-2.6042712,2.3335052,1.8741345
511,1778598645283,3.9513283,1.4078261,0.8379757,-2.6042712,2.3335052,1.8741345
512,1778598645293,3.049873,1.3902031,1.1687877,-0.085673854,0.33582318,0.5158757
513,1778598645303,2.6097863,1.3409319,0.94231105,-0.085673854,0.33582318,0.5158757
514,1778598645313,2.1356733,1.3191624,0.5450318,1.6357445,0.064446285,-0.42638394
515,1778598645323,1.8534617,1.3298947,0.33642206,1.681712,0.25244007,-0.57864213
516,1778598645333,1.2815992,1.3238578,0.0037807084,1.4804319,0.91706145,-0.9593639
517,1778598645343,1.2815992,1.3238578,0.0037807084,1.4804319,0.91706145,-0.9593639
518,1778598645353,0.6025351,1.296844,-0.11915329,1.0016663,1.5004377,-1.3379476
519,1778598645363,0.32105532,1.279282,-0.03597771,1.0175488,1.5247196,-1.5630515
520,1778598645373,0.08781,1.2581222,0.050612707,1.3665055,1.2263119,-1.7760907
521,1778598645383,-0.084883004,1.1921427,0.15592372,2.3231206,0.16752979,-2.0606012
522,1778598645393,-0.084883004,1.1921427,0.15592372,2.3231206,0.16752979,-2.0606012
523,1778598645403,-0.022501312,1.1550674,0.17751035,2.9234483,-0.47601673,-2.2841778
524,1778598645413,0.3822174,1.0962225,0.04969802,3.3102787,-0.8417723,-2.784171
525,1778598645423,0.3822174,1.0962225,0.04969802,3.3102787,-0.8417723,-2.784171
526,1778598645433,0.89072275,1.0993325,0.034819108,2.7317894,-0.21395555,-3.3409748
527,1778598645443,0.89072275,1.0993325,0.034819108,2.7317894,-0.21395555,-3.3409748
528,1778598645453,2.0481074,1.1643972,0.3199577,2.351373,-0.1423316,-4.3774605
529,1778598645463,2.0481074,1.1643972,0.3199577,2.351373,-0.1423316,-4.3774605
530,1778598645473,2.5480144,1.0220718,0.7238837,3.1164818,-1.3289373,-5.2253413
531,1778598645483,3.4646533,1.1570188,0.6139383,3.3499851,-1.64674,-4.9399147
532,1778598645493,4.7721686,1.0848805,0.2361723,3.1091514,-1.4272866,-4.9130363
533,1778598645503,4.7721686,1.0848805,0.2361723,3.1091514,-1.4272866,-4.9130363
534,1778598645513,6.606605,0.27422333,-0.58588785,2.0798435,-0.58169645,-5.529705
535,1778598645523,6.811373,-0.5471661,-0.74229944,-0.7716755,0.313832,-7.5724382
536,1778598645533,6.4742193,-1.1026863,-0.3699606,-1.8516853,0.06169739,-8.350223
537,1778598645543,6.4742193,-1.1026863,-0.3699606,-2.6090055,-0.24923302,-8.918785
538,1778598645553,5.8624153,-1.899745,0.115128666,-2.859002,-0.2706133,-9.09899
539,1778598645563,5.8624153,-1.899745,0.115128666,-2.859002,-0.2706133,-9.09899
540,1778598645573,2.403128,-3.17671,1.3802634,-2.859002,-0.2706133,-9.09899
541,1778598645583,3.1641479,-3.0172493,1.4672807,0.28955013,0.30726522,-8.234921
542,1778598645593,1.5025266,-3.3409264,1.0126201,2.4810293,-0.22342396,-6.720281
543,1778598645603,1.0187789,-3.37477,0.8093765,2.4810293,-0.22342396,-6.720281
544,1778598645613,1.0187789,-3.37477,0.8093765,2.4810293,-0.22342396,-6.720281
545,1778598645623,0.27172315,-3.3730626,0.49484593,2.4810293,-0.22342396,-6.720281
546,1778598645633,0.27172315,-3.3730626,0.49484593,2.4810293,-0.22342396,-6.720281
547,1778598645643,-1.4445965,-3.4062963,-0.6188776,2.9243646,0.55848354,-1.0797043
548,1778598645653,-1.7121731,-3.316657,-0.87017274,2.9243646,0.55848354,-1.0797043
549,1778598645663,-1.7121731,-3.316657,-0.87017274,1.1650727,-0.049021937,2.2612705
550,1778598645673,-1.7121731,-3.316657,-0.87017274,1.1650727,-0.049021937,2.2612705
551,1778598645683,-1.7121731,-3.316657,-0.87017274,1.1650727,-0.049021937,2.2612705
552,1778598645693,-1.7121731,-3.316657,-0.87017274,1.1650727,-0.049021937,2.2612705
553,1778598645703,-0.6041206,-2.8294945,-0.48301598,-1.4288138,-0.5009095,6.277862
554,1778598645713,-0.20592664,-2.65796,-0.33690992,-1.6705637,-0.7538077,7.077332
555,1778598645723,-0.20592664,-2.65796,-0.33690992,-1.6705637,-0.7538077,7.077332
556,1778598645733,-0.20592664,-2.65796,-0.33690992,-1.6705637,-0.7538077,7.077332
557,1778598645743,0.14793546,-2.535148,-0.26129574,-1.8264871,-0.86009824,7.710494
558,1778598645753,0.88785666,-2.1876886,-0.1753151,-2.247526,-1.0149527,8.672606
559,1778598645763,1.2186077,-2.0464609,-0.08890763,-2.361605,-1.0189233,9.742231
560,1778598645773,1.4306322,-1.9709076,0.115006715,-2.361605,-1.0189233,9.742231
561,1778598645783,3.9496818,-1.372519,0.40185273,-2.031127,-1.3494014,11.673787
562,1778598645793,5.9670553,-0.38794947,0.6575384,-2.031127,-1.3494014,11.673787
563,1778598645803,6.4764752,0.5819852,1.0585984,-1.6598736,0.09743301,8.951772
564,1778598645813,6.4764752,0.5819852,1.0585984,-1.6598736,0.09743301,8.951772
565,1778598645823,5.88699,1.6410104,0.986582,-1.1556044,1.6653714,6.5715356
566,1778598645833,5.54075,1.9315761,0.92981035,-1.0242683,1.8487836,5.437617
567,1778598645843,5.2860403,2.0011535,0.91615105,-0.8669705,1.8121318,4.8014007
568,1778598645853,4.754729,2.1384175,0.8321827,-0.40378192,1.7117971,3.6424367
569,1778598645863,4.355742,2.201897,0.7211396,-0.10293079,1.5908458,3.0674598
570,1778598645873,3.8237598,2.1812248,0.6093648,0.5421429,1.1099422,2.1045835
571,1778598645883,3.0477996,2.0963418,0.25952733,1.2904528,0.410196,1.1713341
572,1778598645893,2.4426425,2.0359726,-0.22141537,1.4025466,0.2602286,0.8472701
573,1778598645903,2.4426425,2.0359726,-0.22141537,1.2102767,0.4792238,0.34483343
574,1778598645913,2.3154402,2.0635352,-0.33995885,0.7475463,0.9999864,-0.4016439
575,1778598645923,1.8840125,2.0396311,-0.42246366,0.42913285,1.2409728,-1.1227703
576,1778598645933,1.4002036,1.9028549,-0.36130157,0.26343563,1.2935071,-1.972942
577,1778598645943,1.4002036,1.9028549,-0.36130157,0.26343563,1.2935071,-1.972942
578,1778598645953,0.48801628,1.574848,-0.14464259,0.8258898,0.79611015,-3.0133982
579,1778598645963,0.34581286,1.3805073,-0.1364104,0.8258898,0.79611015,-3.0133982
580,1778598645973,0.34581286,1.3805073,-0.1364104,1.5981762,-0.17470746,-3.3018794
581,1778598645983,0.38538834,1.2579392,-0.12281204,1.7566957,-0.6133087,-3.4408512
582,1778598645993,0.69857734,1.042195,0.07988271,1.8790215,-0.98868537,-3.683212
583,1778598646003,0.9960337,0.94542104,0.17372964,1.9384282,-1.0841331,-3.9602394
584,1778598646013,0.9960337,0.94542104,0.17372964,1.9384282,-1.0841331,-3.9602394
585,1778598646023,1.5838729,0.8410857,0.38703477,1.8176296,-0.79091775,-4.8246136
586,1778598646033,2.0192642,0.79650986,0.55369085,1.8220583,-0.7134906,-5.265353
587,1778598646043,2.505512,0.7603492,0.79242426,1.9749273,-0.7108944,-5.8455224
588,1778598646053,2.804249,0.6991262,0.8829174,2.1432207,-0.66767573,-6.18837
589,1778598646063,3.2364082,0.54375124,0.9973753,2.5247061,-0.6441574,-6.730513
590,1778598646073,3.901935,0.29727346,1.1245168,2.7852402,-0.79045963,-6.874983
591,1778598646083,4.848942,-0.1255561,1.0397558,3.2223141,-1.0137309,-6.9655437
592,1778598646093,5.3431168,-0.5933273,0.58753425,3.2818735,-1.1100949,-7.1862187
593,1778598646103,5.4389763,-0.9652392,0.085309856,2.719572,-1.3115277,-7.335728
594,1778598646113,5.4389763,-0.9652392,0.085309856,2.719572,-1.3115277,-7.335728
595,1778598646123,5.04127,-1.6429616,0.14275223,-1.1119275,-1.0302242,-7.1066537
596,1778598646133,4.5352645,-2.2156782,0.7918755,-2.6375635,0.3202461,-6.8966684
597,1778598646143,3.8288207,-2.4911819,1.4689271,-2.7811167,1.5144876,-6.7471595
598,1778598646153,1.9988972,-2.8768141,2.0542662,-2.1045835,2.15498,-6.602384
599,1778598646163,1.9988972,-2.8768141,2.0542662,0.73273283,2.3822217,-6.119343
600,1778598646173,1.9988972,-2.8768141,2.0542662,0.73273283,2.3822217,-6.119343
601,1778598646183,-0.44417223,-3.3814168,0.037990022,5.047274,0.6963864,-5.0074153
602,1778598646193,-0.44417223,-3.3814168,0.037990022,5.047274,0.6963864,-5.0074153
603,1778598646203,-1.0573177,-3.2355547,-0.5518005,5.047274,0.6963864,-5.0074153
604,1778598646213,-1.4627682,-3.0503,-1.1141503,3.122285,-0.23304509,0.047800206
605,1778598646223,-1.6179602,-2.9385252,-1.5098442,0.9512699,-0.11301007,2.0277672
606,1778598646233,-1.4423403,-2.9175482,-1.390386,-0.527024,-0.1459968,3.2774448
607,1778598646243,-1.1315905,-2.9345615,-1.0601228,-1.7426459,-0.106901415,4.331493
608,1778598646253,-0.7181517,-2.9235852,-0.58094853,-2.5909848,-0.051923547,5.411044
609,1778598646263,-0.45752668,-2.8814485,-0.3936815,-2.7519479,-0.03634648,5.899278
610,1778598646273,0.020489,-2.707231,-0.18244967,-2.4524713,-0.31658092,6.5813093
611,1778598646283,0.2051949,-2.541002,-0.22897679,-2.1149683,-0.68279463,6.739065
612,1778598646293,0.40709692,-2.365382,-0.39819396,-1.877647,-1.1876748,6.840469
613,1778598646303,0.40709692,-2.365382,-0.39819396,-1.877647,-1.1876748,6.840469
614,1778598646313,0.40709692,-2.365382,-0.39819396,-1.877647,-1.1876748,6.840469
615,1778598646323,0.40709692,-2.365382,-0.39819396,-1.877647,-1.1876748,6.840469
616,1778598646333,1.1016496,-2.022557,-0.5996082,-3.516293,-1.2670872,7.8960443
617,1778598646343,2.0581079,-1.920417,-0.076711796,-4.847979,-1.1626292,9.040958
618,1778598646353,2.0581079,-1.920417,-0.076711796,-4.847979,-1.1626292,9.040958
619,1778598646363,2.0581079,-1.920417,-0.076711796,-4.847979,-1.1626292,9.040958
620,1778598646373,2.0581079,-1.920417,-0.076711796,-4.847979,-1.1626292,9.040958
621,1778598646383,3.269581,-1.741626,0.43514732,-4.8068986,-1.7695239,9.51224
622,1778598646393,5.0563927,-0.95237267,1.4623414,-3.7659843,-2.1213822,8.991784
623,1778598646403,6.240242,0.7915706,1.8099836,-1.2185235,0.59528816,7.811134
624,1778598646413,6.351712,1.3837392,1.618631,-1.2185235,0.59528816,7.811134
625,1778598646423,6.351712,1.3837392,1.618631,-1.2185235,0.59528816,7.811134
626,1778598646433,6.351712,1.3837392,1.618631,-1.2185235,0.59528816,7.811134
627,1778598646443,6.351712,1.3837392,1.618631,-1.2185235,0.59528816,7.811134
628,1778598646453,3.747536,1.8680358,-0.079029,2.0975585,0.37400225,2.0819814
629,1778598646463,2.9055965,1.9979824,-0.63442725,1.4022411,0.16325374,1.2183707
630,1778598646473,2.4384959,2.0619495,-0.76120293,0.46868637,0.536187,0.75823647
631,1778598646483,1.987372,2.0652423,-0.68680835,-0.68707067,1.1992812,0.2209805
632,1778598646493,1.4277052,2.0618277,-0.37660733,-1.2866349,1.502423,-0.28924468
633,1778598646503,0.97908145,2.0596323,-0.05652769,-1.2933544,1.438435,-0.5349652
634,1778598646513,0.57771665,1.9854207,0.17464434,-0.4034765,0.9660834,-1.0497719
635,1778598646523,0.33270234,1.9337105,0.2177566,-0.4034765,0.9660834,-1.0497719
636,1778598646533,0.19397473,1.887732,0.27593073,0.007330383,0.7266242,-1.2308935
637,1778598646543,0.06366225,1.843888,0.37355837,0.63132924,0.39935315,-1.5008959
638,1778598646553,-0.07799236,1.7043067,0.43429363,1.347416,0.20448714,-1.7867808
639,1778598646563,0.14037405,1.6519867,0.4200855,1.6972891,0.071013086,-1.9491183
640,1778598646573,0.41173133,1.598264,0.3167258,1.8571831,0.039858956,-2.228131
641,1778598646583,0.8052909,1.5033194,0.20586567,1.7892243,0.20204368,-2.767525
642,1778598646593,0.8052909,1.5033194,0.20586567,1.7892243,0.20204368,-2.767525
643,1778598646603,1.302576,1.2581222,0.4414282,1.5548048,0.65408397,-3.9025126
644,1778598646613,1.5108198,1.0650011,0.5960104,1.6571246,0.52106804,-4.2499423
645,1778598646623,1.9538335,0.9020039,0.8977353,2.0589213,0.14844026,-4.6019535
646,1778598646633,2.599054,0.7542513,1.1492134,2.9277244,-0.5279403,-5.0156617
647,1778598646643,3.3236694,0.6265,1.2452556,3.5643988,-1.0503827,-5.3117785
648,1778598646653,4.3540344,0.43472052,1.1668364,4.4525967,-1.7886134,-5.626069
649,1778598646663,5.923394,0.21617115,0.52149385,4.4642034,-2.1365013,-5.6709676
650,1778598646673,7.2084694,-0.122202255,-0.13830076,4.4642034,-2.1365013,-5.6709676
651,1778598646683,7.2084694,-0.122202255,-0.13830076,4.4642034,-2.1365013,-5.6709676
652,1778598646693,7.2084694,-0.122202255,-0.13830076,4.4642034,-2.1365013,-5.6709676
653,1778598646703,6.079379,-2.962673,1.3418466,-3.7850738,1.9019289,-8.595027
654,1778598646713,6.079379,-2.962673,1.3418466,-3.8476875,3.1341968,-8.721628
655,1778598646723,4.5121536,-3.2566533,2.1791515,2.1088595,2.8788552,-7.8865757
656,1778598646733,3.7336934,-3.3661718,2.051827,2.1088595,2.8788552,-7.8865757
657,1778598646743,2.8258357,-3.5586224,1.2483655,4.57645,1.430341,-7.5298305
658,1778598646753,1.337578,-3.6787512,-0.050124876,6.2615213,0.030695979,-7.0791645
659,1778598646763,0.2689791,-3.6574087,-0.89096665,5.9513545,-0.79305583,-5.756489
660,1778598646773,0.2689791,-3.6574087,-0.89096665,5.9513545,-0.79305583,-5.756489
661,1778598646783,0.2689791,-3.6574087,-0.89096665,5.9513545,-0.79305583,-5.756489
662,1778598646793,-1.399594,-3.5064242,-1.0674403,2.194228,0.14172074,-3.2259793
663,1778598646803,-1.6908302,-3.6338098,-1.1672632,1.1980594,0.7108944,-2.0357084
664,1778598646813,-2.3169644,-3.6221626,-1.346664,0.004276057,0.14523321,0.052381694
665,1778598646823,-2.3500152,-3.6839952,-1.2662934,-0.6401868,-0.38896844,1.3765849
666,1778598646833,-2.2090313,-3.7076554,-1.1671413,-1.2087497,-0.7163922,2.6772697
667,1778598646843,-1.9469428,-3.5915508,-1.0202425,-1.8164078,-1.057255,4.1636577
668,1778598646853,-1.6701584,-3.5343525,-0.90169895,-2.111914,-1.336115,4.987562
669,1778598646863,-1.0637206,-3.2350667,-0.69217455,-2.5248587,-1.9344575,6.4198885
670,1778598646873,-0.7127245,-3.0965831,-0.5836316,-2.7479773,-2.2154555,7.2185946
671,1778598646883,0.6383299,-2.5647228,-0.24818522,-3.0101912,-2.2939517,7.9548397
672,1778598646893,1.1304318,-2.3343434,-0.16665606,-3.467882,-1.883603,8.391914
673,1778598646903,1.4373399,-2.0789626,-0.004451479,-3.9477167,-1.227381,8.507367
674,1778598646913,1.4373399,-2.0789626,-0.004451479,-3.9477167,-1.227381,8.507367
675,1778598646923,1.6614385,-1.9243196,0.36038688,-4.04515,-1.1722504,8.97865
676,1778598646933,2.2551315,-1.6604627,0.79632694,-3.4866662,-1.5761851,9.935723
677,1778598646943,4.738935,-0.74028707,1.4974654,-2.588236,-2.0554087,10.458319
678,1778598646953,7.045411,0.53692156,1.7207712,-1.8165605,-2.2737932,10.551017
679,1778598646963,7.778442,1.428681,1.1918379,-0.48731774,0.50426924,7.5507526
680,1778598646973,6.7971044,1.7299181,1.1256754,-1.0398453,1.9037615,5.53505
681,1778598646983,5.360191,1.6114964,1.1453718,-1.2895365,2.869234,4.2255077
682,1778598646993,5.360191,1.6114964,1.1453718,-1.2895365,2.869234,4.2255077
683,1778598647003,5.360191,1.6114964,1.1453718,-1.2895365,2.869234,4.2255077
684,1778598647013,5.360191,1.6114964,1.1453718,-1.2895365,2.869234,4.2255077
685,1778598647023,2.8415682,1.7894336,0.40063316,-0.010842858,0.8584184,1.8868101
686,1778598647033,2.8415682,1.7894336,0.40063316,-0.010842858,0.8584184,1.8868101
687,1778598647043,2.3705041,1.847425,0.38837633,0.021380283,0.9251554,1.5367843
688,1778598647053,2.3705041,1.847425,0.38837633,0.021380283,0.9251554,1.5367843
689,1778598647063,1.9241368,1.9373691,0.26922303,0.21700987,1.3720033,0.8034405
690,1778598647073,1.9241368,1.9373691,0.26922303,0.21700987,1.3720033,0.8034405
691,1778598647083,1.0645133,1.9760909,0.025733208,0.80680025,1.2056953,-0.945314
692,1778598647093,0.10482319,1.7491874,0.10714039,1.281748,0.93187493,-1.5699236
693,1778598647103,0.10482319,1.7491874,0.10714039,1.7314975,0.8503244,-1.7038559
694,1778598647113,-0.07207738,1.6872936,0.14171559,1.7314975,0.8503244,-1.7038559
695,1778598647123,-0.07207738,1.6872936,0.14171559,1.7314975,0.8503244,-1.7038559
696,1778598647133,-0.07207738,1.6872936,0.14171559,1.7314975,0.8503244,-1.7038559
697,1778598647143,0.25367334,1.3977646,0.104152426,3.2844696,-0.19272798,-2.1618521
698,1778598647153,0.25367334,1.3977646,0.104152426,3.2844696,-0.19272798,-2.1618521
699,1778598647163,0.25367334,1.3977646,0.104152426,3.2844696,-0.19272798,-2.1618521
700,1778598647173,0.8084008,1.2580001,0.17787623,3.329063,-0.5375614,-3.4741433
701,1778598647183,1.258976,1.1132967,0.051466417,2.9654453,-0.3193298,-3.7745364
702,1778598647193,1.6907084,1.103662,0.16897328,2.2269092,-0.15607607,-4.0269766
703,1778598647203,2.0625594,1.0930516,0.38191253,2.042428,-0.1049161,-4.160603
704,1778598647213,2.8994985,0.97200793,0.9994486,2.0409007,-0.20815234,-4.607909
705,1778598647223,2.8994985,0.97200793,0.9994486,2.0409007,-0.20815234,-4.607909
706,1778598647233,3.676007,0.845781,1.4639269,4.234976,-1.8616118,-5.398369
707,1778598647243,5.9667506,0.22257397,1.3605062,4.234976,-1.8616118,-5.398369
708,1778598647253,6.5208073,-0.75455624,-0.26611307,1.34314,-2.2892175,-7.18011
709,1778598647263,6.5208073,-0.75455624,-0.26611307,1.34314,-2.2892175,-7.18011
710,1778598647273,5.2707953,-2.197994,0.9271883,-1.637577,-1.2232577,-7.4699655
711,1778598647283,5.2707953,-2.197994,0.9271883,-3.5204165,1.4124732,-7.349625
712,1778598647293,3.6482005,-2.8797412,2.520635,-3.5204165,1.4124732,-7.349625
713,1778598647303,3.6482005,-2.8797412,2.520635,1.055117,1.370629,-6.507089
714,1778598647313,2.098659,-3.1551843,1.9919456,2.845105,0.8000808,-6.2315893
715,1778598647323,2.098659,-3.1551843,1.9919456,2.845105,0.8000808,-6.2315893
716,1778598647333,0.5565569,-3.368489,0.1750712,5.1761665,-0.52580225,-5.729458
717,1778598647343,-0.25897855,-3.254641,-0.43337893,5.193729,-1.2993103,-4.8085785
718,1778598647353,-1.0756725,-3.1514034,-0.71918833,5.193729,-1.2993103,-4.8085785
719,1778598647363,-1.5975932,-3.0467021,-0.94206715,2.351373,-0.19746219,-1.387275
720,1778598647373,-1.7670544,-3.052983,-1.0542688,1.6096299,-0.08093964,-0.38072178
721,1778598647383,-1.7670544,-3.052983,-1.0542688,1.6096299,-0.08093964,-0.38072178
722,1778598647393,-1.7670544,-3.052983,-1.0542688,1.6096299,-0.08093964,-0.38072178
723,1778598647403,-1.4442916,-2.9491963,-0.7755331,-1.325883,-0.7275405,3.0276008
724,1778598647413,-1.3033687,-2.8439465,-0.59607136,-1.7201965,-0.78877974,3.6946657
725,1778598647423,-1.1375054,-2.7137558,-0.4425258,-1.9651535,-1.1215485,4.969236
726,1778598647433,-1.0475612,-2.6077132,-0.38349798,-1.9651535,-1.1215485,4.969236
727,1778598647443,-0.9213342,-2.488438,-0.3530084,-2.0140228,-1.3246613,5.6083536
728,1778598647453,-0.52332324,-2.3049517,-0.289834,-2.2192733,-1.4048374,6.6631656
729,1778598647463,0.007378479,-2.137259,-0.23251356,-2.3246477,-1.3475688,7.018231
730,1778598647473,0.007378479,-2.137259,-0.23251356,-2.713158,-1.0958922,7.9603376
731,1778598647483,1.2170222,-1.7842505,-0.38355896,-3.1659617,-0.70386946,8.4342165
732,1778598647493,1.2170222,-1.7842505,-0.38355896,-3.4174857,-0.6249151,8.385805
733,1778598647503,2.036704,-1.4456332,-0.17000991,-3.7391062,-1.7615826,8.724988
734,1778598647513,3.0893877,-1.2330598,0.115250625,-3.6138787,-2.2093468,9.0701275
735,1778598647523,4.070969,-0.8560255,0.5950957,-3.3064609,-2.4266622,9.3628845
736,1778598647533,5.4437323,-0.2754429,1.0207913,-3.3064609,-2.4266622,9.3628845
737,1778598647543,6.728502,0.65973365,0.9626781,-2.8316658,-2.1184807,9.457568
738,1778598647553,6.4564743,1.2107414,0.980484,-2.9791899,1.054048,6.248235
739,1778598647563,5.705699,1.2903192,1.0933565,-3.1945198,2.346486,4.7429104
740,1778598647573,5.203718,1.2685496,1.1992164,-2.9765937,2.7102563,3.8594465
741,1778598647583,3.7573533,1.1731782,1.1283585,-1.3164146,2.2316434,2.549446
742,1778598647593,3.7573533,1.1731782,1.1283585,-1.3164146,2.2316434,2.549446
743,1778598647603,3.2351277,1.2507437,0.86809945,-0.08964448,1.0995574,1.8584048
744,1778598647613,2.3464174,1.3557498,0.3035543,0.42546764,0.5859725,1.5958854
745,1778598647623,2.3464174,1.3557498,0.3035543,0.7698429,0.1994475,1.2411255
746,1778598647633,1.5972273,1.4923432,-0.021891521,0.08506299,0.6693556,0.83367836
747,1778598647643,1.5972273,1.4923432,-0.021891521,0.08506299,0.6693556,0.83367836
748,1778598647653,1.3895323,1.5413705,0.00219525,-0.21609358,0.8784242,0.7367035
749,1778598647663,1.1043327,1.5921661,0.12494631,-0.40378192,0.839787,0.20708331
750,1778598647673,0.8966987,1.6255826,0.29983455,-0.40378192,0.839787,0.20708331
751,1778598647683,0.8579769,1.6458278,0.46051466,-0.02565634,0.6096435,-0.25686884
752,1778598647693,0.8579769,1.6458278,0.46051466,-0.02565634,0.6096435,-0.25686884
753,1778598647703,0.81242543,1.642108,0.58680254,0.42302418,0.65301496,-0.77656245
754,1778598647713,0.81242543,1.642108,0.58680254,0.42302418,0.65301496,-0.77656245
755,1778598647723,0.35489875,1.3442857,0.40118194,2.9159653,0.10720685,-2.395508
756,1778598647733,0.49569967,1.2648909,0.3017249,3.2786665,-0.16676621,-2.67223
757,1778598647743,0.49569967,1.2648909,0.3017249,3.2786665,-0.16676621,-2.67223
758,1778598647753,0.49569967,1.2648909,0.3017249,3.2786665,-0.16676621,-2.67223
759,1778598647763,0.49569967,1.2648909,0.3017249,3.2786665,-0.16676621,-2.67223
760,1778598647773,1.089088,1.1987895,0.12817821,3.3377676,-0.27672195,-2.9808698
761,1778598647783,1.8337655,0.7935219,0.43301308,1.7811303,0.86467975,-5.153412
762,1778598647793,2.0103002,0.68772304,0.68607664,1.8142698,0.8559749,-5.3635497
763,1778598647803,2.6974745,0.48801628,1.2134244,1.8142698,0.8559749,-5.3635497
764,1778598647813,2.6974745,0.48801628,1.2134244,1.8142698,0.8559749,-5.3635497
765,1778598647823,2.6974745,0.48801628,1.2134244,1.8142698,0.8559749,-5.3635497
766,1778598647833,3.36916,0.45179462,1.5285648,2.6177104,0.19929479,-5.531996
767,1778598647843,6.5175147,-0.69150376,-0.80827886,2.795014,-1.728596,-7.3299246
768,1778598647853,5.963214,-1.4388034,-0.6950405,2.795014,-1.728596,-7.3299246
769,1778598647863,5.278845,-2.0428631,-0.080919355,-0.4335616,-1.1223122,-7.7894483
770,1778598647873,4.2612243,-2.6418004,0.957129,-3.867846,1.4902058,-7.727751
771,1778598647883,4.2612243,-2.6418004,0.957129,-3.867846,1.4902058,-7.727751
772,1778598647893,2.2498875,-2.964929,2.0612788,-0.26313022,1.7789923,-6.997767
773,1778598647903,2.2498875,-2.964929,2.0612788,2.8053987,0.09682214,-6.272975
774,1778598647913,0.82614577,-3.2392132,1.0343287,4.4851255,-1.2232577,-5.6489763
775,1778598647923,0.058783915,-3.277264,0.2333063,5.1595206,-2.0027218,-4.9356384
776,1778598647933,-0.43191543,-3.2476287,-0.19738956,4.965571,-1.9428569,-4.12105
777,1778598647943,-0.8081569,-3.1857345,-0.53576297,3.9060252,-0.8724683,-3.0164526
778,1778598647953,-1.5290526,-3.4346519,-1.2319012,3.503465,-0.547488,-2.685211
779,1778598647963,-1.8923664,-3.4232485,-1.2220225,2.0570886,-0.26893342,-1.4378241
780,1778598647973,-1.8923664,-3.4232485,-1.2220225,0.61285055,-0.3578143,-0.100792766
781,1778598647983,-2.0042632,-3.5112417,-1.0929296,-0.41218132,-0.35735616,1.1160508
782,1778598647993,-2.0042632,-3.5112417,-1.0929296,-0.41218132,-0.35735616,1.1160508
783,1778598648003,-1.9294419,-3.5806968,-0.8759658,-1.4333953,-0.40515637,2.7663033
784,1778598648013,-1.273123,-3.4048936,-0.5109445,-2.6028967,-0.7713701,6.715547
785,1778598648023,-0.22952558,-3.0037117,-0.35727695,-2.6028967,-0.7713701,6.715547
786,1778598648033,-0.22952558,-3.0037117,-0.35727695,-2.6791022,-1.0073168,7.4916515
787,1778598648043,1.0565251,-2.4844744,-0.34197116,-2.8417451,-1.4414892,8.403826
788,1778598648053,1.4950873,-2.1167698,-0.3533133,-3.1274774,-1.3652838,8.371144
789,1778598648063,1.6714389,-1.9506016,-0.24196534,-3.387095,-1.4071281,8.410088
790,1778598648073,1.6714389,-1.9506016,-0.24196534,-3.3472362,-1.785559,8.997892
791,1778598648083,2.3319044,-1.5353944,0.44856274,-2.853657,-2.2412646,9.818895
792,1778598648093,3.368916,-1.1507988,0.7373601,-2.2957842,-2.4260514,10.393261
793,1778598648103,5.992057,0.026586918,0.69510156,-1.4894422,-1.4321736,10.479852
794,1778598648113,6.73771,0.7996808,0.38508344,-2.0314324,0.06505715,9.2665205
795,1778598648123,6.73771,0.7996808,0.38508344,-2.0314324,0.06505715,9.2665205
796,1778598648133,5.90193,1.4159362,0.9909115,-4.022242,2.5305092,6.301533
797,1778598648143,5.3231153,1.4717932,1.7232103,-1.9515617,1.563815,4.1642685
798,1778598648153,4.8359528,1.5013071,2.125856,-1.9515617,1.563815,4.1642685
799,1778598648163,4.246833,1.4326446,1.9029769,0.8405506,0.10522154,3.0831897
800,1778598648173,3.304461,1.4641708,0.6582701,1.8435913,-0.33826664,2.6557367
801,1778598648183,2.9641974,1.4583777,0.27141827,2.5792258,-0.17165314,1.6957619
802,1778598648193,2.2840967,1.472403,-0.27062553,1.6985108,0.6569856,1.2402092
803,1778598648203,1.8300457,1.5290526,-0.42307347,0.8060367,1.3687963,1.0456486
804,1778598648213,1.8300457,1.5290526,-0.42307347,-0.19853121,2.2030854,0.81214535
805,1778598648223,1.3534936,1.641803,-0.3614845,-0.19853121,2.2030854,0.81214535
806,1778598648233,0.86657494,1.756383,-0.035428897,-0.59238654,2.6438248,0.13622294
807,1778598648243,0.6015595,1.8428514,0.096347086,0.03313944,2.2499695,-0.51159966
808,1778598648253,0.41051176,1.8463882,0.042258564,1.0383182,1.5291485,-1.1580478
809,1778598648263,0.17086363,1.7631516,-0.22373258,1.7531832,0.8029824,-1.5688547
810,1778598648273,0.06726002,1.6888181,-0.39977944,2.2573,-0.24419338,-1.9773707
811,1778598648283,-0.01603752,1.691684,-0.4074628,2.378251,-0.9578367,-2.2537873
812,1778598648293,-0.0013415418,1.6204604,-0.32117727,2.1616993,-1.3196217,-2.4555256
813,1778598648303,-0.0013415418,1.6204604,-0.32117727,1.7545577,-1.2001975,-2.5222626
814,1778598648313,0.40264544,1.5528955,0.026769854,1.1200215,-0.7492262,-2.7128525
815,1778598648323,0.93023723,1.4891113,0.39441326,0.7722864,-0.11377365,-3.1482468
816,1778598648333,1.2511096,1.4325225,0.66198987,0.8228355,0.3031419,-3.7282634
817,1778598648343,1.9726762,1.1734221,1.1465304,1.732872,0.15943582,-4.7789516
818,1778598648353,2.5649056,1.0190228,1.3883127,2.5476136,-0.13912456,-5.446627
819,1778598648363,2.9332807,0.8340121,1.5082587,2.5476136,-0.13912456,-5.446627
820,1778598648373,2.9332807,0.8340121,1.5082587,3.3104315,-0.3755294,-5.924171
821,1778598648383,2.9332807,0.8340121,1.5082587,3.3104315,-0.3755294,-5.924171
822,1778598648393,2.9332807,0.8340121,1.5082587,3.3104315,-0.3755294,-5.924171
823,1778598648403,2.9332807,0.8340121,1.5082587,3.9999456,-0.72295904,-6.057798
824,1778598648413,7.4570813,-0.5247867,-0.71351725,3.3050864,-1.1455251,-6.5032716
825,1778598648423,7.1124883,-1.2637322,-0.44392833,-1.377043,-0.6417139,-8.142376
826,1778598648433,7.1124883,-1.2637322,-0.44392833,-1.377043,-0.6417139,-8.142376
827,1778598648443,7.1124883,-1.2637322,-0.44392833,-1.377043,-0.6417139,-8.142376
828,1778598648453,7.1124883,-1.2637322,-0.44392833,-3.8466184,1.1079569,-8.748659
829,1778598648463,3.4576406,-3.1101816,2.6097255,1.5662584,1.4366024,-7.693237
830,1778598648473,1.8539495,-3.483496,1.6002764,4.5625525,0.20082195,-6.9156055
831,1778598648483,1.1627508,-3.529596,0.58905876,5.878814,-0.79168135,-6.1410284
832,1778598648493,0.84883,-3.4659948,0.054454394,5.878814,-0.79168135,-6.1410284
833,1778598648503,0.84883,-3.4659948,0.054454394,5.878814,-0.79168135,-6.1410284
834,1778598648513,0.84883,-3.4659948,0.054454394,5.878814,-0.79168135,-6.1410284
835,1778598648523,0.84883,-3.4659948,0.054454394,5.878814,-0.79168135,-6.1410284
836,1778598648533,-1.3593476,-3.2241514,-0.9715811,2.394439,0.4454735,-3.2821789
837,1778598648543,-1.718027,-3.3254378,-0.86578226,0.79717916,-0.10125092,-0.7173085
838,1778598648553,-1.718027,-3.3254378,-0.86578226,-0.4082107,-0.8680395,2.3599253
839,1778598648563,-1.5592983,-3.3841,-0.76205665,-0.4082107,-0.8680395,2.3599253
840,1778598648573,-1.2855629,-3.2862282,-0.7059558,-0.8028296,-0.88346386,3.4365752
841,1778598648583,-0.95523864,-3.1143892,-0.64436686,-1.2325734,-0.9224065,4.483598
842,1778598648593,-0.60521823,-2.8147376,-0.58168024,-1.2325734,-0.9224065,4.483598
843,1778598648603,-0.60521823,-2.8147376,-0.58168024,-1.2325734,-0.9224065,4.483598
844,1778598648613,-0.09281029,-2.4915478,-0.4874065,-2.1444426,-1.2395983,6.6555295
845,1778598648623,0.7907169,-2.0325575,-0.4003892,-2.791807,-1.4485142,7.642077
846,1778598648633,1.0520736,-1.826692,-0.38422972,-3.1070135,-1.4133894,7.8797035
847,1778598648643,1.4294736,-1.6093012,-0.32953143,-3.4125986,-1.4075862,8.165283
848,1778598648653,1.943528,-1.3661163,-0.2595883,-3.755905,-1.4946345,8.541423
849,1778598648663,3.6266139,-0.60119367,0.6664413,-3.4564283,-2.4043655,9.401063
850,1778598648673,3.6266139,-0.60119367,0.6664413,-3.4564283,-2.4043655,9.401063
851,1778598648683,4.45465,-0.16994894,1.0173764,-2.7592783,-2.375655,9.341657
852,1778598648693,5.822901,1.0326823,1.3778853,-1.870622,-1.2275337,8.606022
853,1778598648703,6.1415777,1.7515045,1.3537375,-1.5373951,0.039858956,7.5790052
854,1778598648713,5.132251,2.4423985,1.2698302,-0.6290385,1.3788756,4.6798387
855,1778598648723,5.132251,2.4423985,1.2698302,-0.6290385,1.3788756,4.6798387
856,1778598648733,3.694484,2.1695778,0.72516423,-0.23747386,1.297325,4.034307
857,1778598648743,3.214334,2.1153674,0.4110606,0.30268374,1.1705705,2.9320004
858,1778598648753,3.214334,2.1153674,0.4110606,-0.026419923,1.2673926,2.7585146
859,1778598648763,2.2727544,1.9592607,-0.10031073,-0.4822781,1.3826935,2.624277
860,1778598648773,1.8710848,1.8198012,-0.1167751,-0.93462384,1.4480561,2.6015224
861,1778598648783,1.8710848,1.8198012,-0.1167751,-0.93462384,1.4480561,2.6015224
862,1778598648793,1.4691101,1.7049165,0.23635526,-0.86284715,1.1172725,2.28036
863,1778598648803,1.6022886,1.8141912,0.31044495,-0.26908615,0.9624182,1.5164729
864,1778598648813,1.5647864,1.9471868,0.2250741,0.07284568,1.0048733,0.81016004
865,1778598648823,1.0961006,1.920417,0.072565205,0.49602258,1.0349585,-0.3801109
866,1778598648833,0.63009775,1.7836406,-0.046405144,0.6469063,1.0848967,-1.0852021
867,1778598648843,0.2596493,1.6588163,-0.11433593,0.62796944,1.1685852,-1.3180945
868,1778598648853,0.10384752,1.5647255,-0.12500729,0.56382865,1.2974777,-1.4132367
869,1778598648863,0.10384752,1.5647255,-0.12500729,0.56382865,1.2974777,-1.4132367
870,1778598648873,0.07939488,1.4387425,0.0064028124,0.61453044,1.0780244,-1.4083499
871,1778598648883,0.28013828,1.3841052,0.19623096,1.0531317,0.15057829,-1.4691309
872,1778598648893,0.5193596,1.3797756,0.3565452,1.2921327,-0.2678644,-1.5551102
873,1778598648903,2.0943904,1.2882459,0.5450318,2.196824,-1.0155635,-2.5679247
874,1778598648913,2.0943904,1.2882459,0.5450318,2.4755313,-0.6582073,-3.7713294
875,1778598648923,2.0475585,1.0089004,0.47100312,2.4182627,0.038789943,-5.149747
876,1778598648933,1.7734572,0.50307816,0.6952235,2.4061983,0.5664248,-5.6645536
877,1778598648943,2.2083607,0.46094155,0.85407424,2.616183,0.49846604,-5.447696
878,1778598648953,3.1691482,0.5026513,1.0707942,2.616183,0.49846604,-5.447696
879,1778598648963,4.3544617,0.5224695,1.1715927,2.616183,0.49846604,-5.447696
880,1778598648973,5.661062,0.45209953,1.0320724,3.8276815,-0.34284812,-5.816964
881,1778598648983,6.4618406,0.2133661,0.58881485,3.6538904,-0.6772968,-6.654766
882,1778598648993,6.4618406,0.2133661,0.58881485,2.661998,-0.92149025,-7.434383
883,1778598649003,6.2918916,-0.9711542,-0.19751152,0.54153204,-0.7881689,-8.01837
884,1778598649013,5.6629524,-1.8090079,0.2206836,-1.587486,0.02687807,-8.243168
885,1778598649023,4.857113,-2.2917192,0.9202976,-2.579073,0.9837985,-8.138252
886,1778598649033,4.2196975,-2.52283,1.4908187,-2.4422393,1.237613,-7.9818707
887,1778598649043,2.99426,-2.7946754,2.051522,0.15943582,1.2954924,-7.209737
888,1778598649053,2.055059,-2.930293,1.6788175,2.1051943,0.81306165,-6.6511006
889,1778598649063,1.4061795,-3.0404823,1.1142114,2.1051943,0.81306165,-6.6511006
890,1778598649073,1.4061795,-3.0404823,1.1142114,2.1051943,0.81306165,-6.6511006
891,1778598649083,1.4061795,-3.0404823,1.1142114,3.8973203,0.113926366,-5.9383736
892,1778598649093,1.4061795,-3.0404823,1.1142114,3.8973203,0.113926366,-5.9383736
893,1778598649103,-0.5397876,-3.336414,-0.6223534,2.5474608,0.54367006,-2.7690523
894,1778598649113,-2.1315877,-3.5228276,-1.1198823,0.9112582,0.7290677,-0.16462818
895,1778598649123,-2.1315877,-3.5228276,-1.1198823,0.9112582,0.7290677,-0.16462818
896,1778598649133,-2.1315877,-3.5228276,-1.1198823,0.9112582,0.7290677,-0.16462818
897,1778598649143,-2.1315877,-3.5228276,-1.1198823,0.9112582,0.7290677,-0.16462818
898,1778598649153,-2.1315877,-3.5228276,-1.1198823,0.9112582,0.7290677,-0.16462818
899,1778598649163,-0.55814236,-2.8182132,-0.55533725,-1.6783522,-0.24862215,6.307031
900,1778598649173,-0.1911087,-2.628385,-0.5714967,-1.6783522,-0.24862215,6.307031
901,1778598649183,0.32593364,-2.3400145,-0.53673863,-1.7614299,-0.77381355,7.1417785
902,1778598649193,0.32593364,-2.3400145,-0.53673863,-1.7614299,-0.77381355,7.1417785
903,1778598649203,0.32593364,-2.3400145,-0.53673863,-1.7614299,-0.77381355,7.1417785
904,1778598649213,0.32593364,-2.3400145,-0.53673863,-1.7614299,-0.77381355,7.1417785
905,1778598649223,0.32593364,-2.3400145,-0.53673863,-1.7614299,-0.77381355,7.1417785
906,1778598649233,1.3357487,-1.5438095,-0.406792,-1.7614299,-0.77381355,7.1417785
907,1778598649243,1.926271,-1.1657997,-0.09878625,-2.9681942,-1.9307923,8.27417
908,1778598649253,2.9896255,-0.8629162,0.3708753,-3.008053,-1.9017762,8.974833
909,1778598649263,4.5739255,-0.25836873,0.8866371,-2.578615,-1.7030923,9.415877
910,1778598649273,6.7627726,1.4452672,1.317394,-2.0602958,-0.9363037,9.00736
911,1778598649283,6.7627726,1.4452672,1.317394,-1.5453364,0.46181414,7.3349643
912,1778598649293,6.583067,1.7644932,1.358006,-1.3807082,0.838718,6.55153
913,1778598649303,4.683322,2.1468327,0.997985,-0.32650748,1.7333301,3.8140898
914,1778598649313,4.0978003,2.0559127,0.81730384,-0.003970624,1.8089247,3.2407928
915,1778598649323,3.500814,2.0038364,0.48990667,0.27855456,1.8025106,2.688418
916,1778598649333,2.9435256,1.9624317,0.18805976,0.40546182,1.6852245,2.1038198
917,1778598649343,2.4931333,1.97292,0.084456146,0.4802928,1.5340353,1.8480201
918,1778598649353,2.4931333,1.97292,0.084456146,0.4802928,1.5340353,1.8480201
919,1778598649363,1.9486504,1.9942628,0.023172084,0.7680103,1.1435398,1.5625933
920,1778598649373,1.3393465,2.0997567,-0.2361723,1.3828462,0.6974554,1.1157454
921,1778598649383,1.1653728,2.142442,-0.4182561,1.5262468,0.60154957,0.8197812
922,1778598649393,1.2083632,2.1611626,-0.5875953,1.4624114,0.56001073,0.2677117
923,1778598649403,1.115187,2.1358564,-0.7095536,1.1803443,0.6200282,-0.8034405
924,1778598649413,0.95560455,2.0540223,-0.68924755,1.0554224,0.5670357,-1.3472633
925,1778598649423,0.6508306,1.9252343,-0.602962,0.9859365,0.32650748,-1.9252945
926,1778598649433,0.44246486,1.8102275,-0.5052124,1.0005972,0.07345655,-2.2043073
927,1778598649443,0.23056222,1.6130209,-0.35093513,1.0688615,-0.47342056,-2.4830146
928,1778598649453,0.34355664,1.4914895,-0.17336378,1.1001683,-0.8775079,-2.6916249
929,1778598649463,0.5741799,1.3949594,-0.020245085,1.2858714,-1.0873401,-3.3906076
930,1778598649473,0.93889624,1.2583661,0.14836231,1.3761266,-1.0202976,-3.813479
931,1778598649483,1.1255535,1.1568967,0.20848778,1.3761266,-1.0202976,-3.813479
932,1778598649493,1.3358096,0.9445673,0.32282373,1.5728253,-0.8239045,-4.614476
933,1778598649503,1.5614935,0.82614577,0.34410545,1.7299703,-0.73563445,-5.0016117
934,1778598649513,2.0029826,0.78108215,0.3310559,1.7493653,-0.6565274,-5.26856
935,1778598649523,3.0432262,0.80401033,0.6077184,1.7935003,-0.6049093,-5.952271
936,1778598649533,3.9129114,0.7956562,0.8972475,2.1946862,-1.0238101,-6.1498857
937,1778598649543,3.9129114,0.7956562,0.8972475,2.6149614,-1.4485142,-6.249457
938,1778598649553,3.9129114,0.7956562,0.8972475,2.6149614,-1.4485142,-6.249457
939,1778598649563,6.4863544,-0.2564174,-0.33154374,2.2670736,-1.616044,-6.6559877
940,1778598649573,6.377933,-0.72845715,-0.3702045,-0.89476484,-1.6801848,-7.5673985
941,1778598649583,5.927175,-1.5816777,0.07732158,-3.263853,-0.98272943,-7.8458004
942,1778598649593,5.2178044,-2.2964754,0.72613996,-4.5297184,0.056505036,-7.887492
943,1778598649603,4.0535293,-2.739489,1.8641332,-4.3979244,1.3820826,-7.643757
944,1778598649613,3.1491473,-2.8996813,2.4256902,-2.5877779,1.9457586,-7.2810555
945,1778598649623,2.2737303,-3.093961,2.3418438,0.77198094,1.5102116,-6.6634707
946,1778598649633,1.0860391,-3.2887285,1.3557498,3.6833646,0.18463401,-5.9008055
947,1778598649643,-0.2382456,-3.2392132,-0.22239104,5.21908,-1.0488557,-4.02774
948,1778598649653,-0.6166213,-3.1307313,-0.62076795,4.60852,-0.581391,-3.0976977
949,1778598649663,-0.6166213,-3.1307313,-0.62076795,4.60852,-0.581391,-3.0976977
950,1778598649673,-1.3478225,-3.1650016,-1.2378161,2.1164954,0.77411896,-0.4176791
951,1778598649683,-1.5811898,-3.1609771,-1.3503227,1.0180069,0.6713409,0.7110472
952,1778598649693,-1.5811898,-3.1609771,-1.3503227,-0.1693624,0.33399057,2.0470095
953,1778598649703,-1.5272232,-3.3095834,-0.9960947,-0.82741696,0.03970624,3.0705142
954,1778598649713,-1.3976425,-3.275557,-0.8134621,-1.2168436,-0.23335053,4.033085
955,1778598649723,-1.1505549,-3.1589038,-0.62918305,-1.3794864,-0.66828656,5.1850243
956,1778598649733,-0.68333256,-2.9510257,-0.53643376,-1.3228287,-1.1644619,6.1833305
957,1778598649743,-0.22556195,-2.7648566,-0.503444,-1.2722796,-1.5596917,6.8667364
958,1778598649753,0.32697028,-2.516915,-0.5330799,-1.3753631,-1.6415477,7.2028646
959,1778598649763,0.32697028,-2.516915,-0.5330799,-1.3753631,-1.6415477,7.2028646
960,1778598649773,0.32697028,-2.516915,-0.5330799,-1.3753631,-1.6415477,7.2028646
961,1778598649783,0.32697028,-2.516915,-0.5330799,-1.3753631,-1.6415477,7.2028646
962,1778598649793,1.3392245,-1.9047453,-0.4944191,-1.6986635,-1.4993688,7.4068937
963,1778598649803,1.709246,-1.3178208,0.040551145,-3.6995525,-1.3408492,8.324718
964,1778598649813,3.848395,-0.24946578,0.95279956,-2.5506678,-2.5190556,9.692293
965,1778598649823,3.848395,-0.24946578,0.95279956,-2.5506678,-2.5190556,9.692293
966,1778598649833,6.6505103,1.6130819,0.53698254,-1.5741998,-0.54825157,8.545241
967,1778598649843,6.6505103,1.6130819,0.53698254,-1.5741998,-0.54825157,8.545241
968,1778598649853,6.6505103,1.6130819,0.53698254,-1.5741998,-0.54825157,8.545241
969,1778598649863,6.6505103,1.6130819,0.53698254,-1.5741998,-0.54825157,8.545241
970,1778598649873,6.6505103,1.6130819,0.53698254,-1.5741998,-0.54825157,8.545241
971,1778598649883,3.913704,2.2854383,2.0533514,-1.7745636,0.61437774,2.791807
972,1778598649893,3.357635,2.177871,1.8132766,0.03726278,0.14752395,2.1273382
973,1778598649903,3.357635,2.177871,1.8132766,0.03726278,0.14752395,2.1273382
974,1778598649913,3.357635,2.177871,1.8132766,0.03726278,0.14752395,2.1273382
975,1778598649923,3.357635,2.177871,1.8132766,0.03726278,0.14752395,2.1273382
976,1778598649933,3.357635,2.177871,1.8132766,0.03726278,0.14752395,2.1273382
977,1778598649943,2.4409351,2.04268,0.9382865,1.5311338,1.4576772,1.1527027
978,1778598649953,1.174032,2.0845118,-0.27074748,0.9286679,1.8246545,0.21762075
979,1778598649963,0.92761505,2.0757918,-0.237087,0.93462384,1.4795157,-1.1707232
980,1778598649973,0.6461353,2.025972,-0.033111688,1.5670221,0.8051204,-1.7829629
981,1778598649983,0.22074458,1.7952268,0.24074577,2.1794145,0.26053402,-2.0986276
982,1778598649993,0.22074458,1.7952268,0.24074577,2.1794145,0.26053402,-2.0986276
983,1778598650003,0.30776188,1.4378278,0.18074225,2.9434543,-0.1226312,-2.7882943
984,1778598650013,0.30776188,1.4378278,0.18074225,2.9434543,-0.1226312,-2.7882943
985,1778598650023,0.30776188,1.4378278,0.18074225,2.9236012,0.13179417,-3.0940325
986,1778598650033,0.30776188,1.4378278,0.18074225,2.9236012,0.13179417,-3.0940325
987,1778598650043,0.67266124,0.9950581,0.16647314,2.6615398,0.7611381,-3.926489
988,1778598650053,1.3995328,0.81431586,0.31142062,2.7209466,0.6666067,-4.53262
989,1778598650063,1.7284545,0.7716304,0.49752906,2.87687,0.43264532,-4.8902817
990,1778598650073,2.4016645,0.75620264,0.7072974,3.3473887,-0.024129177,-5.3748507
991,1778598650083,2.8205912,0.7195542,0.6991262,3.563788,-0.20754147,-5.6920424
992,1778598650093,3.5470364,0.56363046,0.8204137,3.869526,-0.6270532,-5.896224
993,1778598650103,4.4366617,0.5447269,0.67607605,3.9765801,-0.9260717,-5.564066
994,1778598650113,5.605266,0.4025235,0.2947733,3.7665951,-1.0154108,-5.572313
995,1778598650123,6.539528,-0.100432694,-0.72424954,2.1357377,-1.2253957,-6.0796366
996,1778598650133,6.66545,-0.7443117,-0.9462137,-0.8671232,-1.1696543,-6.699512
997,1778598650143,5.250794,-2.3043418,0.49460202,-5.0029864,0.9451612,-7.498982
998,1778598650153,5.250794,-2.3043418,0.49460202,-5.0029864,0.9451612,-7.498982
999,1778598650163,2.8646183,-2.8929126,2.8052857,-5.1242433,2.1503985,-7.407963
1000,1778598650173,2.8646183,-2.8929126,2.8052857,-2.4727826,2.6537514,-6.932099
