id,timestamp,acc_x,acc_y,acc_z,gyro_x,gyro_y,gyro_z
0,1778597766173,0.002500146,0.058113147,-0.22854991,0.36285394,-0.72143185,-1.0595458
1,1778597766183,-0.01750102,0.07860215,-0.48143053,-0.25778514,-1.883603,-1.0636691
2,1778597766193,-0.035124,0.06683317,-0.31916496,-0.799928,-2.7780623,-1.0303769
3,1778597766203,-0.019330395,0.057503358,-0.08890763,-1.1189524,-3.2328515,-0.9815077
4,1778597766213,-0.012500729,0.060125455,-0.037685126,-1.3411547,-3.3476942,-0.9482156
5,1778597766223,0.020001167,0.020793896,-0.04908823,-1.5745052,-3.2710307,-0.9610438
6,1778597766233,0.020001167,0.020793896,-0.04908823,-2.4426973,-2.698192,-1.1253664
7,1778597766243,0.015122834,-0.0030489585,-0.03420931,-2.959184,-2.1143572,-1.1322387
8,1778597766253,-0.038538832,-0.058966853,0.13220283,-2.959184,-2.1143572,-1.1322387
9,1778597766263,-0.09988388,-0.13055639,0.23958716,-3.1528282,-1.5477798,-1.0135782
10,1778597766273,-0.8611478,-0.62540233,0.5757653,-2.8397598,-0.27015516,-0.08460484
11,1778597766283,-1.167873,-0.9440795,0.87919766,-2.6019804,0.33628133,0.3388775
12,1778597766293,-2.3523934,-3.111889,0.9992657,-1.6678149,2.8725939,2.7407997
13,1778597766303,-0.92298067,-5.3187246,-3.1989062,-2.1183279,1.0844386,3.7814085
14,1778597766313,-0.92298067,-5.3187246,-3.1989062,-8.524625,-15.5573635,1.4446963
15,1778597766323,1.0491467,-6.1698112,-3.3835511,-7.6074104,-15.66121,0.7890852
16,1778597766333,-0.24123359,-2.557588,0.805047,-4.521472,-16.056288,1.0708468
17,1778597766343,0.05689356,-2.0365822,1.0043269,7.3768086,-9.897544,-0.31337386
18,1778597766353,-0.120067984,-2.01963,-0.491736,10.684796,-0.7049385,-2.5824327
19,1778597766363,0.12549512,-4.332326,-6.671609,10.684796,-0.7049385,-2.5824327
20,1778597766373,-0.13147108,-4.019076,0.6325979,0.34574974,4.2404737,-4.810106
21,1778597766383,-0.44240385,-4.1495714,0.2148906,0.24113905,7.951022,-5.1735706
22,1778597766393,-0.44240385,-4.1495714,0.2148906,0.50854534,16.15815,-5.5188622
23,1778597766403,-0.68211293,-3.2421405,-1.050732,0.19746219,15.866614,-4.9483137
24,1778597766413,-0.19153556,-1.6644264,-0.0757971,-0.31871894,11.988536,-4.6002736
25,1778597766423,-0.19153556,-1.6644264,-0.0757971,0.4251622,6.732957,-4.265672
26,1778597766433,-0.16025324,-1.2744646,0.02841629,0.4251622,6.732957,-4.265672
27,1778597766443,-0.13366634,-0.61308455,-0.0023781876,0.8187121,5.212971,-3.8055377
28,1778597766453,-0.13366634,-0.61308455,-0.0023781876,0.8187121,5.212971,-3.8055377
29,1778597766463,-0.14098383,-0.42014647,-0.01603752,0.8570439,4.942663,-3.5094209
30,1778597766473,-0.14098383,-0.42014647,-0.01603752,0.8570439,4.942663,-3.5094209
31,1778597766483,-0.12580003,-0.27776012,-0.01323248,0.8810204,4.7687197,-3.2125404
32,1778597766493,-0.11518965,-0.1870231,-0.004024625,0.8810204,4.7687197,-3.2125404
33,1778597766503,-0.086285524,-0.06250364,0.0030489585,1.0155635,4.5604143,-2.688418
34,1778597766513,-0.086285524,-0.06250364,0.0030489585,1.0155635,4.5604143,-2.688418
35,1778597766523,-0.086285524,-0.06250364,0.0030489585,1.0155635,4.5604143,-2.688418
36,1778597766533,-0.052625023,-0.0190255,-0.023476979,1.5558738,3.9568796,-2.1380284
37,1778597766543,-0.080919355,-0.0046344167,-0.031709168,1.6145169,3.5413384,-1.9683605
38,1778597766553,-0.097871564,0.012256813,-0.050124876,1.602605,3.264311,-1.8842138
39,1778597766563,-0.1510454,0.04744179,-0.07110171,1.541213,2.7075074,-1.7623463
40,1778597766573,-0.23251356,0.09610317,-0.09006623,1.382388,1.8901697,-1.6082555
41,1778597766583,-0.34752026,0.14811839,-0.07719963,1.0065532,0.36987892,-1.3193163
42,1778597766593,-0.35898435,0.15702136,-0.006768687,0.59712076,-1.7484491,-0.8031351
43,1778597766603,-0.35898435,0.15702136,-0.006768687,0.59712076,-1.7484491,-0.8031351
44,1778597766613,-0.2912365,0.15598471,-0.0046344167,0.47525316,-2.4410176,-0.63713247
45,1778597766623,-0.26452765,0.1367153,0.015854584,0.35842517,-2.9323058,-0.5526803
46,1778597766633,-0.29794422,0.13854466,0.04524654,0.1385137,-3.7609446,-0.39278635
47,1778597766643,-0.31745756,0.152204,0.085309856,0.1385137,-3.7609446,-0.39278635
48,1778597766653,-0.3474593,0.17305888,0.10329871,0.098807454,-4.63494,-0.21319197
49,1778597766663,-0.35764283,0.20848778,0.072016396,0.0364992,-5.024672,-0.15943582
50,1778597766673,-0.286785,0.18696213,0.071040735,-0.17501289,-5.4153204,-0.13103059
51,1778597766683,-0.2306232,0.1595215,0.07293109,-0.42103887,-5.53169,-0.22999077
52,1778597766693,-0.18757193,0.0866514,0.055247124,-0.68279463,-5.3272033,-0.35231653
53,1778597766703,-0.17812014,-0.005488125,0.037014354,-1.018465,-4.7826166,-0.4166101
54,1778597766713,-0.18360828,-0.04841746,0.025306353,-1.2221886,-4.2919393,-0.38331795
55,1778597766723,-0.18159597,-0.10354263,0.0020732917,-1.682781,-2.9933925,-0.18234327
56,1778597766733,-0.18080322,-0.12653178,-0.009329813,-2.029447,-1.917506,0.07040222
57,1778597766743,-0.15958248,-0.13134913,-0.036343586,-2.3043363,-1.0644327,0.29764408
58,1778597766753,-0.1967188,-0.16183871,-0.059698608,-2.5928175,-0.21746802,0.5345071
59,1778597766763,-0.6361347,-0.5189327,-0.06896744,-2.9610167,0.83169305,0.95249164
60,1778597766773,-0.6395495,-1.8008977,0.30782285,-3.6474764,2.9639182,2.0109684
61,1778597766783,-0.6395495,-1.8008977,0.30782285,-4.243986,4.445572,2.7902796
62,1778597766793,0.69473565,-7.239508,1.0347555,-4.0016255,3.2578971,1.0349585
63,1778597766803,0.69473565,-7.239508,1.0347555,0.012370021,-5.251914,1.3142766
64,1778597766813,3.0788991,-7.7761245,-0.19251123,8.356331,-15.700611,1.69622
65,1778597766823,2.4769738,-6.0670614,-0.7327257,10.651657,-15.364177,-1.6085609
66,1778597766833,2.532038,-2.2907436,-7.462082,5.3808064,4.138154,-0.80573124
67,1778597766843,1.6452788,-1.1539698,-3.0309086,-1.4782939,5.349194,-1.0374019
68,1778597766853,1.6452788,-1.1539698,-3.0309086,-3.595553,6.2372394,-1.4924965
69,1778597766863,0.67229533,-0.8324266,-0.042746395,-4.2937717,7.3563447,-1.9075794
70,1778597766873,0.39538893,-0.60857207,0.073540874,-4.342183,7.766999,-2.118786
71,1778597766883,0.19616999,-0.4238662,0.14872819,-4.1928263,7.8349576,-2.1951442
72,1778597766893,0.04524654,-0.248795,0.17379062,-3.8460076,7.6443677,-2.181247
73,1778597766903,-0.055613004,-0.120189935,0.19068186,-3.4048102,7.2285213,-2.107027
74,1778597766913,-0.09707884,-0.026891813,0.18427904,-3.0364585,6.722114,-1.9985983
75,1778597766923,-0.11506769,0.017744938,0.1572043,-2.7860036,6.244112,-1.8984165
76,1778597766933,-0.10921369,0.07451654,0.06933331,-2.4039075,5.1482196,-1.6969837
77,1778597766943,-0.10579886,0.091529734,0.06183288,-2.180789,4.0269766,-1.5099062
78,1778597766953,-0.10579886,0.091529734,0.06183288,-2.0807598,3.5188892,-1.3933836
79,1778597766963,-0.13573962,0.06774786,0.14714272,-1.8807014,2.8162415,-1.1824824
80,1778597766973,-0.18665724,0.04189269,0.23611133,-1.2738068,1.4610369,-0.7535023
81,1778597766983,-0.17360769,0.05860098,0.23848954,-0.8753699,0.5911648,-0.4990769
82,1778597766993,-0.17360769,0.05860098,0.23848954,-0.8753699,0.5911648,-0.4990769
83,1778597767003,-0.17360769,0.05860098,0.23848954,-0.8753699,0.5911648,-0.4990769
84,1778597767013,-0.19873111,0.16519257,0.24666072,-0.71776664,0.22739458,-0.3924809
85,1778597767023,-0.19873111,0.16519257,0.24666072,-0.71776664,0.22739458,-0.3924809
86,1778597767033,-0.19873111,0.16519257,0.24666072,-0.71776664,0.22739458,-0.3924809
87,1778597767043,-0.16147284,0.2572711,0.17086363,0.5439755,-3.4707837,0.8772025
88,1778597767053,-0.091529734,0.25403923,0.09555435,0.8156578,-4.7499356,1.3429873
89,1778597767063,-0.091529734,0.25403923,0.09555435,0.8156578,-4.7499356,1.3429873
90,1778597767073,-0.03652652,0.23562351,0.017927876,0.7684685,-4.9538116,1.511128
91,1778597767083,-0.032440916,0.21708584,0.008902958,0.72784597,-4.7832274,1.5236506
92,1778597767093,-0.035489876,0.17610784,0.00060979166,0.6927212,-4.5185704,1.5381587
93,1778597767103,-0.045917314,0.13799585,-0.010732334,0.6389651,-4.244292,1.5648841
94,1778597767113,-0.036465544,0.11433593,-0.11317733,0.55741453,-4.1555634,1.5798502
95,1778597767123,-0.03945352,0.08787098,-0.28928518,0.1863139,-4.5277333,1.6230689
96,1778597767133,-0.044209898,0.05506419,-0.62564623,-0.45906523,-5.7047176,1.6740762
97,1778597767143,-0.1656804,-0.09457869,-0.71266353,-1.2516629,-7.293731,1.883603
98,1778597767153,-0.026830835,-0.068479605,-0.14153264,-1.6165022,-8.319679,2.147344
99,1778597767163,-0.005793021,-0.06884548,-0.00048783334,-1.5068518,-8.33098,2.2495112
100,1778597767173,0.033294626,-0.24751444,-0.5943639,-1.374905,-7.8332777,2.2924244
101,1778597767183,0.0851879,-0.588388,-1.800105,-1.5761851,-7.784561,2.292119
102,1778597767193,0.5136885,-1.7608955,-1.5446024,-2.2565362,-2.3333526,1.9448422
103,1778597767203,0.5136885,-1.7608955,-1.5446024,-0.29611692,3.8472292,1.5183055
104,1778597767213,0.30544463,-1.24428,0.92889565,1.1765264,5.970444,1.4173601
105,1778597767223,0.30544463,-1.24428,0.92889565,2.3561072,5.885687,1.7628044
106,1778597767233,1.8407782,-2.4080064,-0.59351027,3.081357,0.49510628,1.6794213
107,1778597767243,1.8407782,-2.4080064,-0.59351027,2.1357377,-1.5995506,-0.8049677
108,1778597767253,2.5022802,-4.217441,-0.009146876,2.1357377,-1.5995506,-0.8049677
109,1778597767263,2.9130359,-6.50666,-0.79602206,1.3946054,-2.447737,-4.6781588
110,1778597767273,2.2410452,-6.3687863,-0.30007848,3.1149547,-2.1644483,-4.500855
111,1778597767283,1.2700741,-4.9189453,-0.5742408,3.5443928,1.0703887,-2.17972
112,1778597767293,1.2700741,-4.9189453,-0.5742408,3.1732922,1.1577424,-1.0691669
113,1778597767303,1.1056743,-2.3609915,-0.76522756,2.7919595,0.34223726,-1.196685
114,1778597767313,0.78766793,-1.557225,-0.5852781,2.6791022,-0.40530908,-1.8487836
115,1778597767323,0.56137425,-1.2493412,-0.5046026,2.743854,-0.4908302,-2.1294763
116,1778597767333,0.2274523,-0.82809705,-0.56234986,2.8893926,0.019089539,-2.1281018
117,1778597767343,0.19641389,-0.6158896,-0.6018034,2.7262917,0.7067711,-1.9546161
118,1778597767353,0.23245259,-0.42874455,-0.5185059,2.2369885,1.5829046,-1.7570012
119,1778597767363,0.2648935,-0.27233297,-0.4367328,1.64674,2.3115141,-1.6977472
120,1778597767373,0.23702602,-0.16208263,-0.35117903,1.1887437,2.6650524,-1.7570012
121,1778597767383,0.16915621,-0.04311227,-0.35721594,0.75625116,2.620612,-1.8941404
122,1778597767393,0.11366516,0.039209604,-0.41429248,0.39721513,1.9588921,-2.0454822
123,1778597767403,0.041953668,0.059881546,-0.37239978,0.0035124752,0.53786683,-2.1998785
124,1778597767413,-0.048905294,0.013476395,-0.07549221,-0.05131268,0.18600847,-2.2024746
125,1778597767423,-0.048905294,0.013476395,-0.07549221,-0.05131268,0.18600847,-2.2024746
126,1778597767433,-0.06512575,-0.006341833,-0.0037807084,0.043829583,0.3538437,-2.1609359
127,1778597767443,-0.0757971,-0.015183813,-0.0032928751,0.07971791,0.44822237,-2.1195498
128,1778597767453,-0.079638794,-0.022989146,-0.0012805625,0.12614368,0.5766568,-2.0610592
129,1778597767463,-0.07311402,-0.033721477,-0.013293459,0.12614368,0.5766568,-2.0610592
130,1778597767473,-0.07311402,-0.033721477,-0.013293459,0.12614368,0.5766568,-2.0610592
131,1778597767483,-0.057381395,-0.035672814,-0.027684543,0.12614368,0.5766568,-2.0610592
132,1778597767493,-0.1355567,-0.020489,-0.017440042,0.18448131,0.95096445,-1.839468
133,1778597767503,-0.17354672,-0.017805915,-0.023233064,0.18417588,1.0170907,-1.6832392
134,1778597767513,-0.22464725,-0.021098793,-0.030550564,0.1881465,1.0563387,-1.5696182
135,1778597767523,-0.33081198,-0.036343586,-0.027989438,0.18203785,1.1323915,-1.264033
136,1778597767533,-0.3995355,-0.026403978,0.015061854,0.19120082,1.161102,-0.9839512
137,1778597767543,-0.7329696,-0.018049834,0.06079623,0.23900102,1.0009027,-0.5645922
138,1778597767553,-1.0268891,-0.01695221,0.060308397,0.322995,0.5027421,0.58184916
139,1778597767563,-0.7099805,-0.036892395,0.0646989,0.36667186,0.11255192,1.3788756
140,1778597767573,-0.29056573,-0.049515083,0.048112564,0.37888917,-0.25289822,1.8574885
141,1778597767583,-0.29056573,-0.049515083,0.048112564,0.38789943,-0.46609017,2.0615175
142,1778597767593,-0.24952675,-0.06823569,0.05116152,0.40546182,-0.70234233,2.2852468
143,1778597767603,-0.2031826,-0.07091877,0.047319833,0.40546182,-0.70234233,2.2852468
144,1778597767613,-0.12561709,-0.05585692,0.03469715,0.3914119,-0.80741113,2.3101397
145,1778597767623,-0.053478733,-0.042258564,0.027501604,0.37018433,-0.86009824,2.2380576
146,1778597767633,-0.03884373,-0.05049075,0.027257688,0.37018433,-0.86009824,2.2380576
147,1778597767643,-0.03884373,-0.05049075,0.027257688,0.25778514,-1.0479393,2.0178406
148,1778597767653,-0.06646729,-0.10872585,-0.0015854583,0.25778514,-1.0479393,2.0178406
149,1778597767663,-0.12897095,-0.17409553,-0.048173543,-0.05131268,-0.9584476,1.9715676
150,1778597767673,-0.26013714,-0.34788615,-0.18964522,-0.42149702,-0.7151705,2.1149683
151,1778597767683,0.7181517,-0.73278666,-1.3953253,-1.0795516,-1.1855367,1.9779817
152,1778597767693,0.9369449,-1.8502908,-2.254095,-4.8154507,-6.82703,0.89888823
153,1778597767703,-0.87419736,-2.2463505,-0.44581872,-6.9710417,-7.332521,1.7143933
154,1778597767713,-0.2581858,-3.4065402,-0.03457519,-8.052578,-5.1192036,3.1908545
155,1778597767723,2.2001283,-6.3557367,0.6281464,-6.2031837,-4.256662,1.6905695
156,1778597767733,2.2001283,-6.3557367,0.6281464,4.82385,4.4006734,0.6760751
157,1778597767743,2.8030293,-8.478116,0.42636633,3.2068899,8.299826,-1.7075211
158,1778597767753,2.9249878,-5.4968452,-0.6860156,0.46379945,8.638246,-2.912911
159,1778597767763,1.8225454,-2.645581,-0.48307696,-2.202322,6.9183545,-3.9063306
160,1778597767773,0.880966,-1.4411206,0.022867188,-3.9527562,5.1040845,-3.4376442
161,1778597767783,0.880966,-1.4411206,0.022867188,-3.9527562,5.1040845,-3.4376442
162,1778597767793,0.56911856,-0.9298713,0.29757833,-3.8440223,5.312695,-2.410169
163,1778597767803,0.36831418,-0.43014705,0.28794363,-3.4547484,4.9842024,-0.8857546
164,1778597767813,0.36831418,-0.43014705,0.28794363,-3.2453744,4.39487,-0.105068825
165,1778597767823,0.28611428,-0.19690172,0.23257454,-3.147025,3.8383718,0.3529274
166,1778597767833,0.3269093,-0.0065857503,0.2336112,-3.0279064,2.957046,0.6093381
167,1778597767843,0.3269093,-0.0065857503,0.2336112,-3.0279064,2.957046,0.6093381
168,1778597767853,0.3120304,0.16415593,0.304408,-2.557082,1.0435106,0.5296202
169,1778597767863,0.23556253,0.22312276,0.30977416,-2.196366,-0.11133019,0.4729624
170,1778597767873,0.11671413,0.24409962,0.24202631,-1.9280435,-0.96883225,0.5589417
171,1778597767883,0.08152915,0.24861206,0.20068243,-1.7293595,-1.8240436,0.78022766
172,1778597767893,0.08152915,0.24861206,0.20068243,-1.7293595,-1.8240436,0.78022766
173,1778597767903,0.10707942,0.22635466,0.19293809,-1.5209018,-2.7779098,1.165989
174,1778597767913,0.12409261,0.20696329,0.2054998,-1.4129313,-3.249345,1.3289373
175,1778597767923,0.1671439,0.23025733,0.22952558,-1.2805263,-3.6900842,1.459968
176,1778597767933,0.18055932,0.24355079,0.24367274,-1.1585059,-3.9907827,1.5305228
177,1778597767943,0.21300024,0.26568624,0.2534294,-0.8859073,-4.508796,1.6615535
178,1778597767953,0.28404096,0.3699606,0.24897793,-0.57818395,-4.922963,1.7582229
179,1778597767963,0.28404096,0.3699606,0.24897793,-0.57818395,-4.922963,1.7582229
180,1778597767973,0.3148964,0.45295325,0.23464784,-0.013744468,-5.208237,1.9659171
181,1778597767983,0.32587266,0.49655336,0.1367153,0.24449882,-4.7719264,2.0599904
182,1778597767993,0.29641974,0.5283845,0.08829784,0.34804046,-4.1109705,2.1190915
183,1778597768003,0.27995536,0.4978949,0.04610025,0.5151121,-3.0466905,2.1035144
184,1778597768013,0.22190319,0.41051176,-0.04451479,0.59559363,-0.9193522,1.7062993
185,1778597768023,0.17409553,0.37794888,-0.07091877,0.5681047,-0.020463986,1.4430164
186,1778597768033,0.119946025,0.3506912,-0.10329871,0.51251596,0.8881981,1.1771374
187,1778597768043,0.056710627,0.30196884,-0.13452004,0.39660427,2.2576053,0.7866417
188,1778597768053,0.056710627,0.30196884,-0.13452004,0.33735034,2.919783,0.6282749
189,1778597768063,0.013720313,0.2514781,-0.14354497,0.33735034,2.919783,0.6282749
190,1778597768073,-0.0009146876,0.10677453,-0.10732334,0.06352998,4.383416,0.29260445
191,1778597768083,0.00951275,0.062320713,-0.00048783334,0.03848451,4.3562326,0.21059579
192,1778597768093,0.013354438,0.051649354,0.011890938,0.10430524,3.832874,0.11407909
193,1778597768103,0.0082321875,0.030184686,-0.1501917,0.14202617,3.2690454,0.063988134
194,1778597768113,-1.1783004,-1.1922647,-5.838816,-3.0411925,1.1882856,0.59559363
195,1778597768123,-0.01683025,-0.670344,-0.5998521,-8.769123,-4.700761,2.005318
196,1778597768133,0.17440042,-0.40996295,0.56594765,-8.262105,-6.5721464,2.1606305
197,1778597768143,0.5225305,-0.8347438,-1.5154543,-7.270365,-6.6915708,2.2064452
198,1778597768153,0.53167737,-2.1403077,-1.8057761,-7.537466,2.1728477,1.2863295
199,1778597768163,0.5596668,-1.6217409,-0.65601385,-3.9493966,17.54527,-2.0732768
200,1778597768173,0.89560103,-0.8485861,1.8899273,1.9010127,-1.3655893,-2.4431555
201,1778597768183,0.89560103,-0.8485861,1.8899273,4.1798453,-6.2001295,-2.8748846
202,1778597768193,1.4960629,-2.8488247,-2.3999572,4.1798453,-6.2001295,-2.8748846
203,1778597768203,1.8601085,-2.8206525,-0.42843962,5.407685,-9.685574,-2.7672195
204,1778597768213,1.6824763,-2.5891755,0.49332145,6.966613,-7.6002326,-2.4796548
205,1778597768223,2.1676874,-3.2323837,0.21617115,8.285012,-6.817409,-1.2843442
206,1778597768233,2.5165493,-4.1693897,-0.69132084,7.4441566,-4.925101,-0.7296785
207,1778597768243,2.0584738,-4.9109573,-1.5474074,5.73297,-0.65133506,0.14110987
208,1778597768253,1.4363034,-5.072125,-2.1246972,1.5080736,2.4298692,1.9343048
209,1778597768263,1.6395469,-4.648686,-1.1864107,-0.5833763,2.170557,2.1449006
210,1778597768273,1.0348165,-3.2858622,-0.43972078,-0.45830166,1.3016012,0.95157534
211,1778597768283,0.6650998,-2.0999396,-0.13689823,0.89812464,0.66843927,-0.35720345
212,1778597768293,0.40343818,-1.5402118,-0.033355605,1.6807957,0.39645153,-1.0375546
213,1778597768303,0.22733033,-1.1779346,0.058905877,2.1571178,0.31856623,-1.3193163
214,1778597768313,0.16811956,-0.77724046,0.040673107,2.5793786,0.26251933,-1.3775011
215,1778597768323,0.14433768,-0.61808485,0.035550855,2.9278772,0.44058657,-1.3112222
216,1778597768333,0.089517415,-0.40496266,0.025062438,2.9278772,0.44058657,-1.3112222
217,1778597768343,0.038965687,-0.22903776,-0.040917024,3.0737212,0.732122,-1.266171
218,1778597768353,0.038965687,-0.22903776,-0.040917024,3.212693,1.2481505,-1.2038627
219,1778597768363,-0.034880083,-0.08659042,-0.3026396,3.234226,1.2641857,-1.1450669
220,1778597768373,-0.107628234,0.033477563,-0.8599282,2.8930578,-0.9263771,-1.1052079
221,1778597768383,-0.107628234,0.033477563,-0.8599282,2.8930578,-0.9263771,-1.1052079
222,1778597768393,-0.18604743,0.04853942,-0.8750511,2.3634377,-3.7346773,-1.1067351
223,1778597768403,-0.15555786,-0.006829667,-0.27123535,1.7310394,-6.1199536,-1.0703887
224,1778597768413,-0.15555786,-0.006829667,-0.27123535,1.7310394,-6.1199536,-1.0703887
225,1778597768423,-0.11909231,-0.022135438,0.041221917,1.6158913,-5.679978,-1.0361801
226,1778597768433,-0.11909231,-0.022135438,0.041221917,1.6158913,-5.679978,-1.0361801
227,1778597768443,-0.12726352,-0.025123417,0.03433127,1.6158913,-5.679978,-1.0361801
228,1778597768453,-0.100859545,-0.03866079,0.030367626,1.4167492,-3.993226,-1.0334313
229,1778597768463,-0.09671296,-0.052807957,0.015488708,1.2625058,-3.3339498,-1.0700831
230,1778597768473,-0.12689765,-0.05786923,0.017683959,1.1388055,-2.8585439,-1.0655017
231,1778597768483,-0.12689765,-0.05786923,0.017683959,0.9796751,-2.2748623,-1.0285443
232,1778597768493,-0.21696389,-0.025672229,0.03439225,0.817185,-1.875509,-0.98471475
233,1778597768503,-0.23342825,-0.029696856,0.027013771,0.6401868,-1.5140295,-0.9494373
234,1778597768513,-0.2666619,-0.010915271,0.02494048,0.36728272,-1.0714576,-0.9370673
235,1778597768523,-0.4551485,-0.0037197291,0.053173836,-0.0664316,-0.6951646,-0.5681047
236,1778597768533,-0.8156574,0.0024391667,0.0831146,-0.16982053,-0.79168135,-0.15241088
237,1778597768543,-0.8156574,0.0024391667,0.0831146,-0.16982053,-0.79168135,-0.15241088
238,1778597768553,-0.79218036,-0.014635001,0.03146525,-0.31948254,-0.8394816,0.34345898
239,1778597768563,-0.79218036,-0.014635001,0.03146525,-0.60139686,-1.0079277,1.4263704
240,1778597768573,-0.6708928,-0.022440333,0.09707884,-0.60139686,-1.0079277,1.4263704
241,1778597768583,-0.45508754,-0.0034148335,0.14482552,-0.53130007,-1.2889256,1.7496707
242,1778597768593,-0.25013652,0.0017074167,0.12342183,-0.4251622,-1.4566082,1.8390098
243,1778597768603,-0.15933856,0.0012195833,0.10872585,-0.39568797,-1.4515685,1.804954
244,1778597768613,-0.09098092,-0.06421106,0.084883004,-0.39843684,-0.752586,1.5793921
245,1778597768623,-0.089822315,-0.10287185,0.04006331,-0.44822237,-0.1742493,1.585348
246,1778597768633,-0.09415183,-0.13714215,0.006341833,-0.5439755,0.27565295,1.6464345
247,1778597768643,-0.09415183,-0.13714215,0.006341833,-0.5439755,0.27565295,1.6464345
248,1778597768653,-0.25672227,-0.35203275,0.014147166,-0.82726425,1.5375478,1.9501873
249,1778597768663,-0.46435636,-0.6537577,-0.057320416,-0.98532563,2.570979,2.2618814
250,1778597768673,-0.17263202,-4.4600773,-4.3300695,-4.752379,-2.7490463,2.981786
251,1778597768683,0.4735032,-7.095902,-0.24842913,-0.5112942,0.19822577,4.3310347
252,1778597768693,0.4735032,-7.095902,-0.24842913,-0.5112942,0.19822577,4.3310347
253,1778597768703,0.96682465,-7.0024204,0.28702894,2.1386392,5.952576,4.0646973
254,1778597768713,2.1731756,-7.3085365,-0.21757366,-0.41981715,13.8263235,0.18952094
255,1778597768723,1.7433335,-5.1409097,-0.043356188,-1.3895657,14.701694,-3.5159876
256,1778597768733,0.9969484,-3.0190787,-0.17049775,-1.1476631,12.550685,-4.7668867
257,1778597768743,0.5543006,-1.9518213,-0.2558076,-1.1476631,12.550685,-4.7668867
258,1778597768753,0.39008373,-1.4059967,-0.09311519,-0.9430232,5.648518,-4.5426993
259,1778597768763,0.19909698,-0.68747914,0.010671355,-1.3464997,2.5448647,-3.5501962
260,1778597768773,0.19909698,-0.68747914,0.010671355,-1.3464997,2.5448647,-3.5501962
261,1778597768783,0.13470298,-0.47173482,0.080919355,-1.6212363,1.9350684,-2.9132164
262,1778597768793,0.0807974,-0.19946286,0.14622805,-1.859932,1.4935656,-1.7507398
263,1778597768803,0.06329638,-0.123055965,0.14464259,-1.8443549,1.4185818,-1.3625349
264,1778597768813,0.023781875,0.015061854,0.11281146,-1.8443549,1.4185818,-1.3625349
265,1778597768823,0.0022562293,0.07183346,0.08854175,-1.6798794,1.0809261,-0.14889841
266,1778597768833,-0.0017683958,0.10171325,0.13049541,-1.6102408,1.03786,0.13683382
267,1778597768843,-0.0017683958,0.10171325,0.13049541,-1.6102408,1.03786,0.13683382
268,1778597768853,-0.005793021,0.11140894,0.13866661,-1.421178,0.98975444,0.5516113
269,1778597768863,-0.016281437,0.117811754,0.16379005,-1.185384,0.69989884,0.8173377
270,1778597768873,0.0020732917,0.12573905,0.1750712,-0.9931142,0.4266894,0.9653198
271,1778597768883,0.0020732917,0.12573905,0.1750712,-0.821461,0.16920967,1.0714576
272,1778597768893,0.0082321875,0.15647253,0.17135146,-0.6418667,-0.17241672,1.1925616
273,1778597768903,0.0082321875,0.15647253,0.17135146,-0.6418667,-0.17241672,1.1925616
274,1778597768913,0.0082321875,0.15647253,0.17135146,-0.42195517,-0.9773844,1.5007432
275,1778597768923,0.0082321875,0.15647253,0.17135146,-0.42195517,-0.9773844,1.5007432
276,1778597768933,-0.008110229,0.18013246,0.1343371,-0.3941608,-1.4943291,1.7098118
277,1778597768943,-0.008110229,0.18013246,0.1343371,-0.4120286,-2.4715607,2.1772764
278,1778597768953,0.020184105,0.14854525,0.102384016,-0.40317106,-2.8921416,2.4518604
279,1778597768963,0.022806209,0.1348859,0.0942738,-0.20586158,-3.4202344,2.7432432
280,1778597768973,0.03292875,0.1276294,0.10811607,-0.20586158,-3.4202344,2.7432432
281,1778597768983,0.04542948,0.107201375,0.08512692,0.1965459,-3.8224893,2.926808
282,1778597768993,0.04542948,0.107201375,0.08512692,0.1965459,-3.8224893,2.926808
283,1778597769003,0.048173543,0.07500438,0.0757971,0.3109304,-3.8876991,2.947425
284,1778597769013,0.03390442,-0.00073175,0.03469715,0.5652031,-4.0043745,2.980106
285,1778597769023,0.03603869,-0.0071345624,0.023050126,0.91522884,-3.7618608,2.927419
286,1778597769033,0.032136023,-0.0056710625,0.023537958,1.1158981,-3.3615913,2.8365529
287,1778597769043,0.032136023,-0.0056710625,0.023537958,1.1158981,-3.3615913,2.8365529
288,1778597769053,0.042990312,0.004085604,-0.000365875,1.3729197,-2.7096455,2.6716192
289,1778597769063,0.058844898,0.008476105,-0.02561125,1.4726434,-2.258827,2.5283713
290,1778597769073,-0.002500146,-0.15372847,-1.3755682,0.61391956,-0.4738787,2.3663392
291,1778597769083,-0.21964696,-0.37630245,-1.8111423,0.61391956,-0.4738787,2.3663392
292,1778597769093,0.17403455,-0.09463967,-0.17720546,-3.1309898,5.1644077,2.1299343
293,1778597769103,0.2672717,-0.14647196,-0.112750486,-3.3861787,5.2645893,1.6630806
294,1778597769113,0.20409729,-0.4561242,-1.0866487,-4.2675047,5.33041,1.2620476
295,1778597769123,0.029026084,-2.712902,-3.2359815,-9.234908,5.0066514,0.87979865
296,1778597769133,0.029026084,-2.712902,-3.2359815,-10.247417,4.964502,0.6215554
297,1778597769143,0.029026084,-2.712902,-3.2359815,-8.182845,11.2742815,-0.3933972
298,1778597769153,0.0071345624,-6.4856224,-3.7955875,2.6798658,7.624362,0.062155537
299,1778597769163,0.18751094,-2.7238173,2.2153122,5.6347737,3.696651,0.7440339
300,1778597769173,0.31209138,-3.506912,-0.22062263,8.113359,-1.890628,1.2768611
301,1778597769183,0.4663077,-4.568315,0.10293283,5.6285124,-10.213972,2.63512
302,1778597769193,0.5910101,-4.960411,-0.6433912,4.4312167,-9.785756,3.4295502
303,1778597769203,0.5910101,-4.960411,-0.6433912,1.5221235,-7.392997,4.4215956
304,1778597769213,0.42593947,-3.8657744,-0.62875617,-0.012217305,-3.9559634,5.073083
305,1778597769223,0.31135964,-2.7705884,-0.2437947,0.15347989,-0.7125743,5.362939
306,1778597769233,0.33343408,-1.9750541,-0.23970911,0.15347989,-0.7125743,5.362939
307,1778597769243,0.33343408,-1.9750541,-0.23970911,0.15347989,-0.7125743,5.362939
308,1778597769253,0.32971436,-1.3981303,-0.10500612,2.7488935,-0.1348485,3.0024028
309,1778597769263,0.181474,-0.99627763,-0.045673396,3.2249103,-0.66843927,1.7133243
310,1778597769273,0.023781875,-0.48661375,-0.07689473,3.3299792,-0.83459467,1.1456778
311,1778597769283,0.023781875,-0.48661375,-0.07689473,3.3551774,-0.9254609,0.7058548
312,1778597769293,0.0022562293,-0.08866371,-0.8573061,2.7910433,-1.7256943,0.19181168
313,1778597769303,0.0022562293,-0.08866371,-0.8573061,2.7910433,-1.7256943,0.19181168
314,1778597769313,-0.032684833,0.10970152,-0.6457084,0.023365596,-4.75131,-0.14721853
315,1778597769323,-0.032684833,0.10970152,-0.6457084,0.023365596,-4.75131,-0.14721853
316,1778597769333,-0.05847902,0.069760166,-0.27654052,-0.58123827,-4.991838,-0.12675454
317,1778597769343,-0.02414775,0.067199044,0.053234816,-0.5331327,-4.8768425,-0.14523321
318,1778597769353,-0.013415418,0.14037405,0.053417753,-0.4268421,-4.611727,-0.44303003
319,1778597769363,0.021464668,0.13366634,0.02853825,-0.41279218,-4.413196,-0.7985536
320,1778597769373,0.036282603,0.21507353,0.014513042,-0.49495357,-4.0986004,-1.3924674
321,1778597769383,0.036282603,0.21507353,0.014513042,-0.49495357,-4.0986004,-1.3924674
322,1778597769393,0.036282603,0.21507353,0.014513042,-0.49495357,-4.0986004,-1.3924674
323,1778597769403,-0.4750887,0.9822524,-0.04927117,-1.0894781,-3.8951821,-2.4210117
324,1778597769413,-0.638147,1.1457375,0.027501604,-2.9709432,-5.3672147,-2.6004534
325,1778597769423,-0.71376115,0.91456556,0.27080846,-3.7087157,-5.464037,-2.210874
326,1778597769433,-0.7165052,0.63125634,0.52521354,-3.676187,-4.4634395,-1.7400496
327,1778597769443,-0.7051631,0.40849942,0.6465011,-3.3664784,-3.2951598,-1.3735305
328,1778597769453,-0.5750945,0.23263553,0.56076443,-2.4378104,-0.8874345,-0.77198094
329,1778597769463,-0.44490403,0.17440042,0.39270583,-1.6673567,0.55924714,-0.56505036
330,1778597769473,-0.38483953,0.12573905,0.3091034,-1.1252137,1.4170547,-0.5590944
331,1778597769483,-0.3434347,0.09067602,0.2359284,-0.573297,2.1577287,-0.6038403
332,1778597769493,-0.31276214,0.067321,0.20190202,-0.29046643,2.5011878,-0.5925393
333,1778597769503,-0.31276214,0.067321,0.20190202,0.22556199,3.121216,-0.41691554
334,1778597769513,-0.2598932,0.0011586042,0.12427554,0.5342017,3.4639113,-0.22800545
335,1778597769523,-0.2598932,0.0011586042,0.12427554,1.0752755,3.9600866,0.23090707
336,1778597769533,-0.22726935,-0.09933506,0.036160648,1.2154691,4.0734024,0.40515637
337,1778597769543,-0.24159946,-0.40026724,-1.4952701,0.7626653,3.55829,0.591623
338,1778597769553,-0.41386563,-0.8023639,-2.6733267,-2.4588854,-0.114689946,0.96684694
339,1778597769563,-0.63076854,-0.8501106,-0.68705225,-2.4588854,-0.114689946,0.96684694
340,1778597769573,-0.94298184,-0.99188715,0.29141945,-4.813618,-1.1343768,2.3580925
341,1778597769583,-1.7080874,-1.9188316,-0.20385335,-4.052327,0.33200526,3.4616206
342,1778597769593,-3.5773427,-5.2170725,-1.5440534,-2.3996315,-1.2846496,6.556722
343,1778597769603,-3.2306151,-6.0506577,-1.0629889,-0.30863968,-2.0862575,8.437576
344,1778597769613,-1.3915446,-5.915162,0.6934551,3.8469238,3.8030944,6.5359526
345,1778597769623,-0.85633045,-5.67649,1.1417739,5.5255814,8.748354,2.5196664
346,1778597769633,-1.4396572,-5.0707836,0.5632036,6.4586782,11.744495,-1.5103643
347,1778597769643,-0.98969185,-4.0321865,-0.5629597,6.7054677,11.493888,-1.9201022
348,1778597769653,-0.98969185,-4.0321865,-0.5629597,5.4733524,9.042944,-1.668273
349,1778597769663,-0.38124177,-2.3982496,-0.86639196,3.8965566,7.241349,-1.5630515
350,1778597769673,-0.27952853,-1.7459556,-0.39776713,2.4298692,5.980982,-1.5439619
351,1778597769683,-0.2093415,-1.3789219,-0.22373258,0.9410379,4.8646255,-1.464244
352,1778597769693,-0.09518848,-1.0120102,-0.1568994,-0.012675454,4.120286,-1.4097242
353,1778597769703,0.05427146,-0.52106696,0.062686585,-1.1768318,2.437047,-1.426065
354,1778597769713,0.089700356,-0.33947104,0.07110171,-1.3535247,1.5483906,-1.4737124
355,1778597769723,0.089700356,-0.33947104,0.07110171,-1.3535247,1.5483906,-1.4737124
356,1778597769733,0.1167751,-0.22464725,0.11866546,-1.3874277,1.0622946,-1.5306755
357,1778597769743,0.11073817,-0.10220108,0.16726585,-1.1636983,0.7180721,-1.6403259
358,1778597769753,0.11518965,-0.020306062,0.15610667,-0.9625709,0.74372846,-1.7040086
359,1778597769763,0.08226089,-0.0001829375,0.1253122,-0.75243324,0.8414669,-1.7519615
360,1778597769773,0.05567398,0.005914979,0.09817646,-0.57910025,0.9401216,-1.7623463
361,1778597769783,0.038416874,0.015488708,0.066223375,-0.46074513,0.9848675,-1.749518
362,1778597769793,0.030672522,0.020732917,0.05189327,-0.39477167,0.9877691,-1.7270688
363,1778597769803,0.025794188,0.027501604,0.051771317,-0.3359759,0.9735665,-1.6924021
364,1778597769813,0.021403689,0.033294626,0.0453685,-0.2773328,0.94225967,-1.629483
365,1778597769823,0.025733208,0.033355605,0.054637335,-0.2773328,0.94225967,-1.629483
366,1778597769833,0.030062728,0.03000175,0.06250364,-0.20357084,0.8196284,-1.5184582
367,1778597769843,0.010183521,0.0582351,0.08585867,-0.1873829,0.75136423,-1.4813483
368,1778597769853,0.002500146,0.06512575,0.11592139,-0.17302758,0.5514586,-1.3556627
369,1778597769863,0.002500146,0.06512575,0.11592139,-0.14309518,0.3895793,-1.2362386
370,1778597769873,0.0075004376,0.052625023,0.16189969,0.08659015,-0.089491755,-0.9257663
371,1778597769883,0.030977417,0.08646846,0.18318142,-0.04444045,0.18295415,-1.0757337
372,1778597769893,0.055552024,0.1086039,0.19531627,0.15836681,-0.26465738,-0.8339838
373,1778597769903,0.057747275,0.11207971,0.22111045,0.3184135,-0.66859204,-0.65026605
374,1778597769913,0.057747275,0.11207971,0.22111045,0.4653266,-1.0690142,-0.5412266
375,1778597769923,0.06335735,0.12128756,0.18842563,0.68294734,-1.7643316,-0.3791946
376,1778597769933,0.06335735,0.12128756,0.18842563,0.68294734,-1.7643316,-0.3791946
377,1778597769943,0.034087352,0.118360564,0.093664,0.68294734,-1.7643316,-0.3791946
378,1778597769953,0.021708583,0.11866546,0.064272046,0.91996306,-2.7217102,-0.075289145
379,1778597769963,0.006829667,0.11171384,0.045185562,0.91354895,-2.7398834,0.01160644
380,1778597769973,0.0041465834,0.096042186,0.031221334,0.8901834,-2.5996897,0.047647487
381,1778597769983,0.002866021,0.08280971,0.018232772,0.8671232,-2.479044,0.047036625
382,1778597769993,0.0023172083,0.055430062,-0.009207855,0.80924374,-2.2656991,0.035888333
383,1778597770003,-0.0017074167,0.03195308,-0.027989438,0.6956228,-2.1297817,0.011453724
384,1778597770013,-0.082077965,-0.052381106,-0.33038515,0.44791695,-2.112983,0.04153884
385,1778597770023,-0.556313,-1.0694526,-3.7386937,-2.2139285,-4.01705,0.6418667
386,1778597770033,-0.033416584,-1.0530493,-2.0972564,-6.9682927,-7.58267,1.7704402
387,1778597770043,0.2382456,-1.2784283,-1.1858618,-8.145124,-7.9786634,2.2441661
388,1778597770053,1.1305537,-2.5425873,-2.391298,-7.7538652,10.231076,0.50426924
389,1778597770063,1.5281379,-4.6607594,-2.4417279,-7.7538652,10.231076,0.50426924
390,1778597770073,0.49161404,-3.2654343,-1.8167524,0.9379836,12.838402,-0.91965765
391,1778597770083,0.17933974,-1.4010574,1.0581715,6.256024,1.3177891,-0.13408493
392,1778597770093,0.25190493,-1.71821,0.9590193,7.38307,-1.4895949,-0.02367103
393,1778597770103,0.9283469,-3.5725863,0.59973013,7.667428,-4.5335364,-0.27000242
394,1778597770113,1.0667696,-5.7595434,0.42575654,6.9098024,-4.744896,0.32925636
395,1778597770123,1.4173998,-6.183044,0.36868006,5.786268,-5.272378,0.82711154
396,1778597770133,1.5552737,-6.299087,0.3949011,2.909093,-6.7271533,0.8174904
397,1778597770143,1.2193395,-5.649171,0.80894965,1.5114334,-6.369034,0.5319109
398,1778597770153,1.2193395,-5.649171,0.80894965,1.5114334,-6.369034,0.5319109
399,1778597770163,0.13762999,-2.0930488,0.115555525,1.0218248,-4.155869,0.30925053
400,1778597770173,-0.20818289,-1.1609215,-0.7707157,1.6959146,-6.8143544,-0.03145956
401,1778597770183,-0.26593015,-0.8991988,-0.6560749,2.3651175,-8.702845,-0.5467244
402,1778597770193,-0.28782168,-0.80157113,-0.42362225,2.4352143,-8.817229,-0.67073005
403,1778597770203,-0.28696796,-0.5864976,0.05573496,2.5418103,-7.6477275,-0.9305005
404,1778597770213,-0.2584297,-0.3816686,0.20598765,2.682462,-5.7112846,-1.1455251
405,1778597770223,-0.2494048,-0.19781642,0.21556135,2.946814,-2.8591547,-1.6694947
406,1778597770233,-0.20238985,-0.08848077,0.17909582,2.946814,-2.8591547,-1.6694947
407,1778597770243,-0.24025792,-0.045612417,0.087566085,3.0384438,-1.21608,-1.9007072
408,1778597770253,-0.3259946,-0.065674566,-0.056344748,2.9808698,-0.7903069,-1.8245018
409,1778597770263,-0.5036879,0.023964813,-0.32818988,2.491872,-1.2592987,-1.6116152
410,1778597770273,-0.89139354,0.35434994,-0.357094,1.788308,-2.4097106,-1.4926492
411,1778597770283,-1.3809342,1.0459757,-0.014817937,0.9822713,-4.757113,-1.5578591
412,1778597770293,-1.5224059,1.4650855,0.38941297,0.74174315,-6.948134,-1.3238977
413,1778597770303,-1.4232538,1.4680735,0.22031774,0.88407475,-6.7809095,-1.1684325
414,1778597770313,-1.2508047,1.355506,-0.24684367,0.6215554,-5.7908497,-0.7287622
415,1778597770323,-0.81504756,1.0102419,-0.5388729,-0.08735373,-5.401881,-0.46578476
416,1778597770333,-0.5996082,0.73479897,-0.5216158,-0.84681195,-4.9411364,-0.2350304
417,1778597770343,-0.4679541,0.3093473,-0.31867713,-0.84681195,-4.9411364,-0.2350304
418,1778597770353,-0.4679541,0.3093473,-0.31867713,-0.84681195,-4.9411364,-0.2350304
419,1778597770363,-0.42618343,0.1515942,-0.21013421,-2.288912,-2.6795604,0.80832744
420,1778597770373,-0.16324124,-0.06006448,-0.002134271,-2.5746443,-1.8826867,1.0823005
421,1778597770383,-0.134642,-0.072321296,0.068479605,-2.6293168,-1.2541064,1.2310462
422,1778597770393,-0.15830192,-0.12738548,0.4241711,-2.6293168,-1.2541064,1.2310462
423,1778597770403,-0.15830192,-0.12738548,0.4241711,-2.2748623,0.5589417,1.6943874
424,1778597770413,-0.18190086,-0.1847059,0.532775,-1.6358972,1.4692836,2.0653355
425,1778597770423,-0.17251006,-0.2271474,0.49393123,-1.0839803,1.9297233,2.3776402
426,1778597770433,-0.14897211,-0.23598938,0.43337893,-0.7984009,1.9671388,2.5248587
427,1778597770443,-0.052990895,-0.26221043,-0.031343292,-0.5045747,1.562746,2.6482534
428,1778597770453,0.24074577,-0.46063665,-0.8951742,-2.397188,1.0592403,2.0645719
429,1778597770463,0.03561183,-0.6390007,-0.7966318,-3.8475347,1.3926201,1.830305
430,1778597770473,0.03561183,-0.6390007,-0.7966318,-3.8475347,1.3926201,1.830305
431,1778597770483,-0.80718124,-1.2200712,-0.88950306,-6.074444,3.5243871,2.77455
432,1778597770493,-0.80718124,-1.2200712,-0.88950306,-6.660111,4.171904,2.9999592
433,1778597770503,-2.1880546,-4.4078183,-2.7349765,-7.6229873,3.4119878,5.6627207
434,1778597770513,-2.0143247,-3.954133,0.3409955,-1.758681,3.254232,7.4742417
435,1778597770523,-1.481184,-3.0818262,1.8584621,-1.758681,3.254232,7.4742417
436,1778597770533,-0.58411944,-4.028223,1.0716479,4.030947,13.542119,8.798292
437,1778597770543,-0.6097917,-4.135485,0.82071865,4.0356812,16.237715,7.7909756
438,1778597770553,-0.10811607,-4.15884,0.32410428,4.030489,18.014874,3.6931386
439,1778597770563,-0.2967856,-4.633868,0.1214705,5.0333767,15.767806,1.2508993
440,1778597770573,-0.55484945,-4.4534917,-0.26538134,5.689599,12.671483,0.35628715
441,1778597770583,-0.4455748,-3.867543,-0.28172377,5.252219,9.88884,0.04337143
442,1778597770593,-0.2680644,-3.4489815,-0.1949504,4.448321,8.050135,-0.21594086
443,1778597770603,-0.041221917,-2.6366782,-0.055978876,3.367853,5.2045717,-0.6783658
444,1778597770613,0.09317617,-2.0445094,-0.0010366458,2.3953552,2.3866506,-1.1916454
445,1778597770623,0.1243975,-1.3678846,0.1308613,1.7658587,0.38163805,-1.5091426
446,1778597770633,0.1243975,-1.3678846,0.1308613,1.1707232,-1.9856175,-1.794264
447,1778597770643,0.16994894,-0.86425775,0.10512808,0.9228647,-3.0344732,-1.8148806
448,1778597770653,0.15470415,-0.65936774,0.04494165,0.9228647,-3.0344732,-1.8148806
449,1778597770663,0.15470415,-0.65936774,0.04494165,0.7307475,-3.437186,-1.7348573
450,1778597770673,0.1387276,-0.30672523,0.017562,0.22724187,-3.8986948,-1.3385584
451,1778597770683,0.14616705,-0.24672171,0.017379062,0.22724187,-3.8986948,-1.3385584
452,1778597770693,0.14616705,-0.24672171,0.017379062,0.04260785,-3.7823248,-1.144456
453,1778597770703,0.12427554,0.0075004376,0.0086590415,-0.05100725,-3.4336736,-1.0877982
454,1778597770713,0.097017854,0.048661377,-0.015000875,-0.12599096,-3.1302261,-1.0160216
455,1778597770723,-0.010305479,0.19787739,-0.54423904,-0.42012256,-1.9843957,-0.82940227
456,1778597770733,-0.047075916,0.21702486,-0.5857659,-0.99280876,0.03145956,-0.43508878
457,1778597770743,-0.0131715005,0.1683025,-0.33093393,-1.5877914,2.047315,0.014049901
458,1778597770753,0.038172957,0.088968605,-0.10378654,-1.8596265,3.0847168,0.29077184
459,1778597770763,0.038172957,0.088968605,-0.10378654,-1.7843374,3.1305315,0.34605515
460,1778597770773,0.14793546,0.061101127,0.09939604,-1.6911805,3.1322114,0.34055737
461,1778597770783,0.15909465,0.0670161,0.10037171,-1.5870279,3.312264,0.31597003
462,1778597770793,0.25800288,0.12421457,0.122629106,-1.4504995,3.3534975,0.3680463
463,1778597770803,0.25800288,0.12421457,0.122629106,-1.300074,3.119078,0.4970916
464,1778597770813,0.30946928,0.15342359,0.17244908,-1.141249,2.5405886,0.6962337
465,1778597770823,0.30946928,0.15342359,0.17244908,-1.141249,2.5405886,0.6962337
466,1778597770833,0.30946928,0.15342359,0.17244908,-1.141249,2.5405886,0.6962337
467,1778597770843,0.30946928,0.15342359,0.17244908,-1.141249,2.5405886,0.6962337
468,1778597770853,0.30007848,0.1636681,0.18202282,0.014049901,-1.120785,1.7095064
469,1778597770863,0.28544348,0.14153264,0.14409378,0.014049901,-1.120785,1.7095064
470,1778597770873,0.25623447,0.117811754,0.10854292,0.26847526,-1.4998269,1.8325957
471,1778597770883,0.22824502,0.12500729,-0.46929568,0.39370266,-1.07665,1.8597792
472,1778597770893,0.20891462,0.12561709,-0.68540585,0.05955936,-0.3013093,1.8446603
473,1778597770903,0.12598296,0.09354204,-0.36367974,-1.3501649,2.42147,1.7953329
474,1778597770913,0.15433827,0.066650234,-0.0014025208,-1.7075211,2.7546968,1.727985
475,1778597770923,0.15269183,0.06457694,0.11403105,-1.698969,2.4874432,1.6557503
476,1778597770933,0.14744763,0.071467586,0.14354497,-1.5092953,1.6668985,1.511128
477,1778597770943,0.14208147,0.07677277,0.14006914,-1.40667,1.2793045,1.4350752
478,1778597770953,0.11732392,0.08000467,-0.021037813,-1.40667,1.2793045,1.4350752
479,1778597770963,-0.5409462,-0.36136255,-2.3047686,-1.1963795,0.50762904,1.2658654
480,1778597770973,-0.042746395,-0.45191658,-0.96536124,-5.1198144,3.0091221,1.7446312
481,1778597770983,0.49600452,-0.19440159,0.4490506,-5.3381987,1.5117388,1.2331842
482,1778597770993,0.43386677,-0.48704064,-0.6877841,-5.351943,0.9764681,0.93554014
483,1778597771003,1.352518,-4.7632656,-2.312574,-11.980747,2.702468,0.43768495
484,1778597771013,1.352518,-4.7632656,-2.312574,-13.523182,10.392956,-1.4094188
485,1778597771023,1.2209859,-3.3464148,-0.69296724,5.920506,2.5126414,-2.7554605
486,1778597771033,0.4414282,-1.987799,-0.0075004376,5.920506,2.5126414,-2.7554605
487,1778597771043,0.4414282,-1.987799,-0.0075004376,4.809342,-8.130922,-2.1975877
488,1778597771053,0.8153525,-2.742355,-1.943711,2.8098273,-9.864252,-1.9607247
489,1778597771063,0.8153525,-2.742355,-1.943711,2.8098273,-9.864252,-1.9607247
490,1778597771073,0.93981093,-4.083836,0.5812534,4.6439505,-2.1267273,-0.6389651
491,1778597771083,1.0218279,-4.0455413,0.49484593,5.0720143,-2.2653937,0.28053987
492,1778597771093,1.0307918,-4.0260887,0.022501312,4.68778,-2.8787024,1.4025466
493,1778597771103,0.7623616,-3.6978378,-0.2883095,4.2745295,-2.9353602,1.9872974
494,1778597771113,0.2125124,-3.1214626,-0.48801628,4.117232,-3.527594,2.4121542
495,1778597771123,-0.08250481,-2.280621,-0.48667476,3.8983893,-4.427857,2.8780916
496,1778597771133,-0.207817,-1.3456882,-0.048173543,3.7798815,-4.6053133,3.061504
497,1778597771143,-0.207817,-1.3456882,-0.048173543,3.6025777,-4.6347876,3.683212
498,1778597771153,-0.204829,-1.0747578,0.07616298,3.8212676,-4.373948,4.053091
499,1778597771163,-0.14537434,-0.5683868,-0.025916148,4.1150937,-3.036611,4.227951
500,1778597771173,-0.14537434,-0.5683868,-0.025916148,4.1150937,-3.036611,4.227951
501,1778597771183,-0.15275282,-0.46283188,-0.08384635,4.1308236,-2.6691756,4.1813726
502,1778597771193,-0.24013597,-0.23458686,-0.9008453,3.5592062,-3.015689,4.160756
503,1778597771203,-0.07030898,0.0032928751,-0.47075918,1.6143641,-5.3004775,3.525456
504,1778597771213,-0.07030898,0.0032928751,-0.47075918,1.6143641,-5.3004775,3.525456
505,1778597771223,0.09781059,0.053600688,-0.14909407,1.311375,-5.352707,2.6148088
506,1778597771233,0.17909582,0.1261659,-0.03561183,0.75747293,-3.7638462,-0.03894266
507,1778597771243,0.16793664,0.1390325,-0.093359105,0.75747293,-3.7638462,-0.03894266
508,1778597771253,0.1015913,0.22361061,-0.040002335,-0.3368922,-1.8837557,-2.4000895
509,1778597771263,-0.043722063,0.1674488,0.04744179,-0.9680687,-0.37018433,-3.6887097
510,1778597771273,-0.043722063,0.1674488,0.04744179,-1.2854131,0.9082039,-4.505742
511,1778597771283,-0.24257512,0.1908648,0.13189794,-1.1670581,2.6607764,-5.051703
512,1778597771293,-0.53167737,0.2025728,0.22726935,-0.86070913,3.6635115,-5.1187453
513,1778597771303,-0.92792004,0.06372323,0.11049425,-0.86070913,3.6635115,-5.1187453
514,1778597771313,-0.92792004,0.06372323,0.11049425,-0.5439755,3.8073704,-4.1778603
515,1778597771323,-1.0573177,0.18720604,-0.042868353,-0.58383447,3.545462,-3.726889
516,1778597771333,-0.97536176,0.2309891,-0.07573613,-0.7473936,2.9683468,-2.8764117
517,1778597771343,-0.901638,0.24794129,-0.09909115,-0.7473936,2.9683468,-2.8764117
518,1778597771353,-0.7657764,0.25647837,-0.13537374,-1.0651963,2.0157025,-1.9509509
519,1778597771363,-0.6940649,0.27727225,-0.15537491,-1.2632693,1.3900238,-1.6204728
520,1778597771373,-0.6940649,0.27727225,-0.15537491,-1.2632693,1.3900238,-1.6204728
521,1778597771383,-0.4114874,0.24422157,-0.070735835,-1.7461584,-0.11346822,-1.071763
522,1778597771393,-0.31507936,0.21568331,-0.043600105,-1.8664987,-0.48747048,-0.9621128
523,1778597771403,-0.100859545,0.14653294,0.023720896,-2.0399845,-1.2060007,-0.71791935
524,1778597771413,-0.100859545,0.14653294,0.023720896,-1.9917262,-1.3336716,-0.644921
525,1778597771423,-0.06104015,0.09817646,0.068052754,-1.8585575,-1.3729197,-0.52656585
526,1778597771433,-0.09500554,0.072138354,0.06366225,-1.8585575,-1.3729197,-0.52656585
527,1778597771443,-0.09500554,0.072138354,0.06366225,-1.6649132,-1.1968378,-0.3559817
528,1778597771453,-0.1604362,0.0065857503,-0.030245667,-1.4138476,-0.72265357,-0.14340061
529,1778597771463,-0.26007617,-0.032684833,-0.08384635,-1.035722,0.13118331,0.26160303
530,1778597771473,-0.5704601,-0.18476687,-0.21665898,-1.0013609,0.28221974,0.69058317
531,1778597771483,-0.8971865,-0.5907662,-1.1335417,-1.5549575,-0.9943359,1.4984524
532,1778597771493,-1.6990626,-2.6952794,-3.527401,-7.3340483,-13.943915,3.5240817
533,1778597771503,-4.184451,-3.5189857,0.3831321,-7.3951344,-14.453683,7.8969603
534,1778597771513,-3.4263587,-5.149203,1.4994167,-7.3951344,-14.453683,7.8969603
535,1778597771523,-2.587834,-6.280793,-0.3641676,-1.5247196,-7.699651,4.048815
536,1778597771533,-2.1241484,-7.585931,-2.8633988,1.6136005,-12.40255,1.6412421
537,1778597771543,-0.89303994,-6.4679995,-2.531428,2.874121,1.5238034,-1.4909693
538,1778597771553,-1.0481099,-3.5406334,0.9713372,5.679978,7.371158,-0.68737614
539,1778597771563,-0.33349505,-2.6007614,0.44892865,7.4334664,9.522931,-0.03436117
540,1778597771573,0.032745812,-2.0192642,0.08238286,7.2902184,11.346364,-0.3510948
541,1778597771583,0.20263378,-1.3897152,-0.12683667,7.2902184,11.346364,-0.3510948
542,1778597771593,0.20263378,-1.3897152,-0.12683667,6.3287168,10.970681,-0.9184359
543,1778597771603,0.19848719,-1.3239797,-0.13939838,6.1454573,10.801014,-0.98853266
544,1778597771613,0.16433886,-0.63625664,-0.65162337,4.5970664,9.13442,-1.3070989
545,1778597771623,0.11598238,-0.4776498,-0.63503706,3.4892623,7.8334303,-1.3979651
546,1778597771633,0.033538543,-0.28227258,-0.20598765,1.1478158,4.477642,-1.5250251
547,1778597771643,0.04049017,-0.1595215,-0.09000525,0.38789943,3.0607402,-1.4824172
548,1778597771653,0.046892982,-0.081346214,-0.04610025,0.12232576,2.5244007,-1.4634804
549,1778597771663,0.023842854,-0.013659334,-0.022257395,-0.21288654,1.7986927,-1.4149166
550,1778597771673,0.011829958,0.014086187,-0.005183229,-0.39187005,1.4558446,-1.3584116
551,1778597771683,0.020001167,0.05921077,0.075675145,-0.62980205,1.066418,-1.2139419
552,1778597771693,0.013293459,0.072321296,0.05744238,-0.73624533,0.9388999,-1.0942124
553,1778597771703,0.005366167,0.08055348,0.063113436,-0.8191703,0.8165741,-0.9841039
554,1778597771713,0.0052442085,0.08055348,0.073845774,-0.88621277,0.6722572,-0.8516989
555,1778597771723,0.0023781876,0.09177365,0.066345334,-0.91889405,0.56123245,-0.767094
556,1778597771733,0.0013415418,0.12482436,0.048905294,-1.0238101,0.35934147,-0.59559363
557,1778597771743,0.0014025208,0.12580003,0.04451479,-1.1213958,0.22220223,-0.47708577
558,1778597771753,0.01841571,0.13336144,0.09622513,-1.3061826,-0.005497787,-0.20937407
559,1778597771763,0.01841571,0.13336144,0.09622513,-1.4285084,-0.2171626,0.03176499
560,1778597771773,0.034636166,0.13939838,0.12311694,-1.5291485,-0.50671273,0.23289238
561,1778597771783,0.034636166,0.13939838,0.12311694,-1.5291485,-0.50671273,0.23289238
562,1778597771793,0.034636166,0.13939838,0.12311694,-1.5291485,-0.50671273,0.23289238
563,1778597771803,0.10671354,0.10890879,0.20165811,-1.4873042,-1.9640845,0.838718
564,1778597771813,0.10671354,0.10890879,0.20165811,-1.3628404,-2.34389,1.0048733
565,1778597771823,0.14708175,0.102688916,0.16318026,-1.0574077,-2.7224736,1.2066116
566,1778597771833,0.15683842,0.10665256,0.16031423,-0.99464136,-2.780506,1.2377657
567,1778597771843,0.17025384,0.11153089,0.13311753,-0.7857254,-2.9194777,1.3191634
568,1778597771853,0.17025384,0.11153089,0.13311753,-0.7857254,-2.9194777,1.3191634
569,1778597771863,0.17287594,0.10903075,0.11122601,-0.6731735,-2.9321532,1.35551
570,1778597771873,0.17421748,0.09921311,0.08116327,-0.5491679,-2.8142562,1.3545936
571,1778597771883,0.18214478,0.0918956,0.07646788,-0.49189925,-2.727208,1.3104587
572,1778597771893,0.17208321,0.080614455,0.059881546,-0.39538252,-2.6108382,1.1968378
573,1778597771903,0.16433886,0.07713865,0.058418043,-0.33414328,-2.5447118,1.0966558
574,1778597771913,0.16433886,0.07713865,0.058418043,-0.33414328,-2.5447118,1.0966558
575,1778597771923,-0.18019344,-0.13482493,-0.9126752,-0.5036584,-2.3703098,0.9505063
576,1778597771933,-0.6693683,-0.68071043,-2.8352263,-2.1786509,-1.4220943,1.2663237
577,1778597771943,-0.3606918,-1.1535429,-1.9667002,-8.3276205,1.6140587,2.2304218
578,1778597771953,-0.07469948,-0.7981563,0.060918186,-9.490555,1.4967725,2.2322543
579,1778597771963,-0.4455748,-1.1873254,-0.799071,-9.254303,0.18753563,2.3160956
580,1778597771973,-1.9067577,-4.6525273,-6.7094765,-10.605843,-7.5780888,3.753767
581,1778597771983,-1.2336695,-4.0593834,-2.4509356,4.001778,-16.611565,4.937624
582,1778597771993,-0.056954544,-1.3314191,1.0588423,4.001778,-16.611565,4.937624
583,1778597772003,-0.60284007,-2.6678386,-0.91743153,4.0619483,-7.8403025,4.727028
584,1778597772013,-0.75571483,-4.680944,1.3630064,4.1438046,3.340822,4.7696357
585,1778597772023,-0.75571483,-4.680944,1.3630064,6.281222,10.043846,1.2786937
586,1778597772033,-0.75571483,-4.680944,1.3630064,6.7399817,11.790769,-1.1001683
587,1778597772043,-3.9308393,-4.6267943,0.045002624,-0.16035213,0.9757045,-1.781894
588,1778597772053,-2.619726,-3.09079,0.21519548,-0.16035213,0.9757045,-1.781894
589,1778597772063,-1.8775486,-1.8999888,0.21184163,1.1100949,-0.43142357,-2.883742
590,1778597772073,-1.4678905,-1.454719,0.12226323,1.486846,-0.4728097,-2.7514899
591,1778597772083,-0.8749291,-0.88828355,0.10031073,2.3803892,-1.1540772,-2.5657868
592,1778597772093,-0.6679658,-0.62717074,0.11573846,3.132975,-1.560608,-2.5286767
593,1778597772103,-0.4028284,-0.41557303,-0.20824386,3.8076758,-1.8724546,-2.499966
594,1778597772113,0.03079448,-0.14452063,-0.8495008,3.8209622,-4.5474334,-2.931695
595,1778597772123,0.066650234,-0.08470006,-0.81382793,3.6236527,-5.6450057,-3.1597004
596,1778597772133,-0.1009815,-0.09140777,-0.46508813,3.037222,-7.7294307,-3.6306777
597,1778597772143,-0.25245374,-0.09762765,-0.13073933,2.7710376,-8.085107,-3.7116172
598,1778597772153,-0.3064203,-0.014147166,0.006097917,2.6105325,-7.762723,-3.7187948
599,1778597772163,-0.406792,0.20848778,0.015000875,2.563496,-7.1967564,-3.7459784
600,1778597772173,-0.51503,0.60875505,-0.024635585,2.2009475,-6.55153,-4.1766386
601,1778597772183,-0.51503,0.60875505,-0.024635585,1.9246837,-6.387512,-4.284303
602,1778597772193,-0.45228252,0.5052734,-0.04610025,1.9246837,-6.387512,-4.284303
603,1778597772203,-0.5686307,0.2037314,-1.2681837,0.43768495,-6.300006,-4.0052905
604,1778597772213,-0.5686307,0.2037314,-1.2681837,0.43768495,-6.300006,-4.0052905
605,1778597772223,-0.58753425,0.26519838,-1.2164735,-1.148274,-6.2602997,-3.4869716
606,1778597772233,-0.5374704,0.5577155,-0.23763582,-2.614656,-3.9645154,-2.3202188
607,1778597772243,-0.5374704,0.5577155,-0.23763582,-2.614656,-3.9645154,-2.3202188
608,1778597772253,-0.49502888,0.58814406,0.03725827,-2.5192082,-2.4616342,-1.749518
609,1778597772263,-0.49862665,0.48783335,0.36154547,-2.5192082,-2.4616342,-1.749518
610,1778597772273,-0.54125106,0.44398934,0.45862433,-1.4372132,-2.238821,-0.24266621
611,1778597772283,-0.4753326,0.383437,0.43514732,-1.1276573,-3.0369165,0.24587326
612,1778597772293,-0.37575364,0.30196884,0.37282664,-0.8390234,-3.5614972,0.79427755
613,1778597772303,-0.283919,0.2072682,0.3096522,-0.6516405,-3.3473887,1.1566733
614,1778597772313,-0.17427845,0.103359684,0.22476922,-0.5047274,-2.730873,1.4144585
615,1778597772323,-0.10287185,0.029940773,0.14500846,-0.3747658,-1.4517213,1.5861117
616,1778597772333,-0.03500204,-0.0027440626,0.005732042,-0.39935315,-0.4888449,1.6113098
617,1778597772343,0.08915155,-0.10116444,-0.21550037,-0.8949176,1.8341229,1.3920091
618,1778597772353,0.0031709166,-0.11427496,-0.041221917,-1.1792754,3.4213035,1.2331842
619,1778597772363,-0.076102,-0.1235438,0.096469045,-1.1742357,4.214665,1.2189816
620,1778597772373,-0.1094576,-0.15464316,0.037075333,-1.1754575,4.8055243,1.2666291
621,1778597772383,-0.15811898,-0.22245201,-0.17940071,-1.319469,5.0109277,1.3260357
622,1778597772393,-0.1829375,-0.25361237,-0.2660521,-1.4094188,5.06056,1.3545936
623,1778597772403,-0.1829375,-0.25361237,-0.2660521,-1.4094188,5.06056,1.3545936
624,1778597772413,-0.79339993,-1.1522014,-1.0388411,-7.435757,5.2989507,3.2534683
625,1778597772423,-1.0085955,-1.5428948,-1.1765321,-9.095325,6.3050456,3.9826887
626,1778597772433,-2.1291487,-3.7507677,-1.7848603,-9.095325,6.3050456,3.9826887
627,1778597772443,-2.3923957,-4.3339725,0.251722,-4.0764565,-6.2738914,7.404603
628,1778597772453,-2.3923957,-4.3339725,0.251722,-4.0764565,-6.2738914,7.404603
629,1778597772463,-0.67314905,-4.431417,1.4923432,6.3429193,5.0662107,4.1535783
630,1778597772473,-0.36026493,-4.5783157,1.2901973,7.1717105,9.415571,1.082606
631,1778597772483,-1.1027473,-4.5941706,0.6679658,8.027227,14.154664,-2.6751316
632,1778597772493,-1.1931183,-4.386658,0.2112928,8.307462,15.263537,-2.6068676
633,1778597772503,-0.8234017,-3.893337,-1.7929704,8.307462,15.263537,-2.6068676
634,1778597772513,-0.3427639,-3.237994,-2.142198,3.913661,5.807038,-0.95157534
635,1778597772523,-0.31751853,-2.76632,-1.0283527,2.167808,3.131448,-0.94913185
636,1778597772533,-0.31751853,-2.76632,-1.0283527,0.12293663,1.0403035,-0.6743952
637,1778597772543,-0.23251356,-1.6310707,0.05640573,-0.6763805,0.17867808,-0.47891834
638,1778597772553,0.06518673,-1.0187789,0.14250831,-1.2009611,-0.6800457,-0.36254853
639,1778597772563,0.06518673,-1.0187789,0.14250831,-1.3257303,-1.4645494,-0.41508293
640,1778597772573,0.15000875,-0.5996082,0.14019111,-1.0596985,-2.1896465,-0.7457138
641,1778597772583,0.15647253,-0.44575772,0.08232188,-1.0596985,-2.1896465,-0.7457138
642,1778597772593,0.15647253,-0.44575772,0.08232188,-0.5233588,-2.7250698,-1.0642799
643,1778597772603,0.07890704,-0.05256404,-0.09726177,-0.20570888,-2.9110782,-1.0945178
644,1778597772613,0.058966853,0.018781584,-0.14269125,-0.034055736,-2.7939448,-1.0670289
645,1778597772623,0.033843435,0.09085896,-0.25788093,0.12873985,-2.0276144,-0.9944886
646,1778597772633,0.033477563,0.10299382,-0.28093103,0.1160644,-1.6687311,-0.9728029
647,1778597772643,0.023720896,0.080919355,-0.16574138,-0.07513642,-0.5737552,-0.91981035
648,1778597772653,0.025184397,0.058844898,-0.056283772,-0.15241088,-0.25320363,-0.90087354
649,1778597772663,0.019452354,0.041404855,-0.005488125,-0.16371189,-0.06536258,-0.8857546
650,1778597772673,0.01536675,0.0336605,0.017013188,-0.13927728,0.0777326,-0.86177814
651,1778597772683,0.017683959,0.035672814,0.028233355,-0.10934488,0.15607607,-0.84467393
652,1778597772693,0.023476979,0.03719729,0.031160356,-0.07360926,0.27229318,-0.8168796
653,1778597772703,0.03164819,0.044575773,0.040917024,-0.037873644,0.36774087,-0.7901542
654,1778597772713,0.03731925,0.059759583,0.04762473,0.007483099,0.47800204,-0.7290677
655,1778597772723,0.03731925,0.059759583,0.04762473,0.007483099,0.47800204,-0.7290677
656,1778597772733,0.03725827,0.06658925,0.04847844,0.025503624,0.5160284,-0.70096785
657,1778597772743,0.03725827,0.06658925,0.04847844,0.025503624,0.5160284,-0.70096785
658,1778597772753,0.04896627,0.067625895,0.049576063,0.18463401,0.8492554,-0.5007568
659,1778597772763,0.072321296,0.08140719,0.048661377,0.23197608,1.0022771,-0.41050145
660,1778597772773,0.06896744,0.092078544,0.03439225,0.23197608,1.0022771,-0.41050145
661,1778597772783,0.06500379,0.1027499,0.033721477,0.2527455,1.3151928,-0.18417588
662,1778597772793,0.063540295,0.10811607,0.0307335,0.24419338,1.3556627,-0.046120327
663,1778597772803,0.063540295,0.10811607,0.0307335,0.24419338,1.3556627,-0.046120327
664,1778597772813,0.051344458,0.11433593,0.024635585,0.119729586,1.4921911,0.33169982
665,1778597772823,0.040124293,0.09890821,-0.06006448,0.011301007,1.6333009,0.45280385
666,1778597772833,0.028843146,0.09213952,-0.15848486,-0.28252518,1.8538233,0.5479461
667,1778597772843,0.024086772,0.09402988,-0.16348514,-0.5381723,1.9315559,0.5888741
668,1778597772853,-0.046588086,0.0898833,-0.40874338,-0.86422163,1.9466748,0.623388
669,1778597772863,-0.60930383,-0.30257863,-2.0824995,-2.5274549,1.8023579,0.9682214
670,1778597772873,-0.40599927,-0.52997,-1.2053752,-5.587279,0.25152376,1.9083431
671,1778597772883,-0.0898833,-0.34764224,-0.15232596,-6.308253,-1.0097603,2.2221751
672,1778597772893,0.090249166,-0.32800692,0.1542773,-6.1317124,-2.047315,2.2899811
673,1778597772903,0.10220108,-0.5550324,-0.4290494,-5.9709024,-3.3522758,2.2707388
674,1778597772913,-0.4668565,-1.8517543,-3.3451343,-7.9719443,-6.2349486,2.797152
675,1778597772923,-0.49551672,-3.228603,-4.802597,-9.083261,-7.0125804,3.24232
676,1778597772933,0.33044612,-1.4000818,0.8347438,6.72471,3.289204,1.9601139
677,1778597772943,0.33044612,-1.4000818,0.8347438,6.72471,3.289204,1.9601139
678,1778597772953,0.13945936,-0.7396773,0.55308104,7.627416,3.4423783,1.7742581
679,1778597772963,0.11049425,-0.5378972,0.008415125,7.721031,2.9423852,1.7121025
680,1778597772973,0.18116911,-5.1703014,0.60991365,6.870554,1.2945762,1.205848
681,1778597772983,-0.5322872,-7.242617,0.75205606,5.086522,-1.3888022,-1.2508993
682,1778597772993,-1.3236748,-7.9959545,1.0905514,0.5627596,-1.7536414,-1.619251
683,1778597773003,-1.2508047,-6.609471,1.5201497,0.5627596,-1.7536414,-1.619251
684,1778597773013,-0.37508285,-3.5966122,0.7657764,-0.5902485,-0.08552113,0.41080686
685,1778597773023,-0.37508285,-3.5966122,0.7657764,-0.063682705,-1.9646953,0.18952094
686,1778597773033,-0.2646496,-1.3848369,-0.44594067,0.8246681,-10.264979,-0.5012149
687,1778597773043,-0.24897793,-1.027621,-0.019391375,1.1139128,-12.126286,-0.7974846
688,1778597773053,-0.2745282,-0.77315485,0.19019403,1.1139128,-12.126286,-0.7974846
689,1778597773063,-0.2745282,-0.77315485,0.19019403,1.8555032,-9.943817,-1.4391985
690,1778597773073,-0.097322755,-0.20208496,-0.028965104,2.8226557,-7.014871,-2.4507914
691,1778597773083,-0.14805742,-0.0023172083,-0.54216576,3.0040824,-6.1031547,-3.2388074
692,1778597773093,-0.25257573,0.13104422,-0.8513911,2.492483,-5.8656807,-3.821573
693,1778597773103,-0.2930049,0.062076796,-0.41282898,1.5761851,-5.6083536,-4.1648793
694,1778597773113,-0.34910575,0.028660208,-0.09232246,1.2843442,-5.2148037,-4.211152
695,1778597773123,-0.34910575,0.028660208,-0.09232246,1.3880385,-3.805385,-4.0818014
696,1778597773133,-0.45563635,0.10220108,0.240014,1.6491834,-2.9150488,-4.0508003
697,1778597773143,-0.4721007,0.08713923,0.1367153,1.8478674,-1.982105,-3.8368447
698,1778597773153,-0.61509687,0.17659567,0.04988096,1.8478674,-1.982105,-3.8368447
699,1778597773163,-1.071221,0.5286894,-0.07110171,1.1722504,-3.2798882,-2.8582385
700,1778597773173,-1.0848805,0.6099746,-0.06640632,1.1722504,-3.2798882,-2.8582385
701,1778597773183,-1.1261632,0.6633314,-0.06652827,0.50518554,-4.6857944,-1.5549575
702,1778597773193,-1.1295171,0.7013824,-0.04896627,0.17195857,-4.9380817,-0.8023715
703,1778597773203,-0.95188487,0.6693683,-0.050185855,-0.16752979,-5.0098586,-0.06291912
704,1778597773213,-0.95188487,0.6693683,-0.050185855,-0.8078693,-4.797583,0.8582657
705,1778597773223,-0.37032646,0.24666072,-0.29745638,-0.8078693,-4.797583,0.8582657
706,1778597773233,-0.14208147,0.096591,-0.4170975,-0.8078693,-4.797583,0.8582657
707,1778597773243,0.057381395,0.016525354,-0.38099784,-2.8382328,-3.0159945,1.7470746
708,1778597773253,0.12281204,-0.007378479,-0.22848894,-2.8382328,-3.0159945,1.7470746
709,1778597773263,0.14061797,-0.021159772,-6.0979168e-05,-3.3151658,-2.908024,1.7008016
710,1778597773273,0.13183697,-0.033233646,0.05847902,-3.5326338,-2.876717,1.5549575
711,1778597773283,0.08073642,-0.07537025,0.22708642,-3.2905784,-2.094046,1.4492778
712,1778597773293,0.007256521,-0.10329871,0.4786255,-2.778826,-0.7165449,1.3684908
713,1778597773303,-0.032014064,-0.13421515,0.6213777,-2.079996,0.39721513,1.2741122
714,1778597773313,-0.070613876,-0.1167751,0.6749174,-0.40866885,2.0169244,0.76052725
715,1778597773323,-0.21245141,-0.15976542,0.45228252,0.22311853,2.7027733,0.52931476
716,1778597773333,-0.21245141,-0.15976542,0.45228252,0.22311853,2.7027733,0.52931476
717,1778597773343,-0.31629896,-0.19007207,0.32245782,0.5288566,3.1845932,0.63194007
718,1778597773353,-0.98127675,-1.3806293,-4.2025013,-1.8365663,2.747061,2.012343
719,1778597773363,-0.9085896,-1.9152336,-3.8862634,-5.8901153,0.38927388,3.0130928
720,1778597773373,-1.1714097,-1.8156546,0.22909874,-9.124036,-0.16783522,4.7847548
721,1778597773383,-1.1714097,-1.8156546,0.22909874,-9.124036,-0.16783522,4.7847548
722,1778597773393,-1.3828245,-5.147373,-1.6476572,-8.021119,4.674799,6.11751
723,1778597773403,-1.2562928,-5.213841,-0.14854525,1.6462818,8.228202,7.1083336
724,1778597773413,-1.2562928,-5.213841,-0.14854525,1.6462818,8.228202,7.1083336
725,1778597773423,0.22720838,-4.6099644,0.20245083,3.9710822,13.265397,5.39562
726,1778597773433,0.24483135,-4.5611806,-0.42612243,3.2976034,15.773304,0.8362745
727,1778597773443,0.43228132,-3.726132,-0.4145364,3.1471777,13.653907,-0.39278635
728,1778597773453,0.43228132,-3.726132,-0.4145364,2.8041768,11.422722,-1.2458596
729,1778597773463,0.49624845,-2.765954,0.23507468,2.5940392,10.347294,-2.0233383
730,1778597773473,0.37746105,-2.2339718,0.24635585,2.5192082,7.9832454,-3.9017491
731,1778597773483,0.37746105,-2.2339718,0.24635585,2.5192082,7.9832454,-3.9017491
732,1778597773493,0.08848077,-1.343188,0.005914979,2.2368357,6.415612,-3.8382192
733,1778597773503,0.08848077,-1.343188,0.005914979,1.7114917,5.248554,-3.3939674
734,1778597773513,-0.014939896,-0.743397,0.0009146876,1.2629639,4.4700065,-2.9752192
735,1778597773523,0.018781584,-0.55600804,0.023294043,-0.13133603,2.2067506,-1.4417948
736,1778597773533,0.036892395,-0.40868238,0.029026084,-0.6301075,1.1658363,-0.8790351
737,1778597773543,0.036892395,-0.40868238,0.029026084,-0.6301075,1.1658363,-0.8790351
738,1778597773553,0.11207971,-0.22147635,0.050856624,-0.9961685,0.24236079,-0.56077427
739,1778597773563,0.10317675,-0.023720896,0.0453685,-1.1363621,-0.22831088,-0.48502702
740,1778597773573,0.061893854,0.03207504,0.044758707,-1.5476271,-0.839787,-0.3555236
741,1778597773583,0.027379647,0.057320416,0.06799178,-1.626276,-0.86452705,-0.28496864
742,1778597773593,0.03561183,0.14086188,0.12311694,-1.5885551,-0.91415983,-0.17073683
743,1778597773603,0.04006331,0.1853157,0.14159364,-1.5123496,-1.0196868,-0.08903361
744,1778597773613,0.024086772,0.1999507,0.16952209,-1.3775011,-1.1200215,0.032070424
745,1778597773623,0.024086772,0.1999507,0.16952209,-1.1856894,-1.1612549,0.18402316
746,1778597773633,0.027562585,0.22281788,0.30184686,-0.9381363,-1.2840388,0.32055154
747,1778597773643,0.032684833,0.19354787,0.29349273,-0.6785186,-1.529912,0.4370741
748,1778597773653,0.0075004376,0.12183637,0.16689998,-0.40561453,-1.9393444,0.5945246
749,1778597773663,0.0075004376,0.12183637,0.16689998,-0.26236662,-2.228589,0.7838928
750,1778597773673,0.021159772,0.13055639,0.1094576,-0.19318613,-2.4010057,1.1262828
751,1778597773683,0.027623562,0.13293459,0.096347086,-0.19776763,-2.392301,1.2644911
752,1778597773693,0.027623562,0.13293459,0.096347086,-0.19776763,-2.392301,1.2644911
753,1778597773703,0.027623562,0.13293459,0.096347086,-0.19776763,-2.392301,1.2644911
754,1778597773713,0.044880666,0.15000875,0.0670161,-0.23243423,-2.3612995,1.6873626
755,1778597773723,0.07268717,0.1214705,0.0837244,-0.21991149,-2.4121542,1.9152153
756,1778597773733,0.093664,0.10799411,0.08902958,-0.17333302,-2.4397957,1.9608774
757,1778597773743,0.11360419,0.093054205,0.10061563,-0.17333302,-2.4397957,1.9608774
758,1778597773753,0.14561825,0.08354146,0.12195834,0.09101892,-2.5248587,1.8968893
759,1778597773763,0.15933856,0.08555377,0.11573846,0.20662516,-2.5474608,1.8330538
760,1778597773773,0.17927876,0.093481064,0.11586042,0.45081854,-2.5143213,1.7290541
761,1778597773783,0.1823277,0.09738373,0.102688916,0.68432176,-2.3507621,1.5940529
762,1778597773793,0.18312044,0.08512692,0.076528855,0.8530733,-2.2046127,1.4563028
763,1778597773803,0.17452239,0.08256579,0.05847902,1.0239629,-1.9573649,1.2409728
764,1778597773813,0.17177832,0.08299265,0.04036821,1.0934488,-1.8399261,1.1418599
765,1778597773823,0.043539125,-0.0006707709,-0.54808074,1.2153164,-1.3161092,0.7820602
766,1778597773833,0.043539125,-0.0006707709,-0.54808074,1.1517864,-0.86269444,0.56688297
767,1778597773843,-0.38666892,-0.61345047,-3.0754235,-1.9529362,2.7577512,0.75640386
768,1778597773853,0.59149796,-0.9004184,-1.5996665,-5.59858,5.774204,0.8176431
769,1778597773863,0.9192609,-2.0123127,-3.0315185,-7.2034755,6.277557,0.593761
770,1778597773873,0.9192609,-2.0123127,-3.0315185,-11.385918,9.968863,-1.8541287
771,1778597773883,1.1764101,-5.2798815,-7.490071,-6.067419,12.035267,-3.0170634
772,1778597773893,0.08835881,-2.4310565,1.9120018,1.9610301,2.801886,-1.604743
773,1778597773903,-0.037868064,-1.6318635,1.5276501,1.9610301,2.801886,-1.604743
774,1778597773913,0.066040434,-1.232084,0.63393945,6.2028785,-4.5934014,0.1516473
775,1778597773923,0.10348164,-1.38752,0.286846,6.9925747,-5.875302,0.63423085
776,1778597773933,1.0657939,-3.889861,-0.2502585,7.3135843,-7.435757,1.4072808
777,1778597773943,1.413741,-4.834855,-0.46856394,7.6509347,-5.7709966,2.2795963
778,1778597773953,1.4611828,-5.395132,-0.3456909,7.2686853,-4.354706,2.5100453
779,1778597773963,1.2649518,-5.7537503,-0.09957898,5.3841662,-2.4150558,3.1936035
780,1778597773973,1.2649518,-5.7537503,-0.09957898,3.3165402,-0.8713993,3.4628425
781,1778597773983,0.8139499,-3.1360366,-0.4233174,2.2715025,-0.6178902,2.7261388
782,1778597773993,0.49911448,-2.104574,-0.50448066,1.9320141,-1.8600847,1.2757921
783,1778597774003,0.33416584,-1.4790497,-0.26330805,1.970804,-2.3011293,0.86299986
784,1778597774013,0.15360652,-0.91907805,-0.0863465,2.133447,-2.7102563,-0.00030543262
785,1778597774023,0.071772486,-0.7099805,-0.06488183,2.1832323,-2.1981986,-0.5881105
786,1778597774033,0.0127446465,-0.23702602,-0.04744179,2.1832323,-2.1981986,-0.5881105
787,1778597774043,0.0127446465,-0.23702602,-0.04744179,2.2142339,-1.7163786,-0.86758137
788,1778597774053,0.023050126,-0.12110463,-0.076528855,2.2834144,-1.46852,-1.0749701
789,1778597774063,-0.120372884,0.026099084,-0.2532465,2.1383338,-2.5798366,-1.6255124
790,1778597774073,-0.120372884,0.026099084,-0.2532465,2.0270035,-2.9051223,-1.6346754
791,1778597774083,-0.26300314,-0.03305071,-0.03420931,2.0018053,-2.8893926,-1.5578591
792,1778597774093,-0.2678205,-0.0071345624,-0.010183521,2.0018053,-2.8893926,-1.5578591
793,1778597774103,-0.42819571,-0.023720896,0.00060979166,1.9917262,-2.769663,-1.4530957
794,1778597774113,-0.74455565,0.042136606,0.013659334,2.0748038,-2.2557726,-1.0485502
795,1778597774123,-1.1191506,0.14610608,0.026160065,2.140472,-2.0743456,-0.7724391
796,1778597774133,-1.7156489,0.63076854,0.020123126,2.233018,-2.02624,-0.11636983
797,1778597774143,-1.7288814,0.82949966,-0.14086188,2.3270912,-2.1273382,0.45478916
798,1778597774153,-1.4097774,1.0310968,-0.34672755,1.8984165,-3.4625368,0.7290677
799,1778597774163,-1.1544576,0.89279604,-0.35172784,1.4669929,-4.130671,0.6068946
800,1778597774173,-1.1544576,0.89279604,-0.35172784,0.8339838,-4.429842,0.7264715
801,1778597774183,-1.1544576,0.89279604,-0.35172784,0.8339838,-4.429842,0.7264715
802,1778597774193,-0.64162284,0.4480749,-0.1905599,-0.0571159,-2.4324653,0.7150178
803,1778597774203,-0.09793254,0.17251006,-0.09402988,-0.593761,-0.98853266,0.53801954
804,1778597774213,-0.073723815,0.16049717,-0.07122366,-0.75991637,-0.5198463,0.4616614
805,1778597774223,-0.05646671,0.13055639,-0.020489,-1.1091785,0.6554584,0.21120666
806,1778597774233,-0.069577225,0.13598356,0.01683025,-1.1548407,1.0884092,0.12965615
807,1778597774243,-0.13866661,0.14799644,0.097871564,-1.0694723,1.3231341,0.08399397
808,1778597774253,-0.2183664,0.12573905,0.13732508,-0.95646226,1.2568552,0.106901415
809,1778597774263,-0.21287827,0.123604774,0.07500438,-0.691194,0.7631234,0.23915374
810,1778597774273,-0.1255561,0.06982114,0.0029879792,-0.6047566,-0.0036651916,0.47769663
811,1778597774283,-0.1255561,0.06982114,0.0029879792,-0.6047566,-0.0036651916,0.47769663
812,1778597774293,-0.05713748,-0.04981998,-0.19415767,-0.94974273,-0.1423316,0.5873469
813,1778597774303,-0.07469948,-0.36544815,-0.8449273,-1.781283,-0.7903069,0.70280045
814,1778597774313,-0.109762505,-0.9084677,-1.5622863,-3.929849,-2.620001,1.0522153
815,1778597774323,-0.20659742,-0.643879,-0.6449767,-5.5859046,-3.9551997,1.534188
816,1778597774333,-0.46929568,-0.6066208,0.0687845,-6.298326,-3.0676126,2.1757493
817,1778597774343,-0.8613918,-0.9724348,0.41435343,-6.262896,-0.699288,3.0531044
818,1778597774353,-1.2237909,-1.5127102,0.2628812,-6.19509,1.389413,3.783852
819,1778597774363,-1.5852754,-4.1549983,0.5485686,-6.19509,1.389413,3.783852
820,1778597774373,-1.8567547,-6.2798786,1.0787824,-6.425844,10.673801,4.26781
821,1778597774383,-1.8567547,-6.2798786,1.0787824,-6.425844,10.673801,4.26781
822,1778597774393,-1.9155996,-9.324325,1.5108198,3.1597004,2.5347853,3.808745
823,1778597774403,-0.20312162,-8.754596,-1.1236632,3.1597004,2.5347853,3.808745
824,1778597774413,0.41850004,-7.079864,-0.9065772,4.2719336,9.118538,-3.0560062
825,1778597774423,0.6232071,-4.7607656,-0.02128173,4.0909643,8.239198,-4.2562037
826,1778597774433,0.4575877,-1.6799761,-0.6957723,3.819435,6.7457848,-5.084842
827,1778597774443,0.4575877,-1.6799761,-0.6957723,2.5332582,4.649906,-5.494122
828,1778597774453,-0.0009146876,-1.0854292,-0.2783699,0.21074851,2.6726882,-4.594165
829,1778597774463,-0.066894144,-0.8015102,-0.087566085,-0.3857614,2.4981334,-3.7665951
830,1778597774473,-0.033111688,-0.5371045,-0.06366225,-0.3857614,2.4981334,-3.7665951
831,1778597774483,0.0046344167,-0.3574599,-0.04164877,-0.94989544,2.447279,-2.7421741
832,1778597774493,0.052746978,-0.22641563,-0.009634708,-1.5674802,2.2133174,-1.5804611
833,1778597774503,0.08378538,-0.06683317,0.009695687,-1.5674802,2.2133174,-1.5804611
834,1778597774513,0.084456146,-0.028782167,0.01603752,-1.7605137,2.0993912,-1.1151345
835,1778597774523,0.03640456,0.09183463,0.023781875,-1.7310394,1.9046779,-0.8756753
836,1778597774533,0.013537374,0.09799352,0.018659625,-1.6902641,1.7513506,-0.7144069
837,1778597774543,0.013537374,0.09799352,0.018659625,-1.6902641,1.7513506,-0.7144069
838,1778597774553,0.013537374,0.09799352,0.018659625,-1.6902641,1.7513506,-0.7144069
839,1778597774563,0.0014635,0.12659276,-0.009146876,-1.728596,1.6754507,0.063682705
840,1778597774573,0.001097625,0.11146992,-0.012378771,-1.7695239,1.7620409,0.24037547
841,1778597774583,-0.0037807084,0.10848194,-0.011890938,-1.8107573,1.9049833,0.40469822
842,1778597774593,-0.0012195833,0.09683492,-0.017074168,-1.8107573,1.9049833,0.40469822
843,1778597774603,-0.0037807084,0.081773065,0.005488125,-2.0360138,2.4275784,0.73639804
844,1778597774613,0.043356188,0.15391143,0.06988213,-2.0118847,2.209805,1.0897835
845,1778597774623,0.043356188,0.15391143,0.06988213,-2.0118847,2.209805,1.0897835
846,1778597774633,0.064637914,0.17208321,0.07817529,-1.9633209,1.9419407,1.2869403
847,1778597774643,0.08384635,0.08622454,0.15885073,-1.8903224,1.536326,1.4834863
848,1778597774653,0.08384635,0.08622454,0.15885073,-1.7673858,0.8575021,1.6865989
849,1778597774663,0.08384635,0.08622454,0.15885073,-1.7673858,0.8575021,1.6865989
850,1778597774673,0.1800105,0.15293576,0.2555027,-0.9634872,-1.859932,2.0392208
851,1778597774683,0.1800105,0.15293576,0.2555027,-0.9634872,-1.859932,2.0392208
852,1778597774693,0.20775603,0.17501022,0.2423312,-0.19440787,-3.4698672,2.0983222
853,1778597774703,0.23836756,0.20245083,0.2374529,0.2489276,-4.070195,2.047315
854,1778597774713,0.254649,0.207817,0.21171968,0.5910121,-4.36845,1.9639318
855,1778597774723,0.26775953,0.19562118,0.17836407,0.991587,-4.5407143,1.7884607
856,1778597774733,0.26775953,0.19562118,0.17836407,0.991587,-4.5407143,1.7884607
857,1778597774743,0.24044085,0.18409611,0.1348859,1.5890132,-4.4704647,1.3417655
858,1778597774753,0.2160492,0.1764737,0.09183463,1.7386752,-4.3244677,1.1050552
859,1778597774763,0.16061912,0.16964404,0.03237994,1.9230038,-4.012774,0.8098546
860,1778597774773,0.009024917,0.14860623,-0.15013072,1.9532416,-3.6430476,0.59681535
861,1778597774783,-2.2289107,-1.012986,-3.416419,-0.37491855,0.64675355,1.808772
862,1778597774793,-0.6902842,-0.9955459,-1.7565659,-5.228243,8.0264635,3.4249687
863,1778597774803,0.27788207,-0.3743511,-0.21318316,-5.537188,8.478352,3.2976034
864,1778597774813,0.27788207,-0.3743511,-0.21318316,-4.552626,7.920937,1.1542299
865,1778597774823,0.6466841,-2.3090372,-5.3234205,-8.606175,11.189524,-0.56199604
866,1778597774833,0.8106571,-2.2054336,-1.2412919,-12.814731,11.853077,-2.5584564
867,1778597774843,0.9509702,-5.3265915,-9.113581,-14.494152,9.553169,-4.5598035
868,1778597774853,1.1583602,-4.4923964,-2.5566125,1.2991576,7.547851,-4.191452
869,1778597774863,-0.10653061,-1.5595422,0.97981334,5.924935,-0.50671273,-2.4836254
870,1778597774873,-0.037746105,-1.2885509,0.7125416,7.3146534,-6.0611577,-0.7808385
871,1778597774883,1.009815,-2.765649,-0.04481969,6.887811,-7.11826,0.06001751
872,1778597774893,1.3370292,-4.8192444,-0.60790133,5.9664736,-8.235533,1.1389582
873,1778597774903,1.7568707,-5.0454164,-0.9795693,5.9664736,-8.235533,1.1389582
874,1778597774913,1.6289365,-5.081516,-0.2918463,3.8111882,-2.755766,3.8799107
875,1778597774923,1.1678121,-4.2246976,0.13598356,3.6215146,-1.5323554,4.118301
876,1778597774933,0.6771127,-3.0250547,0.23763582,3.6215146,-1.5323554,4.118301
877,1778597774943,0.6771127,-3.0250547,0.23763582,3.4283285,-0.33368513,4.1512876
878,1778597774953,0.23690407,-1.3989841,-0.03866079,3.1345022,0.7663304,3.9577959
879,1778597774963,0.12580003,-0.8496837,0.022135438,3.1128166,0.74021596,3.719253
880,1778597774973,0.0757971,-0.5807656,0.091956586,3.1994066,0.7319693,3.5876117
881,1778597774983,0.026891813,-0.30879852,-0.2534904,3.280499,0.38545597,3.3583844
882,1778597774993,0.006341833,-0.15336262,-0.6844302,3.1117475,-0.6411031,3.1878002
883,1778597775003,-0.005854,0.024086772,-1.0902466,2.3283129,-3.6760342,2.8846583
884,1778597775013,-0.04408794,0.043051295,-0.73028654,1.3800973,-6.3664374,2.6731462
885,1778597775023,-0.047990605,0.011890938,-0.11982407,1.1368202,-7.159188,2.5685356
886,1778597775033,-0.037136313,0.0026830835,0.023659917,1.3414601,-6.916369,2.4648414
887,1778597775043,0.0012805625,0.10476221,0.018903542,1.5911512,-6.558707,2.2177463
888,1778597775053,0.07085779,0.09921311,-0.01689123,1.7887661,-5.9715133,0.7669413
889,1778597775063,0.07573613,0.09683492,-0.014817937,1.7887661,-5.9715133,0.7669413
890,1778597775073,0.11317733,0.12561709,-0.07036996,0.8801041,-4.2496367,-1.2901474
891,1778597775083,0.11317733,0.12561709,-0.07036996,0.4558582,-3.6042576,-2.0809124
892,1778597775093,0.093481064,0.15171617,-0.070065066,-0.081397794,-2.9060388,-3.0744848
893,1778597775103,0.093481064,0.15171617,-0.070065066,-0.081397794,-2.9060388,-3.0744848
894,1778597775113,-0.06799178,0.14275223,0.002134271,-1.0835222,-0.8323039,-4.5034513
895,1778597775123,-0.099457026,0.117689796,-0.0017683958,-1.509448,0.31520647,-5.002681
896,1778597775133,-0.099457026,0.117689796,-0.0017683958,-1.9234619,1.5018122,-5.531385
897,1778597775143,-0.099457026,0.117689796,-0.0017683958,-1.9234619,1.5018122,-5.531385
898,1778597775153,-0.74120176,0.072016396,0.054759294,-2.2565362,2.5523477,-5.2429037
899,1778597775163,-1.205985,0.08335852,0.06945527,-2.3600779,2.8060095,-4.2084036
900,1778597775173,-1.3370292,0.11622629,0.09354204,-2.4007003,2.7302623,-3.245527
901,1778597775183,-1.4339862,0.20104831,0.1393374,-2.4281893,2.2221751,-1.8723019
902,1778597775193,-1.2782453,0.23178181,0.14586218,-2.435978,1.4514158,-0.60048056
903,1778597775203,-1.0282307,0.18744996,0.12159246,-2.4278839,0.9457721,-0.056352317
904,1778597775213,-0.5878392,0.107201375,0.10018878,-2.2583687,-0.15454891,0.46792278
905,1778597775223,-0.35550857,0.038965687,0.10823802,-2.2583687,-0.15454891,0.46792278
906,1778597775233,-0.33501956,-0.06305246,0.16964404,-1.9434677,-0.5896377,0.39828414
907,1778597775243,-0.33501956,-0.06305246,0.16964404,-1.9434677,-0.5896377,0.39828414
908,1778597775253,-0.47344226,-0.13342242,0.21153674,-1.4340062,-0.6737844,0.7284568
909,1778597775263,-0.43478146,-0.22324473,0.101408355,-1.2574661,-0.79213953,0.84391034
910,1778597775273,-0.5012488,-0.27885774,0.052198168,-1.1122329,-0.8226828,0.98929626
911,1778597775283,-0.72918886,-0.41441444,0.017013188,-0.9990701,-0.59696805,1.2299771
912,1778597775293,-0.91499245,-0.49954134,-0.024757542,-0.93309665,-0.3239113,1.5351044
913,1778597775303,-0.91499245,-0.49954134,-0.024757542,-1.0929906,0.3631594,2.8196013
914,1778597775313,0.45264837,-4.8313794,-7.2703633,-5.399438,-7.6833105,3.6280813
915,1778597775323,-2.967917,-4.3176303,-0.2157443,-8.939249,-14.2556095,5.050634
916,1778597775333,-2.7293665,-6.2384734,0.6197313,-5.6392026,-12.312753,7.096727
917,1778597775343,-1.9257832,-7.1698084,0.16263144,0.6953174,-15.848288,6.045275
918,1778597775353,0.39532796,-7.956745,-4.616611,2.2197316,-1.3715452,0.22953261
919,1778597775363,-1.4623414,-5.2971992,1.4234368,4.0743184,9.15519,-0.7476991
920,1778597775373,-0.4422209,-3.7316203,0.58796114,6.8836875,12.127661,-0.14156802
921,1778597775383,0.09085896,-2.7786987,0.079638794,7.286095,13.087025,-0.23839016
922,1778597775393,0.22617173,-2.3736143,-0.1413497,7.039764,12.948358,-0.45341474
923,1778597775403,0.52448183,-1.7217468,-1.2276936,5.778327,10.442284,-1.0016663
924,1778597775413,-0.024818521,-1.0373776,-0.45606318,3.733761,6.1526346,-1.6464345
925,1778597775423,-0.024818521,-1.0373776,-0.45606318,2.238821,3.8041632,-1.8333594
926,1778597775433,-0.07829725,-0.77724046,-0.084578104,1.5322027,2.9491048,-1.7866281
927,1778597775443,0.027379647,-0.339593,0.012927583,0.5216789,1.8054122,-1.5766432
928,1778597775453,0.061954834,-0.16427788,0.058418043,0.30818152,1.3526083,-1.5395331
929,1778597775463,0.061954834,-0.16427788,0.058418043,0.20051652,0.8355109,-1.5172366
930,1778597775473,0.069760166,-0.05689356,0.089822315,0.17745635,0.4888449,-1.5221235
931,1778597775483,0.0807974,-0.0066467295,0.07957781,0.17745635,0.4888449,-1.5221235
932,1778597775493,0.07506536,0.028477272,0.098054506,0.109650314,-0.06337727,-1.5435038
933,1778597775503,0.062015813,0.042624436,0.12506826,0.12705997,-0.09254608,-1.5566374
934,1778597775513,0.063967146,0.06158896,0.11171384,0.11866058,0.023365596,-1.5413657
935,1778597775523,0.04164877,0.05933273,0.054942228,0.06001751,0.13775012,-1.5054774
936,1778597775533,0.04164877,0.05933273,0.054942228,0.06001751,0.13775012,-1.5054774
937,1778597775543,0.03603869,0.060186442,0.031038398,-0.087964594,0.21380283,-1.4259121
938,1778597775553,0.035550855,0.07524829,0.020123126,-0.17913623,0.24510968,-1.3764321
939,1778597775563,0.019269416,0.09079798,0.03146525,-0.4775439,0.3387248,-1.1695015
940,1778597775573,0.01835473,0.10598179,0.065369666,-0.6395759,0.41599923,-1.0167851
941,1778597775583,0.008354146,0.11476279,0.08610259,-0.7509061,0.45952338,-0.8732319
942,1778597775593,0.006524771,0.12366576,0.12153149,-0.7509061,0.45952338,-0.8732319
943,1778597775603,0.0046344167,0.13543473,0.1574482,-0.88086766,0.44593164,-0.42012256
944,1778597775613,0.0046344167,0.13543473,0.1574482,-0.88086766,0.44593164,-0.42012256
945,1778597775623,0.0046344167,0.13543473,0.1574482,-0.88086766,0.44593164,-0.42012256
946,1778597775633,0.013598354,0.12647079,0.23757485,-0.5708536,-0.32834008,0.35323283
947,1778597775643,0.014635001,0.10104248,0.19988972,-0.45188758,-0.5128214,0.5590944
948,1778597775653,0.02853825,0.08549279,0.18074225,-0.15470162,-0.787558,0.81290895
949,1778597775663,0.039392542,0.08872469,0.11695804,-0.05787948,-0.8417723,0.8712466
950,1778597775673,0.039392542,0.08872469,0.11695804,-0.05787948,-0.8417723,0.8712466
951,1778597775683,0.044880666,0.098420374,0.096895896,0.0346666,-0.8228355,0.9315695
952,1778597775693,0.06262561,0.12573905,0.06555261,0.098807454,-0.61483586,0.9947941
953,1778597775703,0.0837244,0.13750802,0.042746395,-0.00015271631,-0.31031954,0.9819659
954,1778597775713,0.06597946,0.2001946,0.02134271,-0.00015271631,-0.31031954,0.9819659
955,1778597775723,0.05945469,0.25227082,0.012805625,-0.1459968,-0.10751228,0.9459248
956,1778597775733,0.06860156,0.25044146,0.02561125,-0.6030767,-0.05421429,0.89751375
957,1778597775743,0.08805392,0.2403189,0.033721477,-0.82527894,-0.20357084,0.7414377
958,1778597775753,0.08829784,0.18190086,0.043722063,-1.0241156,-0.44318274,0.513585
959,1778597775763,0.014695979,0.10927467,0.33916613,-1.0331259,-0.009162978,0.22296582
960,1778597775773,-0.0037807084,0.0807974,0.2973954,-0.91415983,1.2447907,0.03268129
961,1778597775783,-0.0,-0.0017074167,0.26092985,-0.79381937,2.2828035,-0.12507465
962,1778597775793,0.033172667,-0.56503296,-0.8379757,-0.76923203,2.8270843,-0.23716843
963,1778597775803,0.71918833,-4.8918095,-2.8665698,-18.890244,-2.59465,0.36453384
964,1778597775813,1.8290701,-4.192867,-4.3288503,-16.826588,-2.2721133,0.020158553
965,1778597775823,1.8290701,-4.192867,-4.3288503,-11.744495,1.4256067,-0.57711494
966,1778597775833,1.1376883,-4.591914,-8.968633,-0.41065416,17.687298,-2.038152
967,1778597775843,0.02713573,-1.0217669,1.0904905,7.2981596,7.038084,-0.8801041
968,1778597775853,0.22379355,-1.3948375,0.05372265,7.2981596,7.038084,-0.8801041
969,1778597775863,0.7235788,-2.4752054,0.6368055,8.309447,3.3509014,-0.14538592
970,1778597775873,0.68674743,-3.8098567,1.0714649,8.96567,-5.627749,0.36178493
971,1778597775883,0.68674743,-3.8098567,1.0714649,8.96567,-5.627749,0.36178493
972,1778597775893,0.34617874,-4.836014,0.8823075,7.1335316,-9.939847,0.90133166
973,1778597775903,0.27641857,-4.864308,1.0047538,3.438713,-6.9262958,2.4486532
974,1778597775913,0.2531855,-3.79638,0.9412134,1.7140878,-4.1114287,3.3315063
975,1778597775923,0.20513393,-2.748209,0.8332803,1.1748465,-2.2391264,3.845244
976,1778597775933,0.077077664,-1.8229722,0.55600804,1.12781,-0.8437576,4.205044
977,1778597775943,0.016708292,-0.9728007,0.26971084,1.3550519,0.4008803,4.5646906
978,1778597775953,0.056344748,-0.64168376,0.120738745,1.5410603,0.68768156,4.6466994
979,1778597775963,0.06793079,-0.42807376,0.0071345624,1.6421585,0.7799222,4.6028695
980,1778597775973,0.3286777,-0.043478146,-2.1070132,1.3547463,0.08689558,4.3898306
981,1778597775983,0.31129867,0.10342067,-2.1650043,-1.0114402,-6.9780664,3.7358992
982,1778597775993,0.034148335,-0.059027832,-0.3530084,-1.7046194,-10.291858,3.4480288
983,1778597776003,0.025977125,0.00085370836,0.10037171,-1.2799155,-10.028116,3.365104
984,1778597776013,0.11829959,0.10951859,0.0629305,-0.016187929,-8.370229,2.3350325
985,1778597776023,0.11829959,0.10951859,0.0629305,-0.016187929,-8.370229,2.3350325
986,1778597776033,0.04853942,0.2965417,-0.1413497,0.15821409,-7.809454,0.48899764
987,1778597776043,0.04853942,0.2965417,-0.1413497,0.15821409,-7.809454,0.48899764
988,1778597776053,-0.023355022,0.5024074,-0.38825434,0.016187929,-7.520515,-0.21380283
989,1778597776063,-0.14439867,0.5683259,-0.41319484,-1.8391626,-5.56315,-2.1044307
990,1778597776073,-0.14317909,0.4074628,0.15360652,-1.8391626,-5.56315,-2.1044307
991,1778597776083,-0.19915795,0.4281347,0.18348631,-1.3051136,-2.731331,-2.6717718
992,1778597776093,-0.19915795,0.4281347,0.18348631,-1.3051136,-2.731331,-2.6717718
993,1778597776103,-0.19915795,0.4281347,0.18348631,-1.3051136,-2.731331,-2.6717718
994,1778597776113,-0.33270234,0.50191957,0.18659624,-0.08827003,0.70112056,-2.8422034
995,1778597776123,-0.3691069,0.50746864,0.16958307,0.12293663,0.73426,-2.758973
996,1778597776133,-0.45045313,0.5246038,0.20220692,0.24510968,0.11530081,-2.5367706
997,1778597776143,-0.462466,0.49868765,0.1999507,0.258396,-0.45677447,-2.3715315
998,1778597776153,-0.4672224,0.4709421,0.20659742,0.20219639,-1.4062119,-1.9949331
999,1778597776163,-0.42782986,0.36544815,0.2277572,0.10476339,-1.8968893,-1.6632334
1000,1778597776173,-0.36038688,0.237087,0.18421806,-0.049632803,-2.080607,-1.426065
