id,timestamp,acc_x,acc_y,acc_z,gyro_x,gyro_y,gyro_z
0,1778597710173,4.406416,-0.23916028,6.3625054,-0.3231477,5.1379876,-1.9862283
1,1778597710183,4.1184716,-0.8596843,6.2800617,1.1876748,5.364008,-1.7402023
2,1778597710193,3.902362,-1.6632068,6.2887206,3.385568,4.61188,-1.426065
3,1778597710203,3.7863185,-1.876573,5.924736,4.9168544,3.9051087,-1.370629
4,1778597710213,3.7863185,-1.876573,5.924736,4.9168544,3.9051087,-1.370629
5,1778597710223,3.72912,-2.039997,5.242928,6.7621255,3.499647,-1.1200215
6,1778597710233,3.7375963,-2.1201236,4.1353636,6.7094383,4.295604,-0.8935431
7,1778597710243,3.6422856,-2.1003664,3.9499867,6.611242,4.867527,-0.79137594
8,1778597710253,3.4613605,-2.0796945,3.895776,6.9252267,5.2273264,-0.6979135
9,1778597710263,3.2854967,-2.1823225,3.9961479,6.9252267,5.2273264,-0.6979135
10,1778597710273,3.2854967,-2.1823225,3.9961479,9.0533285,4.517043,-0.6620252
11,1778597710283,3.1825638,-2.6323485,3.8339431,10.571787,3.8647916,-0.75609845
12,1778597710293,3.1825638,-2.6323485,3.8339431,10.571787,3.8647916,-0.75609845
13,1778597710303,3.2995217,-3.2297006,3.0545075,13.745384,2.1305454,-1.7737999
14,1778597710313,3.3470247,-3.6597865,1.8561449,14.616478,0.7153232,-3.275765
15,1778597710323,3.3470247,-3.6597865,1.8561449,14.616478,0.7153232,-3.275765
16,1778597710333,3.3470247,-3.6597865,1.8561449,14.384655,0.33826664,-3.7797287
17,1778597710343,3.099754,-3.4075158,1.220437,13.587934,-0.4859433,-4.7050366
18,1778597710353,2.8996205,-3.1531718,0.9955459,12.229369,-1.2356277,-5.583919
19,1778597710363,2.7888823,-2.8857782,0.9926189,10.527347,-1.7478381,-6.2838182
20,1778597710373,2.9911501,-2.7049139,1.2365355,9.222996,-1.8947513,-6.7587657
21,1778597710383,3.0583491,-2.4783154,1.5497246,7.5000505,-1.0978775,-7.6842265
22,1778597710393,3.0583491,-2.4783154,1.5497246,7.0217433,-0.88270026,-7.8680973
23,1778597710403,3.0318232,-2.414653,1.534053,6.696763,-1.0764973,-7.9818707
24,1778597710413,2.8908396,-2.3601985,1.4656953,6.6698847,-1.7272215,-7.9719443
25,1778597710423,2.833519,-2.3510518,1.390447,6.6698847,-1.7272215,-7.9719443
26,1778597710433,2.7799184,-2.2487898,1.3219063,6.529844,-3.4448218,-7.5571666
27,1778597710443,2.8315067,-2.2036653,1.3072715,6.403242,-4.1534257,-7.3801684
28,1778597710453,3.070972,-2.0676818,1.460512,5.9395957,-5.3927183,-7.3473344
29,1778597710463,3.1156085,-2.1289656,1.5635668,5.7651935,-5.5197783,-7.505701
30,1778597710473,2.9670024,-2.15726,1.6740001,5.81223,-5.298798,-7.662999
31,1778597710483,2.7173536,-2.3862367,1.4258149,6.0962825,-4.7942233,-7.6914043
32,1778597710493,2.5273426,-2.564357,1.126834,6.10514,-4.5888195,-7.574729
33,1778597710503,1.9879209,-2.6932058,0.5904003,6.10514,-4.5888195,-7.574729
34,1778597710513,1.5791165,-2.639666,0.29812714,4.87837,-3.901291,-6.3080997
35,1778597710523,1.2365355,-2.6704607,0.16202165,4.1430407,-3.6900842,-5.682421
36,1778597710533,0.98042303,-2.7613196,0.13915445,3.3615913,-3.355941,-5.0805664
37,1778597710543,0.6208289,-2.7794304,0.18549863,2.5806003,-2.8852692,-4.5431576
38,1778597710553,-0.45246542,-3.1362805,0.5441171,0.5421429,-1.3629931,-4.0080395
39,1778597710563,-0.9444453,-3.2811062,0.6954674,0.25579983,-0.6027713,-3.7963748
40,1778597710573,-0.9444453,-3.2811062,0.6954674,0.25579983,-0.6027713,-3.7963748
41,1778597710583,-1.592105,-3.4070892,0.6612581,0.15806139,0.25167647,-3.30753
42,1778597710593,-2.026033,-3.4085524,0.5760092,0.15042557,0.6221663,-2.8919888
43,1778597710603,-3.1764047,-3.126036,0.6068647,-0.539394,0.95737857,-1.2339478
44,1778597710613,-3.416114,-3.6577137,0.17385161,-1.3741413,1.9414824,-0.75747293
45,1778597710623,-3.743755,-3.208175,0.5578374,-1.9485074,3.031877,-0.5367978
46,1778597710633,-4.0209055,-3.155306,0.55100775,-1.5954273,3.1552718,-0.3210097
47,1778597710643,-4.1341434,-3.173478,0.2800773,-0.98990715,2.5042422,0.026725354
48,1778597710653,-3.995233,-3.0568247,0.2128173,0.11682798,1.0987939,0.72586066
49,1778597710663,-3.995233,-3.0568247,0.2128173,0.5016731,0.63438356,1.0800097
50,1778597710673,-3.0698133,-2.6964986,-0.13366634,0.35414913,0.7483099,1.231657
51,1778597710683,-2.6177747,-2.5946026,-0.21470766,0.07742717,0.9810496,1.3219124
52,1778597710693,-1.9566995,-2.5138662,-0.17452239,-0.64934975,1.4724907,1.5722144
53,1778597710703,-1.5164909,-2.4162996,-0.09085896,-1.0370965,1.6621643,1.8600847
54,1778597710713,-1.0049977,-2.2817185,0.0071345624,-1.3093897,1.7085901,2.263103
55,1778597710723,-0.46472222,-2.1264045,0.14122775,-1.2852604,1.6583464,2.8115072
56,1778597710733,-0.036160648,-2.0388386,0.18049833,-1.1992812,1.6120734,3.2527046
57,1778597710743,0.5130178,-1.9763957,0.20428021,-1.120785,1.6920967,4.1728206
58,1778597710753,1.0297552,-1.8396196,0.2189762,-1.3069462,2.289523,5.27024
59,1778597710763,2.265681,-1.3694092,0.40148684,-2.4680483,4.5407143,7.0936728
60,1778597710773,2.265681,-1.3694092,0.40148684,-2.4680483,4.5407143,7.0936728
61,1778597710783,2.7237566,-1.0445732,0.5107615,-3.0987666,5.439144,7.3429055
62,1778597710793,2.9722464,-0.7800455,0.46270993,-4.261396,6.2745023,6.901403
63,1778597710803,2.7613196,-0.76449585,0.39221802,-5.6262217,6.539465,6.1920357
64,1778597710813,2.5114882,-0.8449273,0.41843903,-7.642382,6.438825,5.45915
65,1778597710823,2.1651874,-1.0378045,0.50704175,-7.642382,6.438825,5.45915
66,1778597710833,1.8782194,-1.346359,0.7262619,-8.900307,6.0559654,5.298645
67,1778597710843,1.6988186,-1.6900376,1.0385972,-9.689697,5.4944277,5.2861223
68,1778597710853,1.3596525,-2.1184163,1.5360652,-9.782244,4.139681,5.7218223
69,1778597710863,1.4204488,-2.2799501,1.6414982,-9.385792,3.0912836,6.124535
70,1778597710873,1.5744821,-2.5003288,1.6243021,-8.81952,2.202322,6.381709
71,1778597710883,1.7865677,-2.7247322,1.6072888,-8.432078,1.3677273,6.5871124
72,1778597710893,1.8804147,-2.847971,1.7539439,-7.809912,0.11362094,6.776023
73,1778597710903,1.9024282,-2.7828453,1.9556019,-6.9418726,-1.1779009,7.068169
74,1778597710913,2.1172576,-2.7466238,2.0421314,-5.607896,-2.5515842,7.6266527
75,1778597710923,2.411848,-2.734184,2.0185935,-4.677853,-3.0260737,7.9879794
76,1778597710933,2.582102,-2.6076522,1.9300517,-4.0033054,-2.723848,8.061894
77,1778597710943,2.4813035,-2.359406,1.5732015,-4.117232,-1.8936822,7.8131194
78,1778597710953,2.1496377,-2.3270261,1.077258,-6.416834,0.21456642,7.208821
79,1778597710963,2.1496377,-2.3270261,1.077258,-6.416834,0.21456642,7.208821
80,1778597710973,2.1496377,-2.3270261,1.077258,-7.9959207,1.0842859,6.9200344
81,1778597710983,2.3319044,-3.0954244,1.0948809,-7.9959207,1.0842859,6.9200344
82,1778597710993,2.3319044,-3.0954244,1.0948809,-7.9959207,1.0842859,6.9200344
83,1778597711003,3.3908076,-3.2831795,2.7768693,-11.365759,-3.20353,5.0153565
84,1778597711013,3.3908076,-3.2831795,2.7768693,-10.007958,-5.0046663,4.571257
85,1778597711023,3.775464,-2.485084,4.368304,-8.500801,-4.981606,4.659069
86,1778597711033,3.615516,-2.2005553,4.3558636,-8.111833,-4.489554,4.7401614
87,1778597711043,3.8176007,-1.4835621,4.2872014,-7.8690133,-1.8979583,4.66136
88,1778597711053,3.9162042,-1.252634,3.937425,-8.451473,0.59956425,4.007581
89,1778597711063,4.0118804,-0.98036206,3.5592933,-9.320276,1.9953914,3.2708778
90,1778597711073,4.1715846,-0.48106465,3.9226677,-10.187705,2.3667974,2.4039075
91,1778597711083,4.483188,0.2080609,4.980169,-9.738414,0.7506007,1.2266175
92,1778597711093,4.483188,0.2080609,4.980169,-8.575021,-0.9279043,0.35033122
93,1778597711103,4.230064,0.8116327,6.5652003,-6.8946834,-1.7392861,0.016798794
94,1778597711113,3.6285655,1.2283643,6.959979,-5.819713,-1.3510813,0.43172902
95,1778597711123,3.933949,1.9978606,7.5612335,-3.5773797,-0.8562804,1.7589865
96,1778597711133,4.8862605,2.3077567,7.983637,-1.779145,-1.183246,2.3907738
97,1778597711143,6.5703225,2.4873402,8.174685,0.8501717,-2.01387,2.333658
98,1778597711153,7.5437326,2.0280452,7.3065844,3.4694092,-2.0825922,0.111635625
99,1778597711163,6.7355146,1.2334865,6.1051126,2.1035144,2.1038198,-3.0337095
100,1778597711173,4.984681,0.1349469,5.0796256,0.77457714,5.179068,-3.5245397
101,1778597711183,4.1760364,-0.304347,4.9015055,0.15134187,7.99363,-3.504534
102,1778597711193,3.5750866,-0.64772075,4.9041276,1.3634512,8.503397,-3.2311716
103,1778597711203,3.0964,-0.95060426,4.8421116,1.3634512,8.503397,-3.2311716
104,1778597711213,2.7265005,-1.22934,4.65765,4.3408084,6.4417267,-2.7267497
105,1778597711223,2.7265005,-1.22934,4.65765,6.053369,4.8701234,-2.3693936
106,1778597711233,2.511549,-1.6395469,4.5065436,7.7569194,3.1296153,-2.1056526
107,1778597711243,2.6468008,-1.8064469,4.484591,9.500482,1.4575244,-2.0766363
108,1778597711253,3.0065777,-2.1290267,3.9804761,12.135296,-0.5991061,-2.5189028
109,1778597711263,3.2911675,-2.2571437,3.4649582,13.039835,-1.1618657,-3.1213686
110,1778597711273,3.2911675,-2.2571437,3.4649582,13.419641,-1.2793045,-4.021326
111,1778597711283,3.8694942,-2.581614,2.253546,13.094966,-0.9980011,-5.415473
112,1778597711293,3.8967516,-2.8442514,1.767786,12.1608,-0.42241332,-6.6507955
113,1778597711303,3.7515602,-2.950904,1.4786838,10.985037,-0.03940081,-7.596873
114,1778597711313,3.70607,-2.9225485,1.4286199,10.110431,-0.24113905,-8.172919
115,1778597711323,3.6532009,-2.9874914,1.6384493,9.102962,-1.3326025,-8.955284
116,1778597711333,3.4140408,-3.003285,1.7317475,9.102962,-1.3326025,-8.955284
117,1778597711343,3.3437927,-2.9988334,1.7368697,8.528595,-1.6119207,-8.829293
118,1778597711353,3.1515255,-2.7081459,1.5827143,8.178875,-1.505172,-8.644813
119,1778597711363,3.1515255,-2.7081459,1.5827143,8.178875,-1.505172,-8.644813
120,1778597711373,3.36355,-2.4775226,1.349164,7.6938477,-2.009594,-8.432842
121,1778597711383,3.3412313,-2.362333,1.3123327,7.736303,-2.8099802,-8.352208
122,1778597711393,3.2879357,-2.1911643,1.2809894,7.942012,-4.074013,-8.139016
123,1778597711403,3.2071993,-2.0409727,1.16769,8.141612,-5.0805664,-7.854658
124,1778597711413,3.1929302,-1.9052941,0.9543849,8.141612,-5.0805664,-7.854658
125,1778597711423,3.172807,-1.7654688,0.687845,7.5254016,-6.591083,-7.349625
126,1778597711433,3.108596,-1.6890619,0.6238779,6.649879,-6.6231537,-7.1652966
127,1778597711443,3.0163345,-1.6577797,0.6688805,6.1098742,-6.434702,-7.0263247
128,1778597711453,3.0163345,-1.6577797,0.6688805,5.3765306,-5.740759,-6.753726
129,1778597711463,3.0163345,-1.6577797,0.6688805,4.87837,-5.096754,-6.6152124
130,1778597711473,2.6424713,-2.2682421,0.24818522,4.1137195,-4.699692,-6.4502788
131,1778597711483,2.380566,-2.324099,0.046953958,3.3542612,-4.7163377,-6.2286873
132,1778597711493,2.1826885,-2.432337,0.11012838,1.3020593,-4.8543935,-5.7871847
133,1778597711503,1.8452905,-2.8269331,0.80163217,-0.3126103,-4.383569,-5.7442713
134,1778597711513,1.2428774,-3.0849972,0.95225066,-1.2388347,-3.588986,-5.9380684
135,1778597711523,1.2428774,-3.0849972,0.95225066,-1.8536706,-2.5996897,-6.190814
136,1778597711533,0.45929506,-3.3425124,1.0406705,-2.2305744,-1.813659,-6.244112
137,1778597711543,-1.0867097,-3.8838851,1.6005203,-1.7166841,-0.65240407,-4.113261
138,1778597711553,-1.0867097,-3.8838851,1.6005203,-0.6954701,-0.18906279,-2.3593142
139,1778597711563,-1.9270637,-3.612589,1.1920818,-0.01817324,-0.06261369,-1.4637859
140,1778597711573,-1.9270637,-3.612589,1.1920818,-0.01817324,-0.06261369,-1.4637859
141,1778597711583,-2.9350493,-3.5330112,0.44417223,-0.46196684,0.089186326,-0.9656252
142,1778597711593,-3.324767,-3.6761901,0.30904242,-1.4237741,0.6395759,-1.0387764
143,1778597711603,-3.7771716,-4.0302963,0.3351415,-2.5981627,1.4596626,-1.1155926
144,1778597711613,-4.194208,-4.241467,0.48807728,-2.9675834,1.8312213,-0.874759
145,1778597711623,-4.575084,-4.3865976,0.6429034,-2.6042712,1.6417004,-0.12293663
146,1778597711633,-4.549656,-4.249577,0.60790133,-1.156826,0.6666067,1.8500054
147,1778597711643,-4.3054338,-4.1493273,0.5438122,-0.63606346,0.27183503,2.5497515
148,1778597711653,-3.1317682,-3.6252723,0.18458393,0.4538729,-0.49098295,4.4290786
149,1778597711663,-2.4220314,-3.3449512,0.061101127,0.3323107,-0.36850446,5.1385984
150,1778597711673,-1.7008309,-3.1268897,0.09878625,-0.118507855,0.010231993,5.701816
151,1778597711683,-0.8259628,-2.8937054,0.31227434,-0.69974613,0.62995476,6.2497625
152,1778597711693,-0.40288937,-2.809859,0.41295093,-0.9428705,1.0842859,6.5865016
153,1778597711703,0.406792,-2.7943704,0.49588257,-1.4304937,2.3547328,7.6364264
154,1778597711713,0.6311344,-2.818823,0.49600452,-1.6945401,3.08884,8.270351
155,1778597711723,1.2784283,-2.8929737,0.5950347,-2.1516201,4.3537893,9.551641
156,1778597711733,1.925844,-2.914987,0.6938819,-2.4958427,5.1972413,10.940749
157,1778597711743,3.6832027,-2.686803,0.983533,-2.713158,5.4000487,12.01633
158,1778597711753,3.6832027,-2.686803,0.983533,-2.7832549,5.307197,12.1814165
159,1778597711763,4.199879,-2.3948958,1.0592082,-2.9565878,4.820338,10.626154
160,1778597711773,3.9012032,-2.095488,0.9165779,-3.3945782,4.616003,9.758114
161,1778597711783,3.5257547,-2.2917192,0.94542104,-4.2055016,4.329355,9.312488
162,1778597711793,3.0932903,-2.4430084,1.2484875,-4.2055016,4.329355,9.312488
163,1778597711803,2.9431596,-2.5958223,1.437462,-5.330105,3.6392298,9.582337
164,1778597711813,2.9431596,-2.5958223,1.437462,-5.330105,3.6392298,9.582337
165,1778597711823,2.74827,-2.8694358,1.7463824,-5.43777,3.4582608,9.812328
166,1778597711833,2.7386966,-2.9600508,1.7834578,-5.364619,3.4417675,9.877691
167,1778597711843,2.8358972,-2.9669414,1.7138195,-5.2319083,3.1908545,9.729098
168,1778597711853,2.8733995,-2.9576116,1.6648532,-5.336213,3.1299207,9.427789
169,1778597711863,2.8846195,-2.990967,1.5849705,-5.5814757,3.1302261,9.0383625
170,1778597711873,2.7384524,-2.918768,1.5826533,-5.87408,3.1082351,8.6329
171,1778597711883,2.4229462,-2.7232077,1.6268023,-6.337269,2.1577287,7.7553926
172,1778597711893,2.4229462,-2.7232077,1.6268023,-6.337269,2.1577287,7.7553926
173,1778597711903,2.4161775,-2.631495,1.814679,-6.363536,1.2247849,7.452098
174,1778597711913,2.5449047,-2.1850057,2.1847005,-6.1211753,0.5934556,7.0770264
175,1778597711923,2.476181,-2.057803,2.1586015,-5.3334646,-0.35170567,5.9896865
176,1778597711933,2.476181,-2.057803,2.1586015,-5.3334646,-0.35170567,5.9896865
177,1778597711943,2.476181,-2.057803,2.1586015,-5.3334646,-0.35170567,5.9896865
178,1778597711953,2.22141,-1.7815673,2.0278623,-5.1925073,-0.50869805,4.9318204
179,1778597711963,2.22141,-1.7815673,2.0278623,-5.1925073,-0.50869805,4.9318204
180,1778597711973,2.0828044,-1.5239303,2.2343378,-5.1460814,0.16829337,4.495052
181,1778597711983,2.125429,-0.94231105,2.2090921,-4.2523856,0.95096445,4.194048
182,1778597711993,2.350259,-0.3655701,2.1457958,-4.187634,1.5572482,3.6525161
183,1778597712003,2.497341,-0.0127446465,1.8515105,-4.619821,2.5700629,2.9066496
184,1778597712013,2.4871573,0.15531394,1.5442973,-5.681047,3.7971385,2.0066924
185,1778597712023,2.8092494,0.26708874,1.7337596,-7.0193,4.745354,1.0720685
186,1778597712033,3.2545192,0.0851879,1.9187704,-7.673231,4.7740645,0.18081611
187,1778597712043,3.2268956,0.25849068,2.1970794,-7.932696,4.406171,-0.6243043
188,1778597712053,3.4070892,0.33483663,2.2637298,-8.124355,3.9570324,-1.401783
189,1778597712063,2.915963,0.27617463,2.5285013,-8.9251995,2.9481883,-2.4388795
190,1778597712073,2.39703,0.04914921,3.2419574,-9.844552,1.5841264,-3.0567696
191,1778597712083,2.063413,-0.3902667,6.4505596,-9.706801,0.41538838,-2.463925
192,1778597712093,3.9065084,0.13836174,9.48531,-8.260119,-0.7881689,-1.3011429
193,1778597712103,5.6024,0.57564336,9.308836,-3.1528282,-3.4009922,0.98670006
194,1778597712113,5.6024,0.57564336,9.308836,2.1138992,-3.9532144,1.2130257
195,1778597712123,6.0342546,0.77467936,8.104619,3.8140898,-2.859002,0.21731532
196,1778597712133,6.1540785,0.27702835,6.9735775,3.5819612,0.84742284,-0.7646506
197,1778597712143,4.8660765,-0.46917373,5.216524,2.920394,7.338935,-1.7105755
198,1778597712153,4.1053004,-0.79535127,4.509714,3.2075007,7.5029526,-1.7913623
199,1778597712163,3.5843556,-1.1223825,4.1493273,3.2075007,7.5029526,-1.7913623
200,1778597712173,3.2615926,-1.3597745,4.003831,4.5060472,5.009095,-1.6688838
201,1778597712183,3.1109133,-1.3914835,3.9744391,4.748561,4.6798387,-1.6635388
202,1778597712193,2.7262566,-1.4650245,3.981208,4.748561,4.6798387,-1.6635388
203,1778597712203,2.5883217,-1.4897211,4.2900677,6.4241643,2.7550023,-1.4114041
204,1778597712213,2.6366174,-1.5607618,4.3767185,7.61749,2.0754147,-1.3901765
205,1778597712223,2.7680275,-1.5875926,4.1171308,9.133505,1.6207782,-1.5560265
206,1778597712233,2.8546789,-1.6134478,3.7967458,9.870208,1.561677,-1.7676913
207,1778597712243,3.0595686,-1.7335157,3.0629225,10.701443,1.5830573,-2.3289237
208,1778597712253,3.219822,-1.812118,2.719549,10.833695,1.3414601,-2.8470902
209,1778597712263,3.450628,-1.9798715,2.5508807,10.948843,0.6339254,-3.8001926
210,1778597712273,3.649542,-2.3566008,2.625763,11.246945,-0.40958515,-4.9953504
211,1778597712283,3.720644,-2.6992428,2.6350927,11.552378,-1.0106765,-5.748242
212,1778597712293,3.621919,-3.210431,2.6739974,12.337951,-2.4749205,-7.033961
213,1778597712303,3.603625,-3.4141018,2.72211,12.827101,-3.5613444,-7.5353284
214,1778597712313,3.6183207,-3.5533173,2.605091,13.299605,-4.4160976,-8.047539
215,1778597712323,3.6690555,-3.4331882,1.9827987,13.080305,-4.612338,-8.614574
216,1778597712333,3.7962582,-3.061459,1.7080265,12.250292,-5.111873,-9.290649
217,1778597712343,3.8021731,-2.8665698,1.6866837,11.568108,-6.651559,-10.020175
218,1778597712353,3.8021731,-2.8665698,1.6866837,11.568108,-6.651559,-10.020175
219,1778597712363,3.7695491,-2.441362,2.1202457,11.41417,-9.331577,-9.931752
220,1778597712373,3.7695491,-2.441362,2.1202457,11.41417,-9.331577,-9.931752
221,1778597712383,4.061091,-2.28928,1.7265642,11.340561,-10.109209,-9.729709
222,1778597712393,3.8788848,-2.178542,1.3530058,8.864113,-8.195063,-8.962768
223,1778597712403,3.5508168,-1.9399302,0.86334306,7.083135,-6.1964645,-8.481864
224,1778597712413,3.5508168,-1.9399302,0.86334306,7.083135,-6.1964645,-8.481864
225,1778597712423,3.5508168,-1.9399302,0.86334306,7.083135,-6.1964645,-8.481864
226,1778597712433,2.6997917,-1.5041732,0.8475495,2.9721649,-3.8183658,-7.2147765
227,1778597712443,2.5152078,-1.721137,0.8629772,3.1910074,-4.7201557,-7.202254
228,1778597712453,2.3294652,-2.0993907,0.44862375,3.2033772,-5.161659,-7.0634346
229,1778597712463,1.9540163,-2.3816633,-0.21293926,2.0502164,-5.7355666,-6.4566927
230,1778597712473,1.9121237,-2.4779494,-0.05719846,0.3016147,-5.6842537,-5.6091175
231,1778597712483,2.049449,-2.522952,0.38185155,-1.9097174,-3.9107592,-4.535369
232,1778597712493,1.9646268,-2.5490513,0.6626606,-2.8429668,-2.4895813,-4.346459
233,1778597712503,0.6896134,-2.5863094,1.0054245,-2.9420798,-1.6258179,-4.2233696
234,1778597712513,0.6896134,-2.5863094,1.0054245,-2.9420798,-1.6258179,-4.2233696
235,1778597712523,0.6896134,-2.5863094,1.0054245,-2.538145,-1.9654589,-3.7398698
236,1778597712533,-0.24452646,-2.6033225,1.1370785,-1.9975294,-2.573728,-3.0121765
237,1778597712543,-0.36130157,-2.599237,1.2591588,-1.7771597,-2.629164,-2.702315
238,1778597712553,-0.63174415,-2.8732774,0.82462126,-1.7771597,-2.629164,-2.702315
239,1778597712563,-1.0199986,-3.0359697,0.55326396,-1.7626517,-0.81061816,-2.1261165
240,1778597712573,-1.6836349,-3.4765441,0.2976393,-3.6457965,-0.056046885,-3.692375
241,1778597712583,-1.6836349,-3.4765441,0.2976393,-4.5329256,0.04337143,-4.401895
242,1778597712593,-3.2562265,-4.933398,0.6921136,-5.6935697,0.076358154,-5.160437
243,1778597712603,-4.493921,-5.464343,1.7622371,-5.395773,-0.68707067,-4.404186
244,1778597712613,-4.493921,-5.464343,1.7622371,-4.2264237,-0.88040954,-3.2302554
245,1778597712623,-4.4298315,-5.367752,1.9780421,-4.2264237,-0.88040954,-3.2302554
246,1778597712633,-4.4298315,-5.367752,1.9780421,-0.66706485,-1.3573426,0.5841399
247,1778597712643,-3.0654838,-4.41477,1.554542,0.61391956,-0.91247994,2.7508788
248,1778597712653,-2.0743892,-3.9438887,1.2049484,1.1456778,0.12186762,4.08959
249,1778597712663,-1.516064,-3.6019785,1.1229924,1.2753339,0.8170323,4.6870165
250,1778597712673,-0.5251526,-3.0167615,0.8747462,1.5816828,1.9385809,5.7082305
251,1778597712683,0.3126402,-2.5799675,0.67016107,1.8506162,2.5395195,6.4550133
252,1778597712693,0.9091384,-2.274828,0.45069703,2.0195205,2.93704,7.019605
253,1778597712703,1.4453282,-2.0234716,0.1484233,1.8605428,3.466813,7.7297363
254,1778597712713,1.4453282,-2.0234716,0.1484233,1.2779301,4.0646973,8.327926
255,1778597712723,3.2938507,-1.3594086,-0.2720281,0.34269542,4.7100763,8.842885
256,1778597712733,3.2938507,-1.3594086,-0.2720281,-0.52412236,5.1637964,9.002016
257,1778597712743,4.101154,-0.5864976,-0.0064028124,-3.926947,6.3879704,7.7973895
258,1778597712753,4.101154,-0.5864976,-0.0064028124,-3.926947,6.3879704,7.7973895
259,1778597712763,3.8364432,-0.5579594,0.1299466,-6.938971,6.4284406,6.0568814
260,1778597712773,2.956331,-0.995302,0.22885482,-7.581601,6.354373,5.843995
261,1778597712783,2.215434,-1.6033252,0.34733734,-9.911594,6.416223,5.5880427
262,1778597712793,2.215434,-1.6033252,0.34733734,-11.153636,6.6737027,5.858045
263,1778597712803,1.4601462,-2.312391,0.75004375,-12.103073,6.6952357,6.2496095
264,1778597712813,1.4414866,-2.6249092,0.90035737,-12.869098,6.114914,6.653239
265,1778597712823,1.4414866,-2.6249092,0.90035737,-13.058008,5.3889003,6.8215322
266,1778597712833,1.6288756,-2.86035,1.7160149,-12.02473,2.842356,7.1100135
267,1778597712843,1.7454067,-2.833214,1.8918178,-10.5635395,0.82848597,7.481114
268,1778597712853,2.0157273,-2.853398,1.7772989,-8.830974,-1.066418,8.001418
269,1778597712863,2.5186226,-2.7753448,1.5966785,-7.739815,-1.9587394,8.1611595
270,1778597712873,2.9490745,-2.523501,0.8923082,-7.003112,-2.2327125,8.034863
271,1778597712883,2.9490745,-2.523501,0.8923082,-7.8899355,-1.7099645,7.124216
272,1778597712893,2.9490745,-2.523501,0.8923082,-7.8899355,-1.7099645,7.124216
273,1778597712903,2.9490745,-2.523501,0.8923082,-9.982607,-1.5080736,6.5193067
274,1778597712913,3.1357317,-3.0868876,0.24367274,-12.073904,-1.3658947,5.9611287
275,1778597712923,3.2270787,-3.6564937,1.01573,-14.575855,-1.7084373,4.646394
276,1778597712933,3.038714,-4.02804,2.792236,-14.040127,-1.8924606,4.192979
277,1778597712943,2.7760155,-3.6613114,3.5106926,-12.042445,-1.9892827,3.7191002
278,1778597712953,2.511915,-3.0664594,3.6386268,-9.187413,-2.1792617,3.4222198
279,1778597712963,2.511915,-3.0664594,3.6386268,-7.495164,-2.334727,3.3111951
280,1778597712973,2.3207452,-2.2721448,2.626495,-5.5122952,-3.2562172,3.1256447
281,1778597712983,2.3911152,-1.9246854,2.2048237,-4.968167,-4.6862526,2.8634307
282,1778597712993,2.5118537,-1.5237474,2.22452,-5.2285485,-5.2998667,2.5216517
283,1778597713003,2.6508255,-1.3002588,2.4838643,-6.124535,-4.597372,1.9075794
284,1778597713013,2.6508255,-1.3002588,2.4838643,-6.124535,-4.597372,1.9075794
285,1778597713023,2.4980726,-1.439962,2.979625,-8.05884,-0.43371433,1.2837334
286,1778597713033,2.8297992,-1.8535228,3.450994,-8.59747,0.6397286,1.4937183
287,1778597713043,3.40093,-1.8698043,4.1171913,-8.529054,-0.26908615,1.473407
288,1778597713053,4.139815,-1.5497246,5.2166457,-7.631234,-2.6714664,0.86132
289,1778597713063,4.2569556,-1.0782337,6.1091976,-6.6959996,-4.9609895,0.40683624
290,1778597713073,4.748204,-0.6093648,7.41775,-5.604383,-6.2702265,0.205098
291,1778597713083,4.925714,-0.4200855,7.893753,-4.725348,-5.1540227,0.0983493
292,1778597713093,5.833572,-0.71126103,9.083335,-3.8621955,-1.9703459,-0.025503624
293,1778597713103,5.833572,-0.71126103,9.083335,-2.9487994,0.86819226,-0.107359566
294,1778597713113,5.5712395,-1.0055465,8.91174,-1.0867293,3.7491853,-0.32268956
295,1778597713123,4.688993,-1.5227717,8.09407,2.1109977,5.2581754,-0.50579643
296,1778597713133,3.8443704,-2.1060374,6.7463083,5.636301,5.4809885,-0.34254268
297,1778597713143,3.4666657,-2.467949,5.27482,8.242863,4.7914743,0.1563815
298,1778597713153,3.4666657,-2.467949,5.27482,8.242863,4.7914743,0.1563815
299,1778597713163,3.3473294,-2.511549,4.4008665,9.422596,4.11937,0.39522982
300,1778597713173,3.3473294,-2.511549,4.4008665,10.028575,3.3980906,0.36911532
301,1778597713183,3.146891,-2.2544608,3.5127048,9.858143,2.9816332,0.09193522
302,1778597713193,3.0834725,-1.9366984,3.0301158,9.858143,2.9816332,0.09193522
303,1778597713203,3.3860512,-1.4793546,2.9690146,9.73704,2.3956609,-1.0306823
304,1778597713213,3.450628,-1.4657563,2.8374827,10.292622,1.7869335,-2.2382102
305,1778597713223,3.483191,-1.4995387,2.7178414,10.70526,1.1609493,-3.0416508
306,1778597713233,3.5588052,-1.771201,2.3749557,11.3653,-0.26068676,-4.713742
307,1778597713243,3.553439,-2.1997015,2.040058,11.438757,-0.946383,-6.297257
308,1778597713253,3.529169,-2.5859435,1.8676698,11.198381,-1.0748174,-7.1179547
309,1778597713263,3.2730567,-2.9958456,1.7380892,10.191676,-0.8520043,-8.060978
310,1778597713273,3.190186,-3.103047,1.7570537,9.686032,-0.4636467,-8.207738
311,1778597713283,3.3759289,-3.1295118,1.9629195,9.027824,0.14263703,-8.088314
312,1778597713293,3.3759289,-3.1295118,1.9629195,9.016066,0.3379612,-8.023257
313,1778597713303,3.6188087,-3.0313964,1.9885306,9.492693,0.23808473,-8.317083
314,1778597713313,3.6567986,-3.0230422,1.9396253,9.884716,-0.17134771,-8.630915
315,1778597713323,3.3966615,-3.2077482,1.5416144,10.412962,-0.998612,-9.048747
316,1778597713333,3.3966615,-3.2077482,1.5416144,10.785437,-2.3663392,-9.376018
317,1778597713343,3.1659772,-3.166831,1.381422,10.609813,-3.402214,-9.190468
318,1778597713353,3.1175601,-2.9577336,1.1702511,10.195494,-4.3180537,-8.589987
319,1778597713363,3.1175601,-2.9577336,1.1702511,10.195494,-4.3180537,-8.589987
320,1778597713373,3.1409152,-2.8066273,1.1350052,10.002918,-4.81316,-8.297994
321,1778597713383,3.1409152,-2.8066273,1.1350052,9.625556,-6.2810693,-8.049677
322,1778597713393,3.157684,-2.3396487,0.83071923,8.831126,-7.1023774,-7.902
323,1778597713403,2.7586975,-1.8855978,0.48783335,7.68835,-7.3532906,-7.604814
324,1778597713413,2.7586975,-1.8855978,0.48783335,7.68835,-7.3532906,-7.604814
325,1778597713423,2.681132,-1.7631516,0.52307934,6.90293,-7.189426,-7.3815427
326,1778597713433,2.681132,-1.7631516,0.52307934,6.90293,-7.189426,-7.3815427
327,1778597713443,2.6129572,-1.8250456,0.64936715,4.821254,-4.867069,-6.9968505
328,1778597713453,1.0937833,-2.4179459,-0.5963763,4.1022654,-3.6992471,-6.6514063
329,1778597713463,0.8317558,-2.166041,-0.5669843,0.20265454,-2.933375,-4.6373835
330,1778597713473,0.94133544,-2.1370149,0.21440275,-1.4408784,-2.868165,-3.954436
331,1778597713483,0.7513853,-2.236472,0.85651344,-2.03861,-2.356718,-3.80004
332,1778597713493,0.3070911,-2.324099,1.2780623,-1.8898643,-1.8332067,-3.7363572
333,1778597713503,-0.32770205,-2.400262,1.5411265,-1.2889256,-1.2600623,-3.3544137
334,1778597713513,-0.80809593,-2.57887,1.627717,0.4250095,0.15683965,-1.0801625
335,1778597713523,-1.2591588,-2.6809492,1.3593476,0.77320266,0.61743206,0.13255776
336,1778597713533,-1.443133,-2.6758268,0.8837711,0.77320266,0.61743206,0.13255776
337,1778597713543,-1.6364979,-2.450265,-0.2587956,-0.44333544,1.6357445,1.3440562
338,1778597713553,-1.6364979,-2.450265,-0.2587956,-0.44333544,1.6357445,1.3440562
339,1778597713563,-2.1085377,-2.1820176,-1.0932955,-4.5755334,4.0112467,-1.2841915
340,1778597713573,-2.812298,-2.7021089,-1.1334198,-7.0764155,5.4991617,-3.7258198
341,1778597713583,-3.5256324,-2.31483,-0.600035,-8.935584,6.574437,-5.594151
342,1778597713593,-3.5256324,-2.31483,-0.600035,-8.935584,6.574437,-5.594151
343,1778597713603,-6.465987,-4.836197,-0.5025293,-8.010123,8.380155,-5.124854
344,1778597713613,-6.1700554,-4.83638,-0.5068588,-6.6284986,7.5185294,-2.1079433
345,1778597713623,-5.5814843,-4.464285,-0.661502,-5.3446126,6.562831,-0.27183503
346,1778597713633,-4.185183,-3.624236,-0.50039506,-3.1238122,4.077831,2.5563183
347,1778597713643,-3.190979,-3.1923203,-0.54741,-2.0935879,2.5776987,3.873191
348,1778597713653,-1.9871283,-2.6595454,-0.11695804,-1.3274102,0.44241914,5.1175237
349,1778597713663,-0.94194525,-2.356662,0.38148567,-0.62949663,-1.3037392,5.766415
350,1778597713673,-0.009085896,-2.087561,0.72278607,0.09132435,-2.7462974,6.093686
351,1778597713683,1.6619263,-1.572104,0.95200676,0.57940567,-3.9414554,6.3122234
352,1778597713693,1.6619263,-1.572104,0.95200676,0.28955013,-3.8493674,6.3331456
353,1778597713703,2.4519114,-1.3528838,1.2252544,-0.20250183,-2.8739684,6.0251164
354,1778597713713,2.7793086,-1.2194613,1.3106862,-0.88346386,-0.7725918,5.351638
355,1778597713723,2.8636427,-1.1542747,1.2698302,-1.3892603,0.4259258,5.033988
356,1778597713733,2.7770522,-1.132505,1.2404382,-4.102876,4.6228757,4.5970664
357,1778597713743,2.3598328,-1.1978139,1.2780014,-4.8786755,5.5933876,4.6541824
358,1778597713753,2.0656693,-1.250256,1.2878801,-6.165921,6.6975265,4.856837
359,1778597713763,2.0656693,-1.250256,1.2878801,-6.165921,6.6975265,4.856837
360,1778597713773,1.5345408,-1.3655065,1.334651,-8.231562,7.580227,4.812091
361,1778597713783,1.3900201,-1.5081367,1.3505056,-8.95727,7.456985,4.6453247
362,1778597713793,1.2648909,-1.7455286,1.2795869,-9.800722,7.065726,4.410447
363,1778597713803,1.1775078,-1.95548,1.1736051,-10.5233755,6.7300553,4.2261186
364,1778597713813,1.1156139,-2.139759,1.1352491,-11.221442,6.212652,4.0281982
365,1778597713823,1.100674,-2.3787365,1.1083573,-11.955702,5.20671,3.7670534
366,1778597713833,1.1011008,-2.4809985,1.1276268,-12.30084,4.4646616,3.626096
367,1778597713843,1.3122716,-2.8863878,1.2112292,-12.696528,2.49401,3.280499
368,1778597713853,1.3122716,-2.8863878,1.2112292,-12.696528,2.49401,3.280499
369,1778597713863,1.3122716,-2.8863878,1.2112292,-12.688893,-0.43264532,2.6748261
370,1778597713873,1.9066967,-3.4911182,1.5998495,-12.646896,-0.516792,2.532342
371,1778597713883,1.9981043,-3.5937464,1.6327171,-12.646896,-0.516792,2.532342
372,1778597713893,2.033899,-3.7277174,1.5938126,-12.814578,-0.2556471,2.3736696
373,1778597713903,2.1317098,-3.7988803,1.5566761,-13.04915,-0.21105394,2.2128594
374,1778597713913,2.7440016,-3.8768117,1.8946836,-13.270131,-0.5206099,1.8567249
375,1778597713923,2.7440016,-3.8768117,1.8946836,-12.928352,-2.0405953,0.2883284
376,1778597713933,2.892242,-3.6766777,2.906816,-11.310018,-4.8980703,-0.79320854
377,1778597713943,2.7673566,-3.0955465,3.9558406,-9.462608,-6.7902255,-0.63804877
378,1778597713953,2.8929737,-2.666558,4.501543,-9.462608,-6.7902255,-0.63804877
379,1778597713963,2.8929737,-2.666558,4.501543,-7.404298,-7.8259473,0.02275473
380,1778597713973,3.5338035,-2.0733526,4.062554,-5.020854,-7.5189877,0.9283624
381,1778597713983,3.497399,-1.6084476,3.5194738,-6.2735863,-5.2213707,-0.0346666
382,1778597713993,3.497399,-1.6084476,3.5194738,-7.8499236,-3.6161695,-1.3333662
383,1778597714003,1.9541385,-1.7524803,4.2552485,-9.115942,-2.2595906,-2.1665864
384,1778597714013,1.2659885,-1.6469864,5.468307,-9.092882,-1.6398678,-1.6820174
385,1778597714023,1.3561157,-1.1308587,6.6494737,-7.3516107,-1.948202,-0.5626069
386,1778597714033,1.8377903,-0.47472283,6.8391795,-3.9350412,-2.8625145,0.40591997
387,1778597714043,2.291902,-0.05567398,6.1100516,-1.7562376,-3.7594175,1.0361801
388,1778597714053,2.7121096,0.532714,6.0987096,-1.328021,-4.1922154,1.2473868
389,1778597714063,3.2134802,1.1039668,6.816495,-1.4266758,-3.8854084,1.1720977
390,1778597714073,4.510751,1.5308211,7.777893,-1.3376422,-3.140611,0.893085
391,1778597714083,4.675883,1.4216074,7.900278,-0.7686212,-0.068264194,-0.4934264
392,1778597714093,4.675883,1.4216074,7.900278,-0.7686212,-0.068264194,-0.4934264
393,1778597714103,4.6271605,0.8859663,8.12523,0.07742717,2.549446,-1.1191051
394,1778597714113,4.2589684,0.40886533,7.7847834,1.1420126,4.3843327,-1.2373075
395,1778597714123,3.07024,-0.8718801,5.8652205,3.8805215,6.207918,-0.6220135
396,1778597714133,2.7580268,-1.4144118,5.3761063,3.8805215,6.207918,-0.6220135
397,1778597714143,2.6066763,-1.7526631,5.061515,7.038084,4.496579,0.6417139
398,1778597714153,2.5944197,-1.9613949,4.598561,8.928712,2.9752192,1.3058772
399,1778597714163,2.6947916,-1.9970678,4.377268,9.970389,2.0813706,1.5436565
400,1778597714173,2.8946202,-2.0131662,3.8449194,11.762057,0.63514715,1.4410311
401,1778597714183,3.012127,-1.9370643,3.3476343,12.572981,-0.12095132,0.95615685
402,1778597714193,3.1140232,-1.8651088,2.8043709,12.900252,-0.64858615,0.14813483
403,1778597714203,3.2795208,-1.8012636,2.3472102,12.714549,-0.98990715,-1.1362094
404,1778597714213,3.357757,-1.761993,2.148174,12.392623,-1.0768027,-2.3086126
405,1778597714223,3.3598301,-1.8589499,1.8487054,11.912636,-1.2421945,-3.8121045
406,1778597714233,3.2586658,-2.0895731,1.4173387,11.068114,-1.1899655,-5.234199
407,1778597714243,2.9236462,-2.286109,1.5499076,9.348529,-1.664455,-6.7491446
408,1778597714253,2.9236462,-2.286109,1.5499076,9.348529,-1.664455,-6.7491446
409,1778597714263,2.93011,-2.2721448,1.9299297,9.3198185,-2.6251934,-7.485543
410,1778597714273,2.8910832,-2.292512,2.1880546,9.3198185,-2.6251934,-7.485543
411,1778597714283,2.909438,-2.374041,1.8081543,9.720546,-3.2183435,-8.209571
412,1778597714293,2.8609595,-2.2669616,1.568567,9.305768,-3.461926,-8.597775
413,1778597714303,2.769064,-2.218605,1.4710004,8.984453,-3.7316232,-8.795696
414,1778597714313,2.769064,-2.218605,1.4710004,8.213083,-4.770552,-8.969945
415,1778597714323,2.5950904,-2.0324357,1.5030755,7.8015127,-5.249165,-8.957117
416,1778597714333,2.5680766,-1.8326069,1.7005872,7.8015127,-5.249165,-8.957117
417,1778597714343,2.5680766,-1.8326069,1.7005872,6.835735,-6.0257273,-8.286081
418,1778597714353,2.5401483,-1.6020447,1.9191972,7.133379,-5.881563,-8.693376
419,1778597714363,2.6527767,-1.5363091,1.8318143,7.0932145,-5.5784216,-7.456832
420,1778597714373,2.6688142,-1.5234425,1.5764945,7.4285793,-5.3656874,-7.057937
421,1778597714383,2.5711865,-1.5121005,1.3395293,7.6688023,-5.483279,-6.619794
422,1778597714393,2.575516,-1.4504505,0.963044,7.772344,-5.933487,-6.247166
423,1778597714403,2.5202692,-1.4128263,0.6594287,7.772344,-5.933487,-6.247166
424,1778597714413,2.3541007,-1.3256261,0.35117903,7.2729616,-6.660722,-5.5917077
425,1778597714423,2.2462287,-1.2881849,0.09524946,4.9942813,-6.368423,-4.6627345
426,1778597714433,2.1745172,-1.2965391,0.061954834,4.9942813,-6.368423,-4.6627345
427,1778597714443,2.2590342,-1.6297292,0.088846646,3.5191946,-5.2824574,-4.38418
428,1778597714453,2.0085928,-2.251473,0.009207855,2.1682663,-4.15312,-4.22734
429,1778597714463,1.4640489,-2.6043591,0.1308613,0.15210545,-2.9714012,-3.72246
430,1778597714473,0.2911755,-3.2519581,1.6226556,-1.1284208,-0.7263188,-3.016758
431,1778597714483,-1.2046435,-3.512339,1.4203267,-0.82512623,-0.14385876,-3.2791247
432,1778597714493,-2.6979623,-3.732962,0.9948142,-0.96837413,-0.25030205,-2.9382617
433,1778597714503,-3.7783914,-4.122009,0.61552376,-1.892155,-0.46410486,-1.6071864
434,1778597714513,-3.7783914,-4.122009,0.61552376,-1.892155,-0.46410486,-1.6071864
435,1778597714523,-3.3783677,-4.050602,1.5761895,-3.1810808,0.5348125,0.6805039
436,1778597714533,-3.3580008,-3.7073505,1.361116,-2.7827966,0.6818783,1.0861185
437,1778597714543,-3.3664768,-3.261349,1.1806786,-2.6624563,0.2835942,1.1239921
438,1778597714553,-3.0980465,-2.734184,1.3712995,-2.9382617,-0.0580322,0.77732605
439,1778597714563,-3.0980465,-2.734184,1.3712995,-2.9382617,-0.0580322,0.77732605
440,1778597714573,-2.9682221,-2.6149087,1.3847759,-3.307988,0.40454552,-0.0759
441,1778597714583,-2.801078,-2.7602222,1.3302605,-3.6074648,0.9042333,-0.2144137
442,1778597714593,-2.757539,-2.8538861,1.3678846,-3.83715,1.6247488,0.21426098
443,1778597714603,-2.2580585,-2.9510257,1.2892826,-3.9883392,2.3009768,0.86376345
444,1778597714613,-1.8171182,-3.0190787,1.1045157,-4.282318,3.255301,1.9211712
445,1778597714623,-1.8171182,-3.0190787,1.1045157,-4.588056,4.009261,2.9290988
446,1778597714633,-1.0698795,-3.1265237,0.9705444,-4.9422054,4.8588223,4.329049
447,1778597714643,0.09232246,-3.2853136,1.0465244,-5.2462635,5.1786103,7.0808444
448,1778597714653,0.09232246,-3.2853136,1.0465244,-5.2462635,5.1786103,7.0808444
449,1778597714663,1.5634449,-3.4207485,1.2714766,-5.213277,4.323246,9.452987
450,1778597714673,2.3589792,-3.3795264,1.4919163,-5.1477613,3.837761,10.191829
451,1778597714683,3.3661718,-3.1986012,1.8604134,-4.834388,3.424205,10.563846
452,1778597714693,3.6672263,-2.9201095,1.9579191,-4.391663,3.3421965,10.180375
453,1778597714703,3.5321572,-2.6760707,1.867792,-4.391663,3.3421965,10.180375
454,1778597714713,3.1764047,-2.6114938,1.572043,-4.432591,2.993698,9.252929
455,1778597714723,3.034933,-2.6687534,1.4689882,-4.983286,2.9326112,9.019731
456,1778597714733,2.8990717,-2.8270552,1.452036,-5.784283,3.0346258,8.865029
457,1778597714743,2.803944,-2.944684,1.5782628,-6.814507,3.0863967,8.592889
458,1778597714753,2.7238173,-3.1181087,1.7560171,-7.5342593,2.9949195,8.42597
459,1778597714763,2.674912,-3.4598362,1.9780421,-8.275849,2.7327056,8.4210825
460,1778597714773,2.7559533,-3.7833307,2.3029392,-8.96628,2.4492643,8.723766
461,1778597714783,2.8261404,-3.8485172,2.4916089,-9.148623,2.452013,8.896336
462,1778597714793,2.8261404,-3.8485172,2.4916089,-8.996823,2.3275492,9.069058
463,1778597714803,3.003651,-3.7905872,2.7490017,-8.996823,2.3275492,9.069058
464,1778597714813,3.1773195,-3.6314924,2.7848575,-8.996823,2.3275492,9.069058
465,1778597714823,3.1773195,-3.6314924,2.7848575,-8.996823,2.3275492,9.069058
466,1778597714833,3.3238525,-2.9665756,2.6996696,-7.3951344,-1.2246321,7.1291027
467,1778597714843,3.3238525,-2.9665756,2.6996696,-7.434688,-1.7001907,6.7894616
468,1778597714853,3.0826797,-2.8005903,2.792175,-7.7543235,-1.210735,6.530913
469,1778597714863,2.9195604,-2.7554655,2.746136,-8.385958,0.14431691,6.1642413
470,1778597714873,2.9195604,-2.7554655,2.746136,-8.9887295,1.135904,5.720753
471,1778597714883,2.8322384,-2.5075245,3.012249,-8.673523,0.8361218,4.7942233
472,1778597714893,3.002736,-2.1700656,3.20226,-7.788532,-0.4980079,4.3637156
473,1778597714903,3.4184313,-1.5927149,3.559903,-6.474408,-2.6532931,3.8683043
474,1778597714913,4.025296,-0.784375,3.86114,-4.586071,-5.465411,2.6401596
475,1778597714923,4.365255,-0.1156165,3.3899536,-3.8724275,-6.543894,0.81046546
476,1778597714933,3.7133875,-0.4686249,3.0768259,-5.615837,-4.550946,-0.08597928
477,1778597714943,2.866143,-0.13006857,3.7239978,-7.007388,-1.1588113,0.91522884
478,1778597714953,3.4170897,1.0468904,4.1877446,-7.1987414,2.0056233,2.871983
479,1778597714963,4.569901,1.4914285,4.264029,-6.6346073,2.234545,3.3076825
480,1778597714973,5.912418,2.8197377,4.493616,-4.5158215,-0.713796,2.2162192
481,1778597714983,6.6069098,3.6133208,4.715458,-3.7317758,-2.1365013,1.7583756
482,1778597714993,7.5810523,4.049017,4.973278,-3.0805933,-2.851977,0.5028948
483,1778597715003,7.9792457,3.530023,4.9899254,-3.290273,-2.0715969,-0.68707067
484,1778597715013,7.9697337,2.7790647,5.4688554,-3.9634464,-0.59742624,-1.2466233
485,1778597715023,7.6509337,1.5439316,6.4642186,-3.8880045,2.6340508,-2.0350976
486,1778597715033,6.586543,0.31343293,6.8161297,-1.6403259,5.89149,-2.7108672
487,1778597715043,5.397693,-0.46063665,6.3629932,5.116913,5.7027326,-2.3151793
488,1778597715053,4.8086343,-1.01884,5.487759,6.8554354,4.8499646,-2.0804543
489,1778597715063,4.178415,-1.5622863,3.383429,8.769887,3.4796412,-1.7140878
490,1778597715073,4.178415,-1.5622863,3.383429,8.769887,3.4796412,-1.7140878
491,1778597715083,4.0832872,-1.4128873,2.6097255,8.855714,2.3533583,-1.9193386
492,1778597715093,3.8352237,-0.7751062,1.8230941,7.847175,1.9040669,-2.5343273
493,1778597715103,3.7716224,-0.59838855,1.7433335,7.270365,1.8997909,-2.9611692
494,1778597715113,3.7691832,-0.59674215,1.8449248,6.3241353,1.9897408,-4.0269766
495,1778597715123,3.7387547,-0.7624225,2.0120685,6.113539,2.103209,-4.819116
496,1778597715133,3.6110642,-1.030243,2.1670778,6.3084054,2.1875083,-5.56315
497,1778597715143,3.4564822,-1.4925871,2.2077508,7.0318227,2.0236437,-6.294508
498,1778597715153,3.39282,-1.958224,2.1197577,7.7613482,1.6577356,-6.7618203
499,1778597715163,3.2317739,-2.4458745,1.8863297,8.6156435,1.0421361,-7.300756
500,1778597715173,3.1316462,-2.7692468,1.7041237,9.179625,0.1479821,-7.6764383
501,1778597715183,3.0691426,-2.9806619,1.6983308,9.47788,-0.90133166,-7.867181
502,1778597715193,2.9951746,-2.9364517,1.8091301,9.973597,-2.4388795,-8.074265
503,1778597715203,2.9630997,-2.833397,1.7846164,10.42915,-3.710701,-8.277835
504,1778597715213,3.1195722,-2.7682104,1.5938735,10.718699,-5.0935473,-8.634886
505,1778597715223,3.240067,-2.654972,1.5668597,10.640051,-5.9574633,-8.935126
506,1778597715233,3.343,-2.4596555,1.6366808,10.583851,-7.115511,-9.312488
507,1778597715243,3.343,-2.4596555,1.6366808,10.66983,-8.227439,-9.566607
508,1778597715253,3.3346457,-1.9860915,1.6078378,10.920897,-11.744495,-9.350056
509,1778597715263,3.4640436,-1.5352725,1.214705,10.534065,-12.862837,-8.782562
510,1778597715273,3.802539,-1.3095276,0.6100966,9.3450165,-12.696071,-8.224384
511,1778597715283,4.1268873,-1.1472621,-0.0041465834,9.3450165,-12.696071,-8.224384
512,1778597715293,4.1268873,-1.1472621,-0.0041465834,3.988492,-8.487209,-7.5157804
513,1778597715303,4.1268873,-1.1472621,-0.0041465834,1.3581061,-5.240918,-7.3218307
514,1778597715313,4.091092,-1.6688168,-0.11403105,-0.29046643,-2.468201,-7.2079043
515,1778597715323,3.2692764,-1.9191972,0.43776944,-0.75640386,-1.0108292,-6.9452324
516,1778597715333,2.4849622,-2.1289656,0.81455976,0.17440203,-2.027309,-6.636593
517,1778597715343,2.4849622,-2.1289656,0.81455976,0.17440203,-2.027309,-6.636593
518,1778597715353,1.9801155,-2.520757,0.4410623,1.6957619,-4.6062293,-5.5619283
519,1778597715363,1.7665664,-2.4981947,0.2851386,1.2415836,-5.3507214,-5.26688
520,1778597715373,1.4643537,-2.543685,0.65790427,-0.54641896,-4.6966376,-5.1645603
521,1778597715383,1.0079857,-2.7285128,1.0307918,-1.7067575,-3.1928399,-5.196478
522,1778597715393,0.26062497,-2.9107187,1.2560489,-2.6520715,-1.1902709,-4.756808
523,1778597715403,-0.3884373,-3.081643,1.4860623,-2.8067732,-0.13179417,-3.98895
524,1778597715413,-0.6572335,-3.1472569,1.5943004,-2.310445,0.18417588,-2.9717066
525,1778597715423,-0.85157406,-2.945355,1.4086188,-1.1826351,-0.3313944,-1.6094772
526,1778597715433,-0.73888457,-2.6236286,1.0607326,-0.4456262,-1.1397219,-0.9077458
527,1778597715443,-1.0189009,-2.1495767,0.20421924,-2.068237,-0.5288566,-1.7719674
528,1778597715453,-1.0189009,-2.1495767,0.20421924,-2.068237,-0.5288566,-1.7719674
529,1778597715463,-1.3099544,-2.289036,0.14354497,-3.3834298,0.4896085,-2.346028
530,1778597715473,-2.6860714,-3.0249326,0.19873111,-7.604509,4.3825,-4.5259004
531,1778597715483,-2.6860714,-3.0249326,0.19873111,-7.604509,4.3825,-4.5259004
532,1778597715493,-3.287448,-3.7501578,0.42874455,-7.604509,4.3825,-4.5259004
533,1778597715503,-4.1248136,-4.3605595,-6.0979168e-05,-7.7546287,4.8320966,-6.0347376
534,1778597715513,-4.1248136,-4.3605595,-6.0979168e-05,-6.880939,4.671439,-6.0946026
535,1778597715523,-4.5673394,-4.504897,0.9695078,-3.0868547,-0.22617286,-3.1143436
536,1778597715533,-4.127192,-4.62277,0.5933273,-0.84329945,-2.0393736,-0.8405506
537,1778597715543,-3.661128,-4.3214717,1.1001252,0.63163465,-2.1138992,1.9176587
538,1778597715553,-3.120243,-4.1671333,0.9267005,1.6207782,-1.0769554,3.5947893
539,1778597715563,-1.8140693,-3.6257603,0.6641851,1.6226108,1.1898128,5.9686117
540,1778597715573,-0.29050475,-3.047922,0.5792411,1.0850494,3.058297,7.2370734
541,1778597715583,-0.29050475,-3.047922,0.5792411,1.0850494,3.058297,7.2370734
542,1778597715593,-0.050246835,-2.9416962,0.5671672,0.9448558,3.3432655,7.369631
543,1778597715603,-0.050246835,-2.9416962,0.5671672,-0.61468315,4.619821,8.026158
544,1778597715613,2.4080675,-1.8663285,1.2350111,-0.68676525,4.518265,8.13138
545,1778597715623,2.7226589,-1.6902816,1.2603785,-0.58108556,4.187939,8.0844965
546,1778597715633,3.047495,-1.3155036,1.1123209,-0.52320606,3.4810157,7.701178
547,1778597715643,3.0628006,-1.1638484,0.95225066,-0.7124216,2.9396362,7.2482214
548,1778597715653,2.7895532,-1.206107,0.7585198,-1.3993396,2.7232373,6.6552243
549,1778597715663,2.7895532,-1.206107,0.7585198,-2.542421,2.9982793,6.1220913
550,1778597715673,2.10494,-1.5264305,0.6829667,-5.253594,4.5967607,5.768095
551,1778597715683,1.8810244,-1.7594321,0.9370059,-6.892545,5.5790324,5.9359303
552,1778597715693,1.8810244,-1.7594321,0.9370059,-7.9302526,6.0500093,6.169739
553,1778597715703,1.747968,-2.2948291,1.2575734,-8.933141,6.0600886,6.513198
554,1778597715713,1.7780305,-2.4779494,1.3848369,-9.362426,5.7881007,6.7416615
555,1778597715723,1.9243196,-2.8752897,1.8171182,-9.796598,4.563316,7.383681
556,1778597715733,2.312574,-3.0940828,2.4196534,-9.5133095,2.862209,8.086176
557,1778597715743,2.6542401,-3.0788991,2.8580935,-9.5133095,2.862209,8.086176
558,1778597715753,2.8901076,-2.97121,2.9940772,-7.159188,0.605062,8.577617
559,1778597715763,2.9170604,-2.7185123,2.7300982,-6.2080708,0.39385536,8.564941
560,1778597715773,2.9170604,-2.7185123,2.7300982,-6.2080708,0.39385536,8.564941
561,1778597715783,2.9170604,-2.7185123,2.7300982,-6.2080708,0.39385536,8.564941
562,1778597715793,2.7275982,-2.687291,1.1596408,-8.81051,3.4564283,8.2056
563,1778597715803,2.6569233,-2.8602278,1.0579276,-11.320402,4.486958,7.679034
564,1778597715813,2.666741,-3.062191,1.3794707,-12.809234,4.0604215,7.0658784
565,1778597715823,2.9947479,-3.1507936,2.4277027,-13.07893,1.9526308,5.9118013
566,1778597715833,3.1032908,-3.0818262,3.3406827,-10.281014,-1.7702875,4.6981645
567,1778597715843,3.1143281,-2.9052913,3.948218,-10.281014,-1.7702875,4.6981645
568,1778597715853,3.1479275,-2.7274153,4.039931,-8.336478,-2.7469082,4.6459355
569,1778597715863,3.6436272,-1.9340763,3.067374,-7.1179547,-2.6546676,4.7731485
570,1778597715873,3.6436272,-1.9340763,3.067374,-7.2654786,-1.0772609,4.912578
571,1778597715883,4.921994,-1.3014784,3.0543857,-9.755518,1.1403327,1.5503759
572,1778597715893,5.110359,-0.87834394,3.3205597,-11.227245,1.497078,-0.9120218
573,1778597715903,4.414099,-1.4158143,3.7626586,-11.227245,1.497078,-0.9120218
574,1778597715913,2.8002853,-1.8332167,4.953338,-14.177266,4.4382415,-4.057367
575,1778597715923,1.3094666,-1.176776,6.412691,-14.177266,4.4382415,-4.057367
576,1778597715933,1.3094666,-1.176776,6.412691,-12.388805,4.4703116,-3.26706
577,1778597715943,0.6552211,0.36977768,8.12584,-10.575299,2.7898216,-2.6222918
578,1778597715953,0.6552211,0.36977768,8.12584,-7.441866,-1.1835514,-1.3994923
579,1778597715963,0.6552211,0.36977768,8.12584,-7.441866,-1.1835514,-1.3994923
580,1778597715973,5.4928813,4.1073127,10.935822,4.317748,-7.248832,1.7163786
581,1778597715983,7.1466975,4.1342044,9.039796,4.284303,-3.0497448,-0.33673948
582,1778597715993,7.1757236,2.9450498,7.2024937,0.8755226,3.0833423,-3.182608
583,1778597716003,7.1757236,2.9450498,7.2024937,0.8755226,3.0833423,-3.182608
584,1778597716013,7.1757236,2.9450498,7.2024937,0.8755226,3.0833423,-3.182608
585,1778597716023,5.2645755,0.91767544,6.335004,-3.5756998,10.954952,-4.7256536
586,1778597716033,3.454836,-0.51576185,6.445559,-0.74113226,11.484114,-2.5066855
587,1778597716043,1.4628292,-1.7171124,6.162128,-0.74113226,11.484114,-2.5066855
588,1778597716053,1.5231377,-1.8766949,5.3845215,8.035169,3.5370624,1.2783883
589,1778597716063,1.9041355,-1.7833357,4.300007,8.035169,3.5370624,1.2783883
590,1778597716073,2.807237,-1.695099,4.1110935,9.456958,2.1558962,1.2721269
591,1778597716083,3.0189567,-1.7432724,3.576306,11.351708,1.767844,-0.038026363
592,1778597716093,3.1723192,-1.8698652,3.0282257,11.641259,1.930945,-0.7463246
593,1778597716103,3.3391583,-2.0595713,2.5356357,11.609647,1.9853121,-1.7009543
594,1778597716113,3.3724527,-2.206958,2.4057503,11.594681,1.6885842,-2.513405
595,1778597716123,3.269337,-2.549783,2.248119,11.733958,0.8349001,-3.4093916
596,1778597716133,3.2264686,-2.7855895,2.1886644,11.955854,-0.17806722,-4.202753
597,1778597716143,3.1297557,-2.9862108,2.128295,12.158357,-0.9405798,-4.7317624
598,1778597716153,3.0603616,-2.9460256,2.175371,12.408048,-1.9138408,-5.2925363
599,1778597716163,3.0393238,-2.8678503,2.1351855,12.541063,-2.3956609,-5.6274433
600,1778597716173,3.176161,-2.6850348,1.8896835,12.397663,-2.9799533,-6.3158884
601,1778597716183,3.357147,-2.493621,1.6605847,11.769082,-3.160464,-6.884299
602,1778597716193,3.4881914,-2.365016,1.5380166,11.12294,-3.2421672,-7.2880807
603,1778597716203,3.5448408,-2.2608025,1.4145337,10.44717,-3.3654094,-7.625736
604,1778597716213,3.5675254,-2.1795175,1.3401392,9.963212,-3.4968982,-7.858323
605,1778597716223,3.384222,-2.066645,1.1765931,8.873581,-3.9605448,-7.9830923
606,1778597716233,3.2247005,-2.0217032,1.0614034,8.873581,-3.9605448,-7.9830923
607,1778597716243,2.9955406,-1.8924274,0.79486346,8.358622,-4.3988404,-7.5441856
608,1778597716253,2.9955406,-1.8924274,0.79486346,8.358622,-4.3988404,-7.5441856
609,1778597716263,2.9955406,-1.8924274,0.79486346,6.640258,-5.5413113,-6.088341
610,1778597716273,2.4336176,-1.45167,0.71900535,6.146526,-5.619197,-5.5724654
611,1778597716283,2.3927004,-1.4686223,0.8274264,6.146526,-5.619197,-5.5724654
612,1778597716293,2.3938591,-1.6132649,0.6957113,5.618128,-4.4177775,-3.9365683
613,1778597716303,2.3232453,-1.8428514,0.38349798,5.4622045,-3.9370265,-3.4623842
614,1778597716313,2.040607,-1.9527359,-0.2008044,4.369519,-3.2039883,-2.5389087
615,1778597716323,1.7582123,-1.8837075,-0.47295445,3.0066788,-2.8334985,-2.0767891
616,1778597716333,1.5410655,-1.8799267,-0.4803939,1.0239629,-2.6685648,-1.7742581
617,1778597716343,1.5030146,-1.823887,-0.18677919,-0.5352707,-2.7737863,-1.8694004
618,1778597716353,1.5831412,-1.7526023,0.29849303,-1.6461291,-2.8086057,-2.4732406
619,1778597716363,1.267635,-1.7937632,0.9824354,-2.0984747,-2.5057693,-3.6322048
620,1778597716373,0.8715143,-2.1114645,1.1514696,-1.9544634,-1.4784466,-4.475962
621,1778597716383,0.11378712,-2.6216774,0.6472329,-2.1206186,0.04596761,-4.667927
622,1778597716393,-0.5716797,-2.9807837,0.18135203,-2.7522533,1.6120734,-4.4753513
623,1778597716403,-1.1484207,-3.047495,-0.36252114,-3.7502544,3.2820263,-4.227951
624,1778597716413,-1.0943322,-3.067435,-0.89096665,-4.7135887,4.17053,-5.0842314
625,1778597716423,-1.2740377,-3.0102365,-1.3871541,-5.3727126,4.191452,-6.966307
626,1778597716433,-1.8929152,-3.6081374,-2.432703,-6.834055,4.3009496,-9.80683
627,1778597716443,-2.6880226,-5.050478,-2.9395008,-8.893587,4.666705,-11.904847
628,1778597716453,-2.6880226,-5.050478,-2.9395008,-8.893587,4.666705,-11.904847
629,1778597716463,-10.0791855,-7.361527,4.7202144,-8.942914,3.004388,-10.087676
630,1778597716473,-10.0791855,-7.361527,4.7202144,-3.0663908,-1.1881329,-3.2473598
631,1778597716483,-3.1510985,-3.7364986,0.63265884,5.4006596,0.7302894,4.4344234
632,1778597716493,-3.1510985,-3.7364986,0.63265884,5.4006596,0.7302894,4.4344234
633,1778597716503,-2.1586015,-3.4177606,-2.4416058,-1.1517864,5.283679,3.0923526
634,1778597716513,-1.6489986,-3.1477447,-1.4423403,-3.5871534,6.4805164,3.2285755
635,1778597716523,-1.2533048,-3.270069,-0.11866546,-4.974734,7.135059,3.5682166
636,1778597716533,-0.88694197,-3.1813443,0.0939689,-5.073083,6.7271533,4.565149
637,1778597716543,-0.15622863,-3.0796309,0.32660443,-5.285359,5.9118013,5.490762
638,1778597716553,0.47679612,-2.8608377,0.90334535,-5.251303,3.8351648,6.57123
639,1778597716563,1.4819157,-2.5527709,1.8544985,-4.5770607,1.8580993,7.188051
640,1778597716573,1.4819157,-2.5527709,1.8544985,-3.1532865,0.094989546,7.3461127
641,1778597716583,2.7607708,-2.0635352,2.5650277,-1.9956968,-0.3911065,7.1303244
642,1778597716593,2.891876,-1.7671152,2.0388386,-1.3614659,0.27015516,6.7535734
643,1778597716603,2.8418121,-1.7590661,1.3306264,-2.018146,1.4885259,6.4177504
644,1778597716613,2.4525821,-1.493014,0.70211416,-4.14075,3.4918585,5.8554487
645,1778597716623,2.4525821,-1.493014,0.70211416,-6.0286293,4.800943,5.223967
646,1778597716633,2.1342099,-1.4852085,0.7003457,-8.078846,5.418833,4.339892
647,1778597716643,1.7299181,-1.8260212,0.98066694,-10.40945,4.139681,2.8183796
648,1778597716653,1.7299181,-1.8260212,0.98066694,-11.06338,2.9616275,2.227062
649,1778597716663,1.890537,-2.3275747,1.4041063,-11.06338,2.9616275,2.227062
650,1778597716673,1.890537,-2.3275747,1.4041063,-11.643855,1.9752327,1.3906348
651,1778597716683,1.6204604,-3.4090405,1.3152596,-13.26555,2.0664043,0.627664
652,1778597716693,1.5335652,-3.5963075,1.2947707,-14.333648,2.405282,0.78954333
653,1778597716703,1.6239971,-3.9213872,1.2621468,-15.308588,2.6580274,0.8594874
654,1778597716713,1.5732015,-4.300068,1.6503402,-16.121956,2.2573,0.7470882
655,1778597716723,1.6125941,-4.3244596,1.8737069,-16.010931,1.7354681,0.6728681
656,1778597716733,1.6125941,-4.3244596,1.8737069,-14.066546,-1.2508993,0.13347405
657,1778597716743,1.6125941,-4.3244596,1.8737069,-12.043667,-3.604563,-0.41905355
658,1778597716753,2.4638023,-4.1065807,2.664119,-10.980303,-4.7503934,-0.5887214
659,1778597716763,2.4049573,-4.0963974,2.3033051,-10.153192,-5.5663567,-0.41370848
660,1778597716773,2.2556803,-4.2612243,1.9661512,-10.654253,-4.7936125,0.05085453
661,1778597716783,2.195372,-4.273603,2.160614,-11.2416,-3.9275582,0.48533243
662,1778597716793,2.2586074,-4.222929,2.4905112,-11.246335,-3.791488,0.8895725
663,1778597716803,2.7444894,-4.150364,3.1976867,-10.6147,-4.808884,1.047023
664,1778597716813,3.0839603,-3.0640204,4.7997313,-6.0493984,-8.368548,0.301462
665,1778597716823,3.021091,-2.7877846,4.732837,-5.459303,-7.6417713,0.6569856
666,1778597716833,3.021091,-2.7877846,4.732837,-5.459303,-7.6417713,0.6569856
667,1778597716843,3.096888,-2.1025617,4.7407646,-6.092617,-4.6569314,1.1397219
668,1778597716853,3.2394574,-1.7965072,4.779852,-6.7676234,-2.4689646,1.218218
669,1778597716863,3.4500794,-1.3342241,4.5984387,-8.134129,0.678824,0.36850446
670,1778597716873,2.2209833,-0.4483798,4.9373,-8.747743,0.52381694,-2.5891523
671,1778597716883,1.1322612,-0.17562,5.4434886,-8.555168,-0.9086621,-3.0543263
672,1778597716893,0.22915971,0.61064535,7.188346,-8.555168,-0.9086621,-3.0543263
673,1778597716903,0.22915971,0.61064535,7.188346,-7.699804,-3.137404,-2.4941628
674,1778597716913,2.0637789,2.1192698,11.543295,-3.3055446,-6.799541,-0.26145032
675,1778597716923,4.5436187,2.4857547,12.382308,0.4886922,-3.902818,-0.57009
676,1778597716933,4.972363,1.721259,10.431645,1.0491611,-0.108123146,-2.0990858
677,1778597716943,4.972363,1.721259,10.431645,1.0491611,-0.108123146,-2.0990858
678,1778597716953,3.614723,-0.61723113,8.337255,-1.7486018,6.6561403,-4.236503
679,1778597716963,2.6794856,-1.355079,8.022602,-2.0642664,8.426886,-3.922824
680,1778597716973,1.2136074,-1.9246854,7.5447087,-0.27656925,9.479865,-2.0318906
681,1778597716983,0.9366401,-2.0330455,6.82302,2.0158553,8.426275,-0.54137933
682,1778597716993,1.1499451,-2.0939026,6.1397486,6.4314947,5.4718256,1.4902058
683,1778597717003,1.4917943,-2.0363994,5.3461657,6.4314947,5.4718256,1.4902058
684,1778597717013,1.9431622,-1.943284,4.497275,8.543408,4.282318,2.0076087
685,1778597717023,1.9431622,-1.943284,4.497275,9.183901,4.039652,1.9147571
686,1778597717033,2.2692177,-1.8698043,4.1570716,9.183901,4.039652,1.9147571
687,1778597717043,2.3961763,-1.9281003,3.0757282,9.487654,4.097073,1.4307991
688,1778597717053,2.3666015,-1.9938358,2.8550446,9.5629425,3.8990002,0.9805914
689,1778597717063,2.6541183,-2.175737,2.72272,10.197632,2.2017112,0.2612976
690,1778597717073,2.9488914,-2.309281,2.7638807,11.000003,1.1449142,-0.4596761
691,1778597717083,3.237567,-2.505695,2.821811,12.061076,0.16982053,-1.5059355
692,1778597717093,3.1535985,-2.81614,2.2292764,13.279447,-0.5174029,-3.2400293
693,1778597717103,2.9949307,-2.8883393,1.9035257,13.279447,-0.5174029,-3.2400293
694,1778597717113,2.6855836,-2.915963,1.5060635,12.683395,-0.8028296,-4.626235
695,1778597717123,2.6855836,-2.915963,1.5060635,12.683395,-0.8028296,-4.626235
696,1778597717133,2.3920908,-2.675644,1.1692755,10.760544,-0.28298333,-4.7371073
697,1778597717143,2.4064817,-2.464229,1.1142114,9.944581,-0.35506544,-4.6135597
698,1778597717153,2.6278362,-2.265437,1.2830627,9.32501,-0.7287622,-4.6011896
699,1778597717163,2.8997424,-1.990177,1.4768544,9.047219,-1.5389223,-4.849201
700,1778597717173,3.128719,-1.8647429,1.5604569,9.072876,-2.326633,-5.2629094
701,1778597717183,3.1333535,-1.6918061,1.6772321,9.462302,-3.474907,-5.819713
702,1778597717193,3.1006079,-1.6588773,1.3729459,9.769874,-4.6196685,-6.2155538
703,1778597717203,3.020908,-1.6722318,1.1573846,9.669691,-5.1515794,-6.4000354
704,1778597717213,3.020908,-1.6722318,1.1573846,8.955132,-5.9116483,-6.391636
705,1778597717223,3.020908,-1.6722318,1.1573846,8.955132,-5.9116483,-6.391636
706,1778597717233,2.379529,-1.3778853,0.57570434,6.2657976,-6.1677537,-5.553529
707,1778597717243,2.3497102,-1.3581281,0.5683868,6.2657976,-6.1677537,-5.553529
708,1778597717253,2.4029453,-1.4144118,0.39416936,5.6541686,-5.7317486,-5.2264104
709,1778597717263,2.4029453,-1.4144118,0.39416936,4.5885143,-4.655404,-4.98802
710,1778597717273,2.3549545,-1.4554508,0.2977003,4.5885143,-4.655404,-4.98802
711,1778597717283,1.7464434,-1.7511388,-0.0029879792,3.1884112,-3.78767,-4.871956
712,1778597717293,1.788275,-1.8729142,0.07835823,1.9801197,-3.5176675,-4.508796
713,1778597717303,1.8079103,-2.013898,0.15189911,0.5674938,-3.2319353,-4.2363505
714,1778597717313,1.4828913,-2.043046,0.20507295,-0.0852157,-3.0311134,-4.3244677
715,1778597717323,1.0647572,-2.0928051,0.22781818,-0.605062,-2.807384,-4.324926
716,1778597717333,0.6626606,-2.1561015,0.41410953,-1.0852021,-2.4318545,-4.2035165
717,1778597717343,0.13860564,-2.2343378,0.7158345,-1.3292428,-1.5685493,-3.822031
718,1778597717353,-0.06671121,-2.475876,0.8702337,-1.1293371,-0.63300914,-3.413515
719,1778597717363,-0.06671121,-2.475876,0.8702337,-0.97035944,-0.1826487,-3.326314
720,1778597717373,-1.1608604,-2.8188841,-0.17494924,-1.0569496,0.9805914,-3.0159945
721,1778597717383,-2.0446925,-3.005541,-1.0440243,-2.6067147,1.2968669,-3.6265543
722,1778597717393,-1.8541325,-3.7640002,-0.98017913,-4.8383584,3.1415272,-3.78767
723,1778597717403,-3.2664711,-3.09079,-0.96170247,-6.303824,3.956727,-4.971069
724,1778597717413,-3.6639943,-3.5907583,-1.2284863,-6.6872945,4.02774,-5.6698985
725,1778597717423,-4.418855,-4.1870737,-1.2311693,-0.66355234,-4.9985576,1.1779009
726,1778597717433,-3.867421,-7.1602345,4.947118,-0.66355234,-4.9985576,1.1779009
727,1778597717443,-5.143471,-2.6364343,-0.6508306,-0.86208355,0.321926,-1.1562152
728,1778597717453,-4.9317513,-3.9088867,-1.1890938,-0.86208355,0.321926,-1.1562152
729,1778597717463,-4.9317513,-3.9088867,-1.1890938,-2.7867672,1.549307,-0.00870483
730,1778597717473,-4.792231,-4.2955556,0.41837808,-4.6544876,4.442212,1.3671165
731,1778597717483,-3.4451401,-4.0107827,1.0589643,-4.3534837,4.8004847,3.6760342
732,1778597717493,-2.1301243,-3.655579,1.0955517,0.52580225,2.7716484,8.759044
733,1778597717503,-0.6712587,-3.4121501,0.954141,1.2731959,2.4254405,9.176265
734,1778597717513,0.7998028,-3.0810945,0.7557758,2.736829,1.7017179,9.550572
735,1778597717523,1.7463824,-2.8430927,0.65997756,3.0398183,1.5764905,9.429469
736,1778597717533,2.690218,-2.505268,0.69016224,2.8782444,1.7014124,8.832195
737,1778597717543,2.690218,-2.505268,0.69016224,2.8782444,1.7014124,8.832195
738,1778597717553,2.690218,-2.505268,0.69016224,2.8782444,1.7014124,8.832195
739,1778597717563,2.690218,-2.505268,0.69016224,2.8782444,1.7014124,8.832195
740,1778597717573,2.690218,-2.505268,0.69016224,2.8782444,1.7014124,8.832195
741,1778597717583,2.690218,-2.505268,0.69016224,2.8782444,1.7014124,8.832195
742,1778597717593,2.690218,-2.505268,0.69016224,2.8782444,1.7014124,8.832195
743,1778597717603,2.690218,-2.505268,0.69016224,2.8782444,1.7014124,8.832195
744,1778597717613,2.690218,-2.505268,0.69016224,2.8782444,1.7014124,8.832195
745,1778597717623,2.690218,-2.505268,0.69016224,2.8782444,1.7014124,8.832195
746,1778597717633,2.690218,-2.505268,0.69016224,2.8782444,1.7014124,8.832195
747,1778597717643,3.1032298,-2.2881212,0.7418116,2.6548204,1.8144225,8.550128
748,1778597717653,3.1032298,-2.2881212,0.7418116,2.6548204,1.8144225,8.550128
749,1778597717663,3.1032298,-2.2881212,0.7418116,2.6548204,1.8144225,8.550128
750,1778597717673,3.1032298,-2.2881212,0.7418116,2.6548204,1.8144225,8.550128
751,1778597717683,3.1032298,-2.2881212,0.7418116,2.6548204,1.8144225,8.550128
752,1778597717693,3.1032298,-2.2881212,0.7418116,2.6548204,1.8144225,8.550128
753,1778597717703,3.1032298,-2.2881212,0.7418116,2.6548204,1.8144225,8.550128
754,1778597717713,3.1032298,-2.2881212,0.7418116,2.6548204,1.8144225,8.550128
755,1778597717723,3.1032298,-2.2881212,0.7418116,2.6548204,1.8144225,8.550128
756,1778597717733,3.1032298,-2.2881212,0.7418116,2.6548204,1.8144225,8.550128
757,1778597717743,1.7134537,-2.6671069,1.6243631,-11.337354,3.726889,4.0730968
758,1778597717753,1.7134537,-2.6671069,1.6243631,-11.337354,3.726889,4.0730968
759,1778597717763,1.7316253,-2.965539,1.8357779,-11.337354,3.726889,4.0730968
760,1778597717773,1.7316253,-2.965539,1.8357779,-11.254887,2.3264804,3.5387423
761,1778597717783,2.0324967,-3.4318466,1.9088309,-11.824213,-0.11530081,2.308307
762,1778597717793,2.2265935,-3.0978026,2.9378543,-10.219165,-1.287093,2.1006129
763,1778597717803,2.546246,-2.7235737,2.9174263,-9.025534,-2.293341,1.6534595
764,1778597717813,2.6584477,-2.58198,2.924134,-8.907026,-2.4124596,1.4517213
765,1778597717823,2.898218,-2.1615896,3.3180592,-9.041569,-2.4469736,1.0386237
766,1778597717833,3.1115842,-1.8242527,3.8247964,-9.085551,-1.9932534,0.23762658
767,1778597717843,3.2716541,-1.8085811,3.9938307,-9.287595,-1.0450377,-0.6030767
768,1778597717853,2.3578205,-1.7732131,4.0085874,-9.968405,0.571159,-1.7101172
769,1778597717863,1.4544141,-1.7099779,4.1903057,-10.524139,1.3264939,-1.9307923
770,1778597717873,1.3857516,-1.7532121,5.3991566,-10.422277,0.11255192,-1.219287
771,1778597717883,1.9956042,-1.2923315,7.3415256,-8.220261,-2.7478247,-0.3324634
772,1778597717893,2.3503811,-0.66229475,8.411406,-6.066808,-5.129283,0.30268374
773,1778597717903,3.9839518,0.9145046,10.167057,-1.0751228,-8.708648,1.6310102
774,1778597717913,5.120238,1.5417973,10.129799,1.2637274,-8.739038,1.6152804
775,1778597717923,6.4288507,2.3694675,8.752218,2.3441954,-5.9924355,0.52564955
776,1778597717933,7.3782964,2.292512,8.011686,0.21120666,-1.0800097,-1.2428054
777,1778597717943,6.8652787,1.6246679,7.5956874,-2.003638,3.4886515,-3.1974213
778,1778597717953,5.4161696,0.55814236,7.2931085,-3.461926,7.303963,-4.543616
779,1778597717963,2.1403687,-1.4146557,6.1768847,-3.324634,10.315681,-4.7154217
780,1778597717973,1.7787013,-1.5449072,5.612035,0.96196,9.703594,-2.1363485
781,1778597717983,1.7787013,-1.5449072,5.612035,0.96196,9.703594,-2.1363485
782,1778597717993,1.8529129,-1.5153323,4.690396,5.2085423,6.0703206,-0.23747386
783,1778597718003,1.8529129,-1.5153323,4.690396,5.6494346,5.6462274,-0.08368854
784,1778597718013,1.9290149,-1.4964287,3.9268146,8.901681,2.4565945,0.74388117
785,1778597718023,2.0942686,-1.5402728,3.6074054,10.149832,1.2402092,0.6844745
786,1778597718033,2.3313556,-1.5627131,3.3011074,11.512825,-0.08002335,0.16890424
787,1778597718043,2.619787,-1.6405226,2.9657826,12.302216,-0.8135198,-0.6195701
788,1778597718053,2.8821194,-1.8594377,2.7440016,12.857186,-1.1452196,-1.853976
789,1778597718063,3.1364634,-2.1496987,2.6273484,13.078625,-1.2227995,-3.1685581
790,1778597718073,3.4247122,-2.6663141,2.5254521,13.120774,-0.91583973,-4.4871106
791,1778597718083,3.4856913,-3.2009795,2.2465944,12.959506,-0.46410486,-5.347667
792,1778597718093,3.2221391,-3.4379447,1.9783472,12.5319,-0.09285152,-5.8302507
793,1778597718103,2.8971813,-3.4015398,1.788519,11.830627,-0.02031127,-5.8238363
794,1778597718113,2.7210124,-3.1476836,1.8055321,11.294745,-0.37384954,-5.68517
795,1778597718123,2.8207135,-2.935903,1.8507178,10.959075,-1.0167851,-5.6760073
796,1778597718133,2.9317565,-2.730891,1.7347963,10.784826,-1.7846428,-5.8673606
797,1778597718143,2.8114445,-2.4769127,1.5287478,10.398454,-2.8690813,-6.2360177
798,1778597718153,2.7497337,-2.3867855,1.3539814,10.398454,-2.8690813,-6.2360177
799,1778597718163,2.646252,-2.1968355,1.3564816,8.955895,-4.3327146,-6.716158
800,1778597718173,2.587712,-1.9648708,1.3179427,8.241488,-4.907233,-6.7549477
801,1778597718183,2.60753,-1.8458394,1.1622019,8.241488,-4.907233,-6.7549477
802,1778597718193,2.6380808,-1.7484558,1.0735992,6.4628015,-5.966779,-6.613838
803,1778597718203,2.7991266,-1.7279665,1.0881124,5.959449,-6.428593,-6.4353127
804,1778597718213,2.8882782,-1.7218688,1.1430545,5.858656,-6.8988066,-6.2015038
805,1778597718223,2.8475442,-1.7570537,1.0446341,6.0041943,-7.301367,-5.849035
806,1778597718233,2.7480261,-1.6558284,0.7387626,6.0665026,-7.6504765,-5.3554554
807,1778597718243,2.7356474,-1.5264305,0.38374192,5.486944,-7.525554,-5.0709453
808,1778597718253,2.8443122,-1.5054537,-0.27086946,4.2785,-6.7911415,-5.1034737
809,1778597718263,2.8621182,-1.5930197,-0.6896744,1.6012305,-5.326745,-5.4200544
810,1778597718273,2.593261,-1.9076113,-0.86437976,-0.8944594,-3.9197695,-5.724113
811,1778597718283,2.593261,-1.9076113,-0.86437976,-0.8944594,-3.9197695,-5.724113
812,1778597718293,2.1545768,-2.1006713,-0.6495501,-0.8944594,-3.9197695,-5.724113
813,1778597718303,2.1545768,-2.1006713,-0.6495501,-3.4878879,-2.2740986,-5.966321
814,1778597718313,1.3938619,-2.5097806,0.12269009,-4.9336534,-1.3884968,-6.0341268
815,1778597718323,2.0390213,-2.1620164,-0.56076443,-3.4878879,-2.2740986,-5.966321
816,1778597718333,1.3938619,-2.5097806,0.12269009,-4.9336534,-1.3884968,-6.0341268
817,1778597718343,-0.97883755,-3.1007907,1.507161,-1.9700404,-1.7383698,-4.3930373
818,1778597718353,0.35325232,-2.9257195,1.2634883,-4.384027,-1.4208726,-5.511837
819,1778597718363,-1.07738,-3.1189015,1.3777633,-1.9700404,-1.7383698,-4.3930373
820,1778597718373,-1.3889225,-3.082009,0.65546507,0.7170031,-1.4326317,-2.4297166
821,1778597718383,-5.426658,-5.2300005,-0.08037054,-2.830597,1.8142698,-2.0604484
822,1778597718393,-5.189998,-2.9227924,0.6860156,-3.1900911,4.5793514,-2.6369526
823,1778597718403,-5.189998,-2.9227924,0.6860156,-3.1900911,4.5793514,-2.6369526
824,1778597718413,-5.004926,-3.0760942,0.10061563,1.5679383,-3.3312008,-1.5454891
825,1778597718423,-3.8637621,-3.1873202,1.1952527,1.8584048,-3.791335,-0.35262197
826,1778597718433,-3.508619,-3.0273108,1.317211,2.112372,-2.3434317,0.41370848
827,1778597718443,-2.857179,-3.4191628,0.98597217,1.46852,0.7359399,1.302212
828,1778597718453,-2.3204403,-3.2427502,1.3171501,0.96761054,4.6124907,2.496759
829,1778597718463,-1.4343519,-3.2653122,0.93889624,1.0769554,6.717227,3.8602102
830,1778597718473,-0.5930224,-3.1422565,0.7635202,1.1731668,7.655516,4.8185053
831,1778597718483,0.17360769,-2.9658437,0.5195425,1.2133311,8.127104,5.7086883
832,1778597718493,1.0198766,-2.7563803,0.23794071,0.93859446,8.076249,6.2454863
833,1778597718503,1.6329612,-2.4746566,0.12854409,0.2883284,7.6822414,6.706537
834,1778597718513,2.0003607,-2.2023847,0.12397064,-0.3921755,7.205766,6.830237
835,1778597718523,2.2181172,-1.7777257,0.22720838,-1.2672399,6.2893157,6.623001
836,1778597718533,2.3608086,-1.2866604,0.49008957,-2.0167716,4.914258,6.106362
837,1778597718543,2.3087323,-1.2654397,0.81584024,-2.6714664,3.8508945,5.5133643
838,1778597718553,2.3087323,-1.2654397,0.81584024,-3.4379497,3.302032,4.904026
839,1778597718563,1.8566937,-1.4191072,1.3224553,-4.443434,3.4423783,4.2719336
840,1778597718573,1.5646034,-1.5838119,1.4380107,-6.224259,4.4970374,3.6838229
841,1778597718583,1.5646034,-1.5838119,1.4380107,-7.024034,4.9996266,3.632663
842,1778597718593,1.2722694,-1.91688,1.6228997,-7.86489,5.3215528,3.707952
843,1778597718603,1.2576344,-2.07878,1.6252168,-8.55135,5.164713,3.797291
844,1778597718613,1.2026312,-2.464717,1.7454067,-9.038973,4.771621,4.1016545
845,1778597718623,1.1654338,-2.6039934,1.8456564,-9.250791,4.5582767,4.3653955
846,1778597718633,1.1654338,-2.6039934,1.8456564,-9.250791,4.5582767,4.3653955
847,1778597718643,1.4772204,-2.9291952,2.4068477,-9.381363,2.9104674,6.429204
848,1778597718653,1.8837075,-2.874314,2.6246655,-9.167102,2.414292,6.688211
849,1778597718663,1.8837075,-2.874314,2.6246655,-8.755379,1.8089247,6.6002464
850,1778597718673,2.377395,-2.7379646,2.2541559,-9.024312,1.7953329,6.11415
851,1778597718683,2.377395,-2.7379646,2.2541559,-9.754754,2.0098994,5.696471
852,1778597718693,2.2970853,-2.94816,1.770591,-10.716715,1.9970711,5.3589683
853,1778597718703,2.3365388,-3.1006079,1.8668772,-11.652254,1.4097242,5.0153565
854,1778597718713,2.461485,-3.3039122,2.371114,-11.715174,0.2687807,4.7003026
855,1778597718723,2.4926453,-3.3523297,2.6980233,-10.415558,-1.5386169,4.377155
856,1778597718733,2.4550211,-3.337146,2.7973585,-10.415558,-1.5386169,4.377155
857,1778597718743,2.399835,-3.3394022,2.6638138,-9.604329,-2.1496348,4.4948993
858,1778597718753,2.4920356,-3.2768986,2.517281,-9.289428,-2.4766004,4.892114
859,1778597718763,3.2329326,-3.2382987,2.4959993,-9.246667,-3.4794884,4.985729
860,1778597718773,4.1187162,-2.8766923,2.9082794,-9.213375,-3.676187,4.788573
861,1778597718783,4.434771,-2.108111,3.8122954,-8.877399,-4.948925,2.8458683
862,1778597718793,4.3378143,-1.8337045,4.1383514,-8.96292,-4.5984406,2.5638015
863,1778597718803,4.325984,-1.8984034,4.0454803,-9.017899,-4.397466,2.4856107
864,1778597718813,4.173231,-1.747236,4.5142875,-9.834473,-0.712727,1.7690657
865,1778597718823,3.8755307,-1.5914953,4.7101526,-10.137919,0.3472769,1.7762434
866,1778597718833,4.39172,-1.0292674,5.611425,-9.730473,-0.43203443,2.053729
867,1778597718843,4.8661985,-0.34258097,6.6622787,-8.859531,-1.9598085,1.9639318
868,1778597718853,6.1462126,1.1523234,8.92857,-5.755114,-4.260327,1.3445144
869,1778597718863,5.964372,1.8547423,9.157364,-3.225063,-2.983313,0.6407976
870,1778597718873,5.4545865,2.4119089,8.667335,-0.86635965,-0.30176744,1.2293663
871,1778597718883,5.868452,2.9837105,7.918389,0.89812464,1.5007432,1.6858354
872,1778597718893,6.357444,2.8285797,7.5553193,1.9365956,2.1033618,1.1736249
873,1778597718903,6.6514854,2.1406736,7.2143846,3.165351,3.06578,-0.29917124
874,1778597718913,5.8008876,0.90486985,5.884368,3.9579487,3.9096904,-1.6165022
875,1778597718923,4.6058173,-0.2608079,4.5914874,4.049578,4.847674,-2.3745859
876,1778597718933,3.8760188,-0.9750569,3.9394374,3.8044686,5.5591793,-2.2444715
877,1778597718943,3.83498,-0.9753008,3.9521818,3.7392588,6.069557,-1.8164078
878,1778597718953,3.7067409,-0.9860941,4.0104775,4.4269404,5.7948203,-1.536937
879,1778597718963,3.5647202,-0.998107,3.8864465,5.3667564,5.249165,-1.5042557
880,1778597718973,3.126341,-0.983411,3.1070106,6.3111544,4.7142,-1.63437
881,1778597718983,3.126341,-0.983411,3.1070106,7.210195,4.040721,-1.9782871
882,1778597718993,2.9815154,-1.0187789,2.6883886,7.652767,3.210555,-3.0301971
883,1778597719003,2.883095,-1.2344012,2.3655038,7.720573,2.7866144,-3.6005924
884,1778597719013,2.9404154,-1.4975873,2.2465334,7.825642,2.3357959,-4.214665
885,1778597719023,3.0538979,-1.9242586,2.113538,7.9756093,1.707063,-4.9499936
886,1778597719033,3.1091447,-2.4079454,2.0907927,8.165283,1.0117456,-5.460983
887,1778597719043,3.1578672,-2.7349765,2.1435397,8.4594145,0.3979787,-5.719684
888,1778597719053,3.1743927,-2.8201644,2.1462228,8.617018,0.20234911,-5.8120775
889,1778597719063,3.1898203,-3.0452387,2.0014582,9.127701,-0.14782938,-6.1634774
890,1778597719073,3.2918382,-3.0293841,2.0305455,9.453751,-0.6123924,-6.4249277
891,1778597719083,3.2479942,-2.9756615,1.9948726,9.897239,-1.1838568,-6.7463956
892,1778597719093,3.2451284,-3.0195055,1.8686457,10.278419,-1.9263636,-7.0443454
893,1778597719103,3.2858622,-2.9233413,1.6812565,10.262689,-2.4979806,-7.1631584
894,1778597719113,3.337085,-2.7561975,1.4287419,9.920757,-2.6955955,-7.318624
895,1778597719123,3.4310536,-2.660948,1.1858618,9.004153,-2.7652342,-7.577478
896,1778597719133,3.4310536,-2.660948,1.1858618,8.069836,-2.8276951,-7.7543235
897,1778597719143,3.5413043,-2.3819072,1.2064118,6.9989886,-3.0042353,-7.8974185
898,1778597719153,3.5867949,-2.3082445,1.2897704,6.397439,-3.0815098,-8.007221
899,1778597719163,3.4441645,-2.2503142,1.3880078,6.0683355,-3.1984904,-8.1312275
900,1778597719173,3.4441645,-2.2503142,1.3880078,6.0683355,-3.1984904,-8.1312275
901,1778597719183,3.3555615,-2.2845845,1.1989725,6.139043,-3.33227,-8.108167
902,1778597719193,3.0333478,-2.2695227,0.7467509,6.179513,-3.868915,-8.045706
903,1778597719203,2.8991935,-2.315257,0.58515614,6.107736,-4.5883617,-8.0114975
904,1778597719213,2.6924744,-2.338551,0.2602591,5.4498343,-6.192341,-7.7912807
905,1778597719223,2.6924744,-2.338551,0.2602591,4.803539,-6.731888,-7.58267
906,1778597719233,2.3424537,-2.2206783,-0.15452121,3.8400517,-7.56129,-7.223176
907,1778597719243,2.1114645,-2.09,-0.1428132,2.9471195,-8.522028,-6.837109
908,1778597719253,1.7147952,-2.1054277,-0.090554066,2.0271564,-8.737053,-6.344141
909,1778597719263,1.466549,-2.405445,0.0022562293,0.40103304,-7.835416,-5.549405
910,1778597719273,1.466549,-2.405445,0.0022562293,-1.2008084,-6.1396537,-5.1101933
911,1778597719283,-0.19177948,-2.9324272,0.38392484,-3.3625078,-3.3282993,-4.6766315
912,1778597719293,-0.7412628,-3.1368294,0.769801,-4.499939,-1.690875,-4.410447
913,1778597719303,-1.5680183,-3.781989,1.6090573,-5.351485,0.9737192,-4.10868
914,1778597719313,-2.432642,-3.9115698,1.9270025,-4.796056,1.8770362,-3.9167151
915,1778597719323,-3.1999428,-3.9770002,1.8251065,-3.6306777,1.9854648,-3.2835534
916,1778597719333,-3.5536828,-4.0432844,1.3048931,-2.371226,0.968985,-1.988061
917,1778597719343,-3.40965,-3.8505297,1.2649518,-1.7847955,0.028099801,-1.1351403
918,1778597719353,-3.10012,-3.7164972,1.284953,-1.497078,-0.30298916,-0.88606006
919,1778597719363,-3.6716168,-4.0182223,1.4354496,-1.761888,0.13637567,-1.4132367
920,1778597719373,-3.7854037,-4.11774,1.4711224,-2.0770946,0.8210029,-1.8154916
921,1778597719383,-4.2073793,-4.3830605,1.7659566,-1.9886718,1.3614659,-1.5273159
922,1778597719393,-4.4326973,-4.4121475,2.0920124,-1.2050844,1.7878499,-0.5526803
923,1778597719403,-4.162804,-4.2903113,1.8836465,0.4886922,2.1444426,1.3245085
924,1778597719413,-2.424105,-3.7805865,0.8290728,2.0470095,2.3916903,3.2699616
925,1778597719423,-1.3365414,-3.554232,0.339593,3.284317,3.3243287,5.3609533
926,1778597719433,-0.51582277,-3.401418,0.05945469,3.2759175,4.459469,6.1538563
927,1778597719443,0.31477445,-3.219578,-0.15135029,2.9443705,5.572771,6.7027187
928,1778597719453,0.92481005,-3.1293898,-0.23208672,2.1832323,7.00693,7.410101
929,1778597719463,1.6696097,-3.0082242,-0.20860973,1.3487904,7.9803433,8.055327
930,1778597719473,2.1830542,-2.816567,-0.089822315,0.19639318,8.723766,8.896489
931,1778597719483,2.965173,-2.6190553,0.110006414,0.19639318,8.723766,8.896489
932,1778597719493,3.6189914,-2.0617666,0.29635876,-1.3675746,7.7259183,9.322567
933,1778597719503,3.6170402,-1.4947823,0.50185853,-1.6019942,6.183636,8.275392
934,1778597719513,3.2918382,-1.2344012,0.5538738,-1.6019942,6.183636,8.275392
935,1778597719523,2.871631,-1.317394,0.40984097,-1.8719965,2.777146,6.3363523
936,1778597719533,2.561186,-1.4828913,0.30495682,-2.537076,1.9103284,5.7949734
937,1778597719543,2.1973233,-1.8254113,0.30922535,-4.2267294,2.059074,5.465717
938,1778597719553,1.762176,-2.1956768,0.39977944,-5.579185,2.8820622,5.66043
939,1778597719563,1.522162,-2.425995,0.6053402,-6.8960576,3.938859,6.1543145
940,1778597719573,1.5362481,-2.6710706,0.9062724,-7.1915636,4.1618247,6.3239822
941,1778597719583,1.9517602,-2.8936446,1.5159422,-8.573494,4.5045204,7.7880735
942,1778597719593,1.9517602,-2.8936446,1.5159422,-8.578838,3.9877284,8.334493
943,1778597719603,2.2495825,-2.9370005,1.691501,-8.327163,3.235448,8.5851
944,1778597719613,2.5202692,-2.7813818,1.8248626,-8.327163,3.235448,8.5851
945,1778597719623,2.4978898,-2.7630272,1.8122399,-6.7697616,1.3903292,7.9969897
946,1778597719633,2.148174,-2.669668,1.5292965,-6.279237,1.1684325,7.766083
947,1778597719643,2.0532296,-2.655155,1.3625185,-5.8771343,0.8339838,7.7381353
948,1778597719653,2.0611567,-2.7438796,1.056647,-5.690668,0.23518312,8.063574
949,1778597719663,2.0611567,-2.7438796,1.056647,-5.7160187,0.1423316,8.116414
950,1778597719673,2.3272698,-2.9348054,0.4320984,-6.620863,-0.84207773,8.289747
951,1778597719683,2.669302,-3.1045103,0.34941062,-7.604509,-1.6638442,8.102211
952,1778597719693,2.669302,-3.1045103,0.34941062,-8.310669,-2.047162,7.8619885
953,1778597719703,3.5336819,-3.5286205,0.93340814,-9.750325,-2.3671029,7.310988
954,1778597719713,3.5336819,-3.5286205,0.93340814,-10.622794,-2.1058052,7.0034175
955,1778597719723,4.1185327,-3.5436215,2.0914636,-11.504884,-1.5189165,6.484182
956,1778597719733,4.1023736,-3.4264803,2.6210067,-11.877969,-0.93554014,5.624236
957,1778597719743,4.0731645,-3.2648857,3.2161634,-11.749077,-0.5083926,5.0324607
958,1778597719753,3.6571646,-2.7732105,3.6845443,-10.965642,0.75396043,3.6913059
959,1778597719763,3.1994548,-2.5644178,3.7105212,-10.4204445,1.6826283,2.8712194
960,1778597719773,2.8479102,-2.6735096,3.7863185,-9.904722,2.2623394,2.3362541
961,1778597719783,2.5062437,-2.7905896,4.247748,-8.751561,2.3383923,2.5622742
962,1778597719793,2.8060174,-2.3425758,4.1814027,-7.176445,1.9723312,3.2954652
963,1778597719803,4.5296545,-2.552832,3.7046673,-4.9980993,0.57925296,4.4183884
964,1778597719813,4.5296545,-2.552832,3.7046673,-3.6583192,-1.5706873,4.992449
965,1778597719823,7.7816734,-0.7566295,4.963704,-3.4264958,-6.8325276,4.0833287
966,1778597719833,8.015041,-0.5043587,5.218292,-3.4264958,-6.8325276,4.0833287
967,1778597719843,8.961072,0.12165344,6.6337404,-3.5424075,-5.432577,3.0198123
968,1778597719853,9.007721,0.1516552,6.777103,-3.6180022,-1.8138117,1.5816828
969,1778597719863,8.112059,0.13653237,7.5582457,-3.3504431,4.4344234,-1.0273226
970,1778597719873,6.8161297,-0.6521722,7.7196574,-1.9588921,6.1915774,-2.2699752
971,1778597719883,5.5138583,-1.393435,7.354149,-1.9588921,6.1915774,-2.2699752
972,1778597719893,4.39422,-1.946821,6.106149,4.565454,6.475477,-2.4281893
973,1778597719903,3.9008985,-2.1221972,3.9323635,7.0177727,5.2503867,-1.86207
974,1778597719913,3.8399804,-2.0390823,3.5364866,7.372838,4.8659997,-1.7579174
975,1778597719923,3.714546,-1.8053491,2.9670634,7.680714,4.341725,-1.7831156
976,1778597719933,3.553927,-1.6725975,2.7172318,7.6353574,4.230089,-2.0263927
977,1778597719943,3.3469024,-1.7042459,2.520635,7.4409494,4.308738,-2.4048238
978,1778597719953,3.1239018,-1.920356,2.4304469,7.300756,4.6137123,-2.7079656
979,1778597719963,2.994321,-2.1392713,2.3528812,7.420638,4.898681,-2.8539624
980,1778597719973,2.9716978,-2.324038,2.2399478,7.741037,5.210528,-2.9486465
981,1778597719983,3.18482,-2.6849737,2.1972625,9.270338,5.2279377,-3.4724634
982,1778597719993,3.6772268,-3.5960636,1.6447302,9.503536,5.0949216,-3.5914295
983,1778597720003,3.6772268,-3.5960636,1.6447302,11.259927,2.8858802,-5.0503283
984,1778597720013,3.4122112,-4.4069643,1.1276877,11.440895,2.4643831,-5.261535
985,1778597720023,3.4122112,-4.4069643,1.1276877,11.997699,0.54550266,-6.017175
986,1778597720033,2.7873578,-4.3681817,1.1969601,12.385751,-4.023617,-7.098254
987,1778597720043,2.7447333,-4.292141,1.2769647,12.385751,-4.023617,-7.098254
988,1778597720053,2.8560205,-4.166524,1.4812449,12.235326,-5.318193,-7.731263
989,1778597720063,3.1532938,-4.100605,1.399106,12.203713,-5.3026156,-7.8097596
990,1778597720073,3.2311032,-4.0953608,1.3632503,11.277336,-4.6838093,-8.752935
991,1778597720083,3.5164247,-3.8741896,0.8132182,10.648297,-4.235434,-9.036377
992,1778597720093,3.4673364,-3.6846662,0.58820504,9.577603,-3.530954,-9.318902
993,1778597720103,3.4673364,-3.6846662,0.58820504,7.7256126,-2.5969408,-9.516669
994,1778597720113,3.058288,-3.0612762,0.023294043,5.8246,-1.9761491,-9.451155
995,1778597720123,2.888827,-2.8108957,0.0039026667,5.8246,-1.9761491,-9.451155
996,1778597720133,2.5413678,-2.573443,0.10329871,3.6021197,-2.1916318,-9.176112
997,1778597720143,2.4461184,-2.5339284,0.1510454,3.2826371,-2.317928,-9.038056
998,1778597720153,2.157199,-2.380078,0.34361762,2.723848,-2.8502972,-8.519585
999,1778597720163,1.8871833,-2.1508572,0.600279,2.7421741,-3.3208163,-8.113817
1000,1778597720173,1.7885801,-2.098598,0.6776005,3.095865,-3.9854376,-7.6060357
