id,timestamp,acc_x,acc_y,acc_z,gyro_x,gyro_y,gyro_z
0,1778598668173,-0.08274873,-0.14939895,-0.3918521,-1.9920316,0.9630291,-3.1700852
1,1778598668183,-0.06512575,-0.12519024,-0.016769271,-1.9920316,0.9630291,-3.1700852
2,1778598668193,-0.089517415,-0.2983101,-0.00951275,-2.409558,1.7336355,-2.7354546
3,1778598668203,-0.023964813,-0.47021037,-0.08226089,-2.653446,2.0925188,-2.558609
4,1778598668213,0.23537959,-1.3619697,-0.09500554,-3.8718166,3.2302554,-2.2591324
5,1778598668223,0.5921687,-2.309525,0.07860215,-4.8262935,3.691764,-2.198504
6,1778598668233,0.5921687,-2.309525,0.07860215,-4.8262935,3.691764,-2.198504
7,1778598668243,2.2442772,-4.509653,0.4920409,-5.7532816,3.839288,-2.4422393
8,1778598668253,2.2442772,-4.509653,0.4920409,-6.5698557,3.9947534,-3.5613444
9,1778598668263,2.5811262,-4.7250314,0.76412994,-6.117663,5.383403,-5.5961366
10,1778598668273,1.6282048,-4.0291986,0.74510443,-3.9003747,7.8413715,-3.8319576
11,1778598668283,1.0242671,-3.1844542,0.5839365,-1.9585867,9.794308,0.04184427
12,1778598668293,1.5160031,-2.327453,0.47252756,-0.6252206,10.920133,3.4771976
13,1778598668303,2.4632535,-0.23318435,-4.720397,-0.60903263,4.084092,2.954908
14,1778598668313,2.4632535,-0.23318435,-4.720397,-0.60903263,4.084092,2.954908
15,1778598668323,1.8133374,-0.5959494,-2.2059824,-3.1453452,-3.9173262,1.2089024
16,1778598668333,1.0739651,-0.602962,-0.27330863,-3.6980255,-4.274835,-0.36392298
17,1778598668343,0.85840374,-0.512164,-0.120189935,-3.5089626,-3.044247,-1.0064005
18,1778598668353,0.6676609,-0.39215705,0.12055582,-3.4234416,-2.5402832,-1.4225525
19,1778598668363,0.5409462,-0.23922127,0.3259946,-3.222925,-2.6397014,-1.8490891
20,1778598668373,0.5409462,-0.23922127,0.3259946,-3.222925,-2.6397014,-1.8490891
21,1778598668383,0.4631368,-0.09823744,0.37221682,-3.0138564,-2.9953778,-2.1412354
22,1778598668393,0.41179234,0.0010366458,0.4309398,-2.8258626,-3.3557882,-2.4051292
23,1778598668403,0.31325,0.0,0.73546976,-2.2333233,-4.3537893,-2.9148962
24,1778598668413,0.28019926,-0.056039855,0.8099253,-1.6197093,-5.757252,-2.9480357
25,1778598668423,0.2812969,-0.04049017,0.78925335,-1.6197093,-5.757252,-2.9480357
26,1778598668433,0.27007675,0.009390792,0.70619977,-0.93202764,-7.962934,-2.6397014
27,1778598668443,0.27007675,0.06061329,0.57643604,-0.9447031,-8.365494,-2.4572055
28,1778598668453,0.25001457,0.14189851,0.4358181,-1.3610078,-8.499121,-1.9000963
29,1778598668463,0.272272,0.17616881,0.2865411,-1.7971655,-8.272796,-1.3655893
30,1778598668473,0.272272,0.17616881,0.2865411,-2.2455406,-7.7645555,-0.77472985
31,1778598668483,0.29422447,0.10134738,0.17799819,-2.843425,-6.0321417,0.3155119
32,1778598668493,0.64259845,-0.20299964,-1.0071929,-3.396716,-2.6488645,0.84116143
33,1778598668503,1.0426219,-0.48082075,-1.4710004,-5.151427,6.2372394,0.20631973
34,1778598668513,1.220742,-0.54484886,-0.21214652,-5.151427,6.2372394,0.20631973
35,1778598668523,1.1518965,-0.606011,0.42581752,-3.554014,15.995201,-2.7243063
36,1778598668533,1.1518965,-0.606011,0.42581752,-3.554014,15.995201,-2.7243063
37,1778598668543,0.9888992,-1.0207303,-1.1851912,-2.3141103,16.462208,-3.3643403
38,1778598668553,0.3509961,-1.6547307,-0.86992884,-1.6423112,3.6612208,-1.7757853
39,1778598668563,-0.017927876,-1.273123,0.5791801,1.6751453,0.30833423,0.4622723
40,1778598668573,-0.19806033,-1.0501832,0.52594537,3.903887,0.10949759,2.4871378
41,1778598668583,-0.19806033,-1.0501832,0.52594537,3.903887,0.10949759,2.4871378
42,1778598668593,-0.19806033,-1.0501832,0.52594537,3.903887,0.10949759,2.4871378
43,1778598668603,-0.19806033,-1.0501832,0.52594537,3.903887,0.10949759,2.4871378
44,1778598668613,-0.0140252095,-0.7156515,0.097749606,5.654321,0.95279706,6.1843996
45,1778598668623,0.13342242,-0.7508365,0.09524946,5.5216107,2.3591616,8.392067
46,1778598668633,0.35105708,-0.8473056,0.12884897,5.361259,2.7000244,8.538827
47,1778598668643,0.35105708,-0.8473056,0.12884897,5.361259,2.7000244,8.538827
48,1778598668653,0.35105708,-0.8473056,0.12884897,5.361259,2.7000244,8.538827
49,1778598668663,0.35105708,-0.8473056,0.12884897,5.361259,2.7000244,8.538827
50,1778598668673,0.9817646,-0.8251092,0.21531744,4.972443,1.8086193,5.213735
51,1778598668683,0.8560255,-0.69930905,0.18860857,5.009553,1.2730432,4.397772
52,1778598668693,0.8560255,-0.69930905,0.18860857,5.1031685,0.1863139,3.016758
53,1778598668703,0.51106644,-0.35172784,0.11025034,5.149594,-0.33307427,2.3819163
54,1778598668713,0.51106644,-0.35172784,0.11025034,5.149594,-0.33307427,2.3819163
55,1778598668723,0.51106644,-0.35172784,0.11025034,5.149594,-0.33307427,2.3819163
56,1778598668733,0.51106644,-0.35172784,0.11025034,5.149594,-0.33307427,2.3819163
57,1778598668743,0.51106644,-0.35172784,0.11025034,5.149594,-0.33307427,2.3819163
58,1778598668753,0.30288354,-0.25489292,0.15567982,-3.5471418,2.1033618,-0.7901542
59,1778598668763,0.41496322,-0.43630594,0.2361723,-3.2183435,1.7675385,-1.289842
60,1778598668773,0.41496322,-0.43630594,0.2361723,-3.2183435,1.7675385,-1.289842
61,1778598668783,0.9639587,-1.2898313,0.32075045,-2.5017986,0.9399689,-3.3066137
62,1778598668793,1.3273336,-1.9231,0.33459267,-2.2930355,0.5564982,-4.353331
63,1778598668803,2.0204837,-3.2573853,0.3925229,-1.9726366,-0.24724771,-6.750672
64,1778598668813,2.8173594,-4.4480643,0.36739948,-0.7449502,2.1154263,-8.838456
65,1778598668823,2.8173594,-4.4480643,0.36739948,0.3830125,5.082399,-8.908401
66,1778598668833,0.85547674,-4.2597,0.107628234,0.3529274,5.087133,-4.210847
67,1778598668843,0.97200793,-4.0461507,0.07451654,-0.008246681,4.4849725,0.061239243
68,1778598668853,2.3758092,-1.8743166,-3.1154256,0.27947086,6.1515656,3.1280882
69,1778598668863,2.3758092,-1.8743166,-3.1154256,-1.9092593,-2.1681135,0.15867224
70,1778598668873,1.4468527,-1.2783673,-1.1043327,-2.7188084,-5.179679,-0.72097373
71,1778598668883,1.2304986,-1.1764711,-0.6799177,-2.7188084,-5.179679,-0.72097373
72,1778598668893,0.8951132,-0.8624893,-0.32014063,-2.5508206,-3.5329392,-1.2466233
73,1778598668903,0.8951132,-0.8624893,-0.32014063,-2.5508206,-3.5329392,-1.2466233
74,1778598668913,0.8038274,-0.73431116,-0.2856264,-2.459038,-2.806315,-1.3420709
75,1778598668923,0.39880377,-0.22056165,0.19470648,-2.3660338,-1.9364429,-2.0239494
76,1778598668933,0.3245921,-0.10488417,0.24178241,-2.2423337,-2.5987735,-2.2003367
77,1778598668943,0.16616823,0.031160356,0.25849068,-2.2018638,-3.1430545,-2.3385448
78,1778598668953,0.14976484,0.056954544,0.42075628,-2.1888828,-3.4568865,-2.4619396
79,1778598668963,0.16635117,0.045185562,0.5302748,-1.9895881,-3.9538252,-2.5883887
80,1778598668973,0.18836464,-0.0031709166,0.746446,-1.5993979,-4.9243374,-2.6882653
81,1778598668983,0.18836464,-0.0031709166,0.746446,-1.1015427,-6.2041,-2.7704265
82,1778598668993,0.16238752,-0.009939604,0.96651983,-0.36010507,-8.479573,-2.7881417
83,1778598669003,0.1469598,0.014574022,0.88175875,-0.13087788,-9.823172,-2.7285824
84,1778598669013,0.1832424,0.061101127,0.73345745,-0.37507126,-10.909442,-2.477364
85,1778598669023,0.19269417,0.096895896,0.6424155,-0.93370754,-11.217471,-2.0832033
86,1778598669033,0.24269708,0.091102876,0.57088697,-1.6821702,-10.880579,-1.4789047
87,1778598669043,0.34508112,0.03597771,0.50338304,-2.6422975,-9.486585,-0.6256787
88,1778598669053,0.36569205,-0.011647021,0.5153959,-2.945745,-8.812953,-0.31597003
89,1778598669063,0.5218597,-0.280992,0.4072189,-3.5008688,-3.4878879,0.9027061
90,1778598669073,0.5218597,-0.280992,0.4072189,-3.5008688,-3.4878879,0.9027061
91,1778598669083,0.68522286,-0.5786923,-1.2039117,-3.2637002,-0.7415904,0.74006325
92,1778598669093,0.76358116,-0.64997697,-0.20763406,-2.1862867,15.373951,-1.2108877
93,1778598669103,-0.034636166,-1.246902,-3.2871432,0.21242839,18.20302,-2.415972
94,1778598669113,-0.08104131,-1.4388034,-0.9315177,-0.21899518,5.79986,-1.2140946
95,1778598669123,-0.08104131,-1.4388034,-0.9315177,-0.21899518,5.79986,-1.2140946
96,1778598669133,-0.24111164,-0.98219144,0.8462689,3.452916,-1.1388055,0.61269784
97,1778598669143,-0.30398116,-0.91883403,0.807852,4.682893,-1.25319,1.3660474
98,1778598669153,-0.2983101,-0.99237496,0.52082306,6.3647575,-0.39828414,3.389233
99,1778598669163,-0.23574546,-1.0884781,0.36276507,6.7164636,0.41508293,4.586987
100,1778598669173,-0.07341892,-1.23245,0.3003834,6.763347,1.3437508,5.816659
101,1778598669183,0.2804432,-1.4088017,0.26269826,6.52175,2.803108,7.2931204
102,1778598669193,0.8441956,-1.5884464,0.29056573,6.251137,3.382819,7.5654135
103,1778598669203,0.8441956,-1.5884464,0.29056573,6.251137,3.382819,7.5654135
104,1778598669213,0.8441956,-1.5884464,0.29056573,5.4637313,3.2091806,5.870415
105,1778598669223,1.226535,-1.2831236,0.2336112,5.1923547,2.414445,4.519028
106,1778598669233,0.96792233,-0.8857834,0.17543708,4.937929,1.2055426,2.9234483
107,1778598669243,0.46978348,-0.34081256,0.09360302,4.8371363,0.56291234,1.9179641
108,1778598669253,0.30696914,-0.21037814,0.061101127,4.7671924,-0.81107634,0.42638394
109,1778598669263,0.30696914,-0.21037814,0.061101127,4.7671924,-0.81107634,0.42638394
110,1778598669273,0.19251123,-0.15415533,0.01981823,4.7594037,-0.98975444,0.09682214
111,1778598669283,0.19251123,-0.15415533,0.01981823,4.7594037,-0.98975444,0.09682214
112,1778598669293,0.19251123,-0.15415533,0.01981823,4.7594037,-0.98975444,0.09682214
113,1778598669303,0.19251123,-0.15415533,0.01981823,4.7594037,-0.98975444,0.09682214
114,1778598669313,0.1853157,-0.19238928,-0.16933915,-2.6140451,0.0346666,-1.1626292
115,1778598669323,0.1853157,-0.19238928,-0.16933915,-2.6140451,0.0346666,-1.1626292
116,1778598669333,0.1853157,-0.19238928,-0.16933915,-2.6140451,0.0346666,-1.1626292
117,1778598669343,0.5013707,-0.5800948,0.045673396,-2.647948,0.16661349,-1.6319265
118,1778598669353,1.577897,-2.341661,-0.26007617,-3.4909422,1.2820535,-3.8573086
119,1778598669363,1.577897,-2.341661,-0.26007617,-3.4909422,1.2820535,-3.8573086
120,1778598669373,1.577897,-2.341661,-0.26007617,-3.4909422,1.2820535,-3.8573086
121,1778598669383,1.577897,-2.341661,-0.26007617,-3.4909422,1.2820535,-3.8573086
122,1778598669393,1.8619989,-4.5038605,-0.28959006,-5.1744866,9.724364,-2.0909917
123,1778598669403,1.6593041,-3.4861178,-0.7602883,-4.9367075,9.049816,-0.39477167
124,1778598669413,1.5030146,-2.1302462,-1.0489637,-3.780187,5.444642,-0.105832405
125,1778598669423,1.5030146,-2.1302462,-1.0489637,-3.780187,5.444642,-0.105832405
126,1778598669433,1.5030146,-2.1302462,-1.0489637,-3.780187,5.444642,-0.105832405
127,1778598669443,1.5030146,-2.1302462,-1.0489637,-3.780187,5.444642,-0.105832405
128,1778598669453,0.61131614,-0.49435812,-0.6252804,-0.23533584,-3.1958942,0.37033707
129,1778598669463,0.61131614,-0.49435812,-0.6252804,-0.7790059,-2.192548,0.26251933
130,1778598669473,0.5526542,-0.19001108,-1.3058689,-0.7790059,-2.192548,0.26251933
131,1778598669483,0.49484593,-0.009695687,-1.3662992,-3.1464143,-2.0167716,-0.24984388
132,1778598669493,0.40008432,-0.013781292,-0.05927175,-3.4084754,-2.2029328,-0.4390594
133,1778598669503,0.40868238,0.06591848,0.307274,-3.2731688,-2.7885997,-0.8223773
134,1778598669513,0.4438674,0.16293633,0.3902667,-2.7666087,-3.5101845,-1.4524848
135,1778598669523,0.4438674,0.16293633,0.3902667,-2.7666087,-3.5101845,-1.4524848
136,1778598669533,0.4994194,0.17074168,0.4345985,-2.1493294,-4.4109054,-2.320677
137,1778598669543,0.42807376,0.11653119,0.38825434,-1.8874209,-4.9090657,-2.6914723
138,1778598669553,0.3139817,0.042075627,0.33733675,-1.6836973,-5.7406063,-2.920394
139,1778598669563,0.2531855,-0.015610667,0.4066091,-1.5786285,-6.302755,-2.9761355
140,1778598669573,0.23281845,-0.023842854,0.45185563,-1.4943291,-6.7379966,-2.9811752
141,1778598669583,0.23281845,-0.023842854,0.45185563,-1.4943291,-6.7379966,-2.9811752
142,1778598669593,0.34386152,-0.0018903542,0.400999,-1.2765557,-8.968266,-2.5363126
143,1778598669603,0.44337955,-0.04524654,0.2212934,-1.7444785,-8.444601,-2.1670444
144,1778598669613,0.64284235,-0.115555525,0.100859545,-2.329229,-7.172322,-1.8738291
145,1778598669623,1.4405109,-0.76315427,-1.6618652,-4.459469,-2.1801782,-1.9346102
146,1778598669633,1.9631025,-0.96719056,-0.21171968,-4.459469,-2.1801782,-1.9346102
147,1778598669643,1.7425406,-1.1085403,1.3847759,-4.201989,10.450225,-4.67037
148,1778598669653,1.0920149,-2.0415826,-1.4888673,-2.2828035,9.7659025,-4.3580656
149,1778598669663,1.0920149,-2.0415826,-1.4888673,-2.2828035,9.7659025,-4.3580656
150,1778598669673,0.44246486,-2.412397,-1.8796829,-0.46838093,2.574339,-0.65179324
151,1778598669683,0.44246486,-2.412397,-1.8796829,-0.46838093,2.574339,-0.65179324
152,1778598669693,-0.28056514,-1.1031741,0.869319,-0.46838093,2.574339,-0.65179324
153,1778598669703,-0.21013421,-0.92956644,0.57478964,4.4536657,-1.6888897,3.8437169
154,1778598669713,-0.21013421,-0.92956644,0.57478964,4.4536657,-1.6888897,3.8437169
155,1778598669723,-0.05719846,-0.8058397,0.1788519,7.02098,-0.88040954,6.997003
156,1778598669733,0.0030489585,-0.79644895,0.095493376,7.092909,-0.14950927,7.340615
157,1778598669743,0.18836464,-0.8487081,0.015671646,6.985855,0.72036284,7.5443387
158,1778598669753,0.38368094,-0.9147485,0.020367041,6.721045,1.4387404,7.463857
159,1778598669763,0.55594707,-0.94389653,0.016586334,6.477004,1.8628336,7.174307
160,1778598669773,0.7292499,-0.9604219,0.0014635,6.2031837,2.0493002,6.6298733
161,1778598669783,0.85724515,-0.88114893,0.02128173,5.9391375,1.9646953,5.823531
162,1778598669793,0.7394334,-0.6688195,0.033111688,5.4750323,0.9718866,3.5505016
163,1778598669803,0.538629,-0.46240503,-0.09671296,5.4750323,0.9718866,3.5505016
164,1778598669813,0.26330805,-0.21946402,-0.54539764,4.943427,0.8185594,2.9066496
165,1778598669823,0.13269067,-0.026830835,-1.3058689,3.802178,1.4262177,2.6743681
166,1778598669833,0.0866514,0.069577225,-1.6905864,2.3553436,2.301893,2.5955665
167,1778598669843,-0.041404855,-0.23909931,-1.8196183,-3.9031234,4.321261,2.4572055
168,1778598669853,-0.041404855,-0.23909931,-1.8196183,-3.9031234,4.321261,2.4572055
169,1778598669863,0.050734665,-0.22428137,-0.14202048,-4.779257,3.328452,1.720502
170,1778598669873,0.27647954,-0.33239743,0.21385394,-4.589431,3.0448577,1.4709635
171,1778598669883,0.43081784,-0.58997345,0.43301308,-3.4377968,3.0735686,0.37705657
172,1778598669893,0.43081784,-0.58997345,0.43301308,-3.4377968,3.0735686,0.37705657
173,1778598669903,1.0076808,-1.7682738,0.42941532,3.0561588,2.9039006,-2.3706152
174,1778598669913,1.226718,-2.7390013,0.19793838,3.7638462,1.5952746,-4.5653014
175,1778598669923,1.226718,-2.7390013,0.19793838,3.7638462,1.5952746,-4.5653014
176,1778598669933,1.2959293,-3.3728797,0.13378829,2.6120598,-2.240043,-7.8280854
177,1778598669943,1.2959293,-3.3728797,0.13378829,2.6120598,-2.240043,-7.8280854
178,1778598669953,1.8749874,-4.7286296,0.2595883,-0.7652614,-5.607132,-8.647866
179,1778598669963,0.96572715,-3.993038,0.23556253,-1.9755383,-4.9243374,-5.800471
180,1778598669973,0.96572715,-3.993038,0.23556253,-1.9755383,-4.9243374,-5.800471
181,1778598669983,0.96572715,-3.993038,0.23556253,-1.9755383,-4.9243374,-5.800471
182,1778598669993,0.68363744,-2.362455,-0.16348514,1.315651,9.300729,1.344209
183,1778598670003,1.4735616,-0.9308469,-3.6813734,-3.3428073,2.9400945,1.2797627
184,1778598670013,1.2519633,-1.1246388,-1.2577562,-4.81484,-1.5796975,0.22602014
185,1778598670023,0.9968874,-1.0221938,-0.31282312,-3.8418841,-2.7253752,-1.0525209
186,1778598670033,0.9968874,-1.0221938,-0.31282312,-3.8418841,-2.7253752,-1.0525209
187,1778598670043,0.9968874,-1.0221938,-0.31282312,-3.8418841,-2.7253752,-1.0525209
188,1778598670053,0.9968874,-1.0221938,-0.31282312,-3.8418841,-2.7253752,-1.0525209
189,1778598670063,0.59405905,-0.5291162,0.10738432,-1.8952094,-0.72143185,-2.0334177
190,1778598670073,0.32922652,-0.04414892,0.17818113,-1.6511687,-1.0181596,-2.308307
191,1778598670083,0.23129399,0.070187025,0.15732625,-1.5103643,-2.0787745,-2.7802005
192,1778598670093,0.23129399,0.070187025,0.15732625,-1.5103643,-2.0787745,-2.7802005
193,1778598670103,0.23129399,0.070187025,0.15732625,-1.5103643,-2.0787745,-2.7802005
194,1778598670113,0.23129399,0.070187025,0.15732625,-1.5103643,-2.0787745,-2.7802005
195,1778598670123,0.20982932,0.016586334,0.63192713,-0.47800204,-5.780007,-3.3198998
196,1778598670133,0.16708292,0.008171208,0.5253355,-0.07620544,-8.169865,-3.3406694
197,1778598670143,0.12848312,0.025123417,0.4253297,-0.07620544,-8.169865,-3.3406694
198,1778598670153,0.1144579,0.032623854,0.36367974,-0.66675943,-9.142056,-2.9023736
199,1778598670163,0.1144579,0.032623854,0.36367974,-0.66675943,-9.142056,-2.9023736
200,1778598670173,0.1144579,0.032623854,0.36367974,-2.2704334,-7.9809546,-1.6719382
201,1778598670183,0.2437947,-0.009756667,0.119946025,-2.9938505,-6.868874,-1.1158981
202,1778598670193,0.36520424,-0.20129223,-0.111896776,-3.83715,-5.0181055,-0.52320606
203,1778598670203,0.7311402,-0.6690634,-1.2081803,-5.2048774,-1.2912164,-0.28787026
204,1778598670213,0.9723738,-0.92938346,-1.0987836,-6.1744733,9.846384,-1.9582813
205,1778598670223,1.293673,-1.2517194,-0.2689791,-6.1744733,9.846384,-1.9582813
206,1778598670233,0.8703556,-1.5841779,-1.4308761,-4.113414,14.664278,-3.1517591
207,1778598670243,0.58521706,-1.3472737,-0.43722063,-0.15867224,4.788267,-2.0486894
208,1778598670253,0.21550037,-1.12409,0.2502585,-0.15867224,4.788267,-2.0486894
209,1778598670263,-0.11817763,-1.0370728,0.5236281,3.836081,-0.18600847,1.9080375
210,1778598670273,-0.11817763,-1.0370728,0.5236281,3.836081,-0.18600847,1.9080375
211,1778598670283,-0.2950782,-0.9723128,0.3773391,5.8232255,0.14340061,6.224259
212,1778598670293,-0.17799819,-0.9896309,0.22909874,6.198908,0.7527387,7.9893537
213,1778598670303,-0.027379647,-1.0517687,0.17043677,6.2476244,1.3295482,8.953757
214,1778598670313,0.17818113,-1.1104916,0.16836348,6.182567,1.8877263,9.502925
215,1778598670323,0.46118546,-1.2216567,0.2066584,6.089563,2.2499695,9.640217
216,1778598670333,0.84474444,-1.352213,0.24330688,5.974415,2.1981986,9.08433
217,1778598670343,1.0244501,-1.3741045,0.21909817,5.892406,1.8777997,8.241031
218,1778598670353,1.0514028,-1.2113512,0.1568994,5.892406,1.8777997,8.241031
219,1778598670363,0.89346683,-0.9608487,0.15421632,5.587737,0.28603765,5.4673967
220,1778598670373,0.6547333,-0.67199045,0.11756783,5.499467,-0.5914703,4.3412666
221,1778598670383,0.3992306,-0.38624203,0.05786923,5.3948565,-1.3553573,3.3270776
222,1778598670393,0.24111164,-0.22013481,0.022562291,5.3429327,-1.9011654,2.6794076
223,1778598670403,0.13921544,-0.1589727,-0.0074394583,5.3155966,-2.1571178,2.249664
224,1778598670413,0.06238169,-0.12500729,-0.048112564,5.290551,-2.239432,2.0124955
225,1778598670423,-0.5724114,-0.3744121,-5.829974,3.796833,-1.4958563,1.9669861
226,1778598670433,-0.17275399,-0.6150359,-2.6598504,-5.0576587,2.0218112,2.4544566
227,1778598670443,0.061954834,-0.20769504,0.14683785,-6.104529,1.91323,2.0740402
228,1778598670453,0.10665256,-0.24318492,0.23105007,-5.9316545,1.789377,1.802816
229,1778598670463,0.10665256,-0.24318492,0.23105007,-5.9316545,1.789377,1.802816
230,1778598670473,0.13342242,-0.33026317,0.383437,-5.5437546,1.7852536,1.461495
231,1778598670483,0.3442274,-0.8862712,0.44892865,-3.90068,2.4318545,0.15042557
232,1778598670493,0.56485003,-2.4979506,1.0922589,-0.7643451,3.818824,-1.3096951
233,1778598670503,0.8249262,-3.5146563,0.7341282,2.7386615,5.41135,-2.474615
234,1778598670513,1.0120102,-4.530508,0.31184745,4.360814,6.060241,-3.790877
235,1778598670523,1.1317123,-5.21878,0.04908823,4.9947395,5.5600953,-5.326287
236,1778598670533,1.1317123,-5.21878,0.04908823,4.9947395,5.5600953,-5.326287
237,1778598670543,0.89340574,-4.9942546,-0.13976426,2.9396362,2.0528126,-6.009845
238,1778598670553,0.89340574,-4.9942546,-0.13976426,2.9396362,2.0528126,-6.009845
239,1778598670563,0.5082614,-2.338551,-1.1806177,2.4217753,0.98837996,-3.2450688
240,1778598670573,0.6688195,-0.89157635,-3.7074115,-0.356898,-2.4390323,-0.57910025
241,1778598670583,0.5916199,-1.0855511,-1.7877872,-0.356898,-2.4390323,-0.57910025
242,1778598670593,0.5916199,-1.0855511,-1.7877872,-3.118467,-3.5063665,0.058643065
243,1778598670603,0.5978397,-1.0957347,-0.8801733,-4.900666,-1.767844,0.47219884
244,1778598670613,0.48222327,-0.8051689,-0.04969802,-5.072625,-1.1209377,0.35094208
245,1778598670623,0.42685416,-0.65759933,0.18818171,-5.0335298,-0.9795224,0.17073683
246,1778598670633,0.42526874,-0.40819457,0.44679436,-4.724279,-1.2588406,-0.16997325
247,1778598670643,0.42526874,-0.40819457,0.44679436,-4.2650614,-1.7252362,-0.5823073
248,1778598670653,0.42526874,-0.40819457,0.44679436,-4.2650614,-1.7252362,-0.5823073
249,1778598670663,0.3427639,-0.096591,0.5161886,-3.8733437,-2.2627976,-0.8895725
250,1778598670673,0.3427639,-0.096591,0.5161886,-3.8733437,-2.2627976,-0.8895725
251,1778598670683,0.3427639,-0.096591,0.5161886,-3.8733437,-2.2627976,-0.8895725
252,1778598670693,0.35800868,-0.0011586042,0.7462021,-2.6548204,-3.4961345,-1.515404
253,1778598670703,0.31989673,-0.035428897,0.7759599,-0.1563815,-6.002515,-2.5389087
254,1778598670713,0.27123535,-0.02262327,0.61156005,0.11911872,-6.638273,-2.7119362
255,1778598670723,0.27123535,-0.02262327,0.61156005,0.11911872,-6.638273,-2.7119362
256,1778598670733,0.27123535,-0.02262327,0.61156005,0.11911872,-6.638273,-2.7119362
257,1778598670743,0.27123535,-0.02262327,0.61156005,0.11911872,-6.638273,-2.7119362
258,1778598670753,0.13848369,0.09921311,0.25690526,0.07269296,-7.0938253,-2.7740917
259,1778598670763,0.16433886,0.054942228,0.23281845,-2.4984388,-5.486639,-1.151481
260,1778598670773,0.20117027,0.000121958336,0.23775777,-2.8496864,-4.628679,-0.6348417
261,1778598670783,0.29824913,-0.17555903,0.28574836,-2.9159653,-3.3479998,-0.20372356
262,1778598670793,0.29824913,-0.17555903,0.28574836,-2.9159653,-3.3479998,-0.20372356
263,1778598670803,0.29824913,-0.17555903,0.28574836,-2.9159653,-3.3479998,-0.20372356
264,1778598670813,0.80852276,-0.9947531,-2.2895849,-5.8792725,8.757975,-1.3756685
265,1778598670823,0.63076854,-1.6893668,-0.9442014,-3.2249103,21.125553,-3.914119
266,1778598670833,0.63076854,-1.6893668,-0.9442014,-1.8403842,13.445296,-2.7140744
267,1778598670843,-0.34526405,-1.9973116,0.45179462,3.7621663,-0.7976373,3.6117408
268,1778598670853,-0.24129456,-1.8466321,0.29452938,5.1961727,-2.5017986,6.316805
269,1778598670863,-0.24129456,-1.8466321,0.29452938,5.1961727,-2.5017986,6.316805
270,1778598670873,0.2112928,-1.4936846,0.055003207,6.806413,-3.0889928,9.045235
271,1778598670883,0.36935082,-1.4462429,-0.033172667,6.8934617,-2.9700267,9.085704
272,1778598670893,0.6943088,-1.3434931,-0.22708642,6.713409,-2.7951667,8.463538
273,1778598670903,0.80212,-1.179764,-0.28501663,6.199977,-2.8965702,7.3707
274,1778598670913,0.70418745,-1.0075588,-0.19360885,6.199977,-2.8965702,7.3707
275,1778598670923,0.5499711,-0.7517512,-0.08280971,5.728847,-3.0024028,6.3760586
276,1778598670933,0.47728392,-0.521189,-0.026647896,5.0466633,-3.3918293,4.374406
277,1778598670943,0.37453404,-0.28867537,-0.017135147,4.787198,-3.3362405,2.7931814
278,1778598670953,0.18952326,-0.07049192,-0.17129049,4.595692,-2.9669726,2.4013114
279,1778598670963,0.10640865,-0.03091644,-0.2695889,4.2383356,-2.2934935,2.0832033
280,1778598670973,0.10640865,-0.03091644,-0.2695889,4.2383356,-2.2934935,2.0832033
281,1778598670983,0.08024859,-0.014269125,-0.34410545,4.036292,-1.9092593,1.9958495
282,1778598670993,0.004024625,0.019879209,-0.6444889,2.8866436,0.18035796,1.871233
283,1778598671003,-0.029635875,0.052625023,-1.1550064,1.8252654,1.992337,1.8936822
284,1778598671013,-0.002866021,-0.043661084,-0.25251475,-2.1919372,7.956367,1.9147571
285,1778598671023,0.018476687,0.0026830835,0.029818814,-2.4355197,7.783645,1.6937766
286,1778598671033,0.041099958,-0.008415125,0.016525354,-2.5126414,7.464315,1.4718798
287,1778598671043,0.072870106,-0.033721477,-0.03158721,-2.674979,7.043887,1.0861185
288,1778598671053,0.073175006,-0.06884548,-0.03750219,-2.888171,6.6049805,0.6339254
289,1778598671063,0.073175006,-0.06884548,-0.03750219,-2.888171,6.6049805,0.6339254
290,1778598671073,0.13525179,-0.24056281,0.093907915,-3.0928106,6.098573,0.04505131
291,1778598671083,-0.4033772,-1.074148,0.30050534,-2.4824038,5.054299,-0.5145013
292,1778598671093,-1.2379991,-3.0257862,0.3029445,-0.88193667,2.8281534,0.1873829
293,1778598671103,-1.2379991,-3.0257862,0.3029445,-0.88193667,2.8281534,0.1873829
294,1778598671113,-2.0334113,-5.8058267,-0.018293751,5.402645,-4.679686,4.4565673
295,1778598671123,-2.0334113,-5.8058267,-0.018293751,4.300033,-3.1780264,5.2484016
296,1778598671133,-2.0334113,-5.8058267,-0.018293751,4.300033,-3.1780264,5.2484016
297,1778598671143,-0.28666306,-5.0431604,-1.5471635,-0.48624873,0.47128254,0.95569867
298,1778598671153,-0.28666306,-5.0431604,-1.5471635,-0.48624873,0.47128254,0.95569867
299,1778598671163,-0.3846566,-2.8804119,-1.4041673,-1.3574953,1.1123856,-0.03848451
300,1778598671173,-0.41087765,-1.934869,-0.59832764,-1.794264,1.744173,-0.105068825
301,1778598671183,-0.042136606,-0.74608016,-0.3480691,-1.794264,1.744173,-0.105068825
302,1778598671193,-0.042136606,-0.74608016,-0.3480691,-1.6494889,1.9828686,-0.26175576
303,1778598671203,0.051344458,-0.18135203,-0.5757653,-1.689806,2.7740917,-0.679893
304,1778598671213,0.064394,-0.104396336,-0.4601488,-1.9146044,3.1251867,-0.816116
305,1778598671223,0.10653061,-0.023964813,-0.085004956,-2.2041545,3.5294266,-1.0703887
306,1778598671233,0.07085779,0.04847844,0.074577525,-2.2264512,3.6204455,-1.3547463
307,1778598671243,0.06043036,0.06597946,0.08549279,-2.188272,3.5143077,-1.4630222
308,1778598671253,0.07750452,0.08329754,0.12195834,-2.129171,3.4083226,-1.5599971
309,1778598671263,0.07750452,0.08329754,0.12195834,-2.129171,3.4083226,-1.5599971
310,1778598671273,0.09524946,0.102262065,0.090249166,-1.9515617,2.521499,-1.8758144
311,1778598671283,0.04768571,0.07744354,0.036465544,-2.1510093,1.4740179,-1.9975294
312,1778598671293,0.01097625,0.054759294,0.012988563,-2.5508206,-0.17638734,-2.070375
313,1778598671303,-0.040612124,0.046466127,0.11153089,-2.9536862,-1.8034269,-2.051438
314,1778598671313,-0.071772486,0.025672229,0.3702045,-3.758043,-6.0493984,-1.6120734
315,1778598671323,-0.071772486,0.025672229,0.3702045,-3.758043,-6.0493984,-1.6120734
316,1778598671333,-0.016159479,-0.017318083,0.5379582,-3.9017491,-7.2692966,-1.3939945
317,1778598671343,0.11903133,-0.21464668,0.8857834,-3.691917,-8.765,-0.9766208
318,1778598671353,0.11903133,-0.21464668,0.8857834,-3.2343788,-8.317694,-0.8410087
319,1778598671363,0.11903133,-0.21464668,0.8857834,-3.2343788,-8.317694,-0.8410087
320,1778598671373,0.11903133,-0.21464668,0.8857834,-3.2343788,-8.317694,-0.8410087
321,1778598671383,-1.4264857,-1.8852319,-3.3244011,-3.2343788,-8.317694,-0.8410087
322,1778598671393,-0.51246893,-2.2604978,-2.5109391,-4.7583346,11.36805,-1.6815593
323,1778598671403,-0.51246893,-2.2604978,-2.5109391,-4.7583346,11.36805,-1.6815593
324,1778598671413,-0.9332252,-2.0860364,-1.419412,0.75961095,-1.3183999,-1.0990993
325,1778598671423,-0.9332252,-2.0860364,-1.419412,0.75961095,-1.3183999,-1.0990993
326,1778598671433,-0.9332252,-2.0860364,-1.419412,0.75961095,-1.3183999,-1.0990993
327,1778598671443,-0.9691419,-1.1997651,-0.37953433,4.3780713,-7.497913,0.107665
328,1778598671453,-0.42136607,-0.49283364,0.29221216,6.1553836,-3.5262196,2.2482896
329,1778598671463,-0.32392135,-0.4608196,0.2289158,6.429662,-2.5975518,2.5153904
330,1778598671473,-0.32392135,-0.4608196,0.2289158,6.429662,-2.5975518,2.5153904
331,1778598671483,-0.32392135,-0.4608196,0.2289158,6.429662,-2.5975518,2.5153904
332,1778598671493,-0.32392135,-0.4608196,0.2289158,6.429662,-2.5975518,2.5153904
333,1778598671503,-0.014756958,-0.45130682,0.009695687,6.437145,-0.6102544,2.5978572
334,1778598671513,-0.13177599,-0.46594182,0.07451654,5.731901,0.22143865,1.8913915
335,1778598671523,0.19501138,-0.23928225,-0.08244383,4.8146873,0.16523905,0.86559606
336,1778598671533,0.19501138,-0.23928225,-0.08244383,4.8146873,0.16523905,0.86559606
337,1778598671543,0.18860857,-0.16086306,-0.071772486,4.123646,0.0009162979,0.07651087
338,1778598671553,0.056283772,-0.07482144,-0.05366167,3.832874,-0.09407325,-0.14889841
339,1778598671563,0.056283772,-0.07482144,-0.05366167,3.832874,-0.09407325,-0.14889841
340,1778598671573,0.045002624,-0.063235395,-0.054393414,3.4326046,-0.1638646,-0.31749722
341,1778598671583,0.05744238,-0.12140953,-0.14031307,2.8693867,-0.16905695,-0.5766568
342,1778598671593,0.094212815,-0.17659567,-0.23233064,2.8693867,-0.16905695,-0.5766568
343,1778598671603,-0.03744121,-0.36447248,-0.80346155,2.8693867,-0.16905695,-0.5766568
344,1778598671613,-0.03744121,-0.36447248,-0.80346155,2.8693867,-0.16905695,-0.5766568
345,1778598671623,-0.24952675,-0.6197923,-1.5870438,-0.7808385,0.053450707,-1.9182696
346,1778598671633,-0.7294938,-1.5568591,-0.04768571,-5.116302,1.6875153,-3.3896914
347,1778598671643,-2.0734136,-2.737294,0.37386328,-6.0918536,2.9292517,-3.0572278
348,1778598671653,-3.0018215,-3.7891846,0.5914369,-6.1387377,4.3973136,-0.7489208
349,1778598671663,-3.8113198,-5.5048947,-0.023720896,-4.184274,-1.1569787,1.8063285
350,1778598671673,-2.4713027,-5.053405,0.63912266,0.5871942,-11.048262,5.4898458
351,1778598671683,-1.4220952,-4.7696075,0.34495914,1.5656476,-9.722379,4.8348455
352,1778598671693,-0.95237267,-4.197257,0.11506769,1.1930199,-7.7763147,2.7753136
353,1778598671703,-0.42923236,-3.283667,-2.4322762,2.0247128,-5.3452234,1.4883732
354,1778598671713,-0.29696855,-2.4542286,-2.8490076,1.8277088,2.2047653,1.1930199
355,1778598671723,-0.1879378,-1.8682188,-1.4999046,0.32696563,9.009041,-0.12767084
356,1778598671733,-0.38215643,-1.4006305,-0.47252756,0.2041817,7.550905,-0.90301156
357,1778598671743,-0.38215643,-1.4006305,-0.47252756,0.2041817,7.550905,-0.90301156
358,1778598671753,-0.27410138,-1.0540859,-0.3626431,0.20708331,5.978233,-1.2072225
359,1778598671763,-0.27410138,-1.0540859,-0.3626431,0.20708331,5.978233,-1.2072225
360,1778598671773,-0.15208204,-0.7782161,-0.44575772,0.039095376,5.0443726,-1.4100296
361,1778598671783,0.04744179,-0.24202631,-0.78608245,-2.2421808,4.583627,-1.9973767
362,1778598671793,0.15586275,-0.1308613,-0.08171208,-2.7130053,4.6558623,-2.2441661
363,1778598671803,0.15586275,-0.1308613,-0.08171208,-2.7130053,4.6558623,-2.2441661
364,1778598671813,0.14409378,-0.036892395,0.21232945,-2.778826,3.889379,-2.7490463
365,1778598671823,0.1554359,-0.023050126,0.24245316,-2.663525,3.5052974,-2.9095511
366,1778598671833,0.15561883,-0.07774844,0.35672814,-2.3425155,2.1653645,-3.235906
367,1778598671843,0.085309856,-0.13104422,0.44679436,-1.9868392,0.19364429,-3.4483342
368,1778598671853,0.056222793,-0.14958191,0.49594358,-1.9868392,0.19364429,-3.4483342
369,1778598671863,0.0026830835,-0.14147167,0.52893335,-1.6598736,-4.658764,-3.5865426
370,1778598671873,0.0026830835,-0.14147167,0.52893335,-1.6627752,-6.2564816,-3.5004106
371,1778598671883,-0.07122366,-0.09463967,0.53399456,-1.9147571,-9.014691,-3.0906727
372,1778598671893,-0.046039272,-0.06951625,0.58265597,-2.1844542,-10.263147,-2.6762006
373,1778598671903,-0.00030489583,-0.08116327,0.6490013,-2.4307854,-10.7179365,-2.0836613
374,1778598671913,0.09268834,-0.14622805,0.69656503,-2.3991733,-9.963671,-1.5520558
375,1778598671923,0.09939604,-0.20940247,0.60290104,-2.3385448,-9.401522,-1.361924
376,1778598671933,-0.45941702,-1.0177423,-1.0252427,-4.2071815,-1.9616411,-0.5540548
377,1778598671943,0.13519081,-0.95164096,0.6801007,-5.51596,3.5941784,-0.20830505
378,1778598671953,0.13519081,-0.95164096,0.6801007,-5.578116,6.861086,-0.33964106
379,1778598671963,0.12159246,-1.0123762,1.2079973,-2.903137,8.670927,-1.1669053
380,1778598671973,-0.45283127,-1.437096,-0.005000292,-1.1974486,9.480018,-1.0726794
381,1778598671983,-1.273245,-2.5630763,-0.9018819,2.024102,6.9473705,-0.049785517
382,1778598671993,-1.273245,-2.5630763,-0.9018819,2.024102,6.9473705,-0.049785517
383,1778598672003,-1.4184364,-2.3903224,-0.56527686,5.2462635,1.0326678,1.9633209
384,1778598672013,-1.4184364,-2.3903224,-0.56527686,5.2462635,1.0326678,1.9633209
385,1778598672023,-1.4184364,-2.3903224,-0.56527686,5.2462635,1.0326678,1.9633209
386,1778598672033,-0.606011,-1.6768051,-0.2906267,5.8148265,-0.7858781,6.776023
387,1778598672043,-0.17744938,-1.1420788,-0.17787623,4.4385467,0.7860308,6.7120347
388,1778598672053,-0.17744938,-1.1420788,-0.17787623,4.4385467,0.7860308,6.7120347
389,1778598672063,-0.03969744,-0.9731666,-0.059698608,3.866777,1.2431108,6.2807636
390,1778598672073,-0.03969744,-0.9731666,-0.059698608,3.866777,1.2431108,6.2807636
391,1778598672083,-0.03969744,-0.9731666,-0.059698608,3.866777,1.2431108,6.2807636
392,1778598672093,-0.03969744,-0.9731666,-0.059698608,3.866777,1.2431108,6.2807636
393,1778598672103,0.13762999,-0.09896919,0.01762298,1.8803959,0.7965683,1.9894354
394,1778598672113,0.13762999,-0.09896919,0.01762298,1.8803959,0.7965683,1.9894354
395,1778598672123,0.13762999,-0.09896919,0.01762298,1.8803959,0.7965683,1.9894354
396,1778598672133,0.13762999,-0.09896919,0.01762298,1.8803959,0.7965683,1.9894354
397,1778598672143,0.13037346,0.014452063,-0.0043295207,1.9097174,0.40790528,1.4824172
398,1778598672153,0.13037346,0.014452063,-0.0043295207,2.1690297,-0.13652839,1.2061534
399,1778598672163,0.15177715,0.044575773,-0.2189152,-1.0512991,-3.6344955,1.1499538
400,1778598672173,0.15177715,0.044575773,-0.2189152,-1.0512991,-3.6344955,1.1499538
401,1778598672183,-0.5121031,-0.24659975,-3.808088,-1.0512991,-3.6344955,1.1499538
402,1778598672193,-0.5121031,-0.24659975,-3.808088,-2.2756257,-5.575062,1.487915
403,1778598672203,0.12281204,-0.08713923,-0.07183346,-1.6155858,-5.836054,1.2496775
404,1778598672213,0.15031365,-0.22257397,-0.10646963,-0.96684694,-4.0210204,0.21746802
405,1778598672223,0.15714332,-0.266357,0.0690894,-0.8697194,-3.3402112,-0.31688634
406,1778598672233,0.15714332,-0.266357,0.0690894,-0.8697194,-3.3402112,-0.31688634
407,1778598672243,-0.40856043,-1.249829,0.39032766,-0.8697194,-3.3402112,-0.31688634
408,1778598672253,-1.3442857,-2.804493,0.6680878,-0.33322698,-1.947133,-1.4912748
409,1778598672263,-3.3876975,-5.937298,0.92828584,1.3981178,4.4521384,0.7199047
410,1778598672273,-3.3493419,-6.1698112,0.8316339,1.992337,5.022076,1.4210253
411,1778598672283,-2.4782543,-5.8818674,0.3612406,4.184885,3.8296669,1.952478
412,1778598672293,-1.5296624,-3.8658965,-0.015671646,5.0616293,1.7253889,0.7799222
413,1778598672303,-1.012681,-2.5100243,-0.9628001,4.9678617,4.975803,0.43081272
414,1778598672313,-0.3594112,-1.4300835,-2.9635875,4.9678617,4.975803,0.43081272
415,1778598672323,0.002927,-1.0950639,-2.98554,3.8884628,7.55396,0.22983804
416,1778598672333,0.002927,-1.0950639,-2.98554,0.48563787,9.772317,-1.2431108
417,1778598672343,0.17641273,-0.485821,-0.7725451,-1.3029755,6.278931,-2.6994135
418,1778598672353,0.17641273,-0.485821,-0.7725451,-1.3029755,6.278931,-2.6994135
419,1778598672363,0.08659042,-0.3723388,-0.1788519,-2.250733,4.402964,-3.4428365
420,1778598672373,0.08659042,-0.3723388,-0.1788519,-2.250733,4.402964,-3.4428365
421,1778598672383,0.08659042,-0.3723388,-0.1788519,-2.5445592,3.8869355,-3.6247218
422,1778598672393,0.27446723,-0.07555319,0.36471638,-2.834873,1.7939585,-4.6456304
423,1778598672403,0.2911755,-0.094456725,0.3626431,-2.4584272,0.5626069,-5.1972413
424,1778598672413,0.22873287,-0.14574021,0.29635876,-2.443461,-0.42149702,-5.4133353
425,1778598672423,0.07043094,-0.1876329,0.31331098,-2.6510024,-2.638327,-5.5486417
426,1778598672433,0.014939896,-0.193182,0.3547768,-2.855795,-4.1189117,-5.4728947
427,1778598672443,0.014939896,-0.193182,0.3547768,-3.1680999,-5.7474785,-5.223509
428,1778598672453,-0.009939604,-0.18421806,0.4552705,-3.4272594,-6.8349714,-4.9380817
429,1778598672463,-0.008537084,-0.18452296,0.5108225,-3.735441,-7.823809,-4.583627
430,1778598672473,0.006768687,-0.19519432,0.6417448,-4.0419426,-8.563262,-3.992768
431,1778598672483,0.035428897,-0.2040363,0.7088828,-4.106694,-8.641453,-3.7238345
432,1778598672493,0.122507155,-0.24922185,0.90035737,-3.8672352,-7.38643,-2.6612344
433,1778598672503,0.11890938,-0.33233646,0.96810526,-3.1951306,-5.980982,-2.225382
434,1778598672513,-0.6169872,-1.0306699,-0.7557758,-2.6308439,-4.8382053,-1.9624046
435,1778598672523,-0.6169872,-1.0306699,-0.7557758,-1.7121025,-0.9978484,-1.5453364
436,1778598672533,-0.35843554,-1.3704457,-0.6675999,-2.7603474,7.9869103,-1.2415836
437,1778598672543,0.18653527,-1.1629947,0.6398544,-1.9086485,14.36923,-1.6893479
438,1778598672553,-0.079211935,-1.3422734,0.7090658,4.4183884,14.509882,-1.2573134
439,1778598672563,-1.0809166,-2.0804265,-0.77431345,4.4183884,14.509882,-1.2573134
440,1778598672573,-1.0809166,-2.0804265,-0.77431345,4.4183884,14.509882,-1.2573134
441,1778598672583,-1.1726904,-1.8784631,-1.2830627,7.2185946,0.04153884,5.7221274
442,1778598672593,-1.1726904,-1.8784631,-1.2830627,7.2185946,0.04153884,5.7221274
443,1778598672603,-0.8537083,-1.7338817,-0.7441288,5.64806,-0.05375614,7.318929
444,1778598672613,-0.48130858,-1.7087582,-0.13012955,2.4248295,1.0629056,9.23781
445,1778598672623,-0.23129399,-1.6139356,-0.11756783,1.385137,1.0064005,9.257205
446,1778598672633,0.1507405,-1.2942829,-0.10061563,-0.93126404,-0.22968534,7.964461
447,1778598672643,0.28580934,-0.9996925,0.015549688,-1.7898352,-1.2183707,6.7164636
448,1778598672653,0.28580934,-0.9996925,0.015549688,-1.7898352,-1.2183707,6.7164636
449,1778598672663,0.28580934,-0.9996925,0.015549688,-1.7898352,-1.2183707,6.7164636
450,1778598672673,0.22257397,-0.11567748,0.116104335,-2.3632848,-3.6939023,2.6933048
451,1778598672683,0.22257397,-0.11567748,0.116104335,-2.1693351,-3.6943603,2.4191792
452,1778598672693,0.1885476,-0.039880376,0.11049425,-2.1693351,-3.6943603,2.4191792
453,1778598672703,0.15939954,0.01536675,0.063235395,-1.9220876,-3.6517525,2.1966715
454,1778598672713,0.1575092,0.04256346,0.042380523,-1.6256652,-3.6490035,1.9882137
455,1778598672723,0.1575092,0.04256346,0.042380523,-1.5593863,-3.6570976,1.9579759
456,1778598672733,0.16781467,0.13177599,0.030184686,-0.74265945,-4.14243,1.4779885
457,1778598672743,0.16781467,0.13177599,0.030184686,-0.74265945,-4.14243,1.4779885
458,1778598672753,0.16781467,0.13177599,0.030184686,-0.74265945,-4.14243,1.4779885
459,1778598672763,0.16781467,0.13177599,0.030184686,-0.74265945,-4.14243,1.4779885
460,1778598672773,0.16781467,0.13177599,0.030184686,-0.74265945,-4.14243,1.4779885
461,1778598672783,0.29337075,-0.16263144,0.22708642,-0.9288206,0.8892671,-0.77747875
462,1778598672793,0.08976133,-0.60070574,0.32837284,-0.32085696,1.3243558,-3.673591
463,1778598672803,0.08976133,-0.60070574,0.32837284,-0.32085696,1.3243558,-3.673591
464,1778598672813,0.08976133,-0.60070574,0.32837284,-0.32085696,1.3243558,-3.673591
465,1778598672823,0.08976133,-0.60070574,0.32837284,-0.32085696,1.3243558,-3.673591
466,1778598672833,-3.7297907,-4.9426055,0.37075335,0.6073528,2.6342037,0.47769663
467,1778598672843,-3.014871,-5.132738,0.19848719,0.6400341,2.6284003,2.8489227
468,1778598672853,-1.8387048,-4.278177,0.13299556,0.79275036,1.8512272,2.468812
469,1778598672863,-1.8387048,-4.278177,0.13299556,0.79275036,1.8512272,2.468812
470,1778598672873,-1.2317183,-3.032067,0.16080207,1.4065173,0.17302758,0.8917105
471,1778598672883,-1.2317183,-3.032067,0.16080207,1.4065173,0.17302758,0.8917105
472,1778598672893,-1.1192727,-2.060974,0.039392542,3.275154,-4.2797217,0.35170567
473,1778598672903,0.21470766,-0.48630884,-2.4845352,1.4069754,7.4711876,0.27565295
474,1778598672913,0.35087416,-0.21592724,-0.97828877,0.473726,9.835083,-0.12522738
475,1778598672923,0.3357513,-0.21537842,-0.78108215,-0.14950927,9.7060375,-1.2516629
476,1778598672933,0.3357513,-0.21537842,-0.78108215,-0.16081028,8.907179,-1.6314683
477,1778598672943,0.24141651,-0.21507353,-0.059820563,-0.1348485,5.3001723,-3.418402
478,1778598672953,0.24141651,-0.21507353,-0.059820563,-0.1348485,5.3001723,-3.418402
479,1778598672963,0.2336112,-0.14860623,0.1478135,-0.22449298,3.4087808,-4.2394047
480,1778598672973,0.2336112,-0.14860623,0.1478135,-0.22449298,3.4087808,-4.2394047
481,1778598672983,0.2336112,-0.14860623,0.1478135,-0.22449298,3.4087808,-4.2394047
482,1778598672993,0.11226265,-0.16689998,0.16098501,-0.25473082,2.5744915,-4.475962
483,1778598673003,0.052076213,-0.16732684,0.13506886,-0.25473082,2.5744915,-4.475962
484,1778598673013,0.010183521,-0.1642169,0.13067836,-1.403921,-5.0194798,-4.9793153
485,1778598673023,-0.07506536,-0.17671762,0.18068127,-1.7545577,-6.0321417,-4.847674
486,1778598673033,-0.13567865,-0.18421806,0.25178298,-2.4857633,-7.521431,-4.3800564
487,1778598673043,-0.16574138,-0.22757424,0.31245726,-2.4857633,-7.521431,-4.3800564
488,1778598673053,-0.16574138,-0.22757424,0.31245726,-2.4857633,-7.521431,-4.3800564
489,1778598673063,-0.3623992,-0.6493062,-0.25696623,-4.721988,-5.5950675,-2.1988094
490,1778598673073,-0.25239277,-0.74955595,-0.12738548,-5.3302574,-3.6402986,-1.7188221
491,1778598673083,0.08396832,-1.0719528,0.6537577,-5.48557,0.12370021,-1.2447907
492,1778598673093,0.22043969,-1.2648299,1.0200596,-4.4843616,3.2252157,-1.3979651
493,1778598673103,0.31471348,-1.5305771,1.2591588,-3.460399,4.8864636,-1.678505
494,1778598673113,0.14287418,-2.0913415,0.8832832,-0.99112886,8.539743,-2.2247713
495,1778598673123,-0.96676373,-3.0011508,-0.42947626,0.40485093,10.884703,-2.2696698
496,1778598673133,-0.96676373,-3.0011508,-0.42947626,4.9704576,10.624168,-0.71669763
497,1778598673143,-1.3928862,-2.6300313,-1.0406095,7.1191764,5.2595496,1.4671456
498,1778598673153,-1.3928862,-2.6300313,-1.0406095,7.1191764,5.2595496,1.4671456
499,1778598673163,-0.6315613,-1.311113,-0.6413179,5.2910094,-1.0283916,5.9712076
500,1778598673173,-0.36575305,-1.0853072,-0.19312102,2.9318478,-1.0659598,7.8748164
501,1778598673183,-0.25477096,-1.0026805,-0.030245667,2.1881194,-0.8368854,8.234921
502,1778598673193,-0.06061329,-0.8996867,-0.05933273,1.6137533,-0.8211556,8.184678
503,1778598673203,0.11945819,-0.7952293,-0.046588086,1.0358747,-0.8949176,7.8192277
504,1778598673213,0.11945819,-0.7952293,-0.046588086,0.52015173,-1.1945469,7.168809
505,1778598673223,0.3623992,-0.47521064,0.03957548,-0.037873644,-1.8041905,5.989839
506,1778598673233,0.40020627,-0.30483487,0.05933273,-0.27305678,-2.2638667,4.911204
507,1778598673243,0.3842907,-0.17220518,0.1062867,-0.31764993,-2.552195,4.123035
508,1778598673253,0.3088595,-0.066650234,0.07817529,-0.2218968,-2.807842,3.4016032
509,1778598673263,0.2455631,-0.04116094,0.060369372,-0.17363845,-2.8872545,3.2004757
510,1778598673273,0.16793664,0.015671646,-0.008841979,-0.00076358154,-3.0637946,2.7753136
511,1778598673283,0.17086363,0.05116152,-0.030184686,0.09560041,-3.202461,2.6296222
512,1778598673293,0.13177599,0.14324006,-0.5711919,0.34880406,-4.0436225,2.3228152
513,1778598673303,-0.43813533,-0.060918186,-5.444098,0.34880406,-4.0436225,2.3228152
514,1778598673313,0.021769563,-0.12061679,-0.2800773,-2.3571763,0.14782938,2.2664628
515,1778598673323,0.12933682,-0.046832,0.18501079,-3.0303497,-3.3189836,1.7014124
516,1778598673333,0.21495157,-0.008598062,0.22733033,-1.6336064,-5.258939,1.2545645
517,1778598673343,0.2174517,-0.08707825,0.06945527,-1.039998,-4.830264,0.58001655
518,1778598673353,0.2652594,-0.134642,0.044209898,-0.93279123,-4.2982006,0.0047342055
519,1778598673363,0.29891986,-0.34617874,0.11927526,-0.95340794,-3.928627,-1.5615243
520,1778598673373,0.2119026,-0.82462126,0.15092343,-1.0708468,-3.8612792,-2.4959953
521,1778598673383,-0.6805885,-2.1837249,0.26410076,-1.704314,-2.91398,-4.553084
522,1778598673393,-2.4778275,-4.104081,0.78138703,-2.2017112,-0.95233893,-4.786893
523,1778598673403,-3.450628,-4.9810224,0.90419906,-2.1815524,2.1358902,-3.2849278
524,1778598673413,-3.8163202,-5.637951,0.71467584,-1.6899587,5.1392093,-0.19425514
525,1778598673423,-3.7093627,-5.787228,0.7809602,-1.2227995,5.553834,0.86406887
526,1778598673433,-1.7860799,-3.9415715,0.4281347,3.398396,1.3240504,0.65240407
527,1778598673443,-1.7860799,-3.9415715,0.4281347,3.398396,1.3240504,0.65240407
528,1778598673453,-1.7860799,-3.9415715,0.4281347,3.398396,1.3240504,0.65240407
529,1778598673463,-1.7860799,-3.9415715,0.4281347,3.398396,1.3240504,0.65240407
530,1778598673473,-0.09823744,-0.25897855,-3.6059422,5.513975,-0.9147707,-0.20830505
531,1778598673483,0.19763349,-0.23787974,-3.0774357,2.361147,9.49529,-0.25259277
532,1778598673493,0.27885774,-0.25031948,-1.9590777,0.0041233404,9.34914,-1.4891367
533,1778598673503,0.27885774,-0.25031948,-1.9590777,0.0041233404,9.34914,-1.4891367
534,1778598673513,0.27885774,-0.25031948,-1.9590777,0.0041233404,9.34914,-1.4891367
535,1778598673523,0.27885774,-0.25031948,-1.9590777,0.0041233404,9.34914,-1.4891367
536,1778598673533,0.09896919,-0.16061912,0.16610725,-2.10214,2.5937338,-4.269948
537,1778598673543,0.04622221,-0.12750745,0.2587346,-1.8484782,4.3725734,-3.470631
538,1778598673553,0.04701494,-0.11122601,0.16647314,-2.157576,0.9596693,-4.587751
539,1778598673563,0.04701494,-0.11122601,0.16647314,-2.157576,0.9596693,-4.587751
540,1778598673573,0.04701494,-0.11122601,0.16647314,-2.157576,0.9596693,-4.587751
541,1778598673583,0.04701494,-0.11122601,0.16647314,-2.157576,0.9596693,-4.587751
542,1778598673593,0.04701494,-0.11122601,0.16647314,-2.157576,0.9596693,-4.587751
543,1778598673603,0.011220166,-0.106957465,0.18751094,-2.2075143,0.33200526,-4.636925
544,1778598673613,-0.16641214,-0.20171909,0.46368557,-2.7939448,-3.657403,-4.0822597
545,1778598673623,-0.14330104,-0.23245259,0.7088828,-3.147025,-7.203323,-2.7669141
546,1778598673633,-0.09781059,-0.27940655,0.86834335,-3.0476067,-7.261813,-2.3073907
547,1778598673643,-0.038355898,-0.34599578,0.9628001,-2.6155722,-6.3183317,-1.7947221
548,1778598673653,-0.15049659,-0.59521765,0.5188717,-2.203849,-4.5307875,-1.4434745
549,1778598673663,-0.43331796,-1.1021374,-0.602962,-2.9339857,0.6272059,-1.0691669
550,1778598673673,-0.005183229,-1.2834285,0.52875036,-3.4625368,7.9158974,-0.89827734
551,1778598673683,0.23190376,-1.3734949,0.8631601,-2.7041478,9.487349,-1.2852604
552,1778598673693,-0.75071454,-2.339222,-0.94127446,-1.2918273,9.54309,-1.7708983
553,1778598673703,-0.75071454,-2.339222,-0.94127446,0.82787514,8.108167,-1.446987
554,1778598673713,-1.0606717,-2.2057383,-0.8246823,3.6070065,3.35365,-0.39446622
555,1778598673723,-1.3066616,-1.460512,-0.3485569,6.008318,-3.0639474,4.1367793
556,1778598673733,-1.3066616,-1.460512,-0.3485569,6.008318,-3.0639474,4.1367793
557,1778598673743,-0.9430428,-1.2475119,-0.13165402,5.248554,-1.220356,6.7755647
558,1778598673753,-0.702541,-1.1765321,-0.041404855,4.675868,-0.2779437,7.5276923
559,1778598673763,-0.46319774,-1.1243339,-0.025489293,3.647629,0.7496844,7.725002
560,1778598673773,-0.21671996,-1.0744529,0.010000584,2.9025261,1.0934488,7.337255
561,1778598673783,0.10433535,-0.9318227,-0.061162103,2.9025261,1.0934488,7.337255
562,1778598673793,0.25312454,-0.74321413,-0.037136313,1.3025174,1.270447,4.4293838
563,1778598673803,0.28788266,-0.5710089,-0.05549104,0.6728681,0.9257663,2.8231137
564,1778598673813,0.14537434,-0.4191098,0.013842272,0.03726278,0.42119157,1.1670581
565,1778598673823,0.06421106,-0.25952733,0.09537142,-0.124311075,0.15806139,0.6374379
566,1778598673833,0.0629305,-0.14933798,0.11201873,-0.14844026,0.009773844,0.35170567
567,1778598673843,0.047075916,-0.043783043,0.07012604,-0.10720685,-0.12812899,0.1873829
568,1778598673853,0.043661084,0.0009146876,0.04616123,-0.07345655,-0.18646662,0.1498147
569,1778598673863,0.08549279,0.090249166,-0.0023172083,-0.021991149,-0.3034473,0.10170906
570,1778598673873,0.08549279,0.090249166,-0.0023172083,0.10934488,-0.6067419,0.03283401
571,1778598673883,0.3314218,0.34398347,-2.1587846,0.182496,-2.8706086,-0.089491755
572,1778598673893,-0.04908823,0.03298973,-0.40886533,0.41462478,-13.517837,-0.27305678
573,1778598673903,-0.45100194,-0.50362694,-3.2292738,-1.7669277,-9.985509,-0.11407909
574,1778598673913,-0.093907915,-0.42837867,-1.4699029,-1.7669277,-9.985509,-0.11407909
575,1778598673923,0.005061271,-0.35758185,0.022379354,-3.8933496,-1.8996382,-0.46792278
576,1778598673933,-0.19592606,-0.5959494,0.38246134,-2.917187,-1.4643967,-0.79626286
577,1778598673943,-0.19592606,-0.5959494,0.38246134,-2.917187,-1.4643967,-0.79626286
578,1778598673953,-1.5301503,-2.377395,0.7740086,-0.04184427,-1.7634152,-0.66553766
579,1778598673963,-1.5301503,-2.377395,0.7740086,-0.04184427,-1.7634152,-0.66553766
580,1778598673973,-2.7472334,-5.025415,0.47667417,1.6168076,2.0288363,1.882534
581,1778598673983,-2.470449,-5.300248,0.40435287,1.7169895,3.693444,2.0609066
582,1778598673993,-2.470449,-5.300248,0.40435287,1.7169895,3.693444,2.0609066
583,1778598674003,-2.470449,-5.300248,0.40435287,1.7169895,3.693444,2.0609066
584,1778598674013,-2.470449,-5.300248,0.40435287,1.7169895,3.693444,2.0609066
585,1778598674023,-0.071467586,-1.4200219,-3.105547,5.433646,3.737579,0.5305365
586,1778598674033,0.30562758,-1.0972592,-2.4400814,2.9422324,10.5916395,-0.111635625
587,1778598674043,0.29867595,-0.8863322,-1.7107705,2.9422324,10.5916395,-0.111635625
588,1778598674053,0.26214942,-0.7516902,-1.1489694,1.3057245,11.904237,-0.9799806
589,1778598674063,0.18476687,-0.6832715,-0.80852276,-0.09636399,9.328829,-2.2896757
590,1778598674073,0.08768804,-0.51411533,-0.30721304,-0.872621,6.182109,-3.0560062
591,1778598674083,0.14269125,-0.27379647,0.056344748,-1.8217529,3.26874,-3.872122
592,1778598674093,0.20537783,-0.17574196,0.11183579,-2.0118847,2.5431848,-4.137085
593,1778598674103,0.22031774,-0.09610317,0.13659334,-2.0118847,2.5431848,-4.137085
594,1778598674113,0.2095854,-0.040429186,0.19988972,-2.1587977,0.9069822,-4.7343583
595,1778598674123,0.18598646,-0.045856334,0.22501312,-2.111761,0.21731532,-4.9551864
596,1778598674133,0.18598646,-0.045856334,0.22501312,-2.111761,0.21731532,-4.9551864
597,1778598674143,0.18598646,-0.045856334,0.22501312,-2.111761,0.21731532,-4.9551864
598,1778598674153,0.18598646,-0.045856334,0.22501312,-2.111761,0.21731532,-4.9551864
599,1778598674163,0.085431814,-0.092505395,0.1636681,-2.2343924,-1.0885619,-5.0912566
600,1778598674173,-0.024391668,-0.16153382,0.4241711,-3.499647,-7.226383,-4.4133487
601,1778598674183,-0.018903542,-0.20013362,0.52850646,-3.7410915,-8.23538,-3.9310706
602,1778598674193,-0.018903542,-0.20013362,0.52850646,-3.7410915,-8.23538,-3.9310706
603,1778598674203,-0.018903542,-0.20013362,0.52850646,-3.7410915,-8.23538,-3.9310706
604,1778598674213,-0.018903542,-0.20013362,0.52850646,-3.7410915,-8.23538,-3.9310706
605,1778598674223,-0.018903542,-0.20013362,0.52850646,-3.7410915,-8.23538,-3.9310706
606,1778598674233,-0.018903542,-0.20013362,0.52850646,-3.7410915,-8.23538,-3.9310706
607,1778598674243,-0.10323773,-1.4406328,0.0395145,-5.6666913,11.46029,-1.4747814
608,1778598674253,0.08524887,-1.847364,0.04884431,-4.4667993,14.701541,-2.0665572
609,1778598674263,-0.21025616,-2.5793579,0.45252642,7.4997454,4.204738,-0.20830505
610,1778598674273,-0.558996,-2.130673,0.010732334,7.4997454,4.204738,-0.20830505
611,1778598674283,-0.558996,-2.130673,0.010732334,7.4997454,4.204738,-0.20830505
612,1778598674293,-0.558996,-2.130673,0.010732334,7.4997454,4.204738,-0.20830505
613,1778598674303,-0.8849297,-1.606801,-1.0179253,7.4296484,-0.6814202,3.0520356
614,1778598674313,-0.6126577,-1.2605003,-0.11110405,4.8003316,-0.40515637,6.114914
615,1778598674323,-0.4374036,-1.2242178,0.087566085,3.8336375,0.30207285,7.94583
616,1778598674333,-0.29270002,-1.2659276,0.01695221,3.1505375,0.72066826,8.352055
617,1778598674343,-0.07476046,-1.1673242,-0.04542948,2.256078,0.8003862,8.286081
618,1778598674353,0.10342067,-1.0343287,-0.10622571,1.0158689,0.33001995,7.5339537
619,1778598674363,0.27154022,-0.82010883,-0.033111688,0.15439619,-0.31780264,6.548781
620,1778598674373,0.27154022,-0.82010883,-0.033111688,-0.62018096,-1.1953106,5.0648365
621,1778598674383,0.3635578,-0.39825493,0.024513626,-1.0590876,-1.8614591,3.9283216
622,1778598674393,0.2906267,-0.21684194,0.042990312,-1.2796099,-2.3246477,2.849839
623,1778598674403,0.19891405,-0.013415418,0.12781233,-1.2559389,-2.5025623,2.1937697
624,1778598674413,0.19891405,-0.013415418,0.12781233,-1.0945178,-2.5082128,1.8350391
625,1778598674423,0.13945936,0.03823394,0.09488358,-0.68707067,-2.6551259,1.4676038
626,1778598674433,0.1255561,0.05652769,0.059942525,-0.68707067,-2.6551259,1.4676038
627,1778598674443,0.117689796,0.07195542,0.0060369377,-0.48487428,-2.8860328,1.3535247
628,1778598674453,0.06726002,0.11238461,-0.039758418,-0.058184914,-3.5573738,1.1265882
629,1778598674463,-0.10195717,0.013598354,-0.71809065,0.41538838,-5.0781226,0.8801041
630,1778598674473,-0.10195717,0.013598354,-0.71809065,0.41538838,-5.0781226,0.8801041
631,1778598674483,-0.10195717,0.013598354,-0.71809065,0.41538838,-5.0781226,0.8801041
632,1778598674493,-0.4926507,-0.47039333,-2.6770465,-1.7702875,-8.343045,0.4063781
633,1778598674503,0.29672462,-0.28940713,0.061527982,-3.172376,-5.6312613,-1.9501873
634,1778598674513,-0.21373199,-1.1423838,0.39142528,-3.110373,-4.6958737,-3.5184312
635,1778598674523,-1.595154,-2.728086,0.8044982,-2.737898,-2.3073907,-4.3504295
636,1778598674533,-3.1783562,-4.367938,1.1493963,-1.9827158,-0.64858615,-3.480252
637,1778598674543,-3.7827816,-5.174509,1.0913442,0.3494149,0.84329945,-0.18936823
638,1778598674553,-3.3562324,-5.148105,0.91840726,1.781894,1.5242615,1.7437148
639,1778598674563,-1.9743836,-4.5511804,0.5107005,3.2273538,3.287524,2.5932758
640,1778598674573,-1.2101926,-3.662348,0.23696505,3.8629591,3.6042576,1.1646146
641,1778598674583,-0.7577881,-2.4991703,-0.81510854,4.7914743,2.5276077,0.49113566
642,1778598674593,-0.16909523,-1.6529013,-3.050056,4.787809,4.045455,0.1704314
643,1778598674603,-0.02042802,-1.027499,-1.6425959,1.180497,10.327746,-0.9682214
644,1778598674613,-0.02042802,-1.027499,-1.6425959,1.180497,10.327746,-0.9682214
645,1778598674623,-0.16171674,-0.8993208,-0.93456674,0.12904528,9.535301,-1.538006
646,1778598674633,-0.201963,-0.6904671,-0.33422682,0.12904528,9.535301,-1.538006
647,1778598674643,-0.0690894,-0.41459736,0.011647021,-0.9990701,6.4843345,-2.156507
648,1778598674653,0.07280912,-0.19409668,0.12098267,-1.7082846,3.5726454,-2.7521007
649,1778598674663,0.097871564,-0.06683317,0.07530928,-1.881465,2.7178922,-3.0114129
650,1778598674673,0.097871564,-0.06683317,0.07530928,-1.881465,2.7178922,-3.0114129
651,1778598674683,0.10957957,0.012805625,0.12415359,-2.0357084,1.5386169,-3.3476942
652,1778598674693,0.10957957,0.012805625,0.12415359,-2.0357084,1.5386169,-3.3476942
653,1778598674703,0.12378771,-0.016159479,0.18507177,-2.0674734,0.4175264,-3.5818083
654,1778598674713,0.06744295,-0.06683317,0.1451914,-2.3020456,-2.096184,-3.738037
655,1778598674723,0.030611541,-0.06744295,0.17598589,-2.700788,-4.095699,-3.748269
656,1778598674733,-0.040917024,-0.1203119,0.24269708,-3.0838006,-5.6796722,-3.6193767
657,1778598674743,-0.059088815,-0.1469598,0.32129923,-3.0838006,-5.6796722,-3.6193767
658,1778598674753,-0.07683375,-0.16952209,0.45295325,-3.4489453,-7.00357,-3.3470833
659,1778598674763,-0.019452354,-0.2667229,0.7285791,-3.9089267,-8.469952,-2.5854871
660,1778598674773,-0.019452354,-0.2667229,0.7285791,-3.8400517,-7.804567,-2.0433443
661,1778598674783,-0.042502478,-0.31123766,0.71479785,-3.5457673,-6.1297274,-1.5554156
662,1778598674793,-0.63790303,-0.9703005,-0.88974696,-4.1696134,-2.195297,-1.0128145
663,1778598674803,-0.63790303,-0.9703005,-0.88974696,-4.1696134,-2.195297,-1.0128145
664,1778598674813,-0.63790303,-0.9703005,-0.88974696,-4.1696134,-2.195297,-1.0128145
665,1778598674823,0.2087317,-1.0143884,0.872124,-5.227174,7.0113587,-0.84940815
666,1778598674833,0.2087317,-1.0143884,0.872124,-5.227174,7.0113587,-0.84940815
667,1778598674843,0.2087317,-1.0143884,0.872124,-5.227174,7.0113587,-0.84940815
668,1778598674853,0.2087317,-1.0143884,0.872124,-5.227174,7.0113587,-0.84940815
669,1778598674863,0.2087317,-1.0143884,0.872124,-5.227174,7.0113587,-0.84940815
670,1778598674873,-1.0035952,-1.4492309,-0.29641974,6.5765753,-0.9272934,5.339115
671,1778598674883,-1.0035952,-1.4492309,-0.29641974,5.8664446,-0.21609358,6.4180555
672,1778598674893,-0.7909608,-1.3884346,-0.14348398,5.8664446,-0.21609358,6.4180555
673,1778598674903,-0.6157066,-1.3897152,0.025428312,4.4849725,1.0340421,7.4588175
674,1778598674913,-0.6157066,-1.3897152,0.025428312,4.4849725,1.0340421,7.4588175
675,1778598674923,-0.6157066,-1.3897152,0.025428312,4.4849725,1.0340421,7.4588175
676,1778598674933,0.2728208,-0.7467509,-0.10707942,1.5079209,1.3972015,4.3336306
677,1778598674943,0.2695279,-0.518018,-0.058296088,1.5079209,1.3972015,4.3336306
678,1778598674953,0.2695279,-0.518018,-0.058296088,1.5079209,1.3972015,4.3336306
679,1778598674963,0.2695279,-0.518018,-0.058296088,1.5079209,1.3972015,4.3336306
680,1778598674973,0.2695279,-0.518018,-0.058296088,0.67057735,0.6979135,2.0146337
681,1778598674983,0.2695279,-0.518018,-0.058296088,0.67057735,0.6979135,2.0146337
682,1778598674993,0.049393125,0.0005488125,0.055003207,0.10873401,-0.040011674,0.23243423
683,1778598675003,0.056954544,0.07360186,0.03561183,0.21670444,-0.16035213,0.14660765
684,1778598675013,0.0600035,0.10909174,0.0045124586,0.42577308,-0.3885103,0.100029185
685,1778598675023,0.0600035,0.10909174,0.0045124586,0.5578727,-0.5109888,0.075594574
686,1778598675033,-0.1273245,0.021769563,-0.7174809,1.2501358,-7.6313868,-0.04734206
687,1778598675043,0.00030489583,0.04884431,-0.13177599,1.5247196,-9.493762,-0.1516473
688,1778598675053,-0.30257863,-0.32379937,-1.8752923,1.432479,-10.819035,-0.44043383
689,1778598675063,-0.49374834,-0.90486985,-3.9416325,-1.0946705,-9.812023,-0.30024028
690,1778598675073,-0.49374834,-0.90486985,-3.9416325,-1.0946705,-9.812023,-0.30024028
691,1778598675083,-0.27739424,-0.7319939,0.37307054,-3.0665436,-6.041763,-0.24740042
692,1778598675093,-1.1079304,-1.9717613,0.76547146,-2.649017,-3.9591703,-0.23625213
693,1778598675103,-2.128173,-3.518803,1.1577505,-2.0589213,-1.093296,0.45906523
694,1778598675113,-2.6159453,-4.414709,1.1370785,-1.7373008,0.6782131,0.95294976
695,1778598675123,-2.6159453,-4.414709,1.1370785,0.7733554,3.006526,2.1716259
696,1778598675133,-2.1670167,-5.089992,0.49887055,2.3512204,2.4324653,1.861001
697,1778598675143,-1.2693423,-2.9492574,0.070248,2.9700267,2.0787745,1.0479393
698,1778598675153,-1.2693423,-2.9492574,0.070248,3.0789135,1.8811595,0.7031059
699,1778598675163,-0.7935829,-1.946821,-0.09031015,3.5407276,0.9579894,0.8738427
700,1778598675173,-0.4600878,-1.4859405,-0.7685814,4.289801,0.5025894,0.94897914
701,1778598675183,0.18952326,-0.825597,-2.5946636,3.7748418,4.1987824,0.788627
702,1778598675193,0.31477445,-0.71260256,-2.2639124,2.6254988,7.415599,0.39492437
703,1778598675203,0.34770322,-0.5193596,-1.6631459,0.82619524,9.608299,-0.62125
704,1778598675213,0.22147635,-0.2651374,-1.0262794,-0.8961393,6.5894036,-2.5097399
705,1778598675223,0.19135264,-0.19970676,-0.6238779,-1.3588698,5.1893,-3.0305026
706,1778598675233,0.17610784,-0.19696271,-0.36868006,-1.3588698,5.1893,-3.0305026
707,1778598675243,0.21586627,-0.20056048,-0.045185562,-2.1180224,3.5118642,-4.014454
708,1778598675253,0.21915914,-0.19921893,0.065491624,-2.1180224,3.5118642,-4.014454
709,1778598675263,0.19214535,-0.1378739,0.24574605,-2.0619757,2.1781929,-4.734053
710,1778598675273,0.14543532,-0.14073992,0.1911697,-2.0202842,1.655903,-4.8773007
711,1778598675283,0.041587792,-0.17336378,0.26123476,-1.9598085,0.8773552,-4.9910746
712,1778598675293,0.011768979,-0.21854934,0.34867886,-1.8327484,-0.3717115,-4.9753447
713,1778598675303,-0.0010366458,-0.22525704,0.41203624,-1.7044667,-1.3107641,-4.932737
714,1778598675313,-0.033111688,-0.2172078,0.39892572,-1.5280794,-3.3525813,-4.776508
715,1778598675323,-0.020793896,-0.23952618,0.40221858,-1.5864171,-5.15555,-4.576144
716,1778598675333,-0.020793896,-0.23952618,0.40221858,-1.5864171,-5.15555,-4.576144
717,1778598675343,-0.03225798,-0.2716012,0.447831,-1.9437732,-7.940943,-3.944204
718,1778598675353,-0.018232772,-0.2856264,0.46277088,-3.3686163,-6.356511,-2.8367054
719,1778598675363,-0.31068885,-1.0961615,-0.9336521,-3.3686163,-6.356511,-2.8367054
720,1778598675373,-0.31068885,-1.0961615,-0.9336521,-5.2467217,-1.984243,-2.2463043
721,1778598675383,-0.125861,-1.1833618,-0.24458744,-6.20746,5.6897516,-2.1994202
722,1778598675393,0.14897211,-1.3485544,0.7183956,-5.73297,6.3966756,-2.3596196
723,1778598675403,0.13561767,-1.4650855,0.7472997,-5.73297,6.3966756,-2.3596196
724,1778598675413,0.13561767,-1.4650855,0.7472997,-5.73297,6.3966756,-2.3596196
725,1778598675423,-0.29111454,-3.0758502,0.054759294,-5.73297,6.3966756,-2.3596196
726,1778598675433,-1.185374,-2.8471172,-1.3389806,-5.73297,6.3966756,-2.3596196
727,1778598675443,-1.185374,-2.8471172,-1.3389806,-5.73297,6.3966756,-2.3596196
728,1778598675453,-0.4370377,-1.2619029,-0.27696738,3.3961053,-1.4989105,4.696332
729,1778598675463,-0.36111864,-1.0012169,0.025672229,3.0474539,-1.6820174,5.2807775
730,1778598675473,-0.28611428,-0.790412,0.10518907,2.9633074,-1.6584991,5.811161
731,1778598675483,-0.22854991,-0.68003964,0.07860215,2.9271135,-1.4679092,6.0952134
732,1778598675493,-0.17818113,-0.60857207,0.07091877,2.8475482,-1.1325442,6.2657976
733,1778598675503,-0.03738023,-0.5361898,0.03731925,2.6899452,-0.7124216,6.2716007
734,1778598675513,0.08085837,-0.4750887,0.017744938,2.4408648,-0.45204028,5.98877
735,1778598675523,0.16927817,-0.40727988,0.00804925,1.9566014,-0.59574634,4.9942813
736,1778598675533,0.204829,-0.34026375,0.02274523,1.9566014,-0.59574634,4.9942813
737,1778598675543,0.204829,-0.34026375,0.02274523,1.9566014,-0.59574634,4.9942813
738,1778598675553,0.204829,-0.34026375,0.02274523,1.9566014,-0.59574634,4.9942813
739,1778598675563,0.20848778,-0.042502478,0.014695979,1.9566014,-0.59574634,4.9942813
740,1778598675573,0.17275399,-0.01103723,0.008110229,1.5306755,-1.5346462,2.640465
741,1778598675583,0.16507061,0.010305479,-0.011708,1.6079501,-1.7102699,2.4312437
742,1778598675593,0.16507061,0.010305479,-0.011708,1.6079501,-1.7102699,2.4312437
743,1778598675603,0.13653237,0.028965104,-0.050734665,1.738217,-2.0638082,2.1789563
744,1778598675613,0.13653237,0.028965104,-0.050734665,1.738217,-2.0638082,2.1789563
745,1778598675623,-0.47161287,-0.0898833,-2.6215553,0.6919576,-1.0942124,2.0007365
746,1778598675633,-0.3061764,-0.19708468,-1.2862337,-3.061351,2.3993258,2.4324653
747,1778598675643,-0.15037462,-0.24751444,-0.5960104,-3.1859677,-2.4411702,2.4333818
748,1778598675653,0.09470064,-0.17769329,-0.12805626,-3.1859677,-2.4411702,2.4333818
749,1778598675663,0.09470064,-0.17769329,-0.12805626,-3.1859677,-2.4411702,2.4333818
750,1778598675673,0.09470064,-0.17769329,-0.12805626,-3.1859677,-2.4411702,2.4333818
751,1778598675683,0.09470064,-0.17769329,-0.12805626,-3.1859677,-2.4411702,2.4333818
752,1778598675693,-0.61534077,-1.8718776,0.42953727,-1.6924021,-5.5524597,-3.537826
753,1778598675703,-2.0648766,-4.074079,0.8880396,-1.2820535,-2.807384,-4.40892
754,1778598675713,-4.203538,-5.645817,1.2854408,0.1695151,-0.1516473,-2.6563475
755,1778598675723,-4.1897564,-6.141273,1.021706,2.475226,2.4087944,1.0103711
756,1778598675733,-3.0136516,-5.6716113,0.54820275,3.441462,3.8843393,2.48332
757,1778598675743,-1.5261257,-3.893215,0.13336144,4.67373,2.1586452,0.7695375
758,1778598675753,-1.2131805,-2.6866202,-0.34666657,4.67373,2.1586452,0.7695375
759,1778598675763,-0.2804432,-1.0082296,-2.8666308,5.050023,1.4869987,0.5655085
760,1778598675773,-0.2804432,-1.0082296,-2.8666308,3.5576792,4.9585457,0.49296826
761,1778598675783,-0.0895784,-0.85181797,-2.0484123,3.5576792,4.9585457,0.49296826
762,1778598675793,0.0039026667,-0.55228835,-0.48838213,-0.98364574,7.175681,-1.0997101
763,1778598675803,0.047380816,-0.40331623,-0.33623913,-1.3461943,5.908136,-1.5250251
764,1778598675813,0.08976133,-0.2561735,-0.12665373,-1.7960966,4.404491,-2.0134118
765,1778598675823,0.08976133,-0.2561735,-0.12665373,-1.7960966,4.404491,-2.0134118
766,1778598675833,0.24861206,-0.08622454,0.12336086,-2.1711679,2.7884471,-2.7884471
767,1778598675843,0.26836932,-0.03158721,0.111165024,-2.1830797,2.3716843,-3.124423
768,1778598675853,0.2800773,0.007073583,0.14202048,-2.1682663,1.9575176,-3.4567337
769,1778598675863,0.2952611,0.0018293752,0.2859923,-2.0344868,1.4327844,-3.8511999
770,1778598675873,0.28556544,-0.025367333,0.3471544,-1.7647897,0.75151694,-4.24307
771,1778598675883,0.15122834,-0.07762648,0.25775895,-1.7716619,-0.40225476,-4.478253
772,1778598675893,0.021037813,-0.09287128,0.32142118,-1.9506454,-1.9049833,-4.5857654
773,1778598675903,0.021037813,-0.09287128,0.32142118,-2.345417,-4.26445,-4.5906525
774,1778598675913,0.021037813,-0.09287128,0.32142118,-2.345417,-4.26445,-4.5906525
775,1778598675923,0.021037813,-0.09287128,0.32142118,-3.1193833,-7.2271466,-4.0866885
776,1778598675933,0.03945352,-0.16196068,0.6182678,-3.4287865,-8.19888,-3.7384953
777,1778598675943,0.08354146,-0.29532212,0.87810004,-3.389844,-7.954382,-2.7837129
778,1778598675953,0.07329696,-0.38069293,0.87907565,-3.0534098,-6.9582133,-2.5471554
779,1778598675963,0.07329696,-0.38069293,0.87907565,-3.0534098,-6.9582133,-2.5471554
780,1778598675973,-0.4677102,-1.261476,0.06774786,-5.8443007,8.96796,-0.7267769
781,1778598675983,-0.4677102,-1.261476,0.06774786,-5.8443007,8.96796,-0.7267769
782,1778598675993,0.22214709,-1.2819041,0.71083415,-5.5536814,11.331244,-0.947452
783,1778598676003,-0.15665549,-2.1490278,-0.5468612,-1.0494665,11.589488,-2.1820107
784,1778598676013,-0.15665549,-2.1490278,-0.5468612,-1.0494665,11.589488,-2.1820107
785,1778598676023,-0.15665549,-2.1490278,-0.5468612,-1.0494665,11.589488,-2.1820107
786,1778598676033,-1.14714,-1.3927642,-0.65235513,7.9568253,-2.0308216,2.0493002
787,1778598676043,-1.059574,-1.2240348,-0.4873455,7.2906766,-1.614975,3.73651
788,1778598676053,-0.9118215,-1.1750076,-0.37538776,6.741356,-1.1470522,4.6767845
789,1778598676063,-0.50570023,-1.1652509,0.054515377,5.4652586,-0.15790866,6.248846
790,1778598676073,-0.50570023,-1.1652509,0.054515377,4.8209486,0.3820962,6.799236
791,1778598676083,-0.38002217,-1.2370844,0.055186145,4.1198277,0.8565858,7.091382
792,1778598676093,-0.12927583,-1.1886059,-0.04085604,2.9958358,1.0714576,6.91698
793,1778598676103,0.14610608,-0.86834335,-0.08640748,0.6950119,0.45952338,5.0578117
794,1778598676113,0.2326965,-0.6728441,-0.08744413,-0.22831088,-0.39828414,3.4981198
795,1778598676123,0.2326965,-0.6728441,-0.08744413,-0.22831088,-0.39828414,3.4981198
796,1778598676133,0.2080609,-0.26160064,0.089517415,-0.97494096,-0.9601275,2.4045184
797,1778598676143,0.13006857,-0.12811723,0.058844898,-1.2380711,-1.2786937,1.1134546
798,1778598676153,0.09598121,-0.048905294,0.05652769,-1.2380711,-1.2786937,1.1134546
799,1778598676163,0.08073642,-0.004695396,0.043661084,-1.1223122,-1.3040446,0.8219192
800,1778598676173,0.08073642,-0.004695396,0.043661084,-1.0245737,-1.3573426,0.74204856
801,1778598676183,0.097749606,0.067077085,0.056588665,-0.84971356,-1.4149166,0.64553183
802,1778598676193,0.10366459,0.077809416,0.042868353,-0.6983717,-1.4482088,0.5707009
803,1778598676203,0.081468165,0.071772486,0.025184397,-0.28145617,-1.8449658,0.39019018
804,1778598676213,0.01835473,-0.012500729,-0.14787449,0.12812899,-2.6936102,0.17852537
805,1778598676223,-0.30611542,-0.30044436,-0.9838379,0.93722,-6.7412033,-0.06154467
806,1778598676233,-0.8827344,-1.1654949,-3.9320588,0.89858276,-11.891561,-0.33658674
807,1778598676243,-0.3890471,-1.1655558,0.1911087,-0.88056225,-9.397245,-0.5673411
808,1778598676253,-0.3890471,-1.1655558,0.1911087,-2.5152376,-5.125923,-1.4711162
809,1778598676263,-1.1294562,-2.1461618,0.5320433,-2.6745207,-2.8150198,-2.1606305
810,1778598676273,-1.1294562,-2.1461618,0.5320433,-2.6745207,-2.8150198,-2.1606305
811,1778598676283,-1.1294562,-2.1461618,0.5320433,-2.6745207,-2.8150198,-2.1606305
812,1778598676293,-1.8191916,-2.9570017,0.6739418,-2.4555256,4.9652653,0.22861631
813,1778598676303,-1.1776907,-3.6492982,0.2912365,3.4665074,1.0323622,1.92392
814,1778598676313,-1.1776907,-3.6492982,0.2912365,3.4665074,1.0323622,1.92392
815,1778598676323,-1.1776907,-3.6492982,0.2912365,3.4665074,1.0323622,1.92392
816,1778598676333,-0.8745022,-2.6189942,0.021403689,3.353803,1.1527027,0.54275376
817,1778598676343,-0.8745022,-2.6189942,0.021403689,3.353803,1.1527027,0.54275376
818,1778598676353,-0.8745022,-2.6189942,0.021403689,3.353803,1.1527027,0.54275376
819,1778598676363,0.24367274,-0.6113771,-1.1392128,0.75228053,8.938791,-0.69974613
820,1778598676373,0.19854817,-0.53131145,-0.71083415,0.124005646,8.203768,-1.4431691
821,1778598676383,0.19854817,-0.53131145,-0.71083415,0.124005646,8.203768,-1.4431691
822,1778598676393,0.19854817,-0.53131145,-0.71083415,0.124005646,8.203768,-1.4431691
823,1778598676403,0.07262619,-0.28849244,-0.14787449,-1.1410962,3.6502252,-3.0558534
824,1778598676413,0.08037054,-0.16281438,-0.020184105,-1.6288722,2.6335928,-3.3545666
825,1778598676423,0.11025034,-0.09567632,0.025123417,-1.8072448,2.2208006,-3.5153768
826,1778598676433,0.1308613,-0.055552024,0.037014354,-1.9158261,1.815797,-3.6856554
827,1778598676443,0.11451888,-0.04006331,0.051771317,-2.042886,1.1519392,-3.9174788
828,1778598676453,0.070248,-0.084578104,0.07036996,-2.1653645,-0.020922136,-4.0700426
829,1778598676463,0.03164819,-0.11592139,0.098603316,-2.1653645,-0.020922136,-4.0700426
830,1778598676473,0.040795065,-0.11762882,0.15769213,-2.2438607,-1.1137601,-4.079358
831,1778598676483,0.054027542,-0.1723881,0.2335502,-2.4947736,-3.7042868,-4.066683
832,1778598676493,0.022806209,-0.20982932,0.30776188,-2.601675,-4.8533244,-3.9904773
833,1778598676503,-0.006707709,-0.2619665,0.3690459,-2.7175868,-6.0121355,-3.810272
834,1778598676513,-0.14263028,-0.47752786,-0.15110639,-3.0880766,-6.152024,-3.5257614
835,1778598676523,-0.25977126,-0.71504176,-0.7360795,-3.0880766,-6.152024,-3.5257614
836,1778598676533,-0.06671121,-1.1934233,-0.38666892,-5.873622,0.0013744468,-3.0059152
837,1778598676543,0.18269359,-1.3927642,0.27568683,-6.2108197,2.5192082,-3.3156238
838,1778598676553,0.21989086,-1.8483396,0.53649473,-6.2108197,2.5192082,-3.3156238
839,1778598676563,0.27788207,-2.640154,-0.12665373,-3.6525161,7.559763,-4.5680504
840,1778598676573,0.27788207,-2.640154,-0.12665373,-3.6525161,7.559763,-4.5680504
841,1778598676583,-0.21239044,-2.9653559,0.16287535,1.3799446,7.887492,-4.195117
842,1778598676593,-1.1783614,-2.0016413,-0.03750219,7.601149,-0.84635377,-0.040011674
843,1778598676603,-1.1833007,-1.4027038,-0.63357353,7.601149,-0.84635377,-0.040011674
844,1778598676613,-0.87700236,-1.2199492,-0.32184806,6.5762696,-2.601675,3.2136095
845,1778598676623,-0.87700236,-1.2199492,-0.32184806,6.5762696,-2.601675,3.2136095
846,1778598676633,-0.87700236,-1.2199492,-0.32184806,6.5762696,-2.601675,3.2136095
847,1778598676643,-0.47313735,-1.0615864,0.1042134,5.235726,-1.9976821,5.391344
848,1778598676653,-0.18988912,-1.01884,-0.029940773,3.6813793,0.37659842,7.075958
849,1778598676663,0.044575773,-0.85523283,-0.07439458,2.5757134,0.98807454,6.7996936
850,1778598676673,0.1879378,-0.5560691,-0.08433419,1.1148291,0.7863363,5.539784
851,1778598676683,0.1879378,-0.5560691,-0.08433419,1.1148291,0.7863363,5.539784
852,1778598676693,0.22794013,-0.46911272,-0.07195542,0.8219192,0.6056729,5.1595206
853,1778598676703,0.26568624,-0.11616532,0.042014647,0.0065668016,-0.24938573,3.2910366
854,1778598676713,0.26568624,-0.11616532,0.042014647,0.0065668016,-0.24938573,3.2910366
855,1778598676723,0.21056107,-0.045795355,0.053234816,0.0013744468,-0.39843684,2.498897
856,1778598676733,0.100432694,0.032014064,0.054149497,0.06719518,-0.43478334,2.383138
857,1778598676743,0.099274084,0.05329579,0.009024917,0.1956296,-0.61850107,2.24157
858,1778598676753,0.092078544,0.06780884,-0.0078053335,0.28680122,-0.7852673,2.164601
859,1778598676763,0.08781,0.07488242,-0.078114316,0.45204028,-1.2983941,2.0306687
860,1778598676773,0.06786981,0.063418336,-0.12299499,0.6772968,-2.2675319,1.8464929
861,1778598676783,-0.038172957,0.013720313,-0.5142983,0.7814494,-3.4510832,1.7101172
862,1778598676793,-0.5841804,-0.49155307,-2.730281,0.12003502,-10.477408,1.6872098
863,1778598676803,-0.3595332,-0.7012604,-3.1928082,-2.9944615,-11.018176,1.6710218
864,1778598676813,0.24483135,-0.40166977,-0.1934869,-4.1280746,-9.849744,1.0790935
865,1778598676823,0.21525647,-0.58479017,0.19976775,-4.20092,-9.440464,0.020005837
866,1778598676833,-1.2089729,-2.8338847,0.8043152,-4.9298353,-5.5552087,-3.1728342
867,1778598676843,-1.2089729,-2.8338847,0.8043152,-4.586529,-0.41813725,-3.2333097
868,1778598676853,-2.8652282,-4.7218,1.2884898,-4.586529,-0.41813725,-3.2333097
869,1778598676863,-2.8652282,-4.7218,1.2884898,-4.586529,-0.41813725,-3.2333097
870,1778598676873,-2.8652282,-4.7218,1.2884898,-4.586529,-0.41813725,-3.2333097
871,1778598676883,-2.7500994,-5.1685944,0.6591848,4.3514986,4.330424,1.488984
872,1778598676893,-0.4603927,-1.9316981,-1.7630297,4.924185,7.4716454,-0.408058
873,1778598676903,-0.4603927,-1.9316981,-1.7630297,4.924185,7.4716454,-0.408058
874,1778598676913,-0.4603927,-1.9316981,-1.7630297,4.924185,7.4716454,-0.408058
875,1778598676923,-0.10433535,-0.8590135,-1.6879033,0.95722586,7.795404,-1.3579534
876,1778598676933,-0.21702486,-0.71083415,-1.0222547,-0.7663304,6.1630197,-1.7316502
877,1778598676943,-0.2315379,-0.57911915,-0.5147861,-1.7753271,4.7600145,-1.8460348
878,1778598676953,-0.075980045,-0.4696006,-0.09500554,-2.2734878,3.706883,-2.0062342
879,1778598676963,0.064272046,-0.30154198,0.21184163,-2.5300512,2.6209173,-2.3667974
880,1778598676973,0.064272046,-0.30154198,0.21184163,-2.5300512,2.6209173,-2.3667974
881,1778598676983,0.064272046,-0.30154198,0.21184163,-2.5300512,2.6209173,-2.3667974
882,1778598676993,0.064272046,-0.30154198,0.21184163,-2.5300512,2.6209173,-2.3667974
883,1778598677003,0.14171559,-0.072443254,0.22976951,-2.6551259,-0.15974127,-3.5195
884,1778598677013,0.14171559,-0.072443254,0.22976951,-2.6551259,-0.15974127,-3.5195
885,1778598677023,0.09457869,-0.11701902,0.24251415,-2.6590965,-1.1548407,-3.6268597
886,1778598677033,0.09457869,-0.11701902,0.24251415,-2.6590965,-1.1548407,-3.6268597
887,1778598677043,0.09457869,-0.11701902,0.24251415,-2.6590965,-1.1548407,-3.6268597
888,1778598677053,0.09457869,-0.11701902,0.24251415,-2.6590965,-1.1548407,-3.6268597
889,1778598677063,0.06305246,-0.19269417,0.41953668,-2.7524061,-7.326107,-3.2508721
890,1778598677073,0.06744295,-0.21842737,0.4364889,-2.7856982,-8.130311,-2.9970577
891,1778598677083,-0.12665373,-0.38947394,-0.098420374,-3.152981,-7.9120793,-2.4998133
892,1778598677093,-0.1475086,-0.77376467,-0.26983282,-5.165782,-2.4637723,-1.6406313
893,1778598677103,0.1562896,-0.7879728,0.46581987,-5.523749,0.6114761,-1.4329371
894,1778598677113,0.1562896,-0.7879728,0.46581987,-5.0460525,2.1314616,-1.545031
895,1778598677123,0.2490999,-0.8535864,0.7857775,-3.898084,3.6079228,-1.8167132
896,1778598677133,0.31733558,-1.1311026,0.8995037,-3.618613,3.9585595,-1.9033034
897,1778598677143,0.31733558,-1.1311026,0.8995037,-3.618613,3.9585595,-1.9033034
898,1778598677153,0.035428897,-1.896574,0.13958131,-0.42852196,9.427177,-2.8182268
899,1778598677163,-1.4435599,-2.356845,-0.5605815,6.6501846,5.2517614,-0.84436846
900,1778598677173,-1.4435599,-2.356845,-0.5605815,8.069836,0.48731774,1.6310102
901,1778598677183,-0.87858784,-1.8136424,-0.6459523,7.7753983,-0.98547834,3.1913128
902,1778598677193,-0.87858784,-1.8136424,-0.6459523,6.2222733,-1.6369661,5.6934166
903,1778598677203,-0.3726437,-1.3769706,-0.11457986,5.2140403,-1.268309,6.664234
904,1778598677213,-0.25995418,-1.2517803,-0.045795355,3.3356297,-0.3747658,7.255399
905,1778598677223,-0.25995418,-1.2517803,-0.045795355,3.3356297,-0.3747658,7.255399
906,1778598677233,-0.25995418,-1.2517803,-0.045795355,3.3356297,-0.3747658,7.255399
907,1778598677243,0.12744646,-0.59113204,-0.09000525,0.9682214,-0.38820487,5.113095
908,1778598677253,0.12744646,-0.59113204,-0.09000525,0.9682214,-0.38820487,5.113095
909,1778598677263,0.21153674,-0.21470766,-0.04311227,0.055588737,-0.6759224,2.802497
910,1778598677273,0.17793721,-0.11293342,-0.0061588963,-0.05467244,-0.7287622,2.258827
911,1778598677283,0.1589727,0.028965104,0.04841746,-0.024892759,-0.7612908,1.5911512
912,1778598677293,0.13384928,0.070248,0.050063897,0.17638734,-0.8582657,1.2441798
913,1778598677303,0.12110463,0.10031073,0.038904708,0.36972618,-0.9964739,1.0538952
914,1778598677313,0.12384869,0.10073759,0.008171208,0.57696223,-1.2005029,0.84681195
915,1778598677323,0.12610492,0.11427496,-0.028477272,0.6835582,-1.4124732,0.7247916
916,1778598677333,0.079029,0.14567922,-0.3178234,0.72616607,-2.6233609,0.46593747
917,1778598677343,0.079029,0.14567922,-0.3178234,0.72616607,-2.6233609,0.46593747
918,1778598677353,0.079029,0.14567922,-0.3178234,0.72616607,-2.6233609,0.46593747
919,1778598677363,0.17171735,0.018964522,0.1012864,-3.3646457,-9.247583,1.2893838
920,1778598677373,0.17049775,0.017744938,0.17586392,-2.948952,-8.610757,1.0019717
921,1778598677383,0.17013188,-0.03195308,0.19013305,-2.4188735,-7.595346,0.36865717
922,1778598677393,0.17013188,-0.03195308,0.19013305,-2.252871,-6.9838696,-0.32162055
923,1778598677403,0.1381178,-0.72303,0.24507529,-2.252871,-6.9838696,-0.32162055
924,1778598677413,-0.64162284,-1.8152888,0.4909433,-2.43216,-4.879133,-3.2050571
925,1778598677423,-3.9824886,-5.4462323,1.2413529,1.5234979,3.0315714,-3.535688
926,1778598677433,-4.0613346,-5.77491,1.1748856,4.512309,5.204419,0.11010846
927,1778598677443,-4.0613346,-5.77491,1.1748856,4.512309,5.204419,0.11010846
928,1778598677453,-1.3382488,-4.7008233,-0.95115304,5.7351084,9.236588,2.5027149
929,1778598677463,-0.29404154,-3.4079428,-1.6296682,5.7351084,9.236588,2.5027149
930,1778598677473,-0.2815408,-2.0962808,-2.2046409,3.332117,5.7963476,-0.569021
931,1778598677483,-0.37947336,-1.8658404,-2.0485952,2.0147862,5.4799194,-0.9147707
932,1778598677493,-0.6041816,-1.3464811,-1.2210468,-0.1085813,5.8242946,-0.8733846
933,1778598677503,-0.5109445,-0.9822524,-0.75772715,-1.1727085,5.732512,-0.5934556
934,1778598677513,-0.33172667,-0.69607717,-0.6191215,-1.5781704,5.478698,-0.4934264
935,1778598677523,-0.13732508,-0.42490283,-0.4733203,-2.240043,4.5785875,-0.49632803
936,1778598677533,-0.10598179,-0.35813063,-0.38124177,-2.4443772,4.2562037,-0.5342017
937,1778598677543,0.12372673,-0.24714857,0.035367917,-2.9827023,3.0231721,-0.904386
938,1778598677553,0.22269592,-0.1627534,0.17958365,-3.0909781,2.526386,-1.2211196
939,1778598677563,0.28544348,-0.09488358,0.25294158,-3.0831897,2.0865629,-1.5520558
940,1778598677573,0.32526287,-0.029087063,0.32221392,-2.933375,1.5825992,-1.9992093
941,1778598677583,0.3360562,-0.027440626,0.36471638,-2.7742445,1.1681271,-2.2766948
942,1778598677593,0.28343117,-0.10604277,0.41484126,-2.4959953,-0.38347065,-2.7725646
943,1778598677603,0.28343117,-0.10604277,0.41484126,-2.4959953,-0.38347065,-2.7725646
944,1778598677613,0.28343117,-0.10604277,0.41484126,-2.4959953,-0.38347065,-2.7725646
945,1778598677623,0.26330805,-0.16726585,0.5104566,-2.0857995,-7.2987704,-3.3226488
946,1778598677633,0.1835473,-0.13537374,0.424476,-2.3188446,-9.214902,-3.0666962
947,1778598677643,0.115250625,-0.12927583,0.33160472,-2.5094345,-9.413587,-2.894585
948,1778598677653,0.115250625,-0.12927583,0.33160472,-2.5094345,-9.413587,-2.894585
949,1778598677663,-0.45703888,-0.845842,-0.42600048,-5.1392093,-3.4833064,-0.47891834
950,1778598677673,-0.39886475,-1.0809777,-0.30074924,-5.8982096,-0.5823073,0.056046885
951,1778598677683,-0.39886475,-1.0809777,-0.30074924,-5.8982096,-0.5823073,0.056046885
952,1778598677693,-0.39886475,-1.0809777,-0.30074924,-5.8982096,-0.5823073,0.056046885
953,1778598677703,-0.39886475,-1.0809777,-0.30074924,-5.8982096,-0.5823073,0.056046885
954,1778598677713,0.47697908,-1.0353652,0.67138064,-3.870595,8.719644,-2.7525587
955,1778598677723,0.17403455,-1.1144553,0.15031365,-2.8422034,9.971612,-3.2284229
956,1778598677733,-0.31940886,-1.3364804,-0.49759,3.568064,10.382113,-3.1199942
957,1778598677743,-0.31940886,-1.3364804,-0.49759,3.568064,10.382113,-3.1199942
958,1778598677753,-0.31940886,-1.3364804,-0.49759,3.568064,10.382113,-3.1199942
959,1778598677763,-0.793278,-1.1861668,-1.0226816,8.348542,1.8707749,-0.68386364
960,1778598677773,-0.7662032,-0.89377165,-0.63076854,7.796015,-1.3816245,1.8852829
961,1778598677783,-0.5470441,-0.8213284,-0.35556954,7.088175,-1.308626,2.9987376
962,1778598677793,-0.39935255,-0.81571835,-0.11348223,6.5793242,-0.8185594,3.9037344
963,1778598677803,-0.30282256,-0.80803496,0.12573905,6.2705317,-0.11866058,4.665941
964,1778598677813,-0.30282256,-0.80803496,0.12573905,6.034585,0.5325218,5.1987686
965,1778598677823,-0.30282256,-0.80803496,0.12573905,6.034585,0.5325218,5.1987686
966,1778598677833,-0.30282256,-0.80803496,0.12573905,6.034585,0.5325218,5.1987686
967,1778598677843,0.05292992,-0.7099805,-0.07219934,4.620432,1.3052663,5.529247
968,1778598677853,0.05292992,-0.7099805,-0.07219934,1.2912164,-1.0613784,3.3757942
969,1778598677863,0.25446606,-0.17440042,-0.023659917,0.91797775,-1.5552629,2.9032898
970,1778598677873,0.22726935,-0.07555319,0.00798827,0.5309946,-2.1482604,2.1876612
971,1778598677883,0.19763349,-0.04835648,0.031221334,0.4717407,-2.2698226,2.0115793
972,1778598677893,0.10622571,0.007561417,0.024757542,0.42088616,-2.5318837,1.6258179
973,1778598677903,0.10348164,0.02859923,0.042014647,0.43692136,-2.6090055,1.5013541
974,1778598677913,0.08463909,0.03811198,0.016342416,0.46715918,-2.701857,1.2915218
975,1778598677923,0.090919934,-0.008354146,-0.0482955,0.3481932,-2.7908907,0.9963212
976,1778598677933,0.0892735,-0.03664848,-0.05768629,0.23808473,-2.8394544,0.84665924
977,1778598677943,0.0892735,-0.03664848,-0.05768629,-0.6479753,-2.7817276,-0.011911872
978,1778598677953,-0.005427146,-0.5114323,-0.055247124,-1.2356277,-2.482251,-0.45845437
979,1778598677963,-0.48551616,-1.1580554,0.13208087,-3.4875824,0.61376685,-1.9081903
980,1778598677973,-1.2330598,-1.9577973,0.34544697,-3.4875824,0.61376685,-1.9081903
981,1778598677983,-1.990421,-2.8294334,0.5132617,-4.5384235,3.1740558,-1.9388863
982,1778598677993,-3.3592203,-4.718568,0.37172902,-4.6299005,6.1738625,0.5500842
983,1778598678003,-3.3592203,-4.718568,0.37172902,-4.6299005,6.1738625,0.5500842
984,1778598678013,-1.4678296,-3.9448032,0.03664848,4.9377766,-14.432455,3.1051807
985,1778598678023,-1.4678296,-3.9448032,0.03664848,4.9377766,-14.432455,3.1051807
986,1778598678033,-0.67924696,-3.2828135,-3.9215705,4.745507,-13.689185,1.510517
987,1778598678043,-0.46344167,-1.9882258,-1.761932,-3.4434474,5.5208473,0.4280638
988,1778598678053,-0.46344167,-1.9882258,-1.761932,-1.9599612,4.926934,1.009913
989,1778598678063,-0.49655336,-1.4524628,-0.0086590415,-0.6603453,3.4912477,1.0009027
990,1778598678073,-0.42313445,-1.2846482,0.059698608,-0.06383542,2.9208522,0.7170031
991,1778598678083,-0.24013597,-0.9333471,-0.17281497,0.41874814,2.965598,0.059253927
992,1778598678093,-0.14336202,-0.6126577,-0.6396715,0.10048734,3.9464948,-0.4361578
993,1778598678103,-0.13915445,-0.4399037,-0.72656673,-0.6246097,5.1560082,-0.7698429
994,1778598678113,-0.1343371,-0.3574599,-0.51990837,-1.5703819,6.3821673,-1.106277
995,1778598678123,-0.06945527,-0.2948343,-0.31977475,-1.9876028,6.7894616,-1.3112222
996,1778598678133,-0.06475988,-0.23781876,-0.035367917,-2.3823745,6.841233,-1.736079
997,1778598678143,0.0048783333,-0.18696213,0.1864743,-2.3635902,6.2134156,-2.0306687
998,1778598678153,0.061162103,-0.17616881,0.25806385,-2.2605069,5.119967,-2.2872322
999,1778598678163,0.060308397,-0.14915505,0.32398233,-2.1763601,3.5773797,-2.514016
1000,1778598678173,0.055978876,-0.18519373,0.4914921,-1.9588921,0.7857254,-2.7324002
