id,timestamp,acc_x,acc_y,acc_z,gyro_x,gyro_y,gyro_z
0,1778598612173,2.2840357,0.5739969,1.3212357,4.9565606,-0.09850202,-4.782006
1,1778598612183,2.2840357,0.5739969,1.3212357,5.3247595,0.6042985,-5.6107974
2,1778598612193,3.330621,0.5032611,1.408131,5.3247595,0.6042985,-5.6107974
3,1778598612203,4.1081057,0.4198416,1.5485051,4.8710394,-0.36392298,-6.3363523
4,1778598612213,4.7924137,0.1367153,1.6271071,4.784449,-0.79198676,-7.3138895
5,1778598612223,4.7924137,0.1367153,1.6271071,4.784449,-0.79198676,-7.3138895
6,1778598612233,5.148898,-0.63125634,1.2785501,4.6621237,-0.5644395,-8.050746
7,1778598612243,4.9285192,-1.3848978,0.74370193,3.8794525,-0.12767084,-7.3920803
8,1778598612253,4.718812,-1.691928,0.5436293,3.0920472,0.13316862,-6.731277
9,1778598612263,4.718812,-1.691928,0.5436293,3.0920472,0.13316862,-6.731277
10,1778598612273,3.6423466,-1.9797497,0.6922965,2.250733,-0.0106901415,-6.3665905
11,1778598612283,2.953404,-2.188908,0.7868752,2.1981986,-0.23396139,-6.121328
12,1778598612293,1.9512113,-2.3222697,0.7751062,2.1981986,-0.23396139,-6.121328
13,1778598612303,1.1100647,-2.543502,0.59588844,2.8617508,-0.29245174,-4.0909643
14,1778598612313,0.5886929,-2.8898027,0.28940713,2.8617508,-0.29245174,-4.0909643
15,1778598612323,-0.2994687,-2.622409,-0.16580236,3.7299433,0.73884153,-3.733761
16,1778598612333,-1.478318,-2.6164331,-0.737604,3.7299433,0.73884153,-3.733761
17,1778598612343,-1.5200276,-2.4986825,-0.87639266,2.958726,-0.204029,-1.751656
18,1778598612353,-1.5200276,-2.4986825,-0.87639266,2.5098925,-0.5297729,-0.6337727
19,1778598612363,-1.3725802,-2.4450207,-0.98182553,1.7469219,-0.91446525,0.68676525
20,1778598612373,-1.0371946,-2.2135437,-1.0256087,0.36453384,-1.023352,2.1783454
21,1778598612383,-0.7412628,-2.1169527,-0.79675376,-0.81122905,-1.0658071,3.216969
22,1778598612393,-0.50716376,-2.0278013,-0.51484716,-1.1407908,-1.1183416,3.719253
23,1778598612403,-0.43905002,-1.9356009,-0.3125792,-1.1850786,-1.2202033,4.2968264
24,1778598612413,-0.30824968,-1.8446808,-0.1861694,-1.0505356,-1.2357804,4.757724
25,1778598612423,-0.30824968,-1.8446808,-0.1861694,-1.0505356,-1.2357804,4.757724
26,1778598612433,-0.08555377,-1.7302839,-0.19507235,-0.8052731,-1.0070114,5.6856284
27,1778598612443,0.1273245,-1.6859521,-0.27269882,-0.7449502,-0.95539325,6.400188
28,1778598612453,0.1273245,-1.6859521,-0.27269882,-0.7449502,-0.95539325,6.400188
29,1778598612463,0.1273245,-1.6859521,-0.27269882,-0.7449502,-0.95539325,6.400188
30,1778598612473,0.1273245,-1.6859521,-0.27269882,-0.7449502,-0.95539325,6.400188
31,1778598612483,0.1273245,-1.6859521,-0.27269882,-0.7449502,-0.95539325,6.400188
32,1778598612493,0.1273245,-1.6859521,-0.27269882,-0.7449502,-0.95539325,6.400188
33,1778598612503,0.1273245,-1.6859521,-0.27269882,-0.7449502,-0.95539325,6.400188
34,1778598612513,3.5372186,-0.5642402,0.70382154,-3.9008327,-1.9976821,9.041722
35,1778598612523,4.353059,-0.15677744,0.92700535,-3.2319353,-2.3327417,9.059589
36,1778598612533,4.353059,-0.15677744,0.92700535,-3.2319353,-2.3327417,9.059589
37,1778598612543,4.353059,-0.15677744,0.92700535,-3.2319353,-2.3327417,9.059589
38,1778598612553,4.353059,-0.15677744,0.92700535,-3.2319353,-2.3327417,9.059589
39,1778598612563,5.465136,1.5027705,0.94944566,-2.4145975,-1.6417004,8.725904
40,1778598612573,4.848088,1.6066182,1.0759774,-2.909093,2.4352143,4.82385
41,1778598612583,3.9096186,1.6635116,1.4595973,-1.9853121,1.600467,3.59876
42,1778598612593,3.0262132,1.815106,1.1872034,0.24816401,0.11804971,2.75882
43,1778598612603,2.6611917,1.9096236,0.67949086,0.6969972,-0.05681047,2.2864685
44,1778598612613,2.6611917,1.9096236,0.67949086,0.6969972,-0.05681047,2.2864685
45,1778598612623,2.6611917,1.9096236,0.67949086,0.6969972,-0.05681047,2.2864685
46,1778598612633,1.518869,2.1346977,0.27495506,-0.5777258,1.6748397,0.9807441
47,1778598612643,0.9185292,2.1234777,0.50978583,-0.9063713,2.175902,0.40408736
48,1778598612653,0.60466945,2.1651263,0.72687167,-0.44073927,1.8765781,-0.07009678
49,1778598612663,0.45179462,2.1380515,0.7729719,0.26557365,1.3640621,-0.56153786
50,1778598612673,0.24977067,2.0436559,0.75455624,1.9781344,-0.2611449,-1.5850426
51,1778598612683,0.16116793,1.9649318,0.69565034,2.322204,-0.5316055,-1.831374
52,1778598612693,0.11628727,1.8338265,0.6281464,2.322204,-0.5316055,-1.831374
53,1778598612703,0.22641563,1.7273569,0.6427204,2.4642303,-0.50411654,-2.0544925
54,1778598612713,0.4855771,1.6610725,0.749434,2.4920247,-0.37598756,-2.1661282
55,1778598612723,1.1218947,1.6371686,0.8871859,2.6222918,-0.019547688,-2.6769643
56,1778598612733,1.7549195,1.4035575,0.8476714,2.7113254,0.13179417,-3.0256155
57,1778598612743,1.7549195,1.4035575,0.8476714,3.052341,0.38545597,-4.485278
58,1778598612753,2.0931098,1.047683,0.7716304,2.8411343,0.16890424,-5.565899
59,1778598612763,2.4806325,0.8848687,0.9183462,2.5978572,0.08170322,-5.736025
60,1778598612773,2.4806325,0.8848687,0.9183462,2.5978572,0.08170322,-5.736025
61,1778598612783,4.2661023,0.57088697,1.5511881,2.5297456,-0.21181752,-5.028032
62,1778598612793,5.910772,0.19641389,1.671683,2.766456,0.09239337,-5.0449834
63,1778598612803,5.910772,0.19641389,1.671683,3.0807462,0.7293731,-5.5936933
64,1778598612813,6.9618697,-0.33160472,1.4226439,3.1250339,1.1785117,-6.625292
65,1778598612823,6.8229594,-1.572287,0.38148567,2.733622,0.98929626,-7.3047266
66,1778598612833,5.723993,-2.3489177,0.286907,1.5178474,0.5934556,-8.153677
67,1778598612843,4.5413017,-2.7997365,0.5783874,0.84971356,0.73792523,-8.251415
68,1778598612853,2.7582097,-3.0611541,1.0417681,1.5783231,1.0853548,-7.6023707
69,1778598612863,2.7582097,-3.0611541,1.0417681,1.5783231,1.0853548,-7.6023707
70,1778598612873,2.014142,-3.129207,0.8557816,2.6700919,0.8597928,-7.15537
71,1778598612883,1.0762213,-3.2790327,0.31562817,4.578435,-1.0506883,-5.682116
72,1778598612893,-1.0308529,-3.348793,-0.78986317,4.2432227,-1.5428929,-4.4967318
73,1778598612903,-1.3843491,-3.2095165,-0.9110898,3.6877935,-1.6618589,-3.4268012
74,1778598612913,-1.3843491,-3.2095165,-0.9110898,3.6877935,-1.6618589,-3.4268012
75,1778598612923,-1.6016788,-2.9491963,-0.92816395,2.8591547,-1.5488489,-2.0207422
76,1778598612933,-1.4402059,-2.7677834,-1.0491467,0.8575021,-1.3260357,1.0253373
77,1778598612943,-1.3791658,-2.701804,-0.95383614,0.10430524,-1.3794864,1.8820758
78,1778598612953,-1.2912949,-2.6737535,-0.7344941,-0.6965391,-1.4036156,2.9109256
79,1778598612963,-1.2912949,-2.6737535,-0.7344941,-1.056186,-1.3316863,3.5541668
80,1778598612973,-1.2389138,-2.6436908,-0.5798509,-1.056186,-1.3316863,3.5541668
81,1778598612983,-0.84078074,-2.488438,-0.21867129,-1.4162911,-1.1258247,4.754975
82,1778598612993,-0.49801686,-2.3048296,-0.14147167,-1.4231633,-1.1104003,5.262451
83,1778598613003,-0.2570272,-2.2120802,-0.1167751,-1.3251194,-1.2052372,6.643465
84,1778598613013,0.036343586,-2.1176846,-0.11549455,-1.3753631,-1.2012665,7.0467887
85,1778598613023,0.43575716,-2.0159104,-0.152204,-1.6238326,-1.0167851,7.3955927
86,1778598613033,0.6338175,-1.9192584,-0.17824212,-1.9054414,-0.8242099,7.5276923
87,1778598613043,1.0037781,-1.7851651,-0.25611252,-3.3880115,-0.3726278,8.053494
88,1778598613053,1.0037781,-1.7851651,-0.25611252,-3.3880115,-0.3726278,8.053494
89,1778598613063,1.9231,-1.6195457,0.3816686,-4.236198,-1.3539828,9.829738
90,1778598613073,1.9231,-1.6195457,0.3816686,-4.236198,-1.3539828,9.829738
91,1778598613083,1.9231,-1.6195457,0.3816686,-4.236198,-1.3539828,9.829738
92,1778598613093,6.7333198,0.6712587,1.0610375,-3.2261322,0.6600399,8.967807
93,1778598613103,6.7333198,0.6712587,1.0610375,-3.2261322,0.6600399,8.967807
94,1778598613113,6.062183,1.5549688,1.4625243,-4.1105123,2.7966938,5.963572
95,1778598613123,6.062183,1.5549688,1.4625243,-4.1105123,2.7966938,5.963572
96,1778598613133,5.5569706,1.6240582,1.6476572,-3.751018,2.9116893,4.6746464
97,1778598613143,3.7161925,1.5421631,1.6725975,-0.8761335,0.8877399,2.346028
98,1778598613153,3.167441,1.5203936,1.4237416,-0.05100725,0.39446622,2.0254765
99,1778598613163,3.167441,1.5203936,1.4237416,-0.05100725,0.39446622,2.0254765
100,1778598613173,2.6918643,1.519418,0.96481246,0.82879144,0.006414085,1.6742289
101,1778598613183,2.6918643,1.519418,0.96481246,0.82879144,0.006414085,1.6742289
102,1778598613193,2.6918643,1.519418,0.96481246,0.82879144,0.006414085,1.6742289
103,1778598613203,2.0823777,1.6927818,0.5832657,1.0966558,-0.11178834,1.4756978
104,1778598613213,1.0853683,1.8449248,0.41496322,1.3242031,0.9680687,0.3275765
105,1778598613223,0.9838988,1.8589499,0.41819513,1.1282681,2.020895,-0.0033597588
106,1778598613233,0.9838988,1.8589499,0.41819513,1.1282681,2.020895,-0.0033597588
107,1778598613243,0.9838988,1.8589499,0.41819513,1.1282681,2.020895,-0.0033597588
108,1778598613253,0.9838988,1.8589499,0.41819513,1.1282681,2.020895,-0.0033597588
109,1778598613263,1.1055523,1.8094957,0.41904885,1.6009251,0.9839512,-1.5485435
110,1778598613273,1.132688,1.6913792,0.75065356,2.7337747,-0.61712664,-2.7386615
111,1778598613283,1.2767208,1.5231986,0.62991476,3.310126,-1.0245737,-3.3560936
112,1778598613293,1.5210034,1.3059908,0.5049075,3.3724344,-0.99464136,-3.9930735
113,1778598613303,1.7130877,1.1424447,0.34953257,3.132975,-0.6881397,-4.512156
114,1778598613313,1.9979213,0.9446892,0.30459094,2.6375635,-0.21365012,-5.0335298
115,1778598613323,2.3789194,0.74211645,0.39081547,2.0002782,0.33307427,-5.69189
116,1778598613333,2.561308,0.6120479,0.5111884,1.8080084,0.5206099,-5.9470787
117,1778598613343,2.9307199,0.18373023,0.8734656,1.5835154,0.89995724,-6.7832003
118,1778598613353,3.1830516,-0.082016975,1.2520853,1.8813123,0.5314528,-6.891476
119,1778598613363,3.6900933,-0.30739596,1.5698477,2.544101,0.0053450707,-6.7170744
120,1778598613373,4.827233,-0.62448764,1.7157708,3.9887974,-1.2447907,-6.4153066
121,1778598613383,5.459953,-0.8463298,1.5469196,3.9887974,-1.2447907,-6.4153066
122,1778598613393,5.9028444,-1.3512983,0.5332628,3.6480873,-2.0328069,-7.190953
123,1778598613403,5.766556,-1.6753417,0.06610142,2.1281018,-1.6777414,-7.3170967
124,1778598613413,4.521788,-2.4789863,0.18677919,0.39752057,-0.6087272,-7.4927206
125,1778598613423,4.0662127,-2.5932002,0.3849005,-0.16310102,0.08597928,-7.4441566
126,1778598613433,4.0662127,-2.5932002,0.3849005,-0.16310102,0.08597928,-7.4441566
127,1778598613443,1.6696706,-2.9700515,0.8455371,0.8880454,1.1213958,-6.711424
128,1778598613453,0.3439225,-3.1330485,0.29379764,2.3321307,0.27152961,-5.799555
129,1778598613463,-0.5580204,-3.15555,-0.1164702,2.8531988,-0.894154,-4.784602
130,1778598613473,-0.9754228,-3.1351829,-0.26275924,2.81166,-1.302212,-4.0431643
131,1778598613483,-1.5176495,-3.0790823,-0.42282957,2.329229,-1.1400273,-2.2350032
132,1778598613493,-1.7613223,-3.0290792,-0.6100966,1.7319556,-0.4992296,-0.6559166
133,1778598613503,-1.882366,-3.0127368,-0.746507,1.1673635,-0.21151209,0.6189592
134,1778598613513,-1.8009588,-2.9101088,-0.813706,0.3492622,-0.14828753,2.1708624
135,1778598613523,-1.6991235,-2.8572397,-0.7879728,-0.13805555,-0.1647809,2.9827023
136,1778598613533,-1.264403,-2.7246711,-0.5674721,-0.8651379,-0.23701571,4.2336016
137,1778598613543,-0.96865404,-2.6151526,-0.41965863,-1.0461067,-0.2996294,4.681671
138,1778598613553,-0.40179175,-2.2455578,-0.39215705,-1.1276573,-1.1760683,5.7172403
139,1778598613563,-0.40179175,-2.2455578,-0.39215705,-1.1276573,-1.1760683,5.7172403
140,1778598613573,-0.40179175,-2.2455578,-0.39215705,-1.1276573,-1.1760683,5.7172403
141,1778598613583,-0.40179175,-2.2455578,-0.39215705,-1.1276573,-1.1760683,5.7172403
142,1778598613593,0.12872702,-2.004995,-0.40831652,-1.6953038,-1.8808541,6.9288917
143,1778598613603,0.7943756,-1.9217584,-0.3398369,-2.7293458,-0.57971114,7.978969
144,1778598613613,1.1208581,-1.8331558,-0.2382456,-3.1942143,-0.10369437,8.283638
145,1778598613623,1.8777925,-1.5912514,0.019269416,-3.668093,0.3284928,8.731555
146,1778598613633,2.8213232,-1.2493412,0.42069528,-3.3944254,0.0143553335,8.8409
147,1778598613643,2.8213232,-1.2493412,0.42069528,-3.3944254,0.0143553335,8.8409
148,1778598613653,4.7007623,-0.1574482,0.8140109,-1.2863295,-1.4005613,7.985383
149,1778598613663,4.7853403,0.19129165,0.43100074,-1.0080804,-1.2095132,7.310988
150,1778598613673,4.663992,0.47606438,0.110006414,-1.8371773,-0.2666427,7.065726
151,1778598613683,4.663992,0.47606438,0.110006414,-1.8371773,-0.2666427,7.065726
152,1778598613693,4.663992,0.47606438,0.110006414,-1.8371773,-0.2666427,7.065726
153,1778598613703,5.6130714,1.3549571,1.05994,-4.450917,2.5059218,7.1627007
154,1778598613713,5.1288967,1.4599632,1.6073499,-4.3603563,2.5127943,4.8718033
155,1778598613723,4.428612,1.5227717,2.1507351,-1.7757853,0.53969944,3.5101845
156,1778598613733,4.0287104,1.5662498,1.8962082,0.4897612,-0.3811799,2.5373814
157,1778598613743,2.8143106,1.6853423,0.50881016,1.7343992,0.09941832,1.2867876
158,1778598613753,2.8143106,1.6853423,0.50881016,1.7343992,0.09941832,1.2867876
159,1778598613763,2.534233,1.7176002,0.17135146,1.3906348,0.59605175,0.9804387
160,1778598613773,1.9767008,1.7541877,-0.105615914,0.30940324,1.6708691,0.33429602
161,1778598613783,1.0740261,1.7111975,-0.08396832,-0.59315014,2.438574,-0.7156286
162,1778598613793,0.7245545,1.7463214,-0.006524771,-0.54382277,2.264783,-1.1722504
163,1778598613803,0.7245545,1.7463214,-0.006524771,-0.54382277,2.264783,-1.1722504
164,1778598613813,0.7245545,1.7463214,-0.006524771,-0.54382277,2.264783,-1.1722504
165,1778598613823,0.7245545,1.7463214,-0.006524771,-0.54382277,2.264783,-1.1722504
166,1778598613833,0.7245545,1.7463214,-0.006524771,-0.54382277,2.264783,-1.1722504
167,1778598613843,0.18330337,1.7848603,0.13622746,0.3895793,0.9098838,-1.90086
168,1778598613853,0.7401651,1.6617433,0.33971494,1.2076806,-0.47510046,-2.5518897
169,1778598613863,1.0795752,1.5159422,0.40776768,1.0328205,0.1965459,-3.2615623
170,1778598613873,1.0795752,1.5159422,0.40776768,1.0328205,0.1965459,-3.2615623
171,1778598613883,1.0795752,1.5159422,0.40776768,1.0328205,0.1965459,-3.2615623
172,1778598613893,1.0795752,1.5159422,0.40776768,1.0328205,0.1965459,-3.2615623
173,1778598613903,1.0795752,1.5159422,0.40776768,1.0328205,0.1965459,-3.2615623
174,1778598613913,2.7234516,0.6493062,1.1522014,2.8901563,0.63300914,-5.5370355
175,1778598613923,2.9032793,0.5933273,1.1366518,3.2125404,0.46379945,-5.7716074
176,1778598613933,3.9697437,0.40953606,1.2017775,4.004527,-0.46670106,-6.137058
177,1778598613943,3.9697437,0.40953606,1.2017775,4.004527,-0.46670106,-6.137058
178,1778598613953,3.9697437,0.40953606,1.2017775,4.004527,-0.46670106,-6.137058
179,1778598613963,5.4950156,-0.16964404,0.79486346,4.233754,-0.6383542,-6.778466
180,1778598613973,5.8958316,-0.5518005,0.3211163,2.6201537,-0.029626964,-7.5189877
181,1778598613983,5.7328343,-1.2344012,-0.34361762,1.8266398,0.15683965,-7.5982475
182,1778598613993,5.2803693,-1.8251675,-0.41740242,0.37018433,0.59788436,-7.743786
183,1778598614003,3.4859352,-2.5907,0.4619172,-0.99464136,0.93951076,-7.7575307
184,1778598614013,2.8507152,-2.7756498,0.8276703,-0.602924,0.81046546,-7.5342593
185,1778598614023,1.6486938,-2.991699,1.1096989,1.3406965,0.16081028,-7.0470943
186,1778598614033,0.78492385,-3.15866,0.86675787,3.2119296,-0.8347474,-6.483113
187,1778598614043,0.78492385,-3.15866,0.86675787,4.094477,-1.6884315,-5.6862392
188,1778598614053,0.78492385,-3.15866,0.86675787,4.094477,-1.6884315,-5.6862392
189,1778598614063,-1.2231201,-3.257934,-0.37965629,3.895335,-2.1418462,-3.7097847
190,1778598614073,-1.4444135,-3.2507384,-0.5803387,2.6422975,-0.8929323,-1.6247488
191,1778598614083,-1.5403337,-3.3533664,-0.7783381,1.1052079,-0.16081028,0.50579643
192,1778598614093,-1.715039,-3.3804412,-0.8392563,1.1052079,-0.16081028,0.50579643
193,1778598614103,-1.7819333,-3.316596,-0.56777704,0.27214047,-0.30909783,1.9497292
194,1778598614113,-1.7819333,-3.316596,-0.56777704,-0.06490443,-0.50747633,2.853657
195,1778598614123,-1.4155704,-3.2307982,-0.3527035,-0.3277292,-0.8593347,4.4658833
196,1778598614133,-0.9853624,-3.0129197,-0.2672717,-0.21013765,-1.1499538,5.4782395
197,1778598614143,-0.40356013,-2.6905227,-0.39209604,-0.087201014,-1.4141531,6.1689754
198,1778598614153,-0.04018527,-2.5046585,-0.5901564,-0.3462079,-1.7591392,7.5315104
199,1778598614163,-0.04018527,-2.5046585,-0.5901564,-0.3462079,-1.7591392,7.5315104
200,1778598614173,0.78224075,-2.166163,-0.69412583,-1.5519031,-1.1945469,8.113665
201,1778598614183,1.1497623,-2.054815,-0.5617401,-2.5042422,-0.56169057,8.407338
202,1778598614193,1.4009354,-1.9542603,-0.3899008,-3.1496212,-0.11988231,8.646034
203,1778598614203,1.6582675,-1.8623646,-0.19397473,-3.5634825,0.107359566,8.921381
204,1778598614213,2.3556252,-1.7902265,0.12348281,-3.5784485,-0.12370021,9.493609
205,1778598614223,2.8206525,-1.6609507,0.33904418,-3.4251215,-0.29825497,9.684963
206,1778598614233,4.0727987,-1.1478108,0.6347321,-2.7447703,-0.8020661,10.257649
207,1778598614243,5.309212,-0.46905175,0.6691244,-2.400395,-0.49586987,10.24757
208,1778598614253,6.645997,0.2122075,0.64820856,-2.400395,-0.49586987,10.24757
209,1778598614263,6.9894934,0.90523577,1.0417072,-2.7733283,1.1343768,7.5948877
210,1778598614273,6.2420716,1.5179543,1.5832021,-1.8397734,1.3881912,5.3780575
211,1778598614283,5.67027,1.5102102,1.4913065,-1.1598804,1.2701416,4.475046
212,1778598614293,4.66015,1.5217352,1.2539756,-0.12797627,0.95524055,3.3622024
213,1778598614303,4.66015,1.5217352,1.2539756,-0.12797627,0.95524055,3.3622024
214,1778598614313,3.4235535,1.6586335,0.5781435,1.1045971,0.5317582,2.4077253
215,1778598614323,3.614845,1.5764945,0.75162923,1.0754282,1.2334896,1.6536123
216,1778598614333,3.129451,1.7343695,0.30282256,1.0754282,1.2334896,1.6536123
217,1778598614343,2.6845467,1.8087641,0.19562118,0.90026265,1.5783231,1.2215778
218,1778598614353,1.8560839,1.9467599,-0.0005488125,0.7845037,1.7201965,0.30772337
219,1778598614363,1.6907694,2.031887,-0.045185562,0.7626653,1.6560557,-0.07147124
220,1778598614373,1.4309372,2.1799443,-0.03152623,0.8333729,1.353372,-1.0778717
221,1778598614383,1.4309372,2.1799443,-0.03152623,0.8333729,1.353372,-1.0778717
222,1778598614393,1.0306699,2.1092694,-0.030306645,0.9663888,0.9975429,-1.9660698
223,1778598614403,0.3890471,1.8712068,0.07732158,1.0801625,0.63697976,-2.7420213
224,1778598614413,0.3389222,1.7842505,0.119641125,1.0760391,0.6270532,-2.85946
225,1778598614423,0.39788908,1.5975932,0.2883705,1.1007792,0.7319693,-3.0309606
226,1778598614433,0.515152,1.4573412,0.3901447,1.2165382,0.8153524,-3.248276
227,1778598614443,0.65205026,1.2707449,0.46496618,1.2165382,0.8153524,-3.248276
228,1778598614453,0.8148646,1.1204922,0.5513126,1.4511104,0.84803367,-3.5871534
229,1778598614463,1.0182911,1.0351213,0.5831438,1.9578232,0.58078015,-4.0036106
230,1778598614473,1.6650362,0.90322345,0.6199752,2.3307564,0.45173484,-4.5500298
231,1778598614483,2.1528697,0.8075471,0.6889427,2.4874432,0.47876564,-4.990769
232,1778598614493,2.6278973,0.676259,0.787424,2.6392434,0.5412266,-5.4550266
233,1778598614503,2.9680998,0.5262502,0.78047234,2.7690523,0.6010914,-5.947384
234,1778598614513,2.9680998,0.5262502,0.78047234,2.7690523,0.6010914,-5.947384
235,1778598614523,2.9680998,0.5262502,0.78047234,2.7690523,0.6010914,-5.947384
236,1778598614533,4.2204294,0.20671937,1.0108516,3.0746374,0.22922719,-6.1935625
237,1778598614543,6.035108,-0.7737037,0.020184105,3.0706668,-0.29718593,-7.1260486
238,1778598614553,5.9205284,-1.1747028,-0.3298363,2.113441,-0.61010164,-7.4415603
239,1778598614563,5.9205284,-1.1747028,-0.3298363,2.113441,-0.61010164,-7.4415603
240,1778598614573,5.9205284,-1.1747028,-0.3298363,2.113441,-0.61010164,-7.4415603
241,1778598614583,5.9205284,-1.1747028,-0.3298363,2.113441,-0.61010164,-7.4415603
242,1778598614593,4.832416,-2.365382,0.05744238,0.11804971,-0.92087936,-7.6962914
243,1778598614603,2.029204,-2.9516966,1.2991612,-0.25457808,0.64996064,-6.9808154
244,1778598614613,0.96700764,-3.0603616,1.0768921,1.4353806,0.5529858,-6.3545256
245,1778598614623,0.96700764,-3.0603616,1.0768921,1.4353806,0.5529858,-6.3545256
246,1778598614633,0.96700764,-3.0603616,1.0768921,1.4353806,0.5529858,-6.3545256
247,1778598614643,0.96700764,-3.0603616,1.0768921,1.4353806,0.5529858,-6.3545256
248,1778598614653,0.19629194,-3.1049373,0.55509335,2.7994428,-0.20479257,-5.475338
249,1778598614663,-1.5303942,-2.941818,-0.5961933,1.8354974,-0.40607268,0.77564615
250,1778598614673,-1.5416753,-2.9441352,-0.68839383,1.8354974,-0.40607268,0.77564615
251,1778598614683,-1.3113569,-2.947367,-0.61101127,1.3723087,-0.52687126,1.8095356
252,1778598614693,-1.3113569,-2.947367,-0.61101127,0.7677049,-0.56306505,3.0083587
253,1778598614703,-0.7221153,-2.8229697,-0.4862479,0.16600263,-0.3631594,4.453513
254,1778598614713,-0.57936305,-2.7352815,-0.4785645,0.06582073,-0.37415496,4.8333187
255,1778598614723,-0.29745638,-2.5972857,-0.53009194,-0.049938235,-0.5503896,5.791308
256,1778598614733,0.03445323,-2.4589849,-0.6103405,-0.1919644,-0.65301496,6.311918
257,1778598614743,0.03445323,-2.4589849,-0.6103405,-0.1919644,-0.65301496,6.311918
258,1778598614753,0.25385627,-2.3657477,-0.67406374,-0.4529566,-0.71853024,6.835429
259,1778598614763,1.0044488,-2.2347035,-0.6019254,-1.5754215,-0.7698429,8.210945
260,1778598614773,1.2243397,-2.1498206,-0.55393475,-1.8790215,-0.7333437,8.55135
261,1778598614783,1.650828,-2.0064585,-0.44325754,-2.3092234,-0.76831573,9.039432
262,1778598614793,1.650828,-2.0064585,-0.44325754,-2.3092234,-0.76831573,9.039432
263,1778598614803,2.0853045,-1.9229782,-0.31325,-2.509129,-0.91889405,9.502467
264,1778598614813,3.9270585,-1.1527503,0.14116678,-2.381,-1.4712689,10.906236
265,1778598614823,3.9270585,-1.1527503,0.14116678,-2.381,-1.4712689,10.906236
266,1778598614833,4.928458,-0.6787591,0.42459795,-2.2035437,-1.3515394,11.002294
267,1778598614843,7.22158,1.6049107,0.8585867,-1.8622227,1.3701707,7.9421644
268,1778598614853,6.600324,2.0164592,1.0348774,-1.7119498,2.0317378,5.083773
269,1778598614863,6.0255957,2.121892,1.1287243,-1.7119498,2.0317378,5.083773
270,1778598614873,4.0965195,2.0475585,0.81059605,-0.39721513,1.2628112,2.9066496
271,1778598614883,3.5980759,2.066645,0.5782654,-0.26419923,1.2067643,2.4538457
272,1778598614893,3.5980759,2.066645,0.5782654,-0.26419923,1.2067643,2.4538457
273,1778598614903,3.5980759,2.066645,0.5782654,-0.26419923,1.2067643,2.4538457
274,1778598614913,2.1140258,1.9426744,0.18629137,-0.48563787,1.2770138,1.609019
275,1778598614923,1.7871774,1.8885249,0.20123126,-0.5193882,1.0677924,1.2319624
276,1778598614933,1.5742382,1.8588281,0.30812773,-0.18646662,0.8142834,0.9830349
277,1778598614943,1.6630238,1.8924274,0.28324825,0.25259277,0.69898254,0.41370848
278,1778598614953,1.5925928,1.943772,0.17763232,0.49189925,0.744492,-0.33368513
279,1778598614963,1.2737329,1.9048673,0.060918186,0.6556111,0.75900006,-1.1058189
280,1778598614973,0.83937824,1.7263201,-0.07524829,0.73471814,0.6986771,-1.7718146
281,1778598614983,0.3192869,1.5263085,0.092505395,0.712727,0.63697976,-2.116648
282,1778598614993,0.3192869,1.5263085,0.092505395,0.72356987,0.56123245,-2.1983514
283,1778598615003,0.403987,1.413863,0.27458918,0.72356987,0.56123245,-2.1983514
284,1778598615013,0.403987,1.413863,0.27458918,0.72356987,0.56123245,-2.1983514
285,1778598615023,0.85352546,1.3598354,0.4931995,0.7162395,0.58246,-2.6424503
286,1778598615033,1.1928135,1.3148938,0.71107805,0.869414,0.95096445,-3.3342552
287,1778598615043,1.4007525,1.1284804,0.8430979,1.4914275,1.0409144,-4.4416013
288,1778598615053,1.4815499,0.983533,0.94170123,1.4914275,1.0409144,-4.4416013
289,1778598615063,1.744736,0.7294938,0.9971923,2.922532,0.25396723,-5.351638
290,1778598615073,2.8321776,0.47758886,1.2036678,3.4370334,0.085673854,-5.755114
291,1778598615083,3.4655073,0.18665724,1.2111683,3.944357,-0.17654006,-6.070168
292,1778598615093,4.066457,0.034087352,1.2595247,4.1803036,-0.41798455,-6.105598
293,1778598615103,5.5152607,-0.26574722,1.024328,4.1803036,-0.41798455,-6.105598
294,1778598615113,5.964433,-0.47173482,0.82858497,4.550793,-0.44959682,-6.776023
295,1778598615123,6.6023364,-1.5055757,-0.12348281,3.979787,-0.77824235,-7.7679152
296,1778598615133,6.281342,-1.8426076,-0.6342443,2.762638,-1.0331259,-8.141612
297,1778598615143,6.281342,-1.8426076,-0.6342443,1.0716103,-1.1502593,-8.316931
298,1778598615153,5.2205486,-2.7876625,-0.14787449,-1.2444853,-0.33643404,-8.589376
299,1778598615163,4.555876,-3.149635,0.395206,-1.2444853,-0.33643404,-8.589376
300,1778598615173,5.922053,-2.2089703,-0.65820915,-1.6734654,0.18936823,-8.617476
301,1778598615183,2.9150481,-3.4256268,1.366543,-1.073901,1.4776831,-8.2911215
302,1778598615193,0.54100716,-3.5712447,0.93859136,2.8735101,0.24984388,-7.00357
303,1778598615203,0.54100716,-3.5712447,0.93859136,2.8735101,0.24984388,-7.00357
304,1778598615213,0.54100716,-3.5712447,0.93859136,2.8735101,0.24984388,-7.00357
305,1778598615223,0.54100716,-3.5712447,0.93859136,2.8735101,0.24984388,-7.00357
306,1778598615233,-1.9921894,-3.0127368,-0.68473506,2.8185322,-1.1517864,-0.8323039
307,1778598615243,-1.949443,-3.075972,-1.0275599,0.8978192,-0.38515055,2.3124304
308,1778598615253,-1.949443,-3.075972,-1.0275599,0.8978192,-0.38515055,2.3124304
309,1778598615263,-1.949443,-3.075972,-1.0275599,0.8978192,-0.38515055,2.3124304
310,1778598615273,-1.949443,-3.075972,-1.0275599,0.8978192,-0.38515055,2.3124304
311,1778598615283,-0.7466899,-3.0753014,-0.25922245,0.39950588,-0.4298964,2.9492574
312,1778598615293,-0.49893156,-2.994199,-0.07988271,-1.3967434,-0.6940956,5.225494
313,1778598615303,-0.29611483,-2.8386414,0.025001459,-1.2492194,-1.1267409,6.531066
314,1778598615313,0.021403689,-2.6802783,0.007744354,-1.2492194,-1.1267409,6.531066
315,1778598615323,0.021403689,-2.6802783,0.007744354,-1.2982414,-0.98532563,7.392691
316,1778598615333,0.021403689,-2.6802783,0.007744354,-1.2982414,-0.98532563,7.392691
317,1778598615343,0.021403689,-2.6802783,0.007744354,-1.2982414,-0.98532563,7.392691
318,1778598615353,1.2929413,-2.1684802,-0.13397123,-2.9113839,0.17898351,9.180999
319,1778598615363,2.5173419,-1.893769,0.19604802,-3.920075,0.060170226,9.836916
320,1778598615373,2.5173419,-1.893769,0.19604802,-3.920075,0.060170226,9.836916
321,1778598615383,4.3529367,-1.1261023,1.0807338,-3.5243871,-0.6389651,9.91816
322,1778598615393,4.3529367,-1.1261023,1.0807338,-2.6890287,-1.1502593,9.776287
323,1778598615403,5.7672877,-0.12348281,0.989509,-1.4511104,-0.50533825,9.013164
324,1778598615413,6.2576213,0.58936363,0.75858086,-1.9272798,0.79351395,7.889019
325,1778598615423,6.2576213,0.58936363,0.75858086,-1.9272798,0.79351395,7.889019
326,1778598615433,5.572276,1.1477499,0.8208406,-3.1430545,2.5937338,5.6682186
327,1778598615443,5.0809674,1.3156255,1.2173271,-2.9695687,2.2843306,4.679686
328,1778598615453,4.9127254,1.516125,1.5982031,-2.9695687,2.2843306,4.679686
329,1778598615463,4.445991,1.7098559,1.5097222,0.7295258,-0.926988,2.265852
330,1778598615473,3.908216,1.7625419,1.0431706,0.7295258,-0.926988,2.265852
331,1778598615483,3.908216,1.7625419,1.0431706,2.7001772,-1.426065,0.6814202
332,1778598615493,3.1419516,1.914441,-0.08762706,2.0674734,-1.5862644,1.4095715
333,1778598615503,3.1419516,1.914441,-0.08762706,2.5893052,-1.0684034,0.3145956
334,1778598615513,3.1419516,1.914441,-0.08762706,2.5893052,-1.0684034,0.3145956
335,1778598615523,1.8516934,2.0662792,-0.7154686,-1.215011,1.4367551,-1.1534663
336,1778598615533,1.413924,2.0136542,-0.33373898,-2.1713204,1.9291124,-1.643533
337,1778598615543,1.1576285,1.9373081,0.1972676,-2.3570235,1.9457586,-1.9628627
338,1778598615553,0.7041264,1.7151611,1.2421457,-0.408058,0.6053675,-2.9213104
339,1778598615563,0.7041264,1.7151611,1.2421457,0.9579894,-0.01985312,-3.1853569
340,1778598615573,0.54826367,1.5891781,1.4575241,0.9579894,-0.01985312,-3.1853569
341,1778598615583,0.55613,1.4975873,1.3057469,2.4598017,-0.5833763,-3.4965928
342,1778598615593,0.6922965,1.4403279,1.1226264,3.072805,-0.75808376,-3.7513235
343,1778598615603,1.1411031,1.2260472,0.6229632,3.5149186,-0.22693644,-4.6450195
344,1778598615613,1.1411031,1.2260472,0.6229632,2.974761,0.90224797,-5.484959
345,1778598615623,1.7480898,0.83139,0.5461904,2.974761,0.90224797,-5.484959
346,1778598615633,1.9063307,0.7341282,0.62302417,2.9353602,1.3880385,-6.082996
347,1778598615643,2.5604541,0.5705211,0.77242315,3.5396585,1.031446,-6.3235245
348,1778598615653,2.895474,0.547227,0.77217925,3.8298197,0.8268061,-6.451806
349,1778598615663,4.294336,0.3945352,0.6218656,4.5799623,-0.06169739,-7.0379314
350,1778598615673,5.5204444,0.13531277,0.4063652,4.8241553,-0.83031857,-7.7673044
351,1778598615683,5.5204444,0.13531277,0.4063652,4.8241553,-0.83031857,-7.7673044
352,1778598615693,6.280793,-0.29001692,-0.07585809,3.4287865,-1.6137533,-9.013317
353,1778598615703,6.333967,-1.4672807,-1.0101808,1.3257303,-1.6391041,-9.019273
354,1778598615713,6.224022,-1.7576027,-0.75772715,-0.6704246,-1.1508701,-8.704677
355,1778598615723,5.948579,-2.3786144,-0.12714157,-2.6994135,0.2576324,-8.374657
356,1778598615733,5.236586,-2.7205856,0.65552604,-3.3402112,1.4731015,-8.26745
357,1778598615743,4.0605416,-2.9461474,1.5699697,-1.4465289,2.147344,-7.872984
358,1778598615753,2.1943352,-3.018286,1.6500962,-1.4465289,2.147344,-7.872984
359,1778598615763,2.1943352,-3.018286,1.6500962,2.5969408,0.6432411,-7.152468
360,1778598615773,1.2225103,-3.105669,0.9002355,4.0996695,-0.43249258,-6.5306077
361,1778598615783,-0.08354146,-2.9488914,-0.26336902,4.26949,-0.6824892,-4.662887
362,1778598615793,-0.4490506,-2.862301,-0.5200303,3.6063957,-0.31322116,-3.6682458
363,1778598615803,-0.4490506,-2.862301,-0.5200303,1.7640262,0.22495113,-2.0410535
364,1778598615813,-1.0640255,-2.7265615,-0.61899954,1.0389291,0.42088616,-1.0592403
365,1778598615823,-1.3193452,-2.7613807,-0.5105176,1.0389291,0.42088616,-1.0592403
366,1778598615833,-1.6644872,-3.137866,-0.52448183,0.28588495,-0.3005457,1.0749701
367,1778598615843,-1.6644872,-3.137866,-0.52448183,0.28588495,-0.3005457,1.0749701
368,1778598615853,-1.6719269,-3.2166512,-0.46411243,-0.30940324,-1.2220359,3.5095735
369,1778598615863,-0.98286223,-3.4221509,-0.07945585,-0.48273626,-1.2603678,4.6928196
370,1778598615873,-0.68613756,-3.3361704,0.03305071,-0.4783075,-1.0345002,5.5188622
371,1778598615883,-0.45716083,-3.2251272,0.027684543,-0.3846924,-0.7128797,6.2668667
372,1778598615893,-0.45716083,-3.2251272,0.027684543,-0.3846924,-0.7128797,6.2668667
373,1778598615903,-0.45716083,-3.2251272,0.027684543,-0.3846924,-0.7128797,6.2668667
374,1778598615913,-0.45716083,-3.2251272,0.027684543,-0.3846924,-0.7128797,6.2668667
375,1778598615923,0.9319446,-2.5219765,-0.53673863,-1.3165673,0.0012217305,9.219942
376,1778598615933,1.3662382,-2.373675,-0.5780215,-2.0392208,0.21930063,9.5545435
377,1778598615943,1.6795493,-2.262632,-0.5821071,-2.5160012,0.30192015,9.689392
378,1778598615953,1.6795493,-2.262632,-0.5821071,-2.5160012,0.30192015,9.689392
379,1778598615963,1.6795493,-2.262632,-0.5821071,-2.5160012,0.30192015,9.689392
380,1778598615973,1.6795493,-2.262632,-0.5821071,-2.5160012,0.30192015,9.689392
381,1778598615983,6.52971,-0.42770788,0.86785555,-2.16567,-1.0778717,11.082165
382,1778598615993,7.5417814,1.0579276,1.0965273,-1.7008016,0.4005749,8.627402
383,1778598616003,6.7363687,1.5774091,0.9485919,-1.7107282,1.1630874,6.8416905
384,1778598616013,6.7363687,1.5774091,0.9485919,-1.7107282,1.1630874,6.8416905
385,1778598616023,6.7363687,1.5774091,0.9485919,-1.7107282,1.1630874,6.8416905
386,1778598616033,6.7363687,1.5774091,0.9485919,-1.7107282,1.1630874,6.8416905
387,1778598616043,4.628014,2.0303013,0.9476772,-1.3987287,2.3660338,3.6812267
388,1778598616053,4.358425,2.073109,0.82852393,-1.2382239,2.2806654,3.1564934
389,1778598616063,3.2721422,2.0243864,0.933713,-0.4071417,1.4957036,1.9929478
390,1778598616073,3.2721422,2.0243864,0.933713,0.623388,0.6881397,1.322676
391,1778598616083,2.90145,1.9713956,0.6421716,1.4573717,0.099265605,0.6757697
392,1778598616093,2.4554482,1.9345031,0.17421748,1.8274034,0.023518313,-0.06169739
393,1778598616103,2.1764073,1.8982816,-0.07957781,1.6843082,0.31612277,-0.48823404
394,1778598616113,2.1764073,1.8982816,-0.07957781,1.6843082,0.31612277,-0.48823404
395,1778598616123,2.1764073,1.8982816,-0.07957781,1.6843082,0.31612277,-0.48823404
396,1778598616133,0.39538893,1.6074718,-0.25708818,1.0845913,1.7319556,-1.9915735
397,1778598616143,0.33081198,1.5861291,-0.41636577,1.387275,1.5332718,-2.17972
398,1778598616153,0.28251648,1.5624692,-0.5510687,1.6317738,1.0193814,-2.4697282
399,1778598616163,0.17568098,1.5510051,-0.58119243,1.7275269,0.21517728,-2.6920831
400,1778598616173,0.17568098,1.5510051,-0.58119243,1.7275269,0.21517728,-2.6920831
401,1778598616183,0.38282722,1.4280711,-0.40849942,1.4953982,-0.91583973,-2.9886582
402,1778598616193,0.5830828,1.3400172,-0.29202923,1.3266466,-0.9940305,-3.1471777
403,1778598616203,1.1361638,1.2476337,-0.07860215,1.0320568,-0.91828316,-3.5530977
404,1778598616213,1.4412426,1.211595,0.099822894,0.8969029,-0.7675522,-4.110054
405,1778598616223,1.4412426,1.211595,0.099822894,0.8969029,-0.7675522,-4.110054
406,1778598616233,1.4412426,1.211595,0.099822894,0.8969029,-0.7675522,-4.110054
407,1778598616243,2.2491558,0.8193771,0.7038825,1.2953397,0.23671028,-5.8696513
408,1778598616253,2.769857,0.64826953,1.0454879,1.9680551,0.20525073,-6.073222
409,1778598616263,3.2922041,0.70735836,1.1648241,2.5428793,-0.66614854,-5.8363595
410,1778598616273,5.005475,0.8024249,1.217571,3.2036827,-1.3355042,-5.8988204
411,1778598616283,6.1950564,0.6454645,1.0408534,3.5686748,-1.666135,-6.4762406
412,1778598616293,6.908757,0.22489117,0.59265655,2.7855456,-1.7823521,-8.149401
413,1778598616303,6.9731503,-0.3978281,-0.07884607,2.7855456,-1.7823521,-8.149401
414,1778598616313,6.53154,-1.0200596,-0.54875153,1.135904,-1.8081611,-8.65535
415,1778598616323,5.195059,-2.2586074,-0.009451771,-0.8507826,-1.5170839,-8.804707
416,1778598616333,5.195059,-2.2586074,-0.009451771,-2.6244297,-0.72143185,-8.814175
417,1778598616343,4.636795,-2.569845,0.4926507,-2.6244297,-0.72143185,-8.814175
418,1778598616353,2.5070975,-3.1777463,1.4661222,-0.03176499,0.0421497,-7.845495
419,1778598616363,1.4846598,-3.4205043,1.144518,1.353372,-0.38026363,-7.243029
420,1778598616373,0.6223534,-3.571062,0.69382095,2.5853345,-1.1678216,-6.1504965
421,1778598616383,0.6223534,-3.571062,0.69382095,2.5853345,-1.1678216,-6.1504965
422,1778598616393,-0.33727577,-3.3437316,0.19793838,2.7148378,-1.2866349,-3.847993
423,1778598616403,-0.6705269,-3.2465918,-0.020976834,2.5421157,-0.7820602,-2.8492281
424,1778598616413,-0.948531,-3.334463,-0.29751736,2.3367124,-0.57344973,-2.1394029
425,1778598616423,-1.299771,-3.424102,-0.51484716,1.9798143,-0.70906186,-1.0934488
426,1778598616433,-1.299771,-3.424102,-0.51484716,1.9798143,-0.70906186,-1.0934488
427,1778598616443,-1.299771,-3.424102,-0.51484716,0.68218374,-1.075581,1.1333077
428,1778598616453,-1.3945326,-3.5338647,-0.37752202,1.4512631,-0.8678868,-0.3576616
429,1778598616463,-1.369775,-3.5100217,-0.28251648,-0.02611449,-0.97310835,3.1199942
430,1778598616473,-1.3132474,-3.5253887,-0.17263202,-0.15332718,-1.1145236,4.531551
431,1778598616483,-1.1112235,-3.5130708,-0.05427146,-0.14996742,-1.2771665,5.8339157
432,1778598616493,-0.5497272,-3.436786,0.0015854583,-0.05665775,-1.1859949,7.5469346
433,1778598616503,0.14939895,-3.2162852,-0.047746688,-0.34788775,-0.2874121,9.635788
434,1778598616513,1.4214244,-2.8635206,-0.24105065,-0.34788775,-0.2874121,9.635788
435,1778598616523,1.4214244,-2.8635206,-0.24105065,-0.8313876,0.14752395,10.278113
436,1778598616533,1.4214244,-2.8635206,-0.24105065,-1.3098478,0.4034765,10.467329
437,1778598616543,2.3674552,-2.2283006,-0.31788442,-1.9854648,0.6969972,10.406853
438,1778598616553,2.941818,-1.9597485,0.2420873,-2.2334762,0.77350813,10.397537
439,1778598616563,3.7999775,-1.5197228,0.84126866,-1.3681854,-0.5908594,11.683409
440,1778598616573,5.079077,-0.9110288,1.1087842,-1.3681854,-0.5908594,11.683409
441,1778598616583,5.079077,-0.9110288,1.1087842,0.08659015,-1.2421945,12.421945
442,1778598616593,5.079077,-0.9110288,1.1087842,0.08659015,-1.2421945,12.421945
443,1778598616603,5.079077,-0.9110288,1.1087842,0.08659015,-1.2421945,12.421945
444,1778598616613,6.0973067,1.5796653,-0.14116678,-2.7716484,2.7133107,6.497163
445,1778598616623,6.0973067,1.5796653,-0.14116678,-2.7716484,2.7133107,6.497163
446,1778598616633,5.2446966,1.609789,0.24903892,-2.7716484,2.7133107,6.497163
447,1778598616643,4.820464,1.668207,0.430208,-2.8845057,2.3306036,5.785963
448,1778598616653,4.820464,1.668207,0.430208,-2.8845057,2.3306036,5.785963
449,1778598616663,4.820464,1.668207,0.430208,-2.8845057,2.3306036,5.785963
450,1778598616673,4.820464,1.668207,0.430208,-1.0227411,0.54336464,3.5686748
451,1778598616683,2.9259634,1.9162703,0.12067777,-0.11575896,1.1823297,1.821142
452,1778598616693,2.5214884,2.2405574,0.060491335,-0.46410486,2.1094704,-0.14828753
453,1778598616703,2.5214884,2.2405574,0.060491335,-0.46410486,2.1094704,-0.14828753
454,1778598616713,2.5214884,2.2405574,0.060491335,-0.46410486,2.1094704,-0.14828753
455,1778598616723,2.5214884,2.2405574,0.060491335,-0.46410486,2.1094704,-0.14828753
456,1778598616733,2.5214884,2.2405574,0.060491335,-0.46410486,2.1094704,-0.14828753
457,1778598616743,2.5214884,2.2405574,0.060491335,-0.46410486,2.1094704,-0.14828753
458,1778598616753,0.51582277,1.9423695,0.27800402,0.5093089,0.98715824,-2.1340578
459,1778598616763,0.4311837,1.7069899,0.005183229,1.5506815,0.48090366,-2.9683468
460,1778598616773,0.59296143,1.5950321,0.031099375,1.617113,0.205098,-3.2873714
461,1778598616783,0.85120827,1.4675856,0.06933331,1.6658295,0.0106901415,-3.6067011
462,1778598616793,1.1572627,1.2681228,0.19184047,1.7408133,-0.20723604,-4.4078507
463,1778598616803,1.2445848,1.0398778,0.27300373,1.7741054,-0.12003502,-4.971985
464,1778598616813,1.3294069,0.89151543,0.35849655,1.8238909,-0.06887506,-5.1639495
465,1778598616823,1.6922939,0.8216943,0.37904653,1.8973475,-0.04520403,-5.1844134
466,1778598616833,2.1084766,0.8017541,0.35227665,1.8886427,0.013286319,-5.255732
467,1778598616843,2.9804177,0.7972416,0.30989614,1.6723963,0.2648101,-5.8808
468,1778598616853,3.8219912,0.801998,0.47716197,1.6096299,0.19975294,-6.578255
469,1778598616863,4.50136,0.7267497,0.78315544,1.808772,-0.21731532,-7.1906476
470,1778598616873,5.3264694,0.4033772,0.9362132,2.421317,-0.6747007,-7.8564906
471,1778598616883,6.467572,-0.69180864,0.25647837,3.284317,-0.9801333,-8.39787
472,1778598616893,6.467572,-0.69180864,0.25647837,2.666885,-1.0022771,-8.350223
473,1778598616903,6.1777387,-1.5183812,-0.8537083,2.666885,-1.0022771,-8.350223
474,1778598616913,6.1777387,-1.5183812,-0.8537083,-0.69806623,-0.5925393,-8.272948
475,1778598616923,6.1777387,-1.5183812,-0.8537083,-0.69806623,-0.5925393,-8.272948
476,1778598616933,4.0952997,-2.789004,0.67266124,-1.7278323,0.9100365,-8.02005
477,1778598616943,4.0952997,-2.789004,0.67266124,-1.7278323,0.9100365,-8.02005
478,1778598616953,2.0143247,-3.2001257,1.076953,0.70906186,0.7816021,-7.0915346
479,1778598616963,0.9948142,-3.31684,0.8332803,2.375044,-0.030390546,-6.249457
480,1778598616973,0.25903952,-3.378185,0.44947743,3.3018794,-0.6310238,-5.384777
481,1778598616983,-0.40227956,-3.4269073,-0.07701669,3.524998,-1.006095,-4.1010437
482,1778598616993,-0.73601854,-3.383734,-0.26653996,3.2275066,-0.9944886,-3.2979088
483,1778598617003,-1.220742,-3.2850087,-0.45581928,2.1843014,-0.6232353,-1.3865114
484,1778598617013,-1.32587,-3.2861676,-0.6181458,1.5697709,-0.47784933,-0.3903429
485,1778598617023,-1.22373,-3.3231206,-0.77358174,0.91889405,-0.63804877,0.52748215
486,1778598617033,-1.0171934,-3.2789717,-0.78766793,0.05207626,-1.109484,1.4537066
487,1778598617043,-0.94383556,-3.2807403,-0.708456,-0.39171734,-1.432479,1.939039
488,1778598617053,-0.8599282,-3.3277552,-0.49021152,-0.9735665,-1.9312505,3.0176742
489,1778598617063,-0.8454151,-3.2888503,-0.25660032,-1.0418307,-2.2521074,4.2051964
490,1778598617073,-0.8634651,-3.2687273,-0.16592431,-0.91354895,-2.3299928,5.3893585
491,1778598617083,-0.6943698,-3.1593306,-0.12903193,-0.7414377,-1.9879082,7.9643083
492,1778598617093,-0.55253226,-3.1220114,-0.15336262,-0.7414377,-1.9879082,7.9643083
493,1778598617103,0.7883387,-2.8721797,-0.49630946,-1.3523029,-1.4004086,10.670289
494,1778598617113,1.73876,-2.646252,-0.5753385,-1.3523029,-1.4004086,10.670289
495,1778598617123,2.3904443,-2.3817244,-0.48630884,-2.0905335,-1.3411547,10.938153
496,1778598617133,2.707231,-2.1639678,-0.363009,-2.2992969,-1.235475,10.666013
497,1778598617143,2.7819307,-1.9418817,0.1832424,-2.2131648,-1.1562152,10.293079
498,1778598617153,2.7783327,-1.8899884,0.42087823,-1.858863,-1.3222178,10.4551115
499,1778598617163,2.7783327,-1.8899884,0.42087823,-1.858863,-1.3222178,10.4551115
500,1778598617173,5.3662276,-0.8618796,0.08427321,0.22052236,-2.107638,11.790157
501,1778598617183,6.467146,-0.34502012,-0.25605154,0.89720833,-0.7153232,11.981969
502,1778598617193,7.8560076,0.9128582,-0.9345057,-1.0497719,1.8982637,9.912357
503,1778598617203,7.1581006,1.3993499,-0.6370494,-2.8518243,2.9831605,7.7091193
504,1778598617213,5.9259553,1.4183145,0.6319881,-3.4153476,2.7605,5.7050233
505,1778598617223,5.0919437,1.5335041,1.443316,-1.621389,1.1820242,4.54835
506,1778598617233,4.6020975,1.6999164,1.4500237,-0.06352998,0.20952678,3.997044
507,1778598617243,4.2574434,1.8948058,0.5982056,2.2565362,-0.8933904,2.7145324
508,1778598617253,3.852115,2.0679865,-0.22519606,2.1943808,-0.49586987,1.9576705
509,1778598617263,2.8212621,2.0233498,-0.7505926,0.09911288,1.0832168,0.81000733
510,1778598617273,2.8212621,2.0233498,-0.7505926,0.09911288,1.0832168,0.81000733
511,1778598617283,2.8212621,2.0233498,-0.7505926,0.09911288,1.0832168,0.81000733
512,1778598617293,2.8212621,2.0233498,-0.7505926,0.09911288,1.0832168,0.81000733
513,1778598617303,2.8212621,2.0233498,-0.7505926,0.09911288,1.0832168,0.81000733
514,1778598617313,1.2037898,1.970054,0.4399647,-0.7281514,1.2029464,-1.9666806
515,1778598617323,1.2037898,1.970054,0.4399647,-0.7281514,1.2029464,-1.9666806
516,1778598617333,1.2037898,1.970054,0.4399647,-0.7281514,1.2029464,-1.9666806
517,1778598617343,0.80626655,1.6032643,0.79583913,0.45845437,1.0882565,-2.7881417
518,1778598617353,0.80626655,1.6032643,0.79583913,0.45845437,1.0882565,-2.7881417
519,1778598617363,0.80626655,1.6032643,0.79583913,0.45845437,1.0882565,-2.7881417
520,1778598617373,0.80626655,1.6032643,0.79583913,0.45845437,1.0882565,-2.7881417
521,1778598617383,0.9945702,1.4083139,0.88919824,0.45845437,1.0882565,-2.7881417
522,1778598617393,0.9945702,1.4083139,0.88919824,0.45845437,1.0882565,-2.7881417
523,1778598617403,0.9945702,1.4083139,0.88919824,0.45845437,1.0882565,-2.7881417
524,1778598617413,2.4984994,0.6208899,0.7984612,3.2210925,0.72356987,-6.291912
525,1778598617423,2.4984994,0.6208899,0.7984612,3.2210925,0.72356987,-6.291912
526,1778598617433,3.2791548,0.057320416,0.61296254,3.8776197,0.38133264,-7.328092
527,1778598617443,3.2791548,0.057320416,0.61296254,3.8776197,0.38133264,-7.328092
528,1778598617453,5.0751743,-0.9582266,-0.1967188,4.256509,0.025198191,-7.9615593
529,1778598617463,5.0751743,-0.9582266,-0.1967188,4.256509,0.025198191,-7.9615593
530,1778598617473,5.9640675,-1.6705854,-1.0873805,3.691764,-0.19685133,-7.8823
531,1778598617483,5.9640675,-1.6705854,-1.0873805,2.2188153,-0.37186423,-7.7563086
532,1778598617493,5.7360053,-2.4227023,-0.8426101,-1.6233743,0.52442783,-7.5799212
533,1778598617503,4.776315,-2.8616912,0.25983223,-2.7808113,1.3997977,-7.4830995
534,1778598617513,4.776315,-2.8616912,0.25983223,-2.7808113,1.3997977,-7.4830995
535,1778598617523,4.2137213,-2.977003,0.9363961,-2.5764768,1.6526959,-7.356803
536,1778598617533,2.5442948,-3.0217617,1.7038189,1.4885259,0.99082345,-6.791447
537,1778598617543,2.5442948,-3.0217617,1.7038189,1.4885259,0.99082345,-6.791447
538,1778598617553,2.5442948,-3.0217617,1.7038189,1.4885259,0.99082345,-6.791447
539,1778598617563,0.8229139,-3.1040835,0.48929682,5.425705,-0.7841983,-5.752518
540,1778598617573,-0.2923341,-2.9193168,-0.65912384,4.7288604,-0.8481864,-4.030489
541,1778598617583,-0.6098527,-2.8648014,-0.8218162,3.8147008,-0.5708536,-3.3105843
542,1778598617593,-0.6098527,-2.8648014,-0.8218162,1.5409076,0.31108314,-1.509448
543,1778598617603,-1.3398952,-2.8430316,-0.8454762,0.72097373,0.63056564,-0.79412484
544,1778598617613,-1.5835071,-3.081643,-0.7660203,-0.30818152,0.6565274,0.42745295
545,1778598617623,-1.7654078,-3.2292738,-0.56527686,-0.9691377,0.05879578,1.749518
546,1778598617633,-1.7820551,-3.3178766,-0.3553256,-1.1443033,-0.43783766,2.5896106
547,1778598617643,-1.4938067,-3.3861732,0.11378712,-0.7102836,-1.4074335,5.2401547
548,1778598617653,-1.4938067,-3.3861732,0.11378712,-0.7102836,-1.4074335,5.2401547
549,1778598617663,-0.5232622,-3.030055,0.03725827,0.16355917,-1.2832751,7.717519
550,1778598617673,-0.25635642,-2.8962054,-0.06793079,0.19914207,-1.1136073,8.327468
551,1778598617683,0.4241711,-2.6616187,-0.2667229,-0.13209961,-0.68203104,9.290039
552,1778598617693,1.0082905,-2.467949,-0.40599927,-0.689056,-0.25778514,9.72528
553,1778598617703,1.3241626,-2.362577,-0.518201,-1.3571899,0.13988814,9.911441
554,1778598617713,1.6484498,-2.2669005,-0.6422936,-2.5288293,0.6919576,10.126924
555,1778598617723,1.7724204,-2.180432,-0.6606483,-2.5288293,0.6919576,10.126924
556,1778598617733,1.7809577,-2.2117753,-0.42093918,-4.703204,0.8707884,10.722976
557,1778598617743,1.8064469,-2.4462402,0.10707942,-5.553834,0.37934732,12.082457
558,1778598617753,2.5122197,-2.7037551,0.6572335,-5.7545033,-0.26206118,14.120761
559,1778598617763,4.189391,-2.9118161,0.79016805,-5.5946093,-0.5345071,15.612952
560,1778598617773,4.189391,-2.9118161,0.79016805,-5.5946093,-0.5345071,15.612952
561,1778598617783,8.514887,-1.566128,0.5693625,-7.340004,3.446349,12.883148
562,1778598617793,7.975343,-0.5426536,1.291112,-8.33266,5.1317263,9.728334
563,1778598617803,6.492574,-0.024818521,1.9180386,-7.808843,5.572313,6.7410507
564,1778598617813,6.0435233,-0.08122425,1.9205388,-6.9716525,4.88738,5.677534
565,1778598617823,5.9640675,0.13116619,2.631556,-6.9716525,4.88738,5.677534
566,1778598617833,5.301041,0.8351707,3.2137241,-0.7518224,-1.4202617,1.9110919
567,1778598617843,3.9140697,0.95304346,1.7807747,3.4556646,-3.6515996,-0.30787608
568,1778598617853,3.9140697,0.95304346,1.7807747,3.4556646,-3.6515996,-0.30787608
569,1778598617863,3.9140697,0.95304346,1.7807747,3.4075592,-2.9174924,-0.5864306
570,1778598617873,3.9140697,0.95304346,1.7807747,3.4075592,-2.9174924,-0.5864306
571,1778598617883,3.9140697,0.95304346,1.7807747,0.5748242,2.8916833,-1.3988814
572,1778598617893,2.364833,1.1538478,0.5371655,0.5748242,2.8916833,-1.3988814
573,1778598617903,0.95651925,1.1165286,0.71992004,1.5398386,3.007595,-2.1114557
574,1778598617913,0.95651925,1.1165286,0.71992004,1.5398386,3.007595,-2.1114557
575,1778598617923,0.60655975,1.1414691,0.50362694,3.1714597,0.65194595,-2.3863451
576,1778598617933,0.60655975,1.1414691,0.50362694,3.1714597,0.65194595,-2.3863451
577,1778598617943,0.60655975,1.1414691,0.50362694,3.1714597,0.65194595,-2.3863451
578,1778598617953,0.72827417,1.1764711,0.4016088,4.189772,-1.4266758,-2.645352
579,1778598617963,1.0382923,1.1500062,0.36898494,3.9035816,-1.6087136,-3.117398
580,1778598617973,1.0382923,1.1500062,0.36898494,3.9035816,-1.6087136,-3.117398
581,1778598617983,1.0382923,1.1500062,0.36898494,3.9035816,-1.6087136,-3.117398
582,1778598617993,1.0382923,1.1500062,0.36898494,3.9035816,-1.6087136,-3.117398
583,1778598618003,1.8258383,0.5100907,0.81748676,2.7345383,0.1731803,-5.5568886
584,1778598618013,1.9469428,0.31038398,0.91371185,3.1134274,-0.09483683,-5.893475
585,1778598618023,2.189579,0.12769037,0.9335301,4.025602,-1.1357512,-6.349486
586,1778598618033,2.189579,0.12769037,0.9335301,4.025602,-1.1357512,-6.349486
587,1778598618043,2.189579,0.12769037,0.9335301,4.025602,-1.1357512,-6.349486
588,1778598618053,2.189579,0.12769037,0.9335301,4.025602,-1.1357512,-6.349486
589,1778598618063,5.746189,-1.0901856,0.04750277,4.6196685,-2.224313,-7.011664
590,1778598618073,5.7633243,-1.6093012,-0.29141945,4.6196685,-2.224313,-7.011664
591,1778598618083,5.3850093,-2.0175567,-0.5821071,1.5169312,-0.15225816,-8.8821335
592,1778598618093,5.3850093,-2.0175567,-0.5821071,1.5169312,-0.15225816,-8.8821335
593,1778598618103,5.3850093,-2.0175567,-0.5821071,1.5169312,-0.15225816,-8.8821335
594,1778598618113,5.3850093,-2.0175567,-0.5821071,1.5169312,-0.15225816,-8.8821335
595,1778598618123,3.6244798,-2.944623,0.31270117,-1.7634152,1.4165965,-7.836485
596,1778598618133,2.8505323,-3.2036626,0.658514,-0.9579894,1.5978707,-7.558083
597,1778598618143,1.648145,-3.4046497,0.6216216,0.8764389,0.75686204,-7.17843
598,1778598618153,1.648145,-3.4046497,0.6216216,0.8764389,0.75686204,-7.17843
599,1778598618163,1.648145,-3.4046497,0.6216216,0.8764389,0.75686204,-7.17843
600,1778598618173,1.648145,-3.4046497,0.6216216,0.8764389,0.75686204,-7.17843
601,1778598618183,-0.9594462,-3.2996438,-0.056344748,2.7937922,-1.9405662,-4.772232
602,1778598618193,-1.2141562,-3.2004306,-0.2336112,1.7174476,-0.39538252,0.22434026
603,1778598618203,-1.2524511,-3.1694531,-0.37569264,1.2508993,-0.14889841,1.336115
604,1778598618213,-1.2899534,-3.1228042,-0.50094384,1.2508993,-0.14889841,1.336115
605,1778598618223,-1.258488,-3.0818262,-0.55277616,0.17944166,-0.063224554,3.435659
606,1778598618233,-1.1904353,-3.0138953,-0.47984505,-0.17211129,-0.118966006,4.329202
607,1778598618243,-1.1904353,-3.0138953,-0.47984505,-0.17211129,-0.118966006,4.329202
608,1778598618253,-0.8276703,-2.719244,-0.31898203,-0.77198094,-0.3943135,6.29741
609,1778598618263,-0.8276703,-2.719244,-0.31898203,-0.77198094,-0.3943135,6.29741
610,1778598618273,-0.48460147,-2.5677717,-0.25745404,-1.0262536,-0.5725334,7.2605915
611,1778598618283,0.26477155,-2.3600767,-0.15214302,-1.31672,-0.7715228,8.386264
612,1778598618293,0.9301152,-2.1823833,-0.110616215,-1.4995215,-0.6417139,8.667109
613,1778598618303,1.6394858,-1.8980376,-0.20056048,-1.8629863,-0.160963,8.41696
614,1778598618313,1.7890068,-1.7876045,-0.25208786,-1.8629863,-0.160963,8.41696
615,1778598618323,1.6954038,-1.767786,-0.11390909,-2.6674957,0.25320363,8.018828
616,1778598618333,1.6403396,-1.8191916,0.06597946,-2.7608054,0.037110064,8.345641
617,1778598618343,2.1597602,-1.8484006,0.44581872,-2.2679899,-1.1585059,9.837679
618,1778598618353,3.5445971,-1.5611886,0.5658257,-2.2679899,-1.1585059,9.837679
619,1778598618363,3.5445971,-1.5611886,0.5658257,-0.9483683,-2.326633,11.5171
620,1778598618373,6.618679,-0.33495858,-0.30782285,-1.7821994,-0.4934264,10.108293
621,1778598618383,6.7083793,0.13092227,-0.3374587,-3.7313175,1.9381227,8.005084
622,1778598618393,5.58307,0.822426,1.1617141,-4.5158215,3.4655912,5.276807
623,1778598618403,4.7989993,1.0639645,1.8345582,-4.5158215,3.4655912,5.276807
624,1778598618413,4.2953115,1.2172662,1.7524194,0.46670106,-0.5111415,3.0772338
625,1778598618423,4.2953115,1.2172662,1.7524194,0.46670106,-0.5111415,3.0772338
626,1778598618433,3.4553235,1.5107589,0.755227,3.2531629,-1.2791518,1.8574885
627,1778598618443,3.158416,1.5785067,0.27776012,3.3396003,-0.5103779,1.3739886
628,1778598618453,2.8348606,1.5733844,-0.0757971,3.3396003,-0.5103779,1.3739886
629,1778598618463,2.418068,1.6150942,-0.24714857,2.2870796,1.6055065,0.5366451
630,1778598618473,2.183237,1.6660118,-0.33886123,2.2870796,1.6055065,0.5366451
631,1778598618483,1.9489552,1.7614442,-0.50996876,1.7179058,2.2466097,-0.16203201
632,1778598618493,1.7484558,1.8288871,-0.5376533,1.6606371,1.7362317,-0.8025242
633,1778598618503,1.7484558,1.8288871,-0.5376533,1.6606371,1.7362317,-0.8025242
634,1778598618513,1.1318344,1.7218078,-0.51576185,1.728596,0.9007208,-1.4862351
635,1778598618523,0.91352886,1.6544257,-0.43325698,1.7591392,-0.0571159,-2.1073325
636,1778598618533,0.72485936,1.5830802,-0.29105356,1.7660115,-0.33964106,-2.4889705
637,1778598618543,0.72485936,1.5830802,-0.29105356,1.7660115,-0.33964106,-2.4889705
638,1778598618553,0.65955067,1.5253329,-0.25245374,1.7660115,-0.33964106,-2.4889705
639,1778598618563,0.67546624,1.378556,-0.15061855,1.5470163,-0.8242099,-3.1429017
640,1778598618573,0.8705386,1.3177598,-0.023659917,1.476614,-0.96883225,-3.2797356
641,1778598618583,1.2806845,1.2693423,0.18183987,1.4732542,-1.1879802,-3.6630535
642,1778598618593,1.6992456,1.162019,0.25849068,1.4885259,-1.0693196,-5.166851
643,1778598618603,2.046034,0.71559054,0.35758185,1.4760032,-0.9810496,-5.6419516
644,1778598618613,2.046034,0.71559054,0.35758185,1.4760032,-0.9810496,-5.6419516
645,1778598618623,2.5956392,0.3085546,0.47728392,1.4738652,-1.03786,-6.045428
646,1778598618633,2.5956392,0.3085546,0.47728392,1.4738652,-1.03786,-6.045428
647,1778598618643,4.2253685,-0.048783336,0.66369724,1.8832976,-1.6055065,-6.175084
648,1778598618653,5.303541,-0.39929157,0.5282015,2.0418172,-1.9040669,-6.4922757
649,1778598618663,5.303541,-0.39929157,0.5282015,2.0418172,-1.9040669,-6.4922757
650,1778598618673,5.303541,-0.39929157,0.5282015,2.0418172,-1.9040669,-6.4922757
651,1778598618683,5.303541,-0.39929157,0.5282015,2.0418172,-1.9040669,-6.4922757
652,1778598618693,6.266829,-1.4610609,-0.32818988,1.9042196,-1.9602666,-6.7802987
653,1778598618703,5.1443243,-3.2148218,0.81657207,-4.638911,0.63514715,-8.180402
654,1778598618713,4.1867685,-3.3976982,1.6966234,-4.346459,1.8869628,-8.093201
655,1778598618723,3.0137734,-3.501302,2.3279407,-1.9109392,2.637869,-7.6552105
656,1778598618733,3.0137734,-3.501302,2.3279407,-1.9109392,2.637869,-7.6552105
657,1778598618743,3.0137734,-3.501302,2.3279407,-1.9109392,2.637869,-7.6552105
658,1778598618753,3.0137734,-3.501302,2.3279407,-1.9109392,2.637869,-7.6552105
659,1778598618763,0.0248795,-3.4230046,-0.29885888,6.030156,-1.9895881,-4.7099237
660,1778598618773,-0.42819571,-3.2475064,-0.7704718,4.7390924,-1.6482671,-3.7065775
661,1778598618783,-0.42819571,-3.2475064,-0.7704718,4.7390924,-1.6482671,-3.7065775
662,1778598618793,-0.42819571,-3.2475064,-0.7704718,4.7390924,-1.6482671,-3.7065775
663,1778598618803,-0.42819571,-3.2475064,-0.7704718,4.7390924,-1.6482671,-3.7065775
664,1778598618813,-0.7111391,-3.0990832,-0.88864946,3.6914587,-1.1485794,-3.043636
665,1778598618823,-1.7037579,-2.810164,-0.69308925,-1.2350168,0.38728857,2.172237
666,1778598618833,-1.2505608,-2.6597893,-0.275199,-1.4923438,0.269697,2.9417744
667,1778598618843,-1.2505608,-2.6597893,-0.275199,-1.4170547,-0.3930918,4.969694
668,1778598618853,-1.0032902,-2.4864864,-0.19592606,-1.5957327,-0.062002823,4.2868996
669,1778598618863,-0.658697,-2.294646,-0.16318026,-1.0088439,-1.0355693,6.1639357
670,1778598618873,-0.20592664,-2.0390823,-0.2148906,-1.0016663,-1.0923798,6.4884577
671,1778598618883,0.20348747,-1.8404123,-0.28196767,-1.267698,-0.9221011,7.117344
672,1778598618893,0.42990315,-1.7990074,-0.28263843,-1.5760323,-0.7466301,7.4485855
673,1778598618903,0.62845135,-1.7393088,-0.28135788,-1.9498819,-0.5030475,7.793877
674,1778598618913,0.8441956,-1.7267472,-0.2778211,-2.4480424,-0.25534168,8.249735
675,1778598618923,1.1061621,-1.8284603,-0.2789187,-2.7601945,-0.20922135,8.557153
676,1778598618933,1.6198506,-1.9122456,-0.17866896,-3.3195944,-0.39202276,9.348376
677,1778598618943,2.2140925,-1.9048673,0.058174126,-3.4946074,-0.6800457,10.111805
678,1778598618953,3.559537,-1.709063,0.47667417,-3.1983378,-1.3834571,11.048719
679,1778598618963,4.914982,-1.3097715,0.78699714,-2.6812403,-1.476614,11.176848
680,1778598618973,6.0904164,-0.7188224,1.0512199,-2.1044307,-0.95356065,10.69793
681,1778598618983,6.8036284,0.15135029,1.115431,-1.6307048,0.6337727,9.1150255
682,1778598618993,6.294636,0.807974,0.78157,-1.6650659,2.6254988,6.756475
683,1778598619003,5.6494756,0.8041323,0.6655266,-1.6650659,2.6254988,6.756475
684,1778598619013,5.0195613,0.7759599,0.69851637,-1.9518672,3.4138205,4.6998444
685,1778598619023,4.2507358,1.0310358,0.85389125,-1.5780176,2.8866436,4.1085267
686,1778598619033,3.8768117,1.2225103,0.646989,-0.63346726,1.6818647,3.368311
687,1778598619043,3.5066679,1.249829,0.44801396,0.24663684,0.7058548,2.4787385
688,1778598619053,2.8526664,1.372702,0.3644115,0.60032785,0.6105598,0.9815077
689,1778598619063,2.8526664,1.372702,0.3644115,0.60032785,0.6105598,0.9815077
690,1778598619073,1.8877931,1.5800922,0.16848545,0.5288566,1.3191634,0.13637567
691,1778598619083,1.7290643,1.6257046,0.11909231,0.52366424,1.5664113,-0.14966199
692,1778598619093,1.2214128,1.7295521,-0.11390909,0.5193882,1.838857,-0.8089383
693,1778598619103,0.9081627,1.7508948,-0.14653294,0.5742133,1.7444785,-1.2534955
694,1778598619113,0.64912325,1.7449799,-0.1232389,0.6973027,1.4798211,-1.6395624
695,1778598619123,0.3392271,1.7284545,0.025916148,1.050841,0.90041536,-2.0496056
696,1778598619133,0.11848252,1.6671095,0.15653352,1.6143641,0.1479821,-2.3145685
697,1778598619143,0.036953375,1.5883244,0.21708584,2.1642957,-0.52870387,-2.4599543
698,1778598619153,0.036953375,1.5883244,0.21708584,2.1642957,-0.52870387,-2.4599543
699,1778598619163,0.077077664,1.516369,0.19842622,2.4327707,-0.8078693,-2.54517
700,1778598619173,0.36044785,1.3137352,0.14793546,2.29273,-0.57360244,-2.8064678
701,1778598619183,1.0913442,1.1742148,0.20982932,1.8748982,-0.044135015,-3.662748
702,1778598619193,1.355384,0.99963146,0.28141886,1.7571539,0.10919216,-4.2562037
703,1778598619203,1.355384,0.99963146,0.28141886,1.7571539,0.10919216,-4.2562037
704,1778598619213,1.920112,0.77876496,0.6835155,1.744173,0.030390546,-4.6657887
705,1778598619223,2.2936704,0.6893695,0.9627391,2.588694,-0.90408057,-5.401576
706,1778598619233,2.2936704,0.6893695,0.9627391,2.588694,-0.90408057,-5.401576
707,1778598619243,2.7676616,0.57015526,1.018657,4.0005565,-2.0662518,-5.663179
708,1778598619253,3.6737509,0.5317993,0.9960337,4.0005565,-2.0662518,-5.663179
709,1778598619263,6.191642,0.059027832,0.25471,4.276515,-1.6614008,-6.2540383
710,1778598619273,6.647827,-0.2608079,-0.34105647,4.276515,-1.6614008,-6.2540383
711,1778598619283,6.9156475,-0.9496286,-1.1904963,1.3761266,-1.1090258,-7.4490438
712,1778598619293,6.669048,-1.4252051,-1.0039,-0.85047716,-0.95417154,-7.927351
713,1778598619303,6.669048,-1.4252051,-1.0039,-0.85047716,-0.95417154,-7.927351
714,1778598619313,6.669048,-1.4252051,-1.0039,-0.85047716,-0.95417154,-7.927351
715,1778598619323,6.116637,-2.1270144,-0.26885715,-0.85047716,-0.95417154,-7.927351
716,1778598619333,3.1923814,-2.9776738,1.8934642,-1.4344643,2.13925,-7.646506
717,1778598619343,2.4287393,-3.0025532,1.695099,0.8703303,1.6846136,-7.1492615
718,1778598619353,1.5839338,-2.9819424,1.0987227,3.2343788,0.5751296,-6.500981
719,1778598619363,1.5839338,-2.9819424,1.0987227,3.2343788,0.5751296,-6.500981
720,1778598619373,1.5839338,-2.9819424,1.0987227,3.2343788,0.5751296,-6.500981
721,1778598619383,1.5839338,-2.9819424,1.0987227,3.2343788,0.5751296,-6.500981
722,1778598619393,-0.65814817,-2.871509,-0.7121147,2.2568417,-0.08002335,-3.1781793
723,1778598619403,-1.0399997,-2.997492,-0.8152305,1.4902058,0.18585575,-2.5137105
724,1778598619413,-1.0399997,-2.997492,-0.8152305,1.4902058,0.18585575,-2.5137105
725,1778598619423,-1.0399997,-2.997492,-0.8152305,1.4902058,0.18585575,-2.5137105
726,1778598619433,-1.0399997,-2.997492,-0.8152305,1.4902058,0.18585575,-2.5137105
727,1778598619443,-1.4672807,-3.050178,-0.90413815,0.7690793,0.12415836,-1.6542231
728,1778598619453,-1.7657737,-3.0652397,-0.48057684,-1.4216361,-0.82558435,3.185204
729,1778598619463,-1.7657737,-3.0652397,-0.48057684,-1.4905112,-0.9549351,4.2374196
730,1778598619473,-1.6480839,-3.0047483,-0.38947394,-1.4782939,-1.1772901,5.572007
731,1778598619483,-1.6480839,-3.0047483,-0.38947394,-1.4782939,-1.1772901,5.572007
732,1778598619493,-1.6480839,-3.0047483,-0.38947394,-1.4782939,-1.1772901,5.572007
733,1778598619503,-0.28434587,-2.5637472,-0.29745638,-1.4585935,-1.2728904,6.0898685
734,1778598619513,0.8807221,-2.2348256,-0.4106337,-2.4037547,-0.93691456,8.464455
735,1778598619523,1.5153933,-2.0791457,-0.50515145,-2.4037547,-0.93691456,8.464455
736,1778598619533,1.6188749,-2.0506685,-0.4908213,-2.8257098,-0.75640386,8.532107
737,1778598619543,2.2697058,-1.908099,0.15866779,-3.379612,-0.7722864,9.225898
738,1778598619553,2.2697058,-1.908099,0.15866779,-3.2806518,-1.2243266,10.070113
739,1778598619563,3.5330112,-1.580763,0.86273324,-1.0155635,-1.924531,11.364537
740,1778598619573,3.5330112,-1.580763,0.86273324,-0.08628472,-0.8943067,10.728779
741,1778598619583,7.892534,1.132993,0.8745022,-0.08628472,-0.8943067,10.728779
742,1778598619593,6.9069886,1.5075879,0.59491277,-0.1217149,3.586848,5.7199893
743,1778598619603,6.9069886,1.5075879,0.59491277,-0.1217149,3.586848,5.7199893
744,1778598619613,5.5549583,1.3698361,0.51533496,-0.2443461,3.6548069,4.402506
745,1778598619623,3.8066854,1.510332,0.26702777,0.3210097,1.2944235,3.8432586
746,1778598619633,3.7618656,1.6895498,0.15622863,0.56413406,0.16737708,3.3405166
747,1778598619643,3.4383712,1.794495,0.08152915,0.40515637,0.27885997,2.7249172
748,1778598619653,3.4383712,1.794495,0.08152915,0.40515637,0.27885997,2.7249172
749,1778598619663,2.1358564,1.7827871,-0.004024625,-0.37064248,0.7266242,1.7982346
750,1778598619673,1.7209542,1.7301619,0.038294915,-0.6036876,0.84696466,1.6836973
751,1778598619683,1.039207,1.7291863,0.27074748,-0.7693848,1.0323622,1.496009
752,1778598619693,0.7483363,1.7485776,0.34703246,-0.5190827,0.9616546,1.321607
753,1778598619703,0.6068647,1.7926656,0.37868062,-0.14309518,0.86361074,1.0503827
754,1778598619713,0.4938703,1.8582791,0.38453463,0.34040466,0.73655075,0.65393126
755,1778598619723,0.39788908,1.8798658,0.3141037,0.8361218,0.49968776,0.18707748
756,1778598619733,0.2900779,1.856023,0.23684308,1.3617713,0.1591304,-0.43096542
757,1778598619743,0.1718393,1.8343143,0.2300744,1.8451185,-0.19822577,-1.0509937
758,1778598619753,0.1718393,1.8343143,0.2300744,1.8451185,-0.19822577,-1.0509937
759,1778598619763,0.1718393,1.8343143,0.2300744,1.8451185,-0.19822577,-1.0509937
760,1778598619773,0.16763173,1.7243079,-0.16385102,2.4123068,-0.34132096,-1.5538884
761,1778598619783,0.5153959,1.6091793,-0.56777704,1.5957327,-0.29458976,-1.9213239
762,1778598619793,0.5153959,1.6091793,-0.56777704,1.5957327,-0.29458976,-1.9213239
763,1778598619803,1.3415416,1.5077709,-0.20159712,0.63300914,-0.9503536,-2.9364293
764,1778598619813,1.7310767,1.3726411,0.069577225,0.4334089,-1.3078625,-3.5381315
765,1778598619823,2.1702487,1.1998872,0.36898494,0.32696563,-1.4340062,-4.212374
766,1778598619833,3.2517753,0.7130294,1.466671,1.3428345,-1.534799,-5.613699
767,1778598619843,4.1754875,0.5178351,1.7278447,2.7246118,-2.0966423,-5.9072194
768,1778598619853,5.388912,0.13104422,1.4445355,3.8701367,-2.4680483,-6.0979624
769,1778598619863,6.613983,-0.45972195,0.7428482,4.030947,-2.4382687,-6.4041586
770,1778598619873,7.137855,-0.8856615,0.21391493,3.4263432,-2.2837198,-6.6862254
771,1778598619883,7.578369,-1.794251,-0.36404565,0.70066243,-1.1621711,-7.4922624
772,1778598619893,7.578369,-1.794251,-0.36404565,0.70066243,-1.1621711,-7.4922624
773,1778598619903,5.9934597,-3.1358538,0.5711919,-2.6403122,1.7811303,-8.5408125
774,1778598619913,3.9899278,-3.483374,1.6386932,-2.6349673,2.453693,-8.465218
775,1778598619923,3.9899278,-3.483374,1.6386932,-1.1110111,2.6141977,-8.063574
776,1778598619933,3.0191395,-3.442213,1.5987518,1.6659822,1.5848899,-7.7457714
777,1778598619943,2.121892,-3.4341638,1.1345174,5.122716,-1.2134838,-7.412697
778,1778598619953,0.96969074,-3.4788613,0.3608747,5.122716,-1.2134838,-7.412697
779,1778598619963,-0.38282722,-3.31684,-0.58936363,5.1181345,-1.7276796,-6.805039
780,1778598619973,-0.778643,-3.217444,-0.59698606,2.5520422,-0.43188173,-4.5657597
781,1778598619983,-1.4134362,-3.1548183,-0.66546565,1.5525141,0.5653558,-3.5999815
782,1778598619993,-1.8146181,-3.3006194,-0.8251092,0.7469355,1.1149818,-2.5074492
783,1778598620003,-2.1125014,-3.3818438,-0.96841013,0.7469355,1.1149818,-2.5074492
784,1778598620013,-2.0779262,-3.3227549,-0.8474884,-0.7725918,-0.0346666,0.5180137
785,1778598620023,-1.9840791,-3.3637936,-0.7554099,-0.9753991,-0.33307427,1.0439687
786,1778598620033,-1.6601579,-3.3500125,-0.43947688,-0.9753991,-0.33307427,1.0439687
787,1778598620043,-1.4931359,-3.2872038,-0.31184745,-1.440573,-0.86422163,3.5450037
788,1778598620053,-1.4931359,-3.2872038,-0.31184745,-1.440573,-0.86422163,3.5450037
789,1778598620063,-1.4931359,-3.2872038,-0.31184745,-1.440573,-0.86422163,3.5450037
790,1778598620073,-1.4931359,-3.2872038,-0.31184745,-1.440573,-0.86422163,3.5450037
791,1778598620083,0.14885014,-2.5660644,-0.18635234,-0.5346598,-1.8090774,6.7463956
792,1778598620093,0.8339511,-2.2874506,-0.3310559,-0.33673948,-1.2851077,7.793877
793,1778598620103,1.3181257,-2.0189593,-0.50588316,-0.61315596,-0.8888089,7.852978
794,1778598620113,1.6760736,-1.7102216,-0.6600995,-1.276403,-0.4025602,7.7219477
795,1778598620123,1.6760736,-1.7102216,-0.6600995,-1.276403,-0.4025602,7.7219477
796,1778598620133,1.6760736,-1.7102216,-0.6600995,-1.276403,-0.4025602,7.7219477
797,1778598620143,1.6760736,-1.7102216,-0.6600995,-1.276403,-0.4025602,7.7219477
798,1778598620153,4.1420097,-0.620463,0.5153959,-1.9998201,-1.2928963,10.232604
799,1778598620163,5.6326456,0.10110346,0.6184507,-1.6814066,0.1684461,9.193675
800,1778598620173,5.6326456,0.10110346,0.6184507,-1.6814066,0.1684461,9.193675
801,1778598620183,5.6326456,0.10110346,0.6184507,-1.6814066,0.1684461,9.193675
802,1778598620193,5.6326456,0.10110346,0.6184507,-1.6814066,0.1684461,9.193675
803,1778598620203,5.6375847,1.7957146,0.78236276,-1.8952094,1.4953982,5.4898458
804,1778598620213,3.9367542,1.77675,0.71339524,-1.2803736,1.0876455,3.7496436
805,1778598620223,3.5966122,1.7937632,0.5933273,-1.1675162,1.4046847,3.111595
806,1778598620233,3.2472017,1.7815063,0.49301654,-1.1284208,1.621389,2.6229026
807,1778598620243,2.7977242,1.6933304,0.45252642,-1.0225884,1.6749926,2.065488
808,1778598620253,2.3209891,1.6150333,0.50771254,-0.66813385,1.4897476,1.6108516
809,1778598620263,2.3209891,1.6150333,0.50771254,-0.66813385,1.4897476,1.6108516
810,1778598620273,2.3209891,1.6150333,0.50771254,-0.66813385,1.4897476,1.6108516
811,1778598620283,2.0729258,1.5896659,0.5186888,-0.33505958,1.3645202,1.370018
812,1778598620293,0.9265175,1.5138688,0.06219875,1.9509509,0.80573124,-0.6281222
813,1778598620303,0.9265175,1.5138688,0.06219875,1.9509509,0.80573124,-0.6281222
814,1778598620313,0.66162395,1.475025,-0.13781293,2.2710443,0.7790059,-1.0749701
815,1778598620323,0.25531977,1.3351388,-0.71711504,2.095726,0.817185,-1.730734
816,1778598620333,0.25531977,1.3351388,-0.71711504,2.095726,0.817185,-1.730734
817,1778598620343,0.14098383,1.3006247,-0.77242315,1.0024298,0.7489208,-1.93797
818,1778598620353,0.09939604,1.2015336,-0.59765685,1.0024298,0.7489208,-1.93797
819,1778598620363,0.09939604,1.2015336,-0.59765685,0.81290895,0.7086037,-1.9573649
820,1778598620373,0.09939604,1.2015336,-0.59765685,0.81290895,0.7086037,-1.9573649
821,1778598620383,0.6656486,0.94109154,0.21818347,0.79412484,-0.5213735,-2.3793201
822,1778598620393,0.98969185,0.90243065,0.45142877,1.2437216,-1.1475104,-2.607631
823,1778598620403,1.548749,0.89127153,0.6111942,1.8480201,-1.7510452,-3.1187725
824,1778598620413,1.9767617,0.82754827,0.59381515,2.1094704,-1.8150333,-3.7530034
825,1778598620423,2.23635,0.7418116,0.56387436,2.107485,-1.6012305,-4.330118
826,1778598620433,2.5378919,0.45905116,0.8534644,2.0667098,-1.1366675,-5.270698
827,1778598620443,3.0138953,0.3448372,1.0926247,2.3597724,-1.1203269,-5.342322
828,1778598620453,3.0138953,0.3448372,1.0926247,2.9394836,-1.2458596,-5.234046
829,1778598620463,5.471966,0.21580528,1.2713547,3.859141,-1.6024523,-5.15219
830,1778598620473,6.7626505,0.11494574,0.49801686,3.1094568,-1.3219124,-6.9576025
831,1778598620483,7.067302,-0.28702894,-0.20592664,3.1094568,-1.3219124,-6.9576025
832,1778598620493,6.284513,-1.2198882,-0.38801044,0.419359,-0.4549419,-8.285929
833,1778598620503,4.6873465,-2.242021,0.65387964,-2.3886359,1.1870639,-8.493929
834,1778598620513,4.6873465,-2.242021,0.65387964,-2.4034493,1.5509869,-8.329147
835,1778598620523,4.11213,-2.470205,1.2478777,-2.4034493,1.5509869,-8.329147
836,1778598620533,2.3250747,-2.8690088,1.893708,2.1143572,0.6073528,-7.1174965
837,1778598620543,1.6827811,-2.918219,1.466366,2.1143572,0.6073528,-7.1174965
838,1778598620553,0.8718192,-2.898584,0.65052575,4.736344,-0.5627596,-5.6941805
839,1778598620563,0.485943,-2.9144993,0.09470064,4.820338,-0.7733554,-4.8988338
840,1778598620573,0.14744763,-2.8869977,-0.24623388,4.3148465,-0.7460192,-4.1754165
841,1778598620583,-0.29489526,-2.8430927,-0.44270876,3.339295,-0.45814893,-3.4205399
842,1778598620593,-0.29489526,-2.8430927,-0.44270876,3.339295,-0.45814893,-3.4205399
843,1778598620603,-0.70711446,-2.918463,-0.515152,2.1178699,0.07162395,-2.4443772
844,1778598620613,-1.5266744,-3.1037176,-0.63363457,1.1157454,0.150731,-0.60048056
845,1778598620623,-1.6779027,-3.0963392,-0.6211338,0.5737552,-0.27183503,0.39645153
846,1778598620633,-1.5355774,-3.1423175,-0.49582162,0.15577064,-0.54733527,1.4373659
847,1778598620643,-1.5355774,-3.1423175,-0.49582162,0.15577064,-0.54733527,1.4373659
848,1778598620653,-1.4817938,-3.059386,-0.41392657,-0.26099217,-0.7623598,2.9917126
849,1778598620663,-1.5536273,-2.9830399,-0.4911262,-0.3492622,-0.8950703,3.6155586
850,1778598620673,-0.9874967,-2.6691802,-0.506371,-0.7484626,-1.0195341,5.2015176
851,1778598620683,-0.49637043,-2.5141711,-0.53015286,-1.047023,-0.95249164,6.3053513
852,1778598620693,-0.49637043,-2.5141711,-0.53015286,-1.4424056,-0.75701475,7.253872
853,1778598620703,-0.3547768,-2.4718516,-0.52783567,-1.5517504,-0.7086037,7.447364
854,1778598620713,1.4908797,-1.7719936,-0.5778386,-3.2096386,-0.12705997,8.217512
855,1778598620723,1.8639503,-1.6658288,-0.5588741,-3.6903896,-0.27198774,8.08419
856,1778598620733,2.2440944,-1.6308879,-0.42587852,-4.0278926,-0.8208502,8.07457
857,1778598620743,2.2440944,-1.6308879,-0.42587852,-4.0278926,-0.8208502,8.07457
858,1778598620753,2.2440944,-1.6308879,-0.42587852,-4.0278926,-0.8208502,8.07457
859,1778598620763,2.2440944,-1.6308879,-0.42587852,-4.0278926,-0.8208502,8.07457
860,1778598620773,5.8169246,-0.23647723,1.3636771,-1.9205604,-0.34116822,10.517878
861,1778598620783,6.875096,0.5612523,1.2831236,-1.0566442,0.47219884,9.609827
862,1778598620793,7.0626073,1.2174491,1.0030463,-0.472657,0.9419542,8.01501
863,1778598620803,7.0626073,1.2174491,1.0030463,-0.472657,0.9419542,8.01501
864,1778598620813,7.0626073,1.2174491,1.0030463,-0.472657,0.9419542,8.01501
865,1778598620823,7.0626073,1.2174491,1.0030463,-0.472657,0.9419542,8.01501
866,1778598620833,4.7141166,1.973042,0.2543441,0.30176744,1.3941472,2.1826215
867,1778598620843,4.4101963,2.113111,-0.0013415418,0.30176744,1.3941472,2.1826215
868,1778598620853,3.9685853,2.1606748,-0.28123593,-0.001985312,1.5314392,1.3788756
869,1778598620863,3.9685853,2.1606748,-0.28123593,-0.001985312,1.5314392,1.3788756
870,1778598620873,2.5616739,2.040668,-0.3372148,-1.255328,1.6960673,-0.67271537
871,1778598620883,2.5616739,2.040668,-0.3372148,-1.255328,1.6960673,-0.67271537
872,1778598620893,1.6080817,1.9824938,-0.0834195,-1.1910346,1.3578007,-1.7756325
873,1778598620903,0.94103056,1.8948058,-0.008110229,-1.1910346,1.3578007,-1.7756325
874,1778598620913,0.27074748,1.6664996,0.13561767,-0.20448714,0.4195117,-3.1442761
875,1778598620923,0.035550855,1.5727137,0.21970794,0.047036625,0.35369098,-3.328452
876,1778598620933,-0.15287478,1.4617317,0.31325,0.3904956,0.38988474,-3.441462
877,1778598620943,-0.1683025,1.3856906,0.34617874,0.6246097,0.3998113,-3.4938438
878,1778598620953,-0.07896802,1.2446458,0.41850004,1.0810788,0.25228736,-3.6468656
879,1778598620963,0.08110229,1.1105527,0.5284454,1.7741054,-0.09285152,-3.965279
880,1778598620973,0.08110229,1.1105527,0.5284454,1.7741054,-0.09285152,-3.965279
881,1778598620983,0.08110229,1.1105527,0.5284454,1.7741054,-0.09285152,-3.965279
882,1778598620993,1.1003691,0.7702888,0.23147692,2.8577802,0.20754147,-5.104848
883,1778598621003,1.4136801,0.74260426,0.10677453,2.8577802,0.20754147,-5.104848
884,1778598621013,1.9028549,0.784558,0.103359684,2.5402832,0.5749769,-5.3432384
885,1778598621023,2.1965916,0.8383416,0.19190145,1.8852829,0.9309586,-6.0791783
886,1778598621033,2.1965916,0.8383416,0.19190145,1.8852829,0.9309586,-6.0791783
887,1778598621043,2.9519405,0.78968024,0.58411944,2.1534526,-0.06994407,-6.4062967
888,1778598621053,3.3736117,0.74979985,0.70089453,2.5662448,-0.47235155,-6.296646
889,1778598621063,4.77973,0.51722527,0.40837747,3.2238414,-0.7142542,-5.948911
890,1778598621073,5.277991,0.32440916,-0.18165694,3.0169108,-0.6104071,-5.8980565
891,1778598621083,5.740152,0.06744295,-0.92529786,1.8975002,-0.56398135,-6.0080123
892,1778598621093,5.818693,-0.418622,-1.1388469,0.21105394,-0.5458081,-6.284276
893,1778598621103,5.516602,-0.85456204,-1.0848193,-1.7090483,-0.2751948,-6.5544314
894,1778598621113,4.4033666,-1.6763173,-0.1999507,-3.5979962,0.43417248,-6.6205573
895,1778598621123,3.5326452,-2.1378686,0.6916867,-3.7974439,1.1218541,-6.3248987
896,1778598621133,2.440813,-2.3879442,1.5327114,-2.4964535,1.4162911,-5.864154
897,1778598621143,1.5174056,-2.563625,1.5646034,0.12721269,1.1728612,-5.1100407
898,1778598621153,1.065489,-2.6822906,1.2964171,1.6786577,0.7098254,-4.6102
899,1778598621163,0.31953084,-2.8178473,0.45051408,3.8040106,-0.29168814,-3.522249
900,1778598621173,-0.1642169,-2.7677224,-0.14848427,4.220773,-0.5865834,-2.5447118
901,1778598621183,-0.48569906,-2.704426,-0.45850238,3.9057198,-0.3555236,-1.7805195
902,1778598621193,-0.75595874,-2.690279,-0.7531537,2.6245825,0.3199407,-0.20341812
903,1778598621203,-1.2852579,-2.833275,-1.1038449,1.5152513,0.36850446,0.9111055
904,1778598621213,-1.2852579,-2.833275,-1.1038449,1.5152513,0.36850446,0.9111055
905,1778598621223,-1.2852579,-2.833275,-1.1038449,0.3726278,0.21670444,2.0949624
906,1778598621233,-1.2852579,-2.833275,-1.1038449,0.3726278,0.21670444,2.0949624
907,1778598621243,-1.188423,-2.7452822,-0.44947743,-1.1620184,-0.13271047,4.990922
908,1778598621253,-0.749251,-2.5399044,-0.32233587,-1.174083,-0.5545129,6.1352253
909,1778598621263,-0.32447016,-2.3515396,-0.31361586,-1.1134546,-0.8593347,6.861086
910,1778598621273,0.07110171,-2.160492,-0.3445933,-1.1592696,-1.0151054,7.3532906
911,1778598621283,0.49679726,-2.0061536,-0.41581696,-1.336115,-0.9877691,7.5820594
912,1778598621293,0.64869636,-1.8947446,-0.46392953,-1.5897768,-0.9098838,7.706218
913,1778598621303,0.9043211,-1.7149171,-0.49283364,-2.3052528,-0.7979427,7.9924083
914,1778598621313,1.1947647,-1.580824,-0.41990253,-2.9674306,-0.77595156,8.302423
915,1778598621323,1.5773481,-1.4497187,-0.2476364,-3.3673947,-0.81092364,8.665887
916,1778598621333,2.4278245,-1.2268398,-0.021586625,-3.5694385,-0.95203346,9.024923
917,1778598621343,2.9406593,-1.0789654,0.12793429,-3.5688274,-1.0606148,9.059589
918,1778598621353,3.998587,-0.5517395,0.93072504,-2.8761063,-1.4514158,9.260106
919,1778598621363,5.102066,0.09610317,1.2925144,-1.7876972,-1.4650075,9.392969
920,1778598621373,6.430741,1.273611,0.73870164,-0.5204572,-0.050701816,7.229743
921,1778598621383,6.430741,1.273611,0.73870164,-0.5204572,-0.050701816,7.229743
922,1778598621393,6.0995026,1.604057,0.61534077,-0.7104363,0.74174315,5.797722
923,1778598621403,4.436478,1.4389864,0.6543065,-1.2964088,2.2820399,3.4694092
924,1778598621413,4.436478,1.4389864,0.6543065,-1.2964088,2.2820399,3.4694092
925,1778598621423,3.4967895,1.238121,0.62009716,-0.82909685,2.022575,2.6708555
926,1778598621433,3.4967895,1.238121,0.62009716,-0.82909685,2.022575,2.6708555
927,1778598621443,3.4967895,1.238121,0.62009716,-0.82909685,2.022575,2.6708555
928,1778598621453,3.4967895,1.238121,0.62009716,-0.82909685,2.022575,2.6708555
929,1778598621463,2.6559477,1.1992164,0.74370193,0.38240165,0.79809546,1.5482379
930,1778598621473,2.1240265,1.273367,0.41539007,1.4702,0.59040123,0.97600996
931,1778598621483,1.4617317,1.6546087,-0.36928985,1.6756034,0.79611015,0.57650405
932,1778598621493,1.4617317,1.6546087,-0.36928985,1.6756034,0.79611015,0.57650405
933,1778598621503,1.4617317,1.6546087,-0.36928985,1.6756034,0.79611015,0.57650405
934,1778598621513,1.4617317,1.6546087,-0.36928985,1.6756034,0.79611015,0.57650405
935,1778598621523,0.3905106,2.1412225,-0.22909874,1.5280794,1.0106765,0.19043724
936,1778598621533,0.28026026,2.2096412,-0.112140685,0.38881573,0.5687156,-1.5263995
937,1778598621543,0.500761,2.3026953,0.06043036,0.7304421,-0.06811147,-1.9228511
938,1778598621553,0.500761,2.3026953,0.06043036,0.7304421,-0.06811147,-1.9228511
939,1778598621563,0.500761,2.3026953,0.06043036,0.7304421,-0.06811147,-1.9228511
940,1778598621573,0.500761,2.3026953,0.06043036,0.7304421,-0.06811147,-1.9228511
941,1778598621583,0.500761,2.3026953,0.06043036,0.7304421,-0.06811147,-1.9228511
942,1778598621593,0.500761,2.3026953,0.06043036,0.7304421,-0.06811147,-1.9228511
943,1778598621603,1.3723972,2.0628643,0.48777235,0.8688031,0.026725354,-3.4907894
944,1778598621613,2.3113544,0.9313958,1.0028024,3.136335,-0.6979135,-6.107431
945,1778598621623,3.9698048,0.5938761,1.0874416,3.657403,-1.156826,-6.6220846
946,1778598621633,4.8649178,0.21342708,0.9456039,4.0132318,-1.4158329,-7.4140716
947,1778598621643,5.4400125,-0.304408,0.6721733,3.9280162,-1.2512047,-7.9388046
948,1778598621653,5.8558297,-1.1556772,0.23897736,3.3872478,-0.708451,-8.332355
949,1778598621663,5.8669276,-1.4686223,0.04408794,2.866638,-0.34437528,-8.384736
950,1778598621673,5.381229,-1.9502968,-0.4358181,1.0754282,-0.06963864,-8.070599
951,1778598621683,5.1381655,-2.238728,-0.23440392,-0.27672195,-0.16554448,-7.7925024
952,1778598621693,5.1381655,-2.238728,-0.23440392,-0.27672195,-0.16554448,-7.7925024
953,1778598621703,5.1381655,-2.238728,-0.23440392,-0.27672195,-0.16554448,-7.7925024
954,1778598621713,4.8054633,-2.5047803,-0.045917314,-0.89766645,0.0711658,-7.6811724
955,1778598621723,3.3503785,-2.9217558,0.8135231,1.7756325,-0.07880162,-5.898362
956,1778598621733,0.8265117,-2.9746249,0.4399647,1.7756325,-0.07880162,-5.898362
957,1778598621743,0.8265117,-2.9746249,0.4399647,2.8495336,-0.9550878,-4.6999974
958,1778598621753,-0.44100136,-2.8262017,-0.07012604,2.8344147,-1.0125091,-3.9290853
959,1778598621763,-0.44100136,-2.8262017,-0.07012604,2.8344147,-1.0125091,-3.9290853
960,1778598621773,-1.2985513,-2.6645458,-0.45350206,1.9848539,-0.50762904,-1.5632042
961,1778598621783,-1.2985513,-2.6645458,-0.45350206,1.9848539,-0.50762904,-1.5632042
962,1778598621793,-1.6640605,-2.7091215,-0.72467643,0.47769663,-0.4552473,1.3399329
963,1778598621803,-1.6994286,-2.6951573,-0.70766324,0.12095132,-0.44058657,2.0066924
964,1778598621813,-1.6374127,-2.6946695,-0.5213719,-0.84772825,-0.13942999,4.0521746
965,1778598621823,-1.3145889,-2.6218603,-0.32947046,-1.3768903,0.18661933,5.8125353
966,1778598621833,-1.3145889,-2.6218603,-0.32947046,-1.3768903,0.18661933,5.8125353
967,1778598621843,-1.0249988,-2.5573444,-0.22940363,-1.6059648,0.044593163,7.762112
968,1778598621853,-0.33965397,-2.368187,-0.14592315,-1.6059648,0.044593163,7.762112
969,1778598621863,0.23629428,-2.1357954,-0.21562232,-1.5940529,-0.013591751,7.885965
970,1778598621873,0.570826,-1.9922504,-0.31684774,-1.5690074,-0.65102965,8.435591
971,1778598621883,0.8024858,-1.8463882,-0.4195977,-1.7661642,-0.80970186,8.417876
972,1778598621893,0.97652036,-1.7199174,-0.4297812,-2.3015876,-0.93279123,8.391762
973,1778598621903,1.235438,-1.7133926,-0.36038688,-2.7437012,-0.8402451,8.459567
974,1778598621913,1.5376507,-1.6669874,-0.2911755,-3.7061195,-0.2921463,8.49286
975,1778598621923,1.8488274,-1.5795434,-0.21556135,-3.970166,-0.3313944,8.661305
976,1778598621933,3.2042115,-1.554298,0.18220575,-3.970166,-0.3313944,8.661305
977,1778598621943,3.2042115,-1.554298,0.18220575,-3.994906,-0.75686204,9.054398
978,1778598621953,5.4507446,-0.6320491,1.0642084,-3.0030136,-1.6907222,8.876178
979,1778598621963,6.4359856,0.18757193,1.2555001,-2.182316,-1.3055718,7.546171
980,1778598621973,6.323113,0.72376174,1.2039727,-1.8102992,-0.47678033,6.116288
981,1778598621983,5.8291817,1.021889,1.0457318,-1.8090774,0.5881105,4.928919
982,1778598621993,5.8291817,1.021889,1.0457318,-1.8090774,0.5881105,4.928919
983,1778598622003,5.131458,1.3709337,1.053964,-2.0589213,1.8214475,3.1311426
984,1778598622013,4.5630713,1.466549,1.1026253,-1.7611245,1.7805195,2.3185391
985,1778598622023,4.5630713,1.466549,1.1026253,-1.7611245,1.7805195,2.3185391
986,1778598622033,3.5672812,1.5957638,0.9209684,-0.7115053,1.3322971,1.0705414
987,1778598622043,3.2479334,1.6780248,0.8773073,-0.7115053,1.3322971,1.0705414
988,1778598622053,2.8017488,1.7688836,0.74351895,0.49464813,0.6568329,-0.27580565
989,1778598622063,2.113355,1.7802258,0.45240447,0.8126035,0.5881105,-0.91324353
990,1778598622073,2.113355,1.7802258,0.45240447,0.81153446,0.7863363,-1.4181237
991,1778598622083,1.255622,1.6525356,0.119397216,0.7115053,0.91721416,-1.6481144
992,1778598622093,0.90541863,1.5842998,0.036282603,0.54046303,1.0474812,-1.9005545
993,1778598622103,0.49039447,1.42551,0.10183521,0.35185838,1.1421653,-2.2262983
994,1778598622113,0.23568448,1.331663,0.19104773,0.3735441,1.148274,-2.3962717
995,1778598622123,-0.022135438,1.2491583,0.33422682,0.63300914,1.1252137,-2.5265386
996,1778598622133,-0.022135438,1.2491583,0.33422682,0.63300914,1.1252137,-2.5265386
997,1778598622143,-0.022135438,1.2491583,0.33422682,0.63300914,1.1252137,-2.5265386
998,1778598622153,-0.022135438,1.2491583,0.33422682,0.63300914,1.1252137,-2.5265386
999,1778598622163,-0.072321296,0.8047421,0.4522215,2.7488935,0.11148291,-2.9249754
1000,1778598622173,-0.072321296,0.8047421,0.4522215,3.4159584,0.12522738,-3.0553951
