id,timestamp,acc_x,acc_y,acc_z,gyro_x,gyro_y,gyro_z
0,1778597920173,1.0022537,-1.7762622,-0.6082672,1.8495473,1.9773707,-3.8774672
1,1778597920223,0.4846624,-0.9475553,-0.17141244,0.5148067,0.37782016,-1.2392929
2,1778597920273,-0.13110521,-0.17891288,-0.024757542,-0.12583824,0.6452264,-0.97035944
3,1778597920323,-0.08524887,0.005732042,0.007073583,0.20433442,0.6258314,-0.63056564
4,1778597920373,-0.16031423,0.016464375,0.0023172083,0.5207626,0.52656585,-0.5694791
5,1778597920423,-0.53015286,0.024513626,0.03506302,1.071763,-0.27198774,0.08689558
6,1778597920473,-0.29288295,-0.06561358,-0.10183521,1.1534663,-1.691944,2.6268733
7,1778597920523,-0.3272142,-0.3506912,-0.2821506,-0.3642284,-0.73456544,2.8212812
8,1778597920573,-0.1598264,-8.323717,1.3533107,0.6612616,-11.566428,4.614476
9,1778597920623,0.8465737,-1.4454502,-1.3828245,2.3005185,9.480934,-4.5086436
10,1778597920673,0.0015854583,-0.27586976,0.022135438,-3.1760411,10.140669,-3.1193833
11,1778597920723,-0.038294915,0.20976834,0.3139817,-2.790127,3.2942436,-0.89904094
12,1778597920773,0.21580528,0.2924561,0.39496207,-1.5911512,-7.283652,1.890017
13,1778597920823,0.3978281,0.29580995,0.17696154,0.46318856,-7.4974546,2.794403
14,1778597920873,0.11775078,0.21714681,-0.24495333,1.1965322,-2.4005477,2.05266
15,1778597920923,0.09884723,0.11988505,0.005061271,-0.8174904,5.2578697,1.0493138
16,1778597920973,0.078663126,-0.031892106,-0.18427904,-0.8407033,3.7389534,0.11453723
17,1778597921023,0.6486354,-2.1018298,1.0963445,0.22922719,10.530248,-4.23238
18,1778597921073,1.1319562,-4.7313128,-3.7425356,5.115691,-11.8466625,2.6177104
19,1778597921123,0.4230125,-2.3256845,-0.9084677,1.183246,-0.47616947,1.8145752
20,1778597921173,0.11921428,-1.0468293,-0.327824,3.998724,-2.2902865,-1.9453003
21,1778597921223,-0.034514207,-0.21922012,-0.15970443,1.740966,-0.62125,-1.1772901
22,1778597921273,-0.054393414,0.015732625,0.03603869,0.39568797,-2.705675,-0.93492925
23,1778597921323,-0.05049075,0.025489293,0.03152623,0.786489,-1.5490016,-1.201572
24,1778597921373,-0.3477642,-0.0039026667,0.08787098,0.9622655,-0.40026945,-1.1220068
25,1778597921423,-0.72540814,0.045124583,0.0006707709,0.6960809,-2.0627391,1.5183055
26,1778597921473,-0.049454104,-0.05847902,-0.023964813,-0.6247624,-0.13912456,1.3541355
27,1778597921523,-0.23519666,-0.55625194,-0.76431286,-1.698358,-0.12599096,1.6334536
28,1778597921573,-0.810718,-9.068943,2.411482,3.7030652,1.9637791,4.0188823
29,1778597921623,-0.077260606,-0.9317616,-0.089517415,-1.6013832,6.8526864,-3.1009047
30,1778597921673,0.009146876,-0.005488125,0.13000758,-2.649017,4.3180537,-1.637577
31,1778597921723,-0.06097917,0.096347086,0.112445585,-2.3745859,2.1546745,-0.69226307
32,1778597921773,-0.041587792,0.20921952,0.3047129,-0.9622655,-2.2536347,0.8970556
33,1778597921823,0.042197585,0.21879324,0.25184396,-0.40286562,-5.0637674,2.3324363
34,1778597921873,0.09043211,0.09537142,0.1276294,1.1268936,-5.806274,2.9029844
35,1778597921923,0.1261659,0.13884957,-0.060186442,2.4901922,-3.4072535,1.6832392
36,1778597921973,0.40953606,-0.32331154,0.6939429,-4.533384,10.5982065,0.6453791
37,1778597922023,1.6253387,-5.3508,1.4238636,7.1824007,0.85047716,-0.61682117
38,1778597922073,0.061162103,-2.985967,-1.5311259,3.7334557,-13.385737,2.8136454
39,1778597922123,-0.02872119,-0.5889368,0.16897328,2.8852692,-3.1079297,4.104251
40,1778597922173,0.0048783333,-0.07091877,-0.1923283,3.0963233,-0.0015271631,3.3282993
41,1778597922223,0.122751065,0.16055815,-0.12384869,0.559858,0.47510046,-0.07971791
42,1778597922273,-0.07549221,0.3146525,-0.028294332,-0.8729264,0.052381694,-3.1453452
43,1778597922323,-0.32306764,0.52124995,-0.00798827,-2.9573514,-0.14813483,-3.5724926
44,1778597922373,-0.40234053,0.26166162,0.17860797,-4.012621,-0.4266894,-3.3221905
45,1778597922423,-0.7221153,-0.1829375,-0.0023172083,-1.1869112,1.4773777,0.054367006
46,1778597922473,-1.6468644,-1.4919773,-1.9784081,-1.1016954,0.40515637,3.2096386
47,1778597922523,-0.47271052,-5.763751,-4.209331,5.81559,-7.228063,-0.9801333
48,1778597922573,0.30892047,-1.7036359,0.11098208,4.1444154,9.992534,-0.24419338
49,1778597922623,0.23141594,-0.5318603,0.0017683958,2.7230844,4.4602327,-1.9113973
50,1778597922673,0.05116152,0.0248795,-0.0453685,0.968985,0.36270124,-1.8064812
51,1778597922723,0.083175585,0.20251182,-0.040917024,-0.7415904,-0.7076874,-0.33383787
52,1778597922773,0.25306356,0.18659624,0.1437279,-1.6963727,-1.5969545,1.5465581
53,1778597922823,0.35983807,0.14738666,0.15988737,-1.0607675,-1.8742872,1.0942124
54,1778597922873,0.14982581,0.11543357,0.026586918,-0.18096884,-1.2881621,0.08933904
55,1778597922923,0.14903308,-0.19738956,0.193182,-5.197547,7.5629697,-0.3481932
56,1778597922973,0.040673107,-1.5529565,1.2238518,5.8841596,6.817714,-1.7542523
57,1778597923023,1.2862946,-5.2013397,0.81724274,7.2918983,-7.703316,1.2687671
58,1778597923073,0.08945644,-2.0763407,-0.49332145,2.035403,-1.781894,3.1661146
59,1778597923123,-0.009878625,-0.14391084,0.017013188,2.4793494,0.53969944,2.9735394
60,1778597923173,0.030550564,0.1700709,-0.31977475,-0.5505423,-3.1143436,2.1949916
61,1778597923223,-0.14555727,0.55716664,0.05719846,-0.6033822,-2.2731824,-0.54428095
62,1778597923273,-0.033233646,0.23464784,0.028660208,0.3849978,1.5296066,-2.535549
63,1778597923323,-0.13750802,0.14683785,-0.11506769,0.93279123,2.9533808,-3.5888333
64,1778597923373,-0.40825552,0.114701815,-0.028660208,0.75823647,0.926988,-2.3202188
65,1778597923423,-0.30270058,-0.13037346,-0.056771606,-0.2576324,-1.696831,-0.2875648
66,1778597923473,-4.688444,-4.7704005,1.533748,-10.010249,-5.9684587,5.775578
67,1778597923523,0.77406955,-4.2616515,-6.392629,6.8872004,-6.1720295,-2.0836613
68,1778597923573,0.30044436,-1.1017716,-0.03292875,3.8299723,11.441354,-2.8139508
69,1778597923623,0.004573438,-0.2004995,-0.181474,0.35979962,2.510656,-1.8387043
70,1778597923673,-0.023781875,0.06366225,0.018171793,-0.7270824,0.70707655,-1.0882565
71,1778597923723,-0.022440333,0.15385045,0.026830835,-1.461495,0.023518313,-0.5163339
72,1778597923773,-0.033538543,0.13665432,0.31690875,-1.9425515,-1.7913623,0.7603745
73,1778597923823,0.15921661,0.1885476,0.1656804,-0.25152376,-3.3221905,1.6032158
74,1778597923873,0.1764737,0.16848545,0.10714039,0.18127427,-2.6939158,1.1543826
75,1778597923923,0.18202282,-0.22989148,-0.41374367,-0.4372268,2.5938866,-0.13255776
76,1778597923973,0.50478554,-5.5113583,-7.5495257,-13.074655,2.362216,-2.0182989
77,1778597924023,0.9828012,-5.4194016,-0.010061563,6.7389126,-6.386138,1.2990049
78,1778597924073,0.30660325,-1.5713723,-0.72540814,0.8605564,-4.5669813,3.4724634
79,1778597924123,0.03731925,-0.15281379,0.028294332,2.7032313,-1.108415,0.36972618
80,1778597924173,-0.02695279,0.069028415,-0.25672227,-0.06169739,-2.1774292,-0.084910266
81,1778597924223,-0.022989146,0.048600398,0.042746395,-0.047036625,-2.0981693,-0.17684549
82,1778597924273,-0.025184397,0.15409435,-0.04677102,-0.3587306,-0.75640386,-1.8188512
83,1778597924323,-0.7461411,0.2494048,-0.09463967,-2.1238258,0.8194757,-2.440712
84,1778597924373,-0.7233959,0.13592257,0.48490632,-1.725847,1.5577064,-1.0894781
85,1778597924423,-0.37953433,-0.14982581,0.09085896,-0.6959282,-0.6096435,0.5358815
86,1778597924473,-0.831085,-4.8427215,-5.7943625,-3.94115,-3.6268597,3.452916
87,1778597924523,0.15263085,-4.229881,0.024513626,3.6187658,10.147082,-2.2912028
88,1778597924573,0.19885308,-0.85815984,-0.16171674,3.9897137,11.081706,-3.2432363
89,1778597924623,-0.029696856,-0.087017275,0.016586334,0.016187929,0.9440922,-2.3813055
90,1778597924673,-0.011768979,0.04268542,-0.0009146876,-0.26160303,0.8211556,-1.8614591
91,1778597924723,-0.049515083,0.10689648,0.030062728,-0.8347474,0.33017266,-1.2513574
92,1778597924773,-0.13122717,0.17665665,0.21598822,-1.0645854,-0.8709411,-0.38652498
93,1778597924823,-0.023294043,0.13445906,0.07482144,-0.6478226,-2.27868,0.7779369
94,1778597924873,0.010366458,0.031221334,0.034514207,-0.55741453,-2.2266037,0.9447031
95,1778597924923,0.05232013,-0.106957465,0.012256813,-2.3047945,-1.4989105,0.31413746
96,1778597924973,0.7866922,-1.8113251,1.156043,1.6059648,15.861574,-2.1891882
97,1778597925023,1.8902322,-6.124382,0.87559986,3.3197472,-4.953964,2.819143
98,1778597925073,0.17909582,-0.9609707,-1.0124371,4.3930373,-9.414197,-0.77213365
99,1778597925123,-0.05067369,0.11457986,-1.343737,2.5059218,-1.8252654,-1.3889549
100,1778597925173,-0.023416,0.006097917,0.015000875,-0.7698429,-1.4318681,-1.2350168
101,1778597925223,-0.05366167,0.00060979166,0.019147458,-0.6751588,-0.07422013,-1.3953689
102,1778597925273,-1.9548093,0.0962861,0.3770952,0.14278975,-1.0082331,1.3330606
103,1778597925323,-0.42923236,-0.014452063,0.0048783333,1.4598153,-6.2922173,3.8014145
104,1778597925373,0.14506944,-0.027501604,0.14964288,0.98715824,-3.7954586,3.0271428
105,1778597925423,-0.035428897,-2.491365,-5.2442083,-2.1853704,5.3070445,2.1696405
106,1778597925473,0.025855167,-6.930831,-0.18135203,7.297702,13.632527,0.41523564
107,1778597925523,0.36221626,-1.6860131,0.17903483,-1.2257011,1.7615826,-2.2408063
108,1778597925573,0.18659624,-0.2112928,0.050002918,-1.4669929,-1.8353447,-1.9486601
109,1778597925623,-0.0006707709,0.10732334,-0.079089984,-1.3100005,1.3190107,-0.86559606
110,1778597925673,0.02262327,0.10116444,0.08250481,-1.749518,0.9434814,0.41034874
111,1778597925723,0.18421806,0.11604336,0.29544407,-0.70005155,-1.619251,1.9113973
112,1778597925773,0.21659799,0.16238752,0.2494048,1.2713633,-3.7885861,2.3768766
113,1778597925823,0.19769447,0.15391143,0.08994427,3.1435125,-2.3619106,1.7160732
114,1778597925873,-0.059759583,0.039209604,-0.67479545,3.440393,-0.008552114,1.284955
115,1778597925923,0.63302475,-3.3535492,-4.590451,-8.248972,13.568386,-3.5876117
116,1778597925973,1.1700683,-2.8468735,1.6555235,6.400188,-6.0623794,-0.24098633
117,1778597926023,1.1675682,-3.9037642,0.5116152,4.4629817,-3.1772628,1.074512
118,1778597926073,-0.13378829,-0.9093824,0.1425693,1.3139712,-0.67347896,2.3141103
119,1778597926123,-0.047380816,-0.03957548,-0.34575188,1.4413365,0.36636642,3.2759175
120,1778597926173,0.12860507,0.18086421,-0.03433127,0.22556199,-3.3987014,2.2304218
121,1778597926223,-0.19226731,0.27105242,-0.02695279,0.6195701,-1.8988746,-4.2216897
122,1778597926273,-1.2103755,0.12549512,-0.14891112,0.67256266,1.2722796,-2.7895162
123,1778597926323,-0.7003457,0.27788207,-0.25922245,0.4615087,1.2114985,0.49037206
124,1778597926373,-0.368863,-0.033172667,-0.1750712,-0.6096435,0.52534413,0.8388707
125,1778597926423,2.877485,-4.2981167,-3.3180592,-5.3882895,-5.0373473,-2.7394252
126,1778597926473,0.16775368,-5.7911305,0.6651608,6.592763,-7.9282675,2.3480134
127,1778597926523,0.38733968,-1.4203877,-0.15537491,0.55741453,9.600663,-4.4602327
128,1778597926573,0.0866514,-0.10323773,-0.10683551,-0.03604105,6.371172,-3.4952183
129,1778597926623,-0.06506477,0.08976133,0.03305071,-1.1983649,2.308307,-2.3958135
130,1778597926673,-0.1267147,0.21330512,0.083053626,-1.8681786,-0.05589417,-1.2244794
131,1778597926723,-0.06421106,0.22062263,0.26830834,-1.0626001,-4.261396,0.57558775
132,1778597926773,0.07110171,0.36630186,0.29660267,1.1142182,-6.771594,1.5476271
133,1778597926823,0.037746105,0.23696505,-0.0037807084,2.944523,-3.2415564,0.4485278
134,1778597926873,0.023233064,-3.6064909,-6.568066,-2.7311785,5.9499803,-2.0766363
135,1778597926923,1.6464986,-2.8265064,1.1722635,-9.183443,-5.524207,-6.026491
136,1778597926973,0.06384519,-1.4350227,0.2860533,8.709869,-4.186565,7.382459
137,1778597927023,1.5932027,-2.5619788,-0.10488417,5.755267,-5.9521184,2.6048822
138,1778597927073,0.16909523,-0.7827895,-0.0026221042,0.02275473,-1.6933185,-0.7078401
139,1778597927123,-0.18366925,-0.11281146,0.021220751,-0.28527406,0.48808134,-0.09972375
140,1778597927173,-0.16189969,-0.03378246,-0.006829667,-0.13118331,0.9954049,0.5083926
141,1778597927223,-0.12214127,0.0018903542,-0.058052167,0.06261369,1.3223705,0.47403142
142,1778597927273,-1.2933682,0.21611017,-0.43837923,0.062308256,1.89918,-0.64904433
143,1778597927323,-0.5342385,0.020793896,-0.34264195,-1.7299703,-1.100321,0.77366084
144,1778597927373,-0.518018,-0.2821506,-0.474235,-2.6392434,-1.1113166,2.1135938
145,1778597927423,-1.3772146,-6.7600284,0.8838321,9.982149,-9.973444,1.4969252
146,1778597927473,0.35166687,-2.3966033,-0.25044146,3.3096678,13.7113285,-2.4766004
147,1778597927523,0.06945527,-0.5302139,-0.0866514,0.98639464,2.944523,-2.502104
148,1778597927573,-0.0078053335,0.04268542,-0.0071955416,-0.7270824,0.1253801,-1.5777122
149,1778597927623,-0.018781584,0.22251299,0.15616766,-1.977829,0.0,-0.15485434
150,1778597927673,0.029026084,0.18373023,0.27647954,-1.7704402,-1.5508342,1.5948164
151,1778597927723,0.14354497,0.22025676,0.2045851,-0.27183503,-2.0738876,2.1913264
152,1778597927773,0.30245668,0.190255,0.12567806,1.3347405,-1.6247488,1.9022343
153,1778597927823,0.26775953,0.11177482,0.027806502,1.9306396,-0.559858,0.6488916
154,1778597927873,0.054942228,-2.3877614,-3.3927588,-10.400439,18.378645,-2.6972754
155,1778597927923,0.7680936,-2.941452,0.90371126,9.671677,-2.129629,-1.7548631
156,1778597927973,0.21068303,-2.438618,0.7276644,0.8883508,-2.3840544,1.3129021
157,1778597928023,-0.20178007,-0.4228905,0.16763173,1.1861476,2.9898798,3.0311134
158,1778597928073,0.14817938,-0.010671355,-0.6726002,0.9818132,3.4153476,3.477045
159,1778597928123,0.24281906,0.18604743,-0.15171617,-0.91324353,-5.3221636,-2.4054346
160,1778597928173,-0.49801686,0.24958774,0.10177423,-0.03924809,-3.9480221,-4.499939
161,1778597928223,-0.9582876,0.34636167,-0.29385862,1.450805,1.6859881,-1.3109168
162,1778597928273,-0.36874104,-0.00079272914,-0.25446606,0.047494773,1.3918564,0.44303003
163,1778597928323,0.04049017,-0.99487513,-1.1259804,-1.3988814,1.542282,1.0267117
164,1778597928373,-4.173536,-3.8416266,0.50948095,-9.668164,-10.522918,1.0302242
165,1778597928423,0.91535825,-3.3408659,-1.3914835,2.6691756,12.214403,-4.10532
166,1778597928473,0.12580003,-0.73034745,-0.44179407,2.0190623,7.061908,-4.108985
167,1778597928523,-0.017562,0.054759294,-0.018659625,-1.2478449,0.9604329,-2.4236078
168,1778597928573,-0.026586918,0.14610608,0.052746978,-2.2165246,-0.515723,-1.184315
169,1778597928623,-0.0060369377,0.17958365,0.275199,-2.2821925,-2.288912,0.8399397
170,1778597928673,0.13019052,0.19592606,0.2403189,-0.7360926,-2.7377453,1.8081611
171,1778597928723,0.22007383,0.25214887,0.13330047,0.95417154,-3.2097914,1.4182764
172,1778597928773,0.06860156,0.20903657,0.049027253,1.9489655,-2.9064968,0.16081028
173,1778597928823,-0.39819396,-1.7572976,-4.2329907,0.34269542,0.6053675,-1.0161743
174,1778597928873,0.27306473,-1.9337715,-4.6319776,-8.897863,11.382558,-3.0934217
175,1778597928923,3.1816492,-7.6014805,0.705468,8.06785,-4.4539714,5.2681017
176,1778597928973,-0.117811754,-0.53911686,-0.3715461,1.8431332,-9.842108,1.982105
177,1778597929023,-0.022440333,0.030245667,0.0951275,3.10289,-3.2549953,0.6062838
178,1778597929073,-0.046527103,-0.0062808543,-0.008476105,3.3417382,-0.6779077,-0.8709411
179,1778597929123,-0.3855713,0.29202923,-0.110067405,1.7741054,-0.58261275,-2.2979224
180,1778597929173,-0.4788694,0.2889193,-0.1343371,-1.0586295,0.97387195,-0.8724683
181,1778597929223,-0.18592548,0.17757133,-0.017988855,-2.6267207,0.6030767,-0.5981898
182,1778597929273,-0.272272,-0.15860681,0.038416874,-4.7251954,-1.3704761,0.13316862
183,1778597929323,-2.227569,-3.2906187,-0.52893335,-4.094324,3.4831536,3.3701437
184,1778597929373,0.45069703,-8.841492,-1.1876912,2.3070853,10.280404,-2.3037255
185,1778597929423,0.18751094,-0.8077301,-0.9684711,3.3562465,9.271407,-4.6234865
186,1778597929473,-0.024757542,-0.020184105,0.015793605,-1.4859297,2.3817637,-1.9233092
187,1778597929523,0.00512225,0.2842849,0.06793079,-2.3791673,0.6988298,-0.5334381
188,1778597929573,0.19812131,0.23263553,0.44862375,-2.4448354,-1.7702875,1.356579
189,1778597929623,0.32215294,0.23525764,0.2719671,-0.5879578,-5.3736286,2.332589
190,1778597929673,0.25031948,0.27330863,0.123604774,0.49953505,-4.108374,2.4026856
191,1778597929723,0.13805683,0.22141537,-0.03378246,0.88163126,-0.54290646,0.8917105
192,1778597929773,0.042868353,-0.5403364,-0.45319718,-6.429662,11.129354,0.60063326
193,1778597929823,0.8828564,-1.5409436,2.567406,4.5503354,2.1365013,-2.785851
194,1778597929873,1.9853597,-5.515505,-1.7785183,8.188496,-6.0965877,-2.0500638
195,1778597929923,0.41935372,-2.1446984,0.047319833,3.1725287,-2.496759,0.49586987
196,1778597929973,-0.34666657,-0.34294683,-0.0131715005,3.6699257,-1.7386752,1.5859588
197,1778597930023,-0.61223084,-0.14567922,-0.14543532,3.6053267,-0.9654725,2.1879666
198,1778597930073,-0.42392716,0.5889368,-0.45374596,1.6369661,-1.1330023,-0.12492194
199,1778597930123,-0.41282898,0.35489875,-0.35233763,-1.1925616,3.0144672,-2.8367054
