id,timestamp,acc_x,acc_y,acc_z,gyro_x,gyro_y,gyro_z
0,1778597808173,1.229523,-1.220376,-0.5732652,3.1108313,1.861001,-2.1725423
1,1778597808183,2.956636,-1.6474131,-2.0710964,3.4016032,0.9963212,-1.3266466
2,1778597808193,3.0625567,-1.4193511,-1.8213868,2.4097106,1.1676689,-0.9947941
3,1778597808203,3.0625567,-1.4193511,-1.8213868,1.0908526,2.0334177,-0.93935806
4,1778597808213,2.9319394,-1.068477,-1.1457375,-0.08536842,3.149163,-1.5300647
5,1778597808223,1.6974162,-0.54741,-0.43014705,-0.6284276,3.4616206,-2.4914138
6,1778597808233,1.0746968,-0.47594243,-0.20092636,-1.2345587,2.5088236,-3.5752416
7,1778597808243,1.0746968,-0.47594243,-0.20092636,-1.416902,2.1248949,-3.303254
8,1778597808253,0.37483895,-0.31343293,-0.010610376,-1.6142114,2.0069978,-2.9332223
9,1778597808263,0.37483895,-0.31343293,-0.010610376,-1.6142114,2.0069978,-2.9332223
10,1778597808273,0.23720895,-0.2532465,0.02426971,-1.5790867,1.9033034,-2.3197608
11,1778597808283,0.010366458,-0.07280912,0.029026084,-1.4563028,1.8397734,-2.080149
12,1778597808293,-0.018964522,-0.03652652,0.0190255,-1.3439035,1.7954856,-1.9642372
13,1778597808303,-0.023903834,-0.020915855,0.01689123,-1.2261592,1.7243198,-1.9057468
14,1778597808313,-0.020976834,-0.014574022,0.012927583,-1.1093313,1.6615535,-1.8863518
15,1778597808323,-0.02262327,-0.014695979,-0.01975725,-0.9335548,1.4173601,-1.8988746
16,1778597808333,-0.029818814,-0.023050126,-0.026525937,-0.79641557,1.1154399,-1.9127718
17,1778597808343,-0.051649354,-0.041221917,-0.025062438,-0.49464813,0.59498274,-1.9281962
18,1778597808353,-0.058540005,-0.050978586,-0.013354438,-0.41141775,0.59788436,-1.9216293
19,1778597808363,-0.10232304,-0.0775655,-0.004695396,-0.29856038,0.7304421,-1.897042
20,1778597808373,-0.13354437,-0.11226265,0.015915563,-0.29856038,0.7304421,-1.897042
21,1778597808383,-0.13354437,-0.11226265,0.015915563,-0.29856038,0.7304421,-1.897042
22,1778597808393,-0.15433827,-0.12214127,0.010488417,-0.08246681,0.89675015,-1.7959439
23,1778597808403,-0.15433827,-0.12214127,0.010488417,0.20708331,1.0322095,-1.43141
24,1778597808413,-0.18525472,-0.07494339,0.049027253,0.37705657,0.93477654,-1.2328788
25,1778597808423,-0.17366867,-0.06610142,0.056344748,0.62858033,0.6597345,-0.9427178
26,1778597808433,-0.19769447,-0.072016396,0.07323598,0.62858033,0.6597345,-0.9427178
27,1778597808443,-0.25403923,-0.084456146,0.10890879,0.9680687,0.3904956,-0.4268421
28,1778597808453,-0.3026396,-0.098725274,0.15488708,0.9680687,0.3904956,-0.4268421
29,1778597808463,-0.35026434,-0.11903133,0.1536675,1.632232,-0.25350907,0.36651915
30,1778597808473,-0.4241711,-0.19684075,0.17824212,1.632232,-0.25350907,0.36651915
31,1778597808483,-0.28995594,-0.275199,-0.03969744,2.1784983,-1.0216721,0.9812023
32,1778597808493,-0.39404738,-0.55137366,-0.24105065,2.9399416,-3.5089626,1.1736249
33,1778597808503,-0.39404738,-0.55137366,-0.24105065,2.9399416,-3.5089626,1.1736249
34,1778597808513,0.023964813,-0.45685592,-0.8729778,3.4518468,-5.7406063,1.1688906
35,1778597808523,0.10738432,-0.42618343,-0.8983451,2.6458101,-4.1239514,0.9505063
36,1778597808533,-0.0032318959,-0.52923816,-0.4446601,1.5503759,-0.7890852,0.83199847
37,1778597808543,-0.013659334,-0.83480483,-0.4399037,0.72402805,1.3397802,1.0894781
38,1778597808553,0.6169872,-1.2337916,-0.38770556,-0.7272351,4.4322853,1.1765264
39,1778597808563,4.053407,-3.032799,0.099152125,-0.788627,3.8496728,-0.3371976
40,1778597808573,4.8883343,-5.2860403,0.11811664,-1.5537357,1.1980594,0.12034045
41,1778597808583,6.2046304,-5.8736963,0.34959355,-2.0288363,2.1277964,4.9115095
42,1778597808593,8.046323,-4.726373,0.7807773,0.6565274,0.43081272,1.6727017
43,1778597808603,5.4106817,-2.4538627,0.3653262,0.6565274,0.43081272,1.6727017
44,1778597808613,2.3426976,-0.70491916,-0.32916555,1.3930782,0.069485925,0.22067507
45,1778597808623,0.98969185,-0.05939371,-0.679125,1.1785117,0.6062838,0.17058411
46,1778597808633,0.98969185,-0.05939371,-0.679125,1.1785117,0.6062838,0.17058411
47,1778597808643,0.6794299,0.025245376,-0.45325816,-0.84788096,1.5022703,0.50640726
48,1778597808653,0.4730764,0.16665606,0.11945819,-1.8113682,0.8072584,0.26099217
49,1778597808663,0.4730764,0.16665606,0.11945819,-2.0517437,0.7724391,-0.04138612
50,1778597808673,0.09610317,0.3050178,0.059881546,-2.0517437,0.7724391,-0.04138612
51,1778597808683,0.09610317,0.3050178,0.059881546,-2.383749,0.9992228,-0.3391829
52,1778597808693,0.047258858,0.34642264,0.14073992,-2.7062857,1.3680327,-0.550695
53,1778597808703,0.038965687,0.348313,0.14403279,-2.719725,1.3776538,-0.5703954
54,1778597808713,-0.05353971,0.38063195,0.36105764,-2.6586382,0.92271197,-0.5571091
55,1778597808723,-0.04323423,0.4803329,0.5899125,-2.0434968,-0.5694791,-0.33429602
56,1778597808733,-0.031770147,0.4973461,0.69949204,-1.7573066,-1.2327261,-0.21960606
57,1778597808743,-0.1062867,0.54210484,0.66991717,-0.7884743,-3.3861787,0.31764993
58,1778597808753,-0.102566965,0.5712528,0.47124702,-0.040927973,-5.2597027,1.2366967
59,1778597808763,-0.06811373,0.58088756,0.38325405,0.10125092,-5.629429,1.5045611
60,1778597808773,-0.056954544,0.5803387,0.3409955,0.23915374,-5.911343,1.7450893
61,1778597808783,-0.073540874,0.5247867,0.22604977,0.8242099,-6.2922173,2.5444064
62,1778597808793,-0.05640573,0.47155192,0.14982581,1.0801625,-6.199824,2.8342621
63,1778597808803,-0.03079448,0.4237442,0.099518,1.3602442,-5.8485765,3.0720413
64,1778597808813,-0.01536675,0.4091702,0.08037054,1.5234979,-5.462968,3.1386256
65,1778597808823,-0.47746688,0.36367974,-1.1834227,0.33948836,-1.3368785,3.6173913
66,1778597808833,-0.27562585,0.2394042,-0.6633314,-1.2521211,1.9333885,3.90068
67,1778597808843,-0.27562585,0.2394042,-0.6633314,-1.2521211,1.9333885,3.90068
68,1778597808853,-0.27562585,0.2394042,-0.6633314,-1.2521211,1.9333885,3.90068
69,1778597808863,-0.27562585,0.2394042,-0.6633314,-1.2521211,1.9333885,3.90068
70,1778597808873,0.13342242,0.21982989,0.18165694,-1.3793337,1.0994047,2.6676486
71,1778597808883,0.15604569,0.25544173,0.13610551,-1.2915218,0.71883565,2.3970351
72,1778597808893,0.15476513,0.22958656,0.1364104,-0.9411906,-1.293049,0.8526152
73,1778597808903,0.08354146,0.072565205,0.08793196,-0.75915277,-2.234087,0.08689558
74,1778597808913,0.028294332,-0.02841629,0.018964522,-0.65011334,-2.883742,-0.53130007
75,1778597808923,0.03518498,-0.06390616,-0.11604336,-0.63178736,-3.043789,-0.7237226
76,1778597808933,0.6748565,-1.4917334,-3.0668254,-4.2879686,-0.4173737,-1.7290541
77,1778597808943,0.9978021,-1.3978255,-2.0874999,-6.584211,5.0546045,-3.3136384
78,1778597808953,1.1043327,-1.7311375,-2.7070482,-7.0785537,8.991631,-4.7887254
79,1778597808963,1.4892942,-2.3470883,-4.007429,-7.486459,6.5889454,-5.832236
80,1778597808973,2.011276,-2.2148244,-1.5049049,-6.0796366,2.3981042,-5.6752434
81,1778597808983,0.9587145,-1.1203092,1.2987343,-1.5546521,5.3678255,-2.8550315
82,1778597808993,0.9587145,-1.1203092,1.2987343,-0.123547494,5.602703,0.29718593
83,1778597809003,1.2622079,-1.2865385,2.5315502,3.6839755,2.378404,3.1995595
84,1778597809013,7.1861515,-3.495265,1.2156197,7.1594934,3.154508,3.8214202
85,1778597809023,9.305055,-4.045175,1.6373516,7.1594934,3.154508,3.8214202
86,1778597809033,2.7333302,-2.868155,-1.0281698,9.445198,2.8041768,-0.69898254
87,1778597809043,0.68003964,-1.7979708,-2.0959759,9.620975,-1.8422168,-0.37659842
88,1778597809053,0.5140544,-0.9731666,-1.8729142,7.2036285,-3.0596714,0.44623706
89,1778597809063,0.5506419,-0.7401651,-1.6166188,7.2036285,-3.0596714,0.44623706
90,1778597809073,0.5506419,-0.7401651,-1.6166188,3.6629007,-0.5841399,0.034513887
91,1778597809083,0.2783699,-0.14299615,-0.75980043,3.6629007,-0.5841399,0.034513887
92,1778597809093,0.038599815,-0.0019513334,-0.69815046,1.7884607,0.11881329,-1.0421361
93,1778597809103,-0.06744295,0.084029295,-0.5783874,1.2249376,-0.77503526,-1.3501649
94,1778597809113,-0.09713981,0.062320713,-0.46832004,0.9392053,-1.2701416,-1.48089
95,1778597809123,-0.10842097,0.008598062,-0.18366925,0.5479461,-1.6010778,-1.5871806
96,1778597809133,-0.08470006,-0.0014025208,-0.009329813,0.31474832,-1.3658947,-1.6006197
97,1778597809143,-0.084761046,-0.009207855,0.0024391667,0.23625213,-1.183246,-1.6091717
98,1778597809153,-0.10079856,-0.020489,0.0014635,0.18402316,-1.0896308,-1.5964963
99,1778597809163,-0.11397006,-0.02933098,0.009268833,0.1366811,-1.033584,-1.5529722
100,1778597809173,-0.11293342,-0.035672814,0.005914979,0.08659015,-0.95569867,-1.4729488
101,1778597809183,-0.096895896,-0.038477857,0.012927583,0.03283401,-0.7840455,-1.4385877
102,1778597809193,-0.09012721,-0.03207504,0.014391083,-0.025350908,-0.5878051,-1.4506522
103,1778597809203,-0.096895896,-0.029209021,0.010366458,-0.076052725,-0.3549127,-1.4543175
104,1778597809213,-0.14025208,-0.035794772,0.010488417,-0.10064005,-0.049938235,-1.4239268
105,1778597809223,-0.21635409,-0.057320416,-0.018720604,-0.10064005,-0.049938235,-1.4239268
106,1778597809233,-0.21635409,-0.057320416,-0.018720604,-0.12950343,0.118507855,-1.313513
107,1778597809243,-0.34599578,-0.10433535,0.005914979,-0.18402316,0.2932153,-1.0196868
108,1778597809253,-0.34599578,-0.10433535,0.005914979,-0.28603765,0.52381694,-0.63713247
109,1778597809263,-0.4686249,-0.13147108,-0.0013415418,-0.32268956,0.548557,-0.27412578
110,1778597809273,-1.2991612,-0.20013362,0.09061504,-0.3454443,0.23930646,1.0885619
111,1778597809283,-1.9145628,-0.2654423,-0.09262736,-0.549626,0.34116822,3.7869065
112,1778597809293,-0.82803607,-0.33008024,-0.0064028124,-0.549626,0.34116822,3.7869065
113,1778597809303,-0.29471233,-0.2980052,0.015122834,-0.549626,0.34116822,3.7869065
114,1778597809313,-0.14824036,-0.2511122,0.06085721,-0.627664,0.1685988,5.4104333
115,1778597809323,-0.12677568,-0.2403189,0.05213719,-0.58352906,0.10277808,5.2691708
116,1778597809333,-0.06433302,-0.20732918,0.027989438,-0.58352906,0.10277808,5.2691708
117,1778597809343,-0.06433302,-0.20732918,0.027989438,-0.58352906,0.10277808,5.2691708
118,1778597809353,-0.06433302,-0.20732918,0.027989438,-0.58352906,0.10277808,5.2691708
119,1778597809363,0.029635875,-0.6642461,-0.63009775,0.06047566,-2.9190195,3.640146
120,1778597809373,0.11104306,-1.0845145,-1.024694,0.43111816,-5.494122,3.9749002
121,1778597809383,-0.49545574,-2.113843,-1.0853683,4.5416303,-18.565416,6.923394
122,1778597809393,-0.49545574,-2.113843,-1.0853683,4.5416303,-18.565416,6.923394
123,1778597809403,2.7812598,-6.5337963,-0.13177599,9.146485,-9.887465,5.1746397
124,1778597809413,2.69595,-8.033579,-2.842178,2.676506,4.00132,-0.05421429
125,1778597809423,3.948218,-9.017173,-3.8974223,2.676506,4.00132,-0.05421429
126,1778597809433,3.2689104,-7.143405,-1.4682564,-3.1987958,9.988869,-4.046524
127,1778597809443,1.0417681,-2.040485,-0.31898203,-3.5259142,11.1657,-4.9501467
128,1778597809453,0.3506912,-0.9461528,-0.0006707709,-3.5259142,11.1657,-4.9501467
129,1778597809463,0.08171208,-0.6780274,0.22678153,-3.307988,9.066309,-4.271017
130,1778597809473,-0.117384896,-0.28208962,0.20915854,-2.9866729,7.7697477,-3.4758232
131,1778597809483,-0.19104773,-0.103359684,0.15946053,-2.908635,7.266853,-2.9741502
132,1778597809493,-0.1454963,0.022806209,0.06043036,-2.9028316,6.7806044,-2.5059218
133,1778597809503,-0.11183579,0.06872352,0.030977417,-2.930626,6.4121,-2.3052528
134,1778597809513,-0.10409144,0.10671354,0.0140252095,-2.9906435,5.99213,-2.170557
135,1778597809523,-0.10287185,0.11897036,0.027989438,-3.1132748,5.4228034,-2.0147862
136,1778597809533,-0.10817704,0.12927583,0.066772185,-3.1083877,5.011691,-1.9152153
137,1778597809543,-0.19556019,0.09896919,0.19787739,-2.9671252,4.3988404,-1.7857119
138,1778597809553,-0.38459563,0.046405144,0.5664965,-2.4497223,3.293022,-1.4746287
139,1778597809563,-0.36642382,0.059088815,0.54850763,-1.775938,2.0163136,-1.0858129
140,1778597809573,-0.34953257,0.091224834,0.49661437,-1.1456778,0.81489426,-0.6609562
141,1778597809583,-0.34953257,0.091224834,0.49661437,-1.1456778,0.81489426,-0.6609562
142,1778597809593,-0.2965417,0.17019285,0.41087765,0.10476339,-1.6620116,0.31138855
143,1778597809603,-0.26458862,0.22672056,0.35056922,0.45814893,-2.4294112,0.6030767
144,1778597809613,-0.20440216,0.2505634,0.21641506,0.72311175,-2.9914072,0.841925
145,1778597809623,-0.16092403,0.24544115,0.2051949,0.9663888,-3.684892,1.218218
146,1778597809633,-0.16324124,0.26678386,0.18055932,0.93691456,-3.835012,1.4033102
147,1778597809643,-0.16324124,0.26678386,0.18055932,0.93691456,-3.835012,1.4033102
148,1778597809653,-0.17318083,0.30422506,0.17799819,0.8703303,-3.916868,1.5952746
149,1778597809663,-0.13586158,0.2973954,0.10585984,0.69806623,-4.0477457,2.0938933
150,1778597809673,-0.10116444,0.25995418,0.067199044,0.66523224,-4.070806,2.289523
151,1778597809683,-0.08512692,0.19860914,0.05933273,0.68371093,-4.0132318,2.4055874
152,1778597809693,-0.07311402,0.16452178,0.05256404,0.7516697,-3.8380663,2.5153904
153,1778597809703,-0.06366225,0.10909174,0.06457694,0.841925,-3.6835175,2.5815165
154,1778597809713,-0.06366225,0.10909174,0.06457694,0.98639464,-3.527594,2.6087
155,1778597809723,-0.06628435,0.06518673,0.061162103,1.1183416,-3.506061,2.6326766
156,1778597809733,-0.045734376,0.026708877,0.02628202,1.1183416,-3.506061,2.6326766
157,1778597809743,-0.039209604,0.0033538544,0.02128173,1.2588406,-3.440393,2.616183
158,1778597809753,-0.03725827,-0.0029879792,0.026221042,1.0425943,-3.954589,2.5654814
159,1778597809763,-0.052442085,-0.17586392,-1.1008569,1.0425943,-3.954589,2.5654814
160,1778597809773,0.43825728,-1.0288405,-5.1818266,-0.8358164,-7.4608026,2.6342037
161,1778597809783,1.1339077,-2.70156,-1.7562611,-6.940956,-13.174531,2.976288
162,1778597809793,1.1339077,-2.70156,-1.7562611,-5.325065,9.135337,1.16492
163,1778597809803,0.21482961,-2.1961038,1.4840499,0.07284568,8.358928,1.8567249
164,1778597809813,0.21482961,-2.1961038,1.4840499,0.07284568,8.358928,1.8567249
165,1778597809823,0.31886008,-1.6828421,1.6000934,0.07284568,8.358928,1.8567249
166,1778597809833,3.8504076,-4.5855722,0.6098527,4.0637813,-0.627664,0.2489276
167,1778597809843,4.6667356,-7.3517094,0.74754363,3.1612277,-0.06169739,-2.6193902
168,1778597809853,4.097678,-7.733744,0.6573554,1.5030339,0.63346726,-4.8433976
169,1778597809863,3.0523121,-6.492757,0.58631474,0.15989397,0.93828905,-4.306142
170,1778597809873,1.8915129,-2.9252317,0.54399514,0.25809056,0.9439395,-2.6858218
171,1778597809883,1.8915129,-2.9252317,0.54399514,0.25809056,0.9439395,-2.6858218
172,1778597809893,0.6448547,-1.0178642,-0.12988563,5.046205,-1.2087497,-2.9526172
173,1778597809903,0.26775953,-0.76699597,-0.34581286,5.9589906,-1.5057828,-3.0166054
174,1778597809913,0.004085604,-0.53106755,-0.59058326,6.357733,-1.9730947,-2.9179506
175,1778597809923,-0.4241711,0.021403689,-1.9325517,6.3398647,-2.973692,-2.7525587
176,1778597809933,-0.4241711,0.021403689,-1.9325517,5.399896,-4.4086146,-2.474768
177,1778597809943,-0.43215933,0.11317733,-1.7202834,3.334408,-5.130199,-2.144748
178,1778597809953,-0.286785,0.066040434,-0.91419965,1.7655532,-4.9296827,-1.8387043
179,1778597809963,-0.059698608,-0.005854,-0.06799178,0.062308256,-3.3970215,-1.4483615
180,1778597809973,-0.059698608,-0.005854,-0.06799178,0.062308256,-3.3970215,-1.4483615
181,1778597809983,-0.03506302,0.010122542,-0.0075004376,-0.21166481,-2.9581149,-1.451874
182,1778597809993,-0.03225798,0.017440042,-0.0026830835,-0.34162638,-2.7320948,-1.5355625
183,1778597810003,-0.03225798,0.017440042,-0.0026830835,-0.34162638,-2.7320948,-1.5355625
184,1778597810013,-0.060247418,0.019269416,0.019879209,-0.5137377,-2.2843306,-1.7880026
185,1778597810023,-0.0646989,0.017318083,0.029635875,-0.5403103,-2.1418462,-1.842675
186,1778597810033,-0.07000408,0.022318374,0.06994311,-0.5561928,-1.9283489,-1.9170479
187,1778597810043,-0.16689998,0.0471369,0.091102876,-0.53786683,-1.8674151,-1.9905044
188,1778597810053,-1.8134595,0.17318083,0.61296254,-0.53786683,-1.8674151,-1.9905044
189,1778597810063,-2.4019084,0.14689882,0.986521,1.0821478,-4.885853,1.638646
190,1778597810073,-1.788275,0.15446024,0.6422326,2.0595322,-6.667594,3.3318117
191,1778597810083,-1.0873805,0.12842213,0.16372907,2.6355782,-7.125285,4.105625
192,1778597810093,-0.8646846,0.10201815,0.08189502,2.8115072,-6.556722,4.0468297
193,1778597810103,-0.61552376,0.09128582,0.1367153,2.8243356,-5.853616,3.257439
194,1778597810113,-0.5213719,0.061223082,0.143423,2.7508788,-5.5982747,2.7278187
195,1778597810123,-0.3855713,0.018659625,0.13848369,2.473546,-5.1642547,2.2124012
196,1778597810133,-0.19677977,0.0066467295,0.1331785,1.3956743,-3.7591121,1.2125676
197,1778597810143,-0.10714039,-0.022135438,0.10232304,1.3956743,-3.7591121,1.2125676
198,1778597810153,-0.09793254,-0.110616215,0.011890938,0.8544478,-2.3490822,1.2168436
199,1778597810163,-0.112567544,-0.15708233,-0.009146876,-0.0035124752,0.46593747,1.7895297
200,1778597810173,-0.112567544,-0.15708233,-0.009146876,-0.74113226,3.527594,2.6311493
201,1778597810183,-0.19373082,-0.30843264,0.05768629,-0.74113226,3.527594,2.6311493
202,1778597810193,-0.38319308,-0.7977904,0.53984857,-0.300393,15.334856,5.814979
203,1778597810203,2.5499048,-6.474036,0.25891754,-1.1349876,22.552687,5.6527944
204,1778597810213,5.2992115,-10.419388,0.23751387,-2.111914,29.903381,1.1829406
205,1778597810223,5.2992115,-10.419388,0.23751387,-2.121993,30.777224,-4.2562037
206,1778597810233,3.6305776,-7.801553,0.3128841,-0.84223044,25.463612,-7.273725
207,1778597810243,1.8271188,-2.74827,-1.2433653,-0.84223044,25.463612,-7.273725
208,1778597810253,0.5438122,-1.3741655,-0.54460496,2.527913,-6.7590714,-4.709771
209,1778597810263,0.10031073,-0.99487513,-0.42801276,1.541213,-8.157495,-3.637397
210,1778597810273,-0.123604774,-0.15409435,-0.27050358,0.22388211,-7.507839,-1.2786937
211,1778597810283,-0.024513626,0.1009815,-0.24538018,-0.26160303,-5.8346796,-0.25610524
212,1778597810293,0.06213777,0.20336552,-0.098603316,-0.26160303,-5.8346796,-0.25610524
213,1778597810303,0.06213777,0.20336552,-0.098603316,-0.26160303,-5.8346796,-0.25610524
214,1778597810313,0.051832296,0.1753151,-0.023294043,-1.7658587,-1.1808025,0.95325524
215,1778597810323,0.047807667,0.16659509,-0.0056710625,-1.7658587,-1.1808025,0.95325524
216,1778597810333,0.04323423,0.17196125,0.009817646,-1.9547688,-0.690125,0.9990701
217,1778597810343,0.036160648,0.19293809,0.024086772,-2.1342103,-0.17241672,1.0410671
218,1778597810353,0.02713573,0.1803154,0.05927175,-2.248595,0.3042109,1.1215485
219,1778597810363,0.02713573,0.1803154,0.05927175,-2.2672265,0.4531093,1.1820242
220,1778597810373,-0.015549688,0.14915505,0.15616766,-2.3373232,1.1162035,1.5972599
221,1778597810383,-0.031282313,0.13561767,0.22342768,-2.287843,1.2302825,1.7878499
222,1778597810393,-0.042929336,0.15598471,0.35758185,-2.1481075,1.219287,1.9992093
223,1778597810403,-0.024696562,0.1662292,0.3298363,-2.1481075,1.219287,1.9992093
224,1778597810413,-0.024696562,0.1662292,0.3298363,-1.9582813,0.98868537,2.091908
225,1778597810423,-0.011464084,0.20946345,0.3986208,-1.3715452,0.16432275,2.5651758
226,1778597810433,0.031831127,0.23275748,0.4402086,-0.90194255,-0.752586,2.8409815
227,1778597810443,0.08439517,0.2678205,0.47636923,-0.43661594,-1.680643,3.031266
228,1778597810453,0.08439517,0.2678205,0.47636923,0.14355333,-2.499508,3.1483996
229,1778597810463,0.15537491,0.21446373,0.42947626,0.95264435,-3.0776918,3.171765
230,1778597810473,0.17988855,0.19885308,0.3743511,1.4049901,-3.247054,3.1300735
231,1778597810483,0.22019579,0.1636681,0.26410076,2.189952,-3.2155948,2.9269607
232,1778597810493,0.21867129,0.12390967,0.19293809,2.189952,-3.2155948,2.9269607
233,1778597810503,0.21537842,0.11799469,0.1817789,2.929557,-2.5402832,2.5115724
234,1778597810513,0.30892047,0.17781526,0.10598179,3.165351,-2.0964894,2.021964
235,1778597810523,0.37069237,0.119397216,0.0029879792,2.8721356,-1.9515617,0.67256266
236,1778597810533,0.30715206,0.08872469,-0.011403104,2.5262332,-2.1500928,-0.02733622
237,1778597810543,0.30715206,0.08872469,-0.011403104,2.5262332,-2.1500928,-0.02733622
238,1778597810553,-1.1184189,-4.154511,-5.004499,1.7701348,-1.5661057,-0.5459608
239,1778597810563,-1.1184189,-4.154511,-5.004499,-7.4328556,12.073294,-2.1036673
240,1778597810573,-0.34001982,-3.368428,-3.1998818,-7.4328556,12.073294,-2.1036673
241,1778597810583,0.69333315,-0.5116152,1.5266135,-6.284887,13.593279,-7.2089734
242,1778597810593,0.69333315,-0.5116152,1.5266135,-6.284887,13.593279,-7.2089734
243,1778597810603,0.88950306,-1.5885073,-0.12622687,-12.147972,0.018936822,-7.8128138
244,1778597810613,3.8960807,-2.9485257,3.2050653,-8.691085,-4.1792345,-6.5038824
245,1778597810623,6.196764,-4.203355,-7.4904375,-8.243015,3.072652,-4.2346706
246,1778597810633,5.1249332,-4.730581,-0.97694725,-7.8833685,19.327013,-2.0103576
247,1778597810643,5.1249332,-4.730581,-0.97694725,-7.8833685,19.327013,-2.0103576
248,1778597810653,1.7423579,-2.1009152,0.7408969,-1.7608191,0.6282749,6.7883925
249,1778597810663,1.0907344,-1.3390415,0.9676784,1.5392277,-1.6458237,7.1675873
250,1778597810673,0.3421541,-0.71248055,0.087017275,4.3418775,-3.6570976,7.7133956
251,1778597810683,0.16433886,-0.550337,0.07982173,4.787351,-3.9422188,7.7382884
252,1778597810693,0.10396948,-0.45764863,0.06640632,5.544671,-3.4987307,7.3166385
253,1778597810703,0.07226031,-0.4174634,0.03878275,5.544671,-3.4987307,7.3166385
254,1778597810713,0.055247124,-0.39374247,0.01981823,5.716477,-3.2513304,7.1454434
255,1778597810723,0.04414892,-0.34959355,-0.017379062,5.9811344,-2.38268,6.6419377
256,1778597810733,0.04414892,-0.34959355,-0.017379062,5.9811344,-2.38268,6.6419377
257,1778597810743,0.32989728,-0.1911087,-1.2601346,6.026033,-1.8298469,6.414849
258,1778597810753,0.32989728,-0.1911087,-1.2601346,5.5677314,-1.1446087,6.163325
259,1778597810763,0.45679495,-0.10006681,-1.6775979,3.9962804,0.08124508,5.796042
260,1778597810773,0.30361527,-0.051344458,-0.65394056,3.9962804,0.08124508,5.796042
261,1778597810783,0.19092578,-0.03609967,-0.257576,3.9962804,0.08124508,5.796042
262,1778597810793,0.1261659,0.05573496,-0.07323598,-0.1001819,1.6482671,4.1916046
263,1778597810803,0.1261659,0.05573496,-0.07323598,-0.50808716,1.2484559,3.860363
264,1778597810813,0.1478135,0.11817763,-0.08159013,-0.50808716,1.2484559,3.860363
265,1778597810823,0.34197116,0.17379062,0.018598646,-1.4657712,0.5532912,2.6546676
266,1778597810833,0.365875,0.18043736,0.059698608,-1.4657712,0.5532912,2.6546676
267,1778597810843,0.2376968,0.15092343,0.07390675,-1.7162259,0.4017966,1.2896893
268,1778597810853,0.14153264,0.120067984,0.057747275,-1.7165314,0.27916542,0.8765916
269,1778597810863,0.07030898,0.12580003,0.011586042,-1.7165314,0.27916542,0.8765916
270,1778597810873,0.056771606,0.12866604,-0.0014025208,-1.7647897,-0.078343466,0.38362336
271,1778597810883,0.049454104,0.17397358,0.023964813,-1.8443549,-0.33078352,0.08323039
272,1778597810893,0.06927233,0.21031716,0.06610142,-1.8533652,-0.38866302,-0.19440787
273,1778597810903,0.0714066,0.25227082,0.071467586,-1.8774943,-0.39400807,-0.44776422
274,1778597810913,0.05689356,0.278065,0.09537142,-1.9596558,-0.4476115,-0.783282
275,1778597810923,0.030977417,0.24391668,0.12378771,-2.0285308,-0.4802928,-1.1137601
276,1778597810933,-0.06780884,0.16525355,0.102810875,-2.0329595,-0.50869805,-1.3571899
277,1778597810943,-0.06780884,0.16525355,0.102810875,-1.9775236,-0.6919576,-1.598329
278,1778597810953,-0.07896802,0.15299673,0.10726235,-1.9549215,-0.74189585,-1.6297885
279,1778597810963,-0.085004956,0.07585809,0.07695571,-1.6491834,-1.0245737,-1.8003726
280,1778597810973,-0.140496,0.02713573,0.045795355,-1.2953397,-1.1297953,-1.8393153
281,1778597810983,-0.19623096,-0.0086590415,0.08463909,-1.1210904,-1.181108,-1.8086193
282,1778597810993,-0.2206836,-0.052198168,0.06982114,-1.1210904,-1.181108,-1.8086193
283,1778597811003,-0.22617173,-0.19586508,0.41947567,-0.89995724,-2.1265745,-1.5329664
284,1778597811013,-0.0851879,-0.24123359,0.5837535,-0.6800457,-2.2288945,-1.5066991
285,1778597811023,-0.08610259,-0.3594722,0.49795586,-0.116675265,-2.1314616,-1.6038266
286,1778597811033,-8.439882,-8.670322,0.16848545,0.72402805,-1.1748465,3.3228016
287,1778597811043,-7.3992734,-9.754716,-0.16543648,0.72402805,-1.1748465,3.3228016
288,1778597811053,-6.801677,-11.480731,-0.47008842,4.2633815,-9.680229,16.807804
289,1778597811063,-2.2849505,-10.517504,-0.72370076,3.9240456,-13.753173,3.5891387
290,1778597811073,-1.7144903,-4.240918,-0.9471894,2.8473957,-15.468788,-3.34464
291,1778597811083,-2.6008835,-0.8054738,-5.812961,-1.9967657,-10.695792,-3.8327212
292,1778597811093,-1.5699697,-0.90438205,-2.2347646,-3.6807685,-2.3419046,-0.80832744
293,1778597811103,-0.5454587,-0.7109561,-0.31367683,-3.387095,1.0871874,0.59483004
294,1778597811113,-0.3003224,-0.5846073,0.0127446465,-3.1086931,1.8374827,0.82359904
295,1778597811123,0.11701902,-0.14220342,0.3823394,-1.7234036,3.585321,0.6415612
296,1778597811133,0.11701902,-0.14220342,0.3823394,-1.7234036,3.585321,0.6415612
297,1778597811143,0.08604161,0.0687845,0.28196767,-1.0954341,3.901291,0.32375857
298,1778597811153,0.08604161,0.0687845,0.28196767,-0.6044512,4.0480514,0.1525636
299,1778597811163,0.08848077,0.0775655,0.27410138,-0.08903361,4.213443,0.013133603
300,1778597811173,0.058296088,0.10348164,0.2057437,0.18829921,4.16885,-0.03268129
301,1778597811183,0.058296088,0.10348164,0.2057437,0.18829921,4.16885,-0.03268129
302,1778597811193,0.054637335,0.12189735,0.17379062,0.23625213,4.1447206,-0.020005837
303,1778597811203,0.08762706,0.13769096,0.17440042,0.19425514,4.149455,0.0421497
304,1778597811213,0.09921311,0.14885014,0.13342242,0.11713341,4.111123,0.06261369
305,1778597811223,0.109884456,0.15866779,0.13439809,-0.069027774,3.9293907,0.09636399
306,1778597811233,0.12805626,0.15885073,0.1662902,-0.24358252,3.6596937,0.12339478
307,1778597811243,0.1203119,0.1604362,0.20903657,-0.35048392,3.3735032,0.14462234
308,1778597811253,0.1203119,0.1604362,0.20903657,-0.35048392,3.3735032,0.14462234
309,1778597811263,0.1203119,0.1604362,0.20903657,-0.35048392,3.3735032,0.14462234
310,1778597811273,0.089822315,0.14037405,0.24800226,-0.6579019,0.33505958,0.35460728
311,1778597811283,0.11872645,0.12122658,0.1451914,-0.7339546,-0.64675355,0.38515055
312,1778597811293,0.10598179,0.120007,0.104152426,-0.79305583,-1.2670872,0.40561453
313,1778597811303,0.08695629,0.123299874,0.10585984,-0.8735373,-2.346486,0.5013676
314,1778597811313,0.08817588,0.12970269,0.1253122,-0.8378017,-2.719725,0.53969944
315,1778597811323,0.08817588,0.12970269,0.1253122,-0.8378017,-2.719725,0.53969944
316,1778597811333,0.11378712,0.12214127,0.15098442,-0.73853606,-3.0535626,0.5491679
317,1778597811343,0.13366634,0.12866604,0.16086306,-0.6227771,-3.25301,0.51144695
318,1778597811353,0.17659567,0.14513041,0.19812131,-0.42745295,-3.383888,0.3652974
319,1778597811363,0.23672113,0.19226731,0.20299964,-0.41783184,-3.1984904,0.16997325
320,1778597811373,0.23672113,0.19226731,0.20299964,-0.52732944,-2.5919013,-0.13775012
321,1778597811383,0.08159013,0.12945877,0.20269476,-0.68691796,-1.7449366,-0.3391829
322,1778597811393,0.08159013,0.12945877,0.20269476,-0.68691796,-1.7449366,-0.3391829
323,1778597811403,-0.013415418,-0.018537667,0.28446782,-0.623388,-0.35231653,-0.6601926
324,1778597811413,-0.070065066,-0.060552314,0.36874104,-0.30390546,-0.1282817,-0.72509706
325,1778597811423,-1.0162178,-0.8737095,-2.8504102,-0.3266602,-0.23441954,-0.6575964
326,1778597811433,-2.0006654,-2.5021582,-4.7632046,-9.2384205,-4.52926,2.0076087
327,1778597811443,-0.85413516,-1.6536942,0.21964696,-10.666929,-6.8073297,3.5543194
328,1778597811453,-0.32026258,-1.5171617,0.5717407,-7.2492905,-17.523129,6.050773
329,1778597811463,-1.3073933,-4.3036046,2.6591794,-3.3302846,-16.277267,4.8017063
330,1778597811473,-9.663551,-12.6808,-3.9385834,4.0430117,-0.89644474,-2.9394836
331,1778597811483,-9.663551,-12.6808,-3.9385834,9.049205,7.4236927,-7.0710707
332,1778597811493,-7.799784,-9.319141,-4.654174,5.6720366,0.6079636,-3.6289978
333,1778597811503,-2.0505464,-3.7305837,0.00951275,3.303254,2.1572707,-2.5448647
334,1778597811513,-1.0470123,-2.373675,0.09354204,3.1247284,3.7772853,-3.0844114
335,1778597811523,-0.22604977,-0.6383299,-0.46929568,2.8199067,1.9210185,-4.0353756
336,1778597811533,-0.22604977,-0.6383299,-0.46929568,2.8199067,1.9210185,-4.0353756
337,1778597811543,-0.1583629,-0.3340439,-0.24720955,2.6340508,0.07040222,-4.1745005
338,1778597811553,-0.13195892,-0.18281554,-0.102140106,3.0036244,-0.820392,-3.9935315
339,1778597811563,0.101408355,0.025062438,-0.6091209,2.755766,-1.547169,-4.0165915
340,1778597811573,0.05329579,0.06506477,-0.6476597,2.1192443,-2.4801128,-4.1280746
341,1778597811583,0.05329579,0.06506477,-0.6476597,1.4825699,-3.1128166,-4.1796927
342,1778597811593,-0.037136313,0.020001167,-0.09976192,1.2954924,-3.165351,-4.1745005
343,1778597811603,-0.03195308,0.015427729,-0.03091644,1.2432635,-3.0789135,-4.167781
344,1778597811613,-0.042441502,0.004756375,0.0046344167,1.2305881,-2.8544207,-4.162741
345,1778597811623,-0.059698608,0.03420931,-0.045551438,1.0903945,-2.5722008,-4.2320743
346,1778597811633,-0.079029,0.12317792,-0.06683317,0.9833403,-2.4753788,-4.285678
347,1778597811643,-0.051588375,0.0834195,-0.05780825,0.659429,-2.1126773,-4.450764
348,1778597811653,-0.05189327,0.105372004,-0.041526813,0.3378085,-1.4865406,-4.7392454
349,1778597811663,-0.10427438,0.13531277,-0.037014354,0.07009678,-0.67347896,-5.0610185
350,1778597811673,-0.23598938,0.16061912,-0.08835881,-0.24785857,0.49693888,-5.429981
351,1778597811683,-0.36642382,0.17793721,-0.06652827,-0.5149594,1.6420058,-5.0352097
352,1778597811693,-1.8054101,0.42270756,-0.1575092,-0.5149594,1.6420058,-5.0352097
353,1778597811703,-2.3834317,0.6016815,-0.22202514,-0.6976081,2.2766948,-3.5585954
354,1778597811713,-0.88645416,0.5155179,-0.1806203,-1.617724,3.209486,0.24862215
355,1778597811723,-0.88645416,0.5155179,-0.1806203,-2.121993,2.8225029,0.6960809
356,1778597811733,-0.88645416,0.5155179,-0.1806203,-2.121993,2.8225029,0.6960809
357,1778597811743,-0.3697167,0.4554534,-0.1469598,-2.8312078,1.4217888,0.82695884
358,1778597811753,-0.31014004,0.5713748,0.016464375,-3.0749428,0.21578814,0.95279706
359,1778597811763,-0.3164819,0.5744238,0.068479605,-3.0909781,-0.16982053,1.0410671
360,1778597811773,-0.3164819,0.5744238,0.068479605,-3.0909781,-0.16982053,1.0410671
361,1778597811783,-0.14171559,0.3213602,0.13964228,-2.8637362,-2.238363,1.1452196
362,1778597811793,-0.09299323,0.20068243,0.11872645,-2.8637362,-2.238363,1.1452196
363,1778597811803,-0.09299323,0.20068243,0.11872645,-2.4949265,-2.2770002,0.752586
364,1778597811813,-0.052746978,0.018476687,0.05067369,-2.4611762,-2.1827743,0.71578133
365,1778597811823,-0.054027542,-0.04451479,0.022196416,-2.2479842,-1.387275,0.51068336
366,1778597811833,-0.041221917,-0.05079565,0.0102445,-2.0761783,-0.8237518,0.36392298
367,1778597811843,-0.059149794,-0.04756375,-0.0017074167,-1.9457586,-0.5056437,0.24480425
368,1778597811853,-0.20263378,-0.09488358,-0.20281671,-1.8761199,-0.39675698,0.15302174
369,1778597811863,-0.3348976,-0.17476629,-0.38349798,-1.9084958,-0.4934264,0.14950927
370,1778597811873,-3.2468967,-3.6261873,1.1058571,-1.4369078,-10.417237,1.8399261
371,1778597811883,-3.2468967,-3.6261873,1.1058571,3.3286047,-18.401705,4.8866167
372,1778597811893,-2.110916,-10.537017,0.28166276,9.700541,-11.387292,7.058548
373,1778597811903,-1.6308268,-10.519151,0.96359277,2.866027,17.252514,6.4547076
374,1778597811913,0.027501604,-6.526356,0.042258564,3.1705434,12.408658,-1.297936
375,1778597811923,0.23184279,-3.146586,-0.06786981,3.7777433,8.777217,-2.31915
376,1778597811933,0.23184279,-3.146586,-0.06786981,3.7777433,8.777217,-2.31915
377,1778597811943,0.2206836,-0.90419906,-0.036587503,2.883895,4.5695777,-3.563788
378,1778597811953,0.19641389,-0.676259,-0.034270294,2.5836546,4.0353756,-3.6796994
379,1778597811963,0.19641389,-0.676259,-0.034270294,2.5836546,4.0353756,-3.6796994
380,1778597811973,0.09518848,-0.055917896,-0.029757833,1.3141239,2.2073615,-3.7242928
381,1778597811983,0.08122425,0.043478146,-0.005305188,0.86590147,1.9106338,-3.5607336
382,1778597811993,0.039758418,0.07433361,-0.022196416,0.46822822,2.0292943,-3.3741143
383,1778597812003,0.015610667,0.08287069,-0.04835648,0.11636983,2.218968,-3.1483996
384,1778597812013,-0.01597654,0.10567689,-0.027013771,-0.23472497,2.4040601,-2.864958
385,1778597812023,-0.030611541,0.13397123,0.021220751,-0.5884159,2.3962717,-2.484389
386,1778597812033,-0.027501604,0.12823918,0.04323423,-0.7151705,2.3310618,-2.3098342
387,1778597812043,-0.02420873,0.1331785,0.052015226,-0.88163126,2.1314616,-2.0679317
388,1778597812053,-0.025306353,0.14976484,0.052746978,-1.0010555,1.9428569,-1.936901
389,1778597812063,-0.10146933,0.28032124,0.03872177,-1.3600914,1.4089607,-1.6299412
390,1778597812073,-0.10146933,0.28032124,0.03872177,-1.8504635,0.65576386,-1.2140946
391,1778597812083,-0.08012662,0.24306297,0.072016396,-2.1633792,-0.021838432,-0.869414
392,1778597812093,-0.120067984,0.28641915,0.13976426,-2.6875017,-1.2664764,-0.09697486
393,1778597812103,-0.1153116,0.30007848,0.29172435,-2.8722885,-2.5589144,0.71837753
394,1778597812113,-0.11549455,0.31459153,0.40166977,-2.8722885,-2.5589144,0.71837753
395,1778597812123,-0.030123709,0.29824913,0.45874628,-2.8270843,-3.0952542,1.0157162
396,1778597812133,0.039392542,0.32300666,0.45819747,-1.7289014,-5.218469,2.4271204
397,1778597812143,0.039392542,0.32300666,0.45819747,-1.7289014,-5.218469,2.4271204
398,1778597812153,0.19141361,0.33093393,0.36166742,-0.7493789,-4.9834385,2.8128817
399,1778597812163,0.23470882,0.34971553,0.36233822,-0.4344779,-4.583627,2.6994135
400,1778597812173,0.25099024,0.34441036,0.34111744,-0.15577064,-4.0292673,2.5007296
401,1778597812183,0.25824678,0.34770322,0.2953831,0.094225965,-3.1323643,2.1536055
402,1778597812193,0.24312395,0.32440916,0.21019518,0.18402316,-2.3109033,1.843744
403,1778597812203,0.22989148,0.3158111,0.12781233,0.18402316,-2.3109033,1.843744
404,1778597812213,0.22989148,0.3158111,0.12781233,0.07544186,-0.69898254,1.1452196
405,1778597812223,0.22989148,0.3158111,0.12781233,0.07544186,-0.69898254,1.1452196
406,1778597812233,0.20159712,0.28922418,0.09329812,0.17745635,-1.2825116,1.4271339
407,1778597812243,0.016647313,0.029209021,0.0746385,-0.41783184,1.0126618,0.30069843
408,1778597812253,-0.010732334,-0.013903251,0.061710916,-0.34300083,2.0392208,-0.023518313
409,1778597812263,-0.008293167,-0.04969802,-0.016769271,-0.29367346,2.21515,-0.10476339
410,1778597812273,0.21196358,-5.740823,-3.921997,-10.700221,-2.0980167,0.7857254
411,1778597812283,0.21196358,-5.740823,-3.921997,-10.825143,1.8926133,0.8126035
412,1778597812293,-0.07982173,-3.0858507,3.4330053,10.412656,6.0651283,1.0862712
413,1778597812303,0.10262794,-1.6502184,1.4143509,10.412656,6.0651283,1.0862712
414,1778597812313,0.43215933,-6.4183016,0.11665315,10.861032,5.9826617,1.4463762
415,1778597812323,-0.76291037,-8.755877,0.51789606,8.929017,4.397466,1.6658295
416,1778597812333,-0.28483367,-8.411954,0.61692625,3.443142,3.9154935,2.7794368
417,1778597812343,0.29263905,-5.4286704,1.8130326,-4.7829223,-2.7165177,1.2770138
418,1778597812353,0.29263905,-5.4286704,1.8130326,-4.490623,-3.067918,0.9744828
419,1778597812363,0.3386783,-1.6458888,0.6549772,-2.1813998,-4.256662,-0.40317106
420,1778597812373,0.2367821,-0.8700507,0.23556253,-1.3594806,-4.424497,-1.0041097
421,1778597812383,0.2367821,-0.8700507,0.23556253,-1.3594806,-4.424497,-1.0041097
422,1778597812393,0.24007498,-0.45655105,0.30068827,-0.72189003,-4.881119,-1.3590225
423,1778597812403,0.016342416,0.14397182,0.43624496,4.207487,-10.190148,-2.1563544
424,1778597812413,-0.09128582,-0.13354437,-0.005305188,5.9151607,-10.733208,-2.7097983
425,1778597812423,-0.1589727,0.07421165,-0.87986845,5.9600596,-10.866529,-3.076012
426,1778597812433,-0.59857154,0.41167036,-3.1178648,4.3544,-12.412782,-3.3990068
427,1778597812443,-0.59351027,0.2689791,-1.7627857,0.6898196,-12.607343,-3.0262265
428,1778597812453,-0.43770844,0.17171735,-0.79858315,-1.0152581,-10.64112,-2.4956899
429,1778597812463,-0.345386,0.15763116,-0.3647774,-2.1386392,-7.8595448,-1.9295706
430,1778597812473,-0.19799936,0.19556019,-0.05725944,-2.4694228,-5.124701,-1.7311921
431,1778597812483,-0.13781293,0.21275632,0.15561883,-2.3632848,-3.3154712,-1.9300288
432,1778597812493,-0.15665549,0.18129106,0.10707942,-2.10046,-0.70509124,-2.5386033
433,1778597812503,-0.15293576,0.13647138,0.10427438,-2.211485,1.1268936,-2.9236012
434,1778597812513,-0.26629603,0.07341892,0.122934,-2.3435845,1.9572122,-2.9901853
435,1778597812523,-0.26629603,0.07341892,0.122934,-2.3435845,1.9572122,-2.9901853
436,1778597812533,-0.6871133,0.29172435,0.4552095,-2.3380868,2.7872255,-2.9373455
437,1778597812543,-0.6871133,0.29172435,0.4552095,-1.9343048,1.6161968,-2.5740335
438,1778597812553,-1.8976108,0.7016873,1.4180095,-0.45372015,-3.6545014,-0.84620106
439,1778597812563,-1.2514145,0.6555871,0.86657494,0.9476047,-6.2410574,0.4370741
440,1778597812573,-0.82956064,0.547227,0.6099746,2.0141754,-5.084995,0.8697194
441,1778597812583,-0.76272744,0.51582277,0.57058203,2.0141754,-5.084995,0.8697194
442,1778597812593,-0.57978994,0.43423265,0.45886827,2.4793494,-4.116468,0.91874135
443,1778597812603,-0.0629305,0.031831127,0.13909347,1.9900463,-1.7731891,0.4448626
444,1778597812613,-0.1554359,-0.11628727,0.16580236,1.9900463,-1.7731891,0.4448626
445,1778597812623,-0.1554359,-0.11628727,0.16580236,1.0395399,1.0274754,0.75884736
446,1778597812633,-0.1554359,-0.11628727,0.16580236,0.81321436,5.296965,1.5925257
447,1778597812643,-0.85041547,-0.95493376,0.75980043,0.8213083,7.3752813,2.097864
448,1778597812653,-1.507161,-2.7587585,0.47472283,0.10125092,13.575563,3.978718
449,1778597812663,-1.3879468,-4.9955964,-0.1408009,-0.9663888,17.900337,5.335297
450,1778597812673,0.8238895,-9.892651,0.14037405,-3.5311065,20.642664,3.762777
451,1778597812683,0.8238895,-9.892651,0.14037405,-0.91721416,15.067144,1.9048306
452,1778597812693,1.0923808,-3.6308217,0.44569677,1.0044152,10.598359,-2.813798
453,1778597812703,1.0923808,-3.6308217,0.44569677,1.0044152,10.598359,-2.813798
454,1778597812713,0.3858152,-1.278977,0.09781059,0.3633121,7.2477636,-4.2024474
455,1778597812723,0.14592315,-0.67839324,-0.004573438,-0.2649628,5.43609,-4.1635046
456,1778597812733,0.14592315,-0.67839324,-0.004573438,-0.2649628,5.43609,-4.1635046
457,1778597812743,0.037990022,-0.38032708,-0.017074168,-0.79076505,4.2992697,-3.8928914
458,1778597812753,-0.0705529,-0.012500729,0.14689882,-1.6082555,2.346028,-3.1316006
459,1778597812763,-0.08000467,0.071589544,0.11067719,-1.9139935,1.4818064,-2.7348437
460,1778597812773,-0.05049075,0.08293167,0.08110229,-2.1707096,1.2084441,-2.4662156
461,1778597812783,-0.03811198,0.10689648,0.09555435,-2.4097106,1.0328205,-2.212554
462,1778597812793,-0.03280679,0.1823887,0.20531686,-2.563954,0.64812803,-1.7383698
463,1778597812803,-0.038051,0.19848719,0.23428197,-2.5153904,0.33628133,-1.4592043
464,1778597812813,-0.11183579,0.19842622,0.3514839,-2.3700044,-0.17455475,-0.94225967
465,1778597812823,-0.12927583,0.21562232,0.5757653,-2.1030564,-0.7825184,-0.54046303
466,1778597812833,-0.1325687,0.23794071,0.55302006,-1.7847955,-1.5451837,-0.13164146
467,1778597812843,0.0059759584,0.26471058,0.42252466,-1.5682437,-2.5537221,0.39752057
468,1778597812853,0.061527982,0.2502585,0.38471758,-1.4764613,-3.8394408,1.2486086
469,1778597812863,0.061527982,0.2502585,0.38471758,-1.4764613,-3.8394408,1.2486086
470,1778597812873,0.10092052,0.26403978,0.33819047,-1.4695891,-4.308585,1.7302758
471,1778597812883,0.10092052,0.26403978,0.33819047,-1.4421002,-5.013829,2.5529585
472,1778597812893,0.1387276,0.22604977,0.28349215,-1.3694072,-5.2424455,2.7818804
473,1778597812903,0.18281554,0.20580468,0.27147925,-1.0842859,-5.6149206,3.0972395
474,1778597812913,0.18281554,0.20580468,0.27147925,-0.82695884,-5.6937222,3.1859677
475,1778597812923,0.18281554,0.20580468,0.27147925,-0.46273044,-5.5681896,3.175583
476,1778597812933,0.21592724,0.19842622,0.17787623,-0.065209866,-5.2387805,3.0518827
477,1778597812943,0.20464608,0.1884866,0.14574021,0.1638646,-4.981148,2.9226847
478,1778597812953,0.18507177,0.18287653,0.10464026,0.49968776,-4.3493605,2.5702155
479,1778597812963,0.16915621,0.1803154,0.088419795,0.762818,-3.8383718,2.2782218
480,1778597812973,0.16531453,0.18897444,0.07561417,0.9286679,-3.3093624,1.9283489
481,1778597812983,0.16311927,0.18257163,0.05713748,1.0516045,-2.6600127,1.4274393
482,1778597812993,0.17446141,0.1797056,0.045124583,1.0861185,-2.2867742,1.0945178
483,1778597813003,0.1255561,0.14263028,-0.014330104,1.0503827,-1.5972599,0.45280385
484,1778597813013,0.10409144,0.10927467,-0.04049017,0.9193522,-1.0567969,-0.037110064
485,1778597813023,-0.12622687,-0.06067427,-0.75998336,0.7305948,-0.45570546,-0.39675698
486,1778597813033,-0.57357,-0.6910769,-3.1167672,-3.7333028,8.157189,-0.1386664
487,1778597813043,-0.041465834,-0.30233473,-0.60899895,-5.411197,11.346517,-0.3849978
488,1778597813053,-0.21361004,-0.9058455,-2.4160554,-8.9719305,16.656462,-2.1566598
489,1778597813063,-0.6369274,-3.5201445,-8.054617,-8.9719305,16.656462,-2.1566598
490,1778597813073,-1.1268951,-2.180432,2.8436415,-4.90479,11.0545225,-2.6009114
491,1778597813083,-1.1268951,-2.180432,2.8436415,2.1774292,4.190688,-1.0514518
492,1778597813093,0.3682532,-2.242631,1.4272174,5.597511,1.7640262,0.66339964
493,1778597813103,0.3682532,-2.242631,1.4272174,7.7063704,-1.6650659,1.2536482
494,1778597813113,1.4213635,-5.550263,0.9594462,8.522487,-5.2369475,1.4912748
495,1778597813123,2.1334782,-8.838625,0.7594345,3.3550246,-6.0003767,4.028351
496,1778597813133,1.8355339,-6.2216434,0.8353536,3.3550246,-6.0003767,4.028351
497,1778597813143,0.6871133,-2.8121762,-0.7666911,5.021465,-6.5480175,1.5234979
498,1778597813153,-0.21330512,-1.7928486,-1.9636511,7.7651663,-7.3564973,-0.49403727
499,1778597813163,-0.21330512,-1.7928486,-1.9636511,7.7651663,-7.3564973,-0.49403727
500,1778597813173,-0.21330512,-1.7928486,-1.9636511,7.7651663,-7.3564973,-0.49403727
501,1778597813183,-0.19964579,-0.7252862,-0.573692,6.4997587,-7.605425,-0.7860308
502,1778597813193,0.0038416875,-0.34794715,-0.18251066,1.452943,-3.6031888,0.010995574
503,1778597813203,0.061527982,-0.17141244,-0.10714039,0.9242391,-2.5337162,-0.00045814895
504,1778597813213,0.08549279,-0.07335794,-0.12512925,0.5864306,-1.6864462,-0.096516706
505,1778597813223,0.067321,-0.015549688,-0.14360595,0.28145617,-0.9282097,-0.25579983
506,1778597813233,0.03969744,0.050856624,-0.19927992,0.13164146,-0.48624873,-0.35521814
507,1778597813243,0.014086187,0.14208147,-0.4267322,-0.06352998,0.13973543,-0.49846604
508,1778597813253,-0.0482955,0.17104656,-0.39264485,-0.7997753,0.076052725,-0.81107634
509,1778597813263,-0.047746688,0.10634767,-0.06390616,-0.91645056,0.07009678,-0.9634872
510,1778597813273,-0.047746688,0.10634767,-0.06390616,-0.91645056,0.07009678,-0.9634872
511,1778597813283,-0.04884431,0.0962861,0.0015244792,-0.7985536,0.37323865,-1.2061534
512,1778597813293,-0.06061329,0.09043211,0.014635001,-0.7985536,0.37323865,-1.2061534
513,1778597813303,-0.054942228,0.104152426,0.025733208,-0.57635134,0.80878556,-1.4329371
514,1778597813313,-0.054942228,0.104152426,0.025733208,-0.57635134,0.80878556,-1.4329371
515,1778597813323,-0.042197585,0.095920235,0.022562291,-0.39752057,1.0720685,-1.5699236
516,1778597813333,-0.069638215,0.074272625,0.0015854583,0.019242255,1.9506454,-1.9294178
517,1778597813343,-0.084761046,0.08537084,-0.0031099375,0.09056077,2.132836,-1.9847012
518,1778597813353,-0.22635466,0.13415417,-0.00804925,0.30818152,2.7710376,-2.129018
519,1778597813363,-0.69449174,0.31227434,-0.09823744,0.39080104,3.0940325,-2.0210476
520,1778597813373,-1.0643305,0.4291104,-0.1823277,0.3417791,3.7169623,-1.5835154
521,1778597813383,-1.1668364,0.4575877,-0.2309891,0.16462818,4.383111,-1.0722213
522,1778597813393,-0.63528097,0.32440916,-0.08122425,0.02031127,4.453055,-0.99036527
523,1778597813403,-0.47795472,0.28910223,-0.14744763,-0.027947085,3.8580723,-1.1716396
524,1778597813413,-0.5191766,0.2745282,-0.20714624,-0.19975294,2.9326112,-1.378112
525,1778597813423,-0.6568676,0.257515,-0.22050068,-0.40591997,2.0366247,-1.4002558
526,1778597813433,-0.7455923,0.15275282,-0.20592664,-0.6834055,0.86467975,-1.2087497
527,1778597813443,-0.43313503,-0.089700356,-0.25928342,-0.875828,0.20097467,-0.957684
528,1778597813453,-0.43313503,-0.089700356,-0.25928342,-1.1510228,-0.15806139,-0.7646506
529,1778597813463,-0.43203738,-0.16689998,-0.32361645,-1.3810136,-0.1872302,-0.569021
530,1778597813473,-1.2356819,-0.57704586,-0.38801044,-1.9888245,-0.6586655,0.90576047
531,1778597813483,-1.2356819,-0.57704586,-0.38801044,-1.9888245,-0.6586655,0.90576047
532,1778597813493,-1.3077593,-0.8332194,-0.34026375,-2.1316142,-1.5242615,2.140319
533,1778597813503,-1.2164124,-6.9874806,0.117384896,-1.3994923,-6.77083,5.9148555
534,1778597813513,-1.2164124,-6.9874806,0.117384896,-0.07880162,-8.969792,5.639966
535,1778597813523,-0.2403189,-9.8103285,0.6530869,0.22708915,-7.222718,3.8276815
536,1778597813533,1.0915271,-8.106266,0.7497389,1.3862059,-5.6132407,1.2666291
537,1778597813543,1.6438764,-4.0216374,0.01695221,3.9782598,-3.4804046,-1.9101756
538,1778597813553,1.5991178,-2.0278623,-1.5371628,4.9750395,-0.4008803,-3.559512
539,1778597813563,0.98078895,-0.9008453,-1.7930924,3.4144313,4.884937,-4.627304
540,1778597813573,0.47106406,-0.49063838,-0.8509643,0.7086037,7.5858774,-4.8267517
541,1778597813583,0.23202574,-0.39081547,-0.6066208,0.08964448,7.843357,-4.699692
542,1778597813593,0.05049075,-0.1627534,-0.12830016,-0.9297369,7.76089,-4.142888
543,1778597813603,0.030306645,-0.05549104,-0.07524829,-1.264033,7.4701185,-3.7878227
544,1778597813613,-0.015793605,0.06360127,-0.06988213,-1.7041613,7.1410146,-3.2742376
545,1778597813623,-0.06360127,0.10970152,-0.039209604,-1.9937115,6.696763,-2.842356
546,1778597813633,-0.07585809,0.23989205,-0.0131715005,-2.1389446,5.96907,-2.4011586
547,1778597813643,-0.10927467,0.3594112,-0.057381395,-2.3356433,4.5485024,-1.4802792
548,1778597813653,-0.10927467,0.3594112,-0.057381395,-2.3356433,4.5485024,-1.4802792
549,1778597813663,-0.09903017,0.2792236,-0.0065857503,-2.3356433,4.5485024,-1.4802792
550,1778597813673,-0.091224834,0.21568331,0.075675145,-4.072486,0.20540343,1.4395039
551,1778597813683,-0.07750452,0.15671647,0.20275573,-4.279569,-1.3938417,2.083356
552,1778597813693,0.040917024,0.1255561,0.2754429,-4.279569,-1.3938417,2.083356
553,1778597813703,0.040917024,0.1255561,0.2754429,-3.9162571,-4.0706534,2.9323058
554,1778597813713,0.36130157,0.21385394,0.45411184,-3.3884695,-5.3351445,3.1622968
555,1778597813723,0.39886475,0.21653701,0.45234346,-3.3884695,-5.3351445,3.1622968
556,1778597813733,0.42093918,0.20592664,0.44002566,-2.1945333,-6.6981373,3.3331861
557,1778597813743,0.43039095,0.20397532,0.42703712,-2.1945333,-6.6981373,3.3331861
558,1778597813753,0.43636695,0.20848778,0.30861557,-2.1945333,-6.6981373,3.3331861
559,1778597813763,0.43776944,0.21275632,0.2642227,-0.57528234,-6.225939,2.9659035
560,1778597813773,0.45155072,0.240014,0.23379412,-0.0013744468,-5.5892644,2.6561947
561,1778597813783,0.4374036,0.27916262,0.16153382,0.6261369,-4.455804,2.157576
562,1778597813793,0.4230125,0.2833702,0.13506886,0.6261369,-4.455804,2.157576
563,1778597813803,0.39057156,0.26593015,0.073540874,1.2518156,-2.1174116,1.0312933
564,1778597813813,0.38130274,0.2336112,0.044575773,1.2518156,-2.1174116,1.0312933
565,1778597813823,0.34934965,0.21568331,-0.012500729,1.2501358,-1.4576772,0.6762278
566,1778597813833,0.21598822,0.10110346,-0.0670161,0.95829487,-0.14462234,0.07070765
567,1778597813843,-2.3531861,-1.498868,-2.5311232,0.95829487,-0.14462234,0.07070765
568,1778597813853,-2.3531861,-1.498868,-2.5311232,-8.686657,15.459473,5.4496818
569,1778597813863,0.5508858,-0.4861869,0.7812651,-8.812494,14.876401,3.8803687
570,1778597813873,0.97511786,-0.9426159,1.0883563,-7.380321,14.839444,1.21608
571,1778597813883,0.97511786,-0.9426159,1.0883563,-7.380321,14.839444,1.21608
572,1778597813893,1.8483396,-3.0934122,4.0406013,-1.5234979,20.97803,-0.59574634
573,1778597813903,-0.16019227,-1.6814395,0.8438907,4.053396,-3.844175,2.4420865
574,1778597813913,0.31861615,-2.0440216,2.0407288,4.053396,-3.844175,2.4420865
575,1778597813923,1.5435656,-4.012246,0.84474444,5.602398,-14.21743,1.2651019
576,1778597813933,1.5399069,-5.376716,0.7450435,4.597983,-16.29483,0.6226244
577,1778597813943,1.4444135,-6.5189166,0.9861551,2.3264804,-16.997631,0.5731443
578,1778597813953,0.649733,-5.4137306,1.0806118,2.010663,-13.36955,1.4309518
579,1778597813963,0.3231286,-3.655823,0.37105823,2.010663,-13.36955,1.4309518
580,1778597813973,0.3231286,-3.655823,0.37105823,2.010663,-13.36955,1.4309518
581,1778597813983,0.32325056,-1.5662498,0.14116678,3.0500503,-0.5119051,1.0458013
582,1778597813993,0.15927759,-0.9308469,0.12537317,2.925739,0.36911532,0.6107125
583,1778597814003,0.03439225,-0.5140544,0.081956,2.9104674,0.6516405,0.33292156
584,1778597814013,-0.067321,-0.27349156,-0.22214709,2.0836613,-0.8330675,0.18219055
585,1778597814023,-0.2294646,0.112140685,-1.2201931,2.0836613,-0.8330675,0.18219055
586,1778597814033,-0.14013013,-0.004573438,-0.12238518,0.09728029,-4.1314344,0.23090707
587,1778597814043,-0.17726645,-0.023111105,0.09963996,0.43310347,-3.566842,0.09621128
588,1778597814053,-0.17726645,-0.023111105,0.09963996,0.43310347,-3.566842,0.09621128
589,1778597814063,-0.32221392,0.024574606,0.03963646,0.7425067,-2.6870434,0.26450464
590,1778597814073,-0.32221392,0.024574606,0.03963646,0.7425067,-2.6870434,0.26450464
591,1778597814083,-0.3889861,0.1683025,0.0015854583,0.7863363,-2.378404,-0.081397794
592,1778597814093,-0.4281347,0.50563926,-0.040429186,0.57894754,-2.3845124,-0.82772243
593,1778597814103,-0.93109095,1.2636104,-0.10598179,-0.89552844,-3.5004106,-3.6008978
594,1778597814113,-1.2576953,1.1596408,0.010915271,-1.9176587,-4.9206724,-4.5937066
595,1778597814123,-1.2576953,1.1596408,0.010915271,-1.9176587,-4.9206724,-4.5937066
596,1778597814133,-1.2576953,1.1596408,0.010915271,-1.9176587,-4.9206724,-4.5937066
597,1778597814143,-0.86828244,0.66314846,0.21537842,-2.8296804,-5.497482,-3.7358992
598,1778597814153,-0.8740754,0.6243657,0.28257746,-2.431702,-4.279111,-2.789058
599,1778597814163,-0.8296825,0.4875894,0.26275924,-1.8391626,-3.1230485,-1.9446895
600,1778597814173,-0.6775395,0.30611542,0.21580528,-1.4057536,-2.4382687,-1.3526083
601,1778597814183,-0.6775395,0.30611542,0.21580528,-0.88453287,-1.7308867,-0.7160868
602,1778597814193,-0.6114381,0.2519659,0.21763465,0.12415836,-0.13744467,0.25625798
603,1778597814203,-0.456673,0.15049659,0.20336552,0.5644395,0.6409504,0.5983425
604,1778597814213,-0.31587207,0.051832296,0.17287594,0.5644395,0.6409504,0.5983425
605,1778597814223,-0.24397767,-0.025306353,0.1414107,0.8162687,1.0711522,0.74006325
606,1778597814233,-0.25251475,-0.1348859,0.033538543,0.9363037,1.3674219,0.7788532
607,1778597814243,-0.4255736,-0.43167153,-0.9713372,0.9425651,1.4883732,0.8028296
608,1778597814253,-0.42459795,-0.49716315,-0.5880221,-1.150412,-0.8173377,1.4242324
609,1778597814263,-0.42459795,-0.49716315,-0.5880221,-1.150412,-0.8173377,1.4242324
610,1778597814273,-0.9485919,-0.86730665,0.6295489,-0.990518,1.6143641,2.538298
611,1778597814283,-1.6468644,-1.6907694,0.9552996,-0.24281894,4.3699775,3.8626537
612,1778597814293,-3.8060758,-6.6426435,0.15586275,0.5682574,10.322096,7.9368196
613,1778597814303,-2.4634974,-8.630016,-0.69949204,0.35964692,8.962462,10.407311
614,1778597814313,-2.4634974,-8.630016,-0.69949204,1.9743165,3.9503129,5.2473326
615,1778597814323,-0.6188166,-6.429765,0.6730271,2.3017402,4.0723333,0.032528576
616,1778597814333,-0.6776005,-5.1710944,0.5925956,2.5126414,5.176014,-1.4399621
617,1778597814343,-0.17720546,-2.9570627,0.22245201,2.3386977,5.9292107,-2.213623
618,1778597814353,0.06982114,-2.0709136,0.098054506,1.9329304,5.722433,-2.506533
619,1778597814363,0.23117203,-1.3205649,0.042197585,1.3822353,4.9968777,-2.900999
620,1778597814373,0.23031832,-0.91316307,0.02792846,0.9240864,3.9828415,-3.2520938
621,1778597814383,0.22080556,-0.6183897,0.029087063,0.7128797,3.3757942,-3.4025195
622,1778597814393,0.15031365,-0.3586185,-0.00060979166,0.38163805,2.542421,-3.4892623
623,1778597814403,0.12701961,-0.2769064,-0.007256521,0.2564107,2.2463043,-3.4717
624,1778597814413,0.122507155,-0.07994369,0.0336605,-0.14080444,1.1687379,-3.2508721
625,1778597814423,0.15299673,-0.024086772,0.07323598,-0.3173445,0.64904433,-3.175125
626,1778597814433,0.13732508,0.04268542,0.23891638,-0.42195517,0.5681047,-3.005457
627,1778597814443,0.13732508,0.04268542,0.23891638,-0.29840767,1.0059423,-2.9098566
628,1778597814453,0.11586042,0.06280854,0.17562,-0.29840767,1.0059423,-2.9098566
629,1778597814463,-0.009695687,0.17110755,-0.005854,-0.37507126,1.2082914,-2.009594
630,1778597814473,-0.009695687,0.17110755,-0.005854,-0.37507126,1.2082914,-2.009594
631,1778597814483,-0.027440626,0.20007265,-0.054576356,-0.54519725,1.2032518,-1.4049901
632,1778597814493,-0.05067369,0.2004995,-0.023172084,-1.0670289,1.3347405,-0.3371976
633,1778597814503,-0.032197,0.18623038,0.037624147,-1.5216653,1.2052372,0.68325275
634,1778597814513,0.005488125,0.17744938,0.12726352,-1.761888,0.90576047,1.3069462
635,1778597814523,0.037807085,0.17098558,0.16958307,-1.8383989,0.5871942,1.616044
636,1778597814533,0.090554066,0.15086246,0.1718393,-1.8808541,-0.14355333,2.0787745
637,1778597814543,0.13116619,0.14177656,0.15970443,-1.8674151,-0.3849978,2.1960607
638,1778597814553,0.21550037,0.15122834,0.19988972,-1.6484199,-1.1972959,2.4576635
639,1778597814563,0.22367159,0.15714332,0.20720722,-1.4370605,-1.664455,2.5465446
640,1778597814573,0.23989205,0.15281379,0.20159712,-1.4370605,-1.664455,2.5465446
641,1778597814583,0.2591005,0.15970443,0.17244908,-0.559858,-2.967736,2.351984
642,1778597814593,0.25416118,0.14543532,0.14037405,-0.559858,-2.967736,2.351984
643,1778597814603,0.22489117,0.12659276,0.10134738,-0.559858,-2.967736,2.351984
644,1778597814613,0.22489117,0.12659276,0.10134738,-0.559858,-2.967736,2.351984
645,1778597814623,0.18251066,0.07494339,0.031892106,0.111177474,-2.6230555,1.5314392
646,1778597814633,0.18653527,0.07976075,0.020184105,0.111177474,-2.6230555,1.5314392
647,1778597814643,0.18653527,0.07976075,0.020184105,0.17852537,-2.2983804,1.3041973
648,1778597814653,0.20269476,0.09360302,-0.09677394,0.20250183,-1.8664987,1.0578659
649,1778597814663,-0.24867305,-0.1501917,-2.277572,-1.0810788,1.047023,0.7637343
650,1778597814673,0.21678093,-0.14848427,0.34928867,-6.092312,9.962448,0.7872526
651,1778597814683,0.27794304,-0.11708001,0.6033889,-5.5573463,9.256746,0.102319926
652,1778597814693,0.23751387,-0.13616648,0.6611971,-4.423428,7.630776,-0.63621616
653,1778597814703,-0.6128406,-2.8321164,-9.180779,-6.1700444,8.578533,-1.0560333
654,1778597814713,-0.49191895,-4.944069,-3.653262,-5.472131,14.290123,-1.9976821
655,1778597814723,-0.3910594,-2.2064092,2.4401424,5.389664,5.3678255,-1.2000448
656,1778597814733,-0.28782168,-2.1205506,1.694916,7.7408843,1.5476271,-0.45616361
657,1778597814743,0.70333374,-4.7407646,0.67424667,9.168476,-4.7482557,0.7812967
658,1778597814753,0.4601488,-7.317439,0.5368606,7.3763504,-7.156592,2.4436138
659,1778597814763,0.83663416,-8.063092,0.4235613,5.3608007,-8.363814,4.299117
660,1778597814773,1.1265901,-7.6504464,0.57686293,2.5929701,-9.215818,5.3177347
661,1778597814783,0.3164209,-2.8876686,-0.79632694,2.0082195,-8.414058,5.1822753
662,1778597814793,0.017805915,-1.9115748,-1.1543967,2.462856,-8.577923,4.7429104
663,1778597814803,-0.11848252,-1.3539205,-0.86773354,2.846174,-8.484002,3.998724
664,1778597814813,-0.08268775,-0.9476163,-0.2394042,2.8086057,-7.9945464,3.3113477
665,1778597814823,-0.06317442,-0.67479545,-0.008171208,2.7172813,-7.4246087,2.8716774
666,1778597814833,-0.10677453,-0.26593015,-0.08378538,2.631913,-6.8557405,2.4871378
667,1778597814843,-0.23239161,-0.13573962,-0.5739359,2.1972823,-5.5691056,2.0239494
668,1778597814853,-0.17464434,0.00024391667,-0.9736544,2.1972823,-5.5691056,2.0239494
669,1778597814863,-0.11543357,0.009085896,-0.4610025,0.09972375,-2.5752552,1.7440202
670,1778597814873,-0.013842272,0.10207913,-0.08689531,-0.022296581,-2.0114264,1.3384057
671,1778597814883,-0.013842272,0.10207913,-0.08689531,-0.022296581,-2.0114264,1.3384057
672,1778597814893,0.072138354,0.13006857,-0.02786748,-0.26740626,-0.7997753,-0.20219639
673,1778597814903,0.056771606,0.2570272,-0.07445556,-0.59406644,-0.21670444,-1.4532484
674,1778597814913,-0.020610958,0.5274698,-0.1009815,-1.1751521,-0.39950588,-2.7994428
675,1778597814923,-0.020610958,0.5274698,-0.1009815,-1.1751521,-0.39950588,-2.7994428
676,1778597814933,-0.17159538,0.77760637,-0.067077085,-1.5583172,-0.7266242,-3.6716056
677,1778597814943,-0.36459443,0.67686874,0.042868353,-2.0314324,-0.5991061,-5.2471795
678,1778597814953,-0.18220575,0.0951275,0.035794772,-2.0650299,0.31016684,-5.9153137
679,1778597814963,-0.18336436,0.027379647,0.0453685,-1.8942931,0.9653198,-6.022215
680,1778597814973,-0.23507468,0.09140777,0.05719846,-1.6734654,1.3999504,-6.028782
681,1778597814983,-0.3594722,0.18671821,0.059698608,-1.3016012,1.9042196,-5.9537983
682,1778597814993,-0.36935082,0.15488708,0.04439283,-1.0859656,2.1534526,-5.884923
683,1778597815003,-0.44167212,0.058844898,0.0190255,-0.7787005,2.4535403,-5.621182
684,1778597815013,-0.71101713,0.09262736,-0.017257104,-0.5719226,2.733622,-5.316513
685,1778597815023,-1.0118883,0.09750569,0.09128582,-0.3475823,3.2473598,-4.7482557
686,1778597815033,-1.0118883,0.09750569,0.09128582,0.25335637,3.5792122,-2.595261
687,1778597815043,-1.2509876,0.058966853,0.09177365,0.5242751,3.264922,-0.9773844
688,1778597815053,-1.0483538,0.025733208,-0.023720896,0.6001751,2.694832,0.19135354
689,1778597815063,-1.0483538,0.025733208,-0.023720896,0.6001751,2.694832,0.19135354
690,1778597815073,-0.47557652,-0.12512925,-0.13939838,0.3652974,1.4833336,1.4915802
691,1778597815083,-0.47557652,-0.12512925,-0.13939838,0.3652974,1.4833336,1.4915802
692,1778597815093,-0.74272627,-0.37105823,-0.33447072,0.18127427,1.2200506,1.6676621
693,1778597815103,-1.079758,-0.7594345,-0.4241711,-0.97112304,-0.08552113,2.7044532
694,1778597815113,-1.4310591,-1.4358155,-0.4744789,-0.97112304,-0.08552113,2.7044532
695,1778597815123,-1.4310591,-1.4358155,-0.4744789,-1.6789632,-0.59589905,3.1277828
696,1778597815133,-1.519113,-6.3704324,-0.64711094,-5.765346,-2.5906794,2.9891164
697,1778597815143,-2.1216483,-9.351216,0.3108108,-7.059006,-5.759543,3.3733506
698,1778597815153,-1.0553665,-9.30408,1.0962834,-3.2366695,-11.022758,5.258023
699,1778597815163,0.41295093,-7.121879,0.80394936,0.68294734,-10.698083,4.1703773
700,1778597815173,1.1799469,-4.2226853,0.52112794,2.8803823,-7.635968,2.0894647
701,1778597815183,1.4236807,-1.4801472,-1.0788434,5.1311154,3.071125,-1.5028812
702,1778597815193,1.4236807,-1.4801472,-1.0788434,5.1311154,3.071125,-1.5028812
703,1778597815203,1.0259744,-0.8505984,-0.8191332,4.082107,9.061575,-2.7759244
704,1778597815213,0.6575384,-0.5438732,-0.36410663,4.082107,9.061575,-2.7759244
705,1778597815223,0.4656369,-0.3732535,-0.2833702,3.0363057,11.818105,-3.7333028
706,1778597815233,0.3421541,-0.25928342,-0.23726994,2.0415115,9.824087,-3.3889277
707,1778597815243,0.16122891,-0.09567632,-0.22989148,2.0415115,9.824087,-3.3889277
708,1778597815253,0.050917607,0.15598471,-0.2667229,0.04734206,6.9681396,-2.1908681
709,1778597815263,-0.020732917,0.19415767,-0.23428197,-1.006095,5.035515,-1.3625349
710,1778597815273,-0.020732917,0.19415767,-0.23428197,-1.006095,5.035515,-1.3625349
711,1778597815283,-0.021891521,0.23129399,-0.18995011,-2.7388144,0.93951076,0.32559118
712,1778597815293,0.023233064,0.20799993,-0.1039085,-3.5220964,-1.1316279,1.2466233
713,1778597815303,0.1572043,0.15616766,0.03305071,-4.0150647,-2.3226624,1.8295414
714,1778597815313,0.1572043,0.15616766,0.03305071,-4.0150647,-2.3226624,1.8295414
715,1778597815323,0.36020395,0.088419795,0.24403864,-4.329202,-3.1870368,2.2299635
716,1778597815333,0.43215933,0.069638215,0.32587266,-4.4845147,-3.7355938,2.491872
717,1778597815343,0.4931995,0.038538832,0.38532734,-4.18458,-5.1137056,2.8467848
718,1778597815353,0.60899895,0.027623562,0.41002396,-3.966348,-5.45411,2.832124
719,1778597815363,0.676198,0.015854584,0.42154896,-3.3896914,-5.967695,2.602744
720,1778597815373,0.7122977,0.025672229,0.36721656,-3.040887,-6.0542855,2.4883597
721,1778597815383,0.7136392,0.043051295,0.31587207,-2.4811819,-6.070779,2.1103866
722,1778597815393,0.5611303,0.08018761,0.18812074,-2.05434,-5.9050817,1.802816
723,1778597815403,0.5611303,0.08018761,0.18812074,-1.5731307,-5.4765596,1.4921911
724,1778597815413,0.44045252,0.122202255,0.14354497,-1.1872166,-4.8543935,1.2779301
725,1778597815423,0.37544873,0.12512925,0.11457986,-0.99036527,-4.4101415,1.1855367
726,1778597815433,0.24733151,0.17000991,0.07476046,-0.36483926,-2.9003882,0.97295564
727,1778597815443,0.17537609,0.18446198,0.0026830835,-0.051465396,-2.10046,0.79534656
728,1778597815453,0.16342416,0.18915738,-0.027196707,0.080634214,-1.617724,0.61682117
729,1778597815463,0.16342416,0.18915738,-0.027196707,0.080634214,-1.617724,0.61682117
730,1778597815473,0.15586275,0.17732742,-0.04664906,0.121256754,-0.44776422,0.09972375
731,1778597815483,-2.2900116,-0.2827604,-0.9621293,-0.15806139,0.48915035,0.12217305
732,1778597815493,-6.4645844,-2.1299415,-3.2453113,-3.3748777,6.0020566,5.6541686
733,1778597815503,-6.4645844,-2.1299415,-3.2453113,-3.3748777,6.0020566,5.6541686
734,1778597815513,0.73126215,-0.47990605,0.28105298,-6.5872655,10.502912,6.5231247
735,1778597815523,1.5297843,-0.7644348,0.8851126,-5.3258286,12.791823,3.201392
736,1778597815533,1.6064962,-1.3336145,1.3533716,-1.8730656,20.119305,-0.43417248
737,1778597815543,1.5856413,-2.0069463,1.3063568,5.60927,26.512163,-4.4150286
738,1778597815553,0.8433418,-4.647832,-2.016886,10.807122,22.82269,-4.0367503
739,1778597815563,0.8433418,-4.647832,-2.016886,10.807122,22.82269,-4.0367503
740,1778597815573,-0.2250741,-1.7410163,1.5344799,10.807122,22.82269,-4.0367503
741,1778597815583,-0.8879787,-6.243596,-12.064485,5.581934,-8.926726,0.97035944
742,1778597815593,1.738394,-6.170665,0.81431586,4.2847614,-15.798502,-0.7099781
743,1778597815603,1.738394,-6.170665,0.81431586,2.7844765,-13.595875,-0.50717086
744,1778597815613,1.4156314,-6.0292544,0.99109435,2.7844765,-13.595875,-0.50717086
745,1778597815623,0.8334633,-4.3485465,0.83840257,1.9547688,-5.773898,-0.00015271631
746,1778597815633,0.27800402,-1.9994459,0.39166918,2.0761783,-2.9283352,-0.18478674
747,1778597815643,0.27800402,-1.9994459,0.39166918,2.446668,-0.88147855,-0.2434298
748,1778597815653,0.27800402,-1.9994459,0.39166918,2.446668,-0.88147855,-0.2434298
749,1778597815663,-0.12744646,-0.7290669,0.06738198,2.8101327,0.12415836,-0.23548855
750,1778597815673,-0.5624109,-0.16196068,-1.0998203,3.2661438,0.33460143,-0.15897769
751,1778597815683,-0.82010883,-0.13714215,-0.78449696,1.7545577,-5.267644,0.68279463
752,1778597815693,-0.7513853,-0.21342708,0.0582351,1.7635679,-5.081177,1.2105823
753,1778597815703,-0.68467414,-0.16500962,0.280992,2.2380576,-3.733914,1.449125
754,1778597815713,-0.72577405,-0.10604277,0.06640632,2.644741,-2.446668,1.8695531
755,1778597815723,-0.6680878,-0.027562585,-0.04701494,2.6575692,-2.256078,1.920255
756,1778597815733,-0.47429594,0.2558076,-0.3463007,2.0917554,-2.4546092,1.3327552
757,1778597815743,-0.35733792,0.96810526,-0.47813767,0.52839845,-4.4550405,-1.6158913
758,1778597815753,-0.78565556,1.0364629,-0.23525764,-0.86727595,-6.504035,-4.2868996
759,1778597815763,-1.2347062,0.5935712,0.19501138,-1.9521726,-7.1908,-5.1375294
760,1778597815773,-1.0800631,0.46941763,0.2531855,-2.2011,-6.5472536,-4.6818237
761,1778597815783,-0.67979574,0.37331447,0.20720722,-2.2731824,-5.979302,-4.198935
762,1778597815793,-0.33599523,0.27629662,0.14994776,-2.1862867,-4.8000264,-3.6355646
763,1778597815803,-0.25586858,0.14378887,0.16165577,-2.1862867,-4.8000264,-3.6355646
764,1778597815813,-0.29495624,0.19336495,0.1879378,-1.7531832,-3.6322048,-3.2143729
765,1778597815823,-0.29495624,0.19336495,0.1879378,-1.3277156,-3.0027082,-2.8411343
766,1778597815833,-0.38215643,0.24227023,0.25562465,-1.3277156,-3.0027082,-2.8411343
767,1778597815843,-0.40551147,0.28019926,0.27879676,-0.7910705,-2.738356,-2.163532
768,1778597815853,-0.42051232,0.30843264,0.2987979,-0.5716171,-2.666885,-1.8822285
769,1778597815863,-0.42051232,0.30843264,0.2987979,-0.5716171,-2.666885,-1.8822285
770,1778597815873,-0.43331796,0.31733558,0.3536182,0.06414085,-2.5442538,-0.98807454
771,1778597815883,-0.35813063,0.23537959,0.34172726,0.30573806,-2.3402247,-0.2657264
772,1778597815893,-0.286846,0.09470064,0.2666619,0.3210097,-2.046704,0.09773844
773,1778597815903,-0.25477096,-0.029270003,0.15061855,0.1339322,-1.180497,0.5664248
774,1778597815913,-0.2315379,-0.10884781,0.06945527,-0.18127427,-0.15897769,0.956615
775,1778597815923,-0.2550149,-0.1972676,0.033294626,-0.68523806,1.4364496,1.4705054
776,1778597815933,-0.29196826,-0.27184513,0.15677744,-1.1479685,3.5057557,2.0610592
777,1778597815943,-0.520945,-0.5302139,0.35971612,-1.4175128,5.869346,2.7322476
778,1778597815953,-1.2730621,-1.3341632,0.64619625,-1.7081319,9.429927,3.973373
779,1778597815963,-1.9702978,-3.655945,0.47868645,-2.7194192,13.949871,6.5150304
780,1778597815973,-0.82577986,-7.15865,1.1442741,-3.8858666,17.913624,6.8143544
781,1778597815983,-0.7252862,-8.782769,1.4688662,2.5735753,9.003848,2.995225
782,1778597815993,1.0496954,-6.811434,0.6510136,3.324634,7.296633,0.20677789
783,1778597816003,1.0496954,-6.811434,0.6510136,3.324634,7.296633,0.20677789
784,1778597816013,1.0385362,-3.919863,0.39801103,3.0497448,6.2683935,-2.1029036
785,1778597816023,0.54369026,-1.3753241,-0.016647313,2.4863744,4.8940997,-3.6728272
786,1778597816033,0.54369026,-1.3753241,-0.016647313,0.89476484,3.011871,-4.2783475
787,1778597816043,0.54369026,-1.3753241,-0.016647313,0.14049901,2.518292,-3.879758
788,1778597816053,0.005366167,-0.22702545,-0.15915562,0.14049901,2.518292,-3.879758
789,1778597816063,-0.023111105,-0.1012864,-0.11226265,-0.7819075,2.2983804,-3.4075592
790,1778597816073,-0.023111105,-0.1012864,-0.11226265,-0.7819075,2.2983804,-3.4075592
791,1778597816083,-0.03731925,-0.004756375,-0.067321,-2.538298,1.8918496,-1.8779525
792,1778597816093,-0.026586918,0.09695688,0.020245085,-2.890767,1.8365663,-1.4407257
793,1778597816103,-0.020123126,0.22050068,0.07969977,-3.1290045,1.517542,-0.7130325
794,1778597816113,-0.0075004376,0.23812364,0.078663126,-3.2047517,0.88147855,0.27275133
795,1778597816123,0.01683025,0.12482436,0.097322755,-3.3287575,0.9111055,0.9078985
796,1778597816133,0.09018819,0.10781116,0.13482493,-3.5195,1.4708108,1.3753631
797,1778597816143,0.17177832,0.14878917,0.28623623,-3.5220964,1.781283,1.6212363
798,1778597816153,0.23312336,0.16202165,0.33977592,-3.3799174,1.8067867,1.7786869
799,1778597816163,0.31306705,0.17610784,0.47783276,-3.0332513,1.5212072,1.928807
800,1778597816173,0.35538658,0.2086707,0.5163716,-2.7608054,1.0178542,2.0916026
801,1778597816183,0.42819571,0.18373023,0.5135056,-1.9848539,-0.77304995,2.6616926
802,1778597816193,0.4435015,0.17196125,0.4475261,-1.614975,-1.6247488,2.9428434
803,1778597816203,0.3996575,0.14817938,0.2651374,-1.3243558,-2.3585508,3.2204816
804,1778597816213,0.3996575,0.14817938,0.2651374,-1.0836749,-2.8961122,3.411377
805,1778597816223,0.38008317,0.16153382,0.21556135,-0.38255435,-3.6532795,3.5057557
806,1778597816233,0.37800986,0.16525355,0.17208321,-0.21548271,-3.6925278,3.4581082
807,1778597816243,0.3545329,0.16891229,0.13183697,0.3903429,-3.5341609,3.1505375
808,1778597816253,0.3199577,0.18421806,0.117689796,0.72204274,-3.3224962,2.9119947
809,1778597816263,0.29587093,0.19909698,0.07976075,1.0320568,-2.9657507,2.6458101
810,1778597816273,0.2792236,0.20513393,0.037075333,1.3503176,-2.4920247,2.2592852
811,1778597816283,0.26922303,0.20159712,0.009756667,1.5551102,-2.0129538,1.8266398
812,1778597816293,0.23586741,0.18086421,-0.0020123124,1.6621643,-1.6441438,1.4686728
813,1778597816303,0.2084268,0.15921661,-0.025916148,1.7192802,-1.3440562,1.1484267
814,1778597816313,0.2084268,0.15921661,-0.025916148,1.7192802,-1.3440562,1.1484267
815,1778597816323,0.18769388,0.14537434,-0.039087646,1.6890424,-0.7191411,0.48624873
816,1778597816333,0.16147284,0.14470357,-0.049576063,1.651627,-0.46471575,0.26236662
817,1778597816343,-4.735886,-1.2245836,-3.4252608,-0.27214047,3.0961704,1.9752327
818,1778597816353,-1.1166505,-0.60814524,-0.72662777,-3.6074648,8.533788,5.241071
819,1778597816363,0.5778386,-0.20153615,0.29410252,-4.1885505,8.976817,5.1682253
820,1778597816373,0.5778386,-0.20153615,0.29410252,-4.300033,8.104349,4.2096252
821,1778597816383,0.5391778,-0.3427639,0.09957898,-4.3602033,7.664679,3.5674531
822,1778597816393,1.9526749,-6.2662196,0.8444395,1.9767599,32.408997,-3.6829066
823,1778597816403,0.21098791,-4.490994,-1.0081686,17.8449,9.5030775,-3.1900911
824,1778597816413,0.21098791,-4.490994,-1.0081686,17.8449,9.5030775,-3.1900911
825,1778597816423,0.6246706,-4.192928,0.14250831,5.1615057,-9.792017,-3.4610097
826,1778597816433,0.6246706,-4.192928,0.14250831,5.1615057,-9.792017,-3.4610097
827,1778597816443,1.1539088,-7.4482393,1.3923373,-2.843883,-19.03395,-1.3863586
828,1778597816453,0.6223534,-6.358359,1.5563713,-1.9130772,-16.1441,1.5192219
829,1778597816463,0.6223534,-6.358359,1.5563713,-1.9130772,-16.1441,1.5192219
830,1778597816473,0.1636681,-2.8514469,0.58521706,4.3153048,-4.6861,2.3212879
831,1778597816483,0.03439225,-1.6397907,0.26538134,5.354692,-2.3689353,2.3341162
832,1778597816493,0.037075333,-0.9742642,0.04183171,5.1454706,-1.8139644,2.191021
833,1778597816503,0.037075333,-0.9742642,0.04183171,5.1454706,-1.8139644,2.191021
834,1778597816513,-0.0012805625,-0.51393247,-0.10354263,4.549419,-1.75975,1.815186
835,1778597816523,-0.0012805625,-0.51393247,-0.10354263,4.549419,-1.75975,1.815186
836,1778597816533,-0.0012805625,-0.51393247,-0.10354263,4.549419,-1.75975,1.815186
837,1778597816543,-0.20678036,0.026891813,0.09823744,0.7825184,-5.3757668,1.75975
838,1778597816553,-0.10165227,0.13220283,0.047807667,0.7825184,-5.3757668,1.75975
839,1778597816563,-0.10165227,0.13220283,0.047807667,1.1517864,-4.590347,1.4750868
840,1778597816573,0.037136313,0.22178122,-0.025062438,0.7499898,-2.3299928,-0.20051652
841,1778597816583,0.13311753,0.18799877,-0.016769271,0.48808134,-1.5607607,-1.4934129
842,1778597816593,0.13311753,0.18799877,-0.016769271,0.48808134,-1.5607607,-1.4934129
843,1778597816603,0.02646496,0.18744996,0.020671938,-0.10293079,-0.3885103,-3.2931745
844,1778597816613,-0.0705529,0.199036,0.015122834,-0.33841935,0.35705075,-4.019493
845,1778597816623,-0.24306297,0.16848545,0.083480485,-0.7890852,1.630552,-5.064989
846,1778597816633,-0.24306297,0.16848545,0.083480485,-1.0374019,2.5799894,-5.7297635
847,1778597816643,-0.8444395,0.104396336,0.10848194,-1.079857,2.7406468,-5.8078012
848,1778597816653,-1.2039117,0.09726177,0.08689531,-1.109484,2.664136,-5.471215
849,1778597816663,-1.5611886,0.15830192,0.050917607,-1.1473577,2.4327707,-4.967709
850,1778597816673,-1.7443092,0.25830775,-0.025733208,-1.1473577,2.4327707,-4.967709
851,1778597816683,-1.7443092,0.25830775,-0.025733208,-1.3946054,1.7838793,-2.9138272
852,1778597816693,-1.2536707,0.5945469,-0.20623155,-1.3946054,1.7838793,-2.9138272
853,1778597816703,-0.9482261,0.60235226,-0.19208437,-2.2175937,0.59559363,-0.76831573
854,1778597816713,-0.7513853,0.5325311,-0.14683785,-2.4182627,0.16890424,-0.46318856
855,1778597816723,-0.45588025,0.38355896,-0.066040434,-2.6039658,-0.6776023,-0.068264194
856,1778597816733,-0.37136313,0.33392194,-0.05433244,-2.601675,-0.89949906,0.034208454
857,1778597816743,-0.1381178,0.13061738,-0.06073525,-2.4208589,-1.3142766,0.24510968
858,1778597816753,-0.055917896,0.01396423,-0.11744587,-2.0996966,-0.88132584,0.26251933
859,1778597816763,-0.027501604,-0.10262794,-0.21367101,-1.8138117,0.013897184,0.26175576
860,1778597816773,-0.0617719,-0.14641099,-0.2675156,-1.6142114,0.81596327,0.27076602
861,1778597816783,-0.18781583,-0.1835473,-0.36483836,-1.379181,2.0917554,0.31597003
862,1778597816793,-0.403926,-0.18891345,-0.3971573,-1.379181,2.0917554,0.31597003
863,1778597816803,-1.0056075,-0.354167,-0.4732593,-1.3271047,3.53355,1.0283916
864,1778597816813,-2.1462228,-1.223425,-0.7946805,-1.5642731,1.6319265,2.7878363
865,1778597816823,-3.3095224,-2.967673,-0.9992657,-1.8048013,-1.2702943,4.7801733
866,1778597816833,-3.5118513,-7.6458116,-0.90480894,-0.89552844,-9.973291,11.047498
867,1778597816843,-2.1384175,-8.4901905,-0.1355567,0.9964739,-11.946081,8.7088
868,1778597816853,-3.0426166,-9.063517,0.45691693,1.4474452,-10.088134,3.1597004
869,1778597816863,-2.0999396,-6.5354424,0.52448183,1.3130548,-5.850104,1.5326608
870,1778597816873,-1.2750744,-5.304517,0.41380462,1.3153456,-4.542852,1.5248724
871,1778597816883,0.6916867,-2.5221593,-0.16647314,3.0214922,-3.3357823,0.8187121
872,1778597816893,1.235255,-1.4213635,-1.6798542,3.6870298,0.7189884,-0.3669773
873,1778597816903,1.235255,-1.4213635,-1.6798542,3.6870298,0.7189884,-0.3669773
874,1778597816913,0.6961991,-0.7068095,-0.33349505,2.6590965,7.247458,-1.9430096
875,1778597816923,0.6169872,-0.5730822,-0.13561767,2.26631,7.6507816,-2.3399193
876,1778597816933,0.5817413,-0.2961758,0.090554066,1.2863295,6.5130453,-3.1439707
877,1778597816943,0.5663135,-0.19062088,0.07555319,1.2863295,6.5130453,-3.1439707
878,1778597816953,0.5663135,-0.19062088,0.07555319,0.9272934,6.0336685,-3.135724
879,1778597816963,0.31404272,0.005854,-0.01323248,0.33337972,5.3467507,-2.8857274
880,1778597816973,0.31404272,0.005854,-0.01323248,-0.7860308,3.8692205,-1.8469511
881,1778597816983,0.31477445,0.18610841,0.10006681,-0.7860308,3.8692205,-1.8469511
882,1778597816993,0.2906267,0.20159712,0.11622629,-1.7168368,0.04337143,-0.02031127
883,1778597817003,0.2906267,0.20159712,0.11622629,-1.7168368,0.04337143,-0.02031127
884,1778597817013,0.34892282,0.19879209,0.18842563,-1.7168368,0.04337143,-0.02031127
885,1778597817023,0.47801572,0.1589117,0.2652594,-3.3165402,-4.55904,2.8243356
886,1778597817033,0.5741799,0.1302515,0.27147925,-3.3223433,-5.2236614,3.2123876
887,1778597817043,0.58088756,0.12140953,0.2409287,-3.122896,-5.6845593,3.4455855
888,1778597817053,0.6209509,0.11043327,0.23367217,-2.8528934,-5.7682476,3.4671185
889,1778597817063,0.6077794,0.1015913,0.23952618,-2.5977044,-5.649587,3.447418
890,1778597817073,0.6077794,0.1015913,0.23952618,-1.968666,-5.074305,3.4208453
891,1778597817083,0.4776498,0.17086363,0.20129223,-1.3292428,-4.0402627,3.3496795
892,1778597817093,0.4063652,0.19946286,0.14756958,-0.8177959,-2.9142854,3.2125404
893,1778597817103,0.29776126,0.25178298,0.10445731,-0.28221974,-1.6236799,2.9451342
894,1778597817113,0.25428313,0.29385862,0.088846646,0.49174652,0.47601673,2.3443482
895,1778597817123,0.13750802,0.4279518,0.03390442,0.77946407,1.2620476,1.9587394
896,1778597817133,0.13750802,0.4279518,0.03390442,0.77946407,1.2620476,1.9587394
897,1778597817143,0.21025616,0.39258388,-0.051649354,0.9298896,1.5384641,1.660179
898,1778597817153,0.21025616,0.39258388,-0.051649354,0.98456204,1.4905112,1.2484559
899,1778597817163,0.30581054,0.28940713,-0.044575773,0.84864455,1.1895074,0.5012149
900,1778597817173,0.30245668,0.2669668,-0.03506302,0.77946407,1.1276573,0.2649628
901,1778597817183,0.31160355,0.16263144,-0.059027832,0.6067419,0.98792183,-0.1600467
902,1778597817193,0.38282722,0.077931374,-0.013903251,0.42195517,0.9410379,-0.5500842
903,1778597817203,-1.0036561,-0.28928518,-0.4672224,0.29031372,1.0848967,-0.84513205
904,1778597817213,-5.8853436,-2.3538568,-2.78065,0.29031372,1.0848967,-0.84513205
905,1778597817223,-0.7419335,-1.7347355,-0.63393945,-7.05641,17.002975,8.011192
906,1778597817233,2.4441671,-2.2325695,1.3270286,-3.4723108,29.804573,-1.0676397
907,1778597817243,1.6125941,-3.7695491,3.0948148,7.0727506,24.355198,-5.7047176
908,1778597817253,-0.0190255,-4.8777847,1.2525121,15.860658,12.537856,-5.0733886
909,1778597817263,0.8965767,-4.932239,-2.94755,19.591824,-2.951701,-4.6900706
910,1778597817273,0.8229748,-6.561968,-0.2836141,19.591824,-2.951701,-4.6900706
911,1778597817283,0.8229748,-6.561968,-0.2836141,-2.7637072,-18.201647,-1.745242
912,1778597817293,0.5052124,-7.8385067,2.0670109,-2.7637072,-18.201647,-1.745242
913,1778597817303,0.22208612,-6.6378264,2.3803217,-1.2638801,-14.753922,1.1737776
914,1778597817313,0.26068595,-3.7450354,1.3729459,3.1603115,-7.8285437,2.6497808
915,1778597817323,0.18568157,-1.1692146,0.20946345,3.1603115,-7.8285437,2.6497808
916,1778597817333,0.07451654,-0.57564336,0.10799411,4.3374486,-4.608215,1.3753631
917,1778597817343,0.07451654,-0.57564336,0.10799411,4.3374486,-4.608215,1.3753631
918,1778597817353,-0.030184686,-0.2800773,0.06969919,4.209778,-4.0113993,1.067487
919,1778597817363,-0.13604453,-0.1331785,0.04049017,4.0408735,-3.4060318,0.8791878
920,1778597817373,-0.22111045,-0.11171384,0.050612707,3.4498615,-3.1154127,1.0064005
921,1778597817383,-0.28757775,0.09299323,-0.7001018,0.24281894,-5.8472023,1.4573717
922,1778597817393,-0.18915738,0.10122541,-0.0062808543,0.24281894,-5.8472023,1.4573717
923,1778597817403,-0.031892106,0.15671647,-0.024391668,0.28848112,-4.692056,0.73975784
924,1778597817413,0.031892106,0.16250949,-0.018476687,0.2275473,-4.2927027,0.37308595
925,1778597817423,0.13683724,0.16098501,-0.08463909,-0.46715918,-3.3131804,-1.082606
926,1778597817433,0.099822894,0.18787682,-0.0010366458,-0.89659745,-2.8753426,-1.9483547
927,1778597817443,0.018232772,0.2274523,0.04542948,-1.3907875,-2.0317378,-2.9568932
928,1778597817453,0.018232772,0.2274523,0.04542948,-1.7171422,-1.3037392,-3.629914
929,1778597817463,-0.25361237,0.28928518,0.24074577,-1.8756617,-0.75487673,-4.041637
930,1778597817473,-0.40606028,0.2464778,0.2543441,-1.9961549,0.8153524,-4.757266
931,1778597817483,-0.40606028,0.2464778,0.2543441,-1.9961549,0.8153524,-4.757266
932,1778597817493,-0.40606028,0.2464778,0.2543441,-1.9961549,0.8153524,-4.757266
933,1778597817503,-0.7488242,0.17421748,0.25867364,-1.3116804,3.4642167,-5.021923
934,1778597817513,-0.97755706,0.19245026,0.30776188,-0.51083606,3.2172744,-3.8267653
935,1778597817523,-1.820716,0.41404852,0.36337486,-0.14935656,2.5352435,-2.7524061
936,1778597817533,-1.9787129,0.53490925,0.20190202,0.18493946,1.6598736,-1.1685852
937,1778597817543,-1.9787129,0.53490925,0.20190202,0.09193522,0.8900307,0.2078469
938,1778597817553,-1.1956794,0.57820445,-0.24397767,0.09193522,0.8900307,0.2078469
939,1778597817563,-0.40978,0.21995185,-0.24580702,-0.6719518,0.39461896,0.9940305
940,1778597817573,-0.2394042,0.055430062,-0.22208612,-0.8553641,0.68600166,0.7470882
941,1778597817583,-0.19482844,-0.05689356,-0.22562292,-0.92271197,1.1905763,0.52687126
942,1778597817593,-0.19482844,-0.05689356,-0.22562292,-0.92271197,1.1905763,0.52687126
943,1778597817603,-0.17732742,-0.19507235,-0.33825144,-0.9425651,2.1641428,0.34162638
944,1778597817613,-0.27074748,-0.24727054,-0.4735642,-1.0855075,4.344474,0.33658674
945,1778597817623,-0.4306959,-0.2675156,-0.5509468,-1.2733486,5.066058,0.50625455
946,1778597817633,-0.7857166,-0.48429656,-0.74772656,-1.6274977,5.158604,1.0369438
947,1778597817643,-0.9054797,-1.0598788,-1.4075211,-2.201253,3.6086864,1.8851302
948,1778597817653,0.09988388,-3.5321572,-2.970783,-2.201253,3.6086864,1.8851302
949,1778597817663,-3.641188,-7.4315925,-1.1694585,-5.7682476,-12.017094,7.0050974
950,1778597817673,-2.1639068,-9.062297,0.9628001,-2.8857274,-7.6518507,5.0466633
951,1778597817683,-2.0143857,-7.689839,1.1418349,-1.3165673,-5.0077205,2.8657215
952,1778597817693,-2.0143857,-7.689839,1.1418349,-1.3165673,-5.0077205,2.8657215
953,1778597817703,-0.48893097,-4.7316785,0.9195048,2.3119721,-2.5663977,1.5389223
954,1778597817713,0.377583,-2.6561916,0.2704426,5.2111387,-0.54809886,0.4147775
955,1778597817723,0.6300368,-1.815106,0.07274815,5.577047,0.91415983,-1.0067059
956,1778597817733,0.8363293,-0.6424765,-0.8923082,4.7768135,4.968625,-2.6971228
957,1778597817743,0.8363293,-0.6424765,-0.8923082,4.7768135,4.968625,-2.6971228
958,1778597817753,0.45240447,-0.324958,-0.2572711,3.6865718,6.8933086,-3.1035008
959,1778597817763,0.42307347,-0.237087,-0.15433827,2.2409592,6.650948,-3.1910074
960,1778597817773,0.35843554,-0.10073759,-0.055308107,1.3932309,5.6097283,-2.8619037
961,1778597817783,0.3553256,0.06597946,-0.039880376,0.89568114,4.851797,-2.4556782
962,1778597817793,0.2040363,0.19080381,-0.1905599,0.011759156,3.8127155,-1.4158329
963,1778597817803,0.16208263,0.21147576,-0.2034265,-1.0491611,2.8023443,-0.07513642
964,1778597817813,0.28251648,0.20068243,-0.14702077,-1.9043725,1.9566014,1.0386237
965,1778597817823,0.43380582,0.10622571,0.036465544,-2.8919888,0.5169447,2.3362541
966,1778597817833,0.6258292,0.081468165,0.155131,-3.4605515,-0.81229806,3.063642
967,1778597817843,0.8183404,0.010793312,0.2461729,-3.9241984,-1.7996091,3.4171803
968,1778597817853,0.92413926,-0.060369372,0.33971494,-4.2319217,-2.7731755,3.4694092
969,1778597817863,0.8000467,-0.099274084,0.29263905,-4.2487206,-3.2322407,3.3904548
970,1778597817873,0.8000467,-0.099274084,0.29263905,-4.083787,-3.833332,3.2030718
971,1778597817883,0.7966318,-0.08909056,0.28660208,-3.8414261,-4.1372375,3.0002646
972,1778597817893,0.7531537,-0.046527103,0.26714975,-3.47002,-4.2659774,2.7267497
973,1778597817903,0.62302417,0.0006707709,0.19263318,-2.9013045,-3.7282634,2.383138
974,1778597817913,0.5017976,0.06500379,0.13415417,-2.4320073,-2.9810224,2.2177463
975,1778597817923,0.4861869,0.100432694,0.11451888,-2.123215,-2.330909,2.1803308
976,1778597817933,0.4861869,0.100432694,0.11451888,-2.123215,-2.330909,2.1803308
977,1778597817943,0.35721594,0.128788,0.08073642,-1.8573358,-1.8435913,2.1629212
978,1778597817953,0.35721594,0.128788,0.08073642,-1.8573358,-1.8435913,2.1629212
979,1778597817963,0.35721594,0.128788,0.08073642,-1.8573358,-1.8435913,2.1629212
980,1778597817973,0.35721594,0.128788,0.08073642,-0.35995236,1.7017179,1.218218
981,1778597817983,0.102384016,0.7462021,0.097871564,0.28863382,3.090062,0.56581396
982,1778597817993,0.13384928,0.69247943,0.0009146876,0.28863382,3.090062,0.56581396
983,1778597818003,0.1703758,0.54143405,-0.05390558,0.5317582,3.6822958,-0.29275718
984,1778597818013,0.17226616,0.3595332,-0.08866371,0.11255192,3.0601294,-0.7075347
985,1778597818023,0.17994952,0.24812423,-0.054576356,-0.23762658,2.5657868,-0.91324353
986,1778597818033,0.2072682,0.10756725,-0.022867188,-0.23762658,2.5657868,-0.91324353
987,1778597818043,-4.311044,-1.09171,-3.3846486,-1.1472049,3.8803687,-1.0650436
988,1778597818053,0.58753425,-1.2955024,0.91340697,-5.3146806,16.36737,1.8460348
989,1778597818063,1.2830018,-3.3317187,3.33367,-5.9788437,30.37497,-0.09987647
990,1778597818073,1.2830018,-3.3317187,3.33367,13.748591,5.4970236,1.5974126
991,1778597818083,-0.27696738,-1.7829089,-0.45179462,7.5698423,-6.45486,2.3722951
992,1778597818093,-0.27696738,-1.7829089,-0.45179462,7.5698423,-6.45486,2.3722951
993,1778597818103,2.4610581,-5.544531,1.349408,7.354512,-8.524625,1.9194913
994,1778597818113,2.4610581,-5.544531,1.349408,3.0714304,-20.70375,-3.3620496
995,1778597818123,1.9695662,-7.0815716,1.8496811,0.6420194,-19.45163,-3.0839531
996,1778597818133,1.1558601,-4.732654,1.0992714,0.48930305,-13.467135,-1.7638733
997,1778597818143,1.1558601,-4.732654,1.0992714,0.48930305,-13.467135,-1.7638733
998,1778597818153,0.29129747,-1.7145512,0.30739596,3.4483342,0.80649483,-1.9420934
999,1778597818163,0.19976775,-1.2775745,0.1364104,3.6523633,2.1711679,-1.969735
1000,1778597818173,-0.04323423,-0.7017483,0.063540295,3.738037,3.1850514,-1.817935
