id,timestamp,acc_x,acc_y,acc_z,gyro_x,gyro_y,gyro_z
0,1778598654173,0.35136196,-0.4644783,0.801998,-3.124423,-3.121216,1.2864822
1,1778598654183,0.35136196,-0.4644783,0.801998,-3.124423,-3.121216,1.2864822
2,1778598654193,0.30105415,-0.16750978,0.63509804,-2.9767463,-3.0871603,1.3558154
3,1778598654203,0.30105415,-0.16750978,0.63509804,-2.7959301,-3.1716123,1.32909
4,1778598654213,0.28446782,-0.1144579,0.65619683,-2.5799894,-3.4912477,1.2608259
5,1778598654223,0.27324766,-0.03445323,0.5552153,-1.3616186,-5.593235,0.9579894
6,1778598654233,0.27324766,-0.03445323,0.5552153,-1.3616186,-5.593235,0.9579894
7,1778598654243,0.26190552,0.028965104,0.2833702,-1.1340714,-5.894544,0.981355
8,1778598654253,0.2915414,0.035672814,0.19098675,-1.2275337,-5.241987,1.0490084
9,1778598654263,0.2915414,0.035672814,0.19098675,-1.2275337,-5.241987,1.0490084
10,1778598654273,1.235255,-0.30684718,-1.0959786,-1.934763,5.3360605,0.23762658
11,1778598654283,1.235255,-0.30684718,-1.0959786,-1.934763,5.3360605,0.23762658
12,1778598654293,1.235255,-0.30684718,-1.0959786,-1.934763,5.3360605,0.23762658
13,1778598654303,1.4161192,-0.42343935,-0.87779516,-2.8857274,5.4243307,-1.8839084
14,1778598654313,0.822548,-0.44935548,0.3664848,-1.3458889,3.3023374,-2.245846
15,1778598654323,0.418683,-0.5318603,0.6388177,0.35308012,3.004846,-1.8400788
16,1778598654333,0.13208087,-0.56619155,0.66168493,1.493871,2.7973046,-1.0221303
17,1778598654343,-0.049027253,-0.6568676,0.5479588,2.3142629,2.4303274,0.5505423
18,1778598654353,-0.055369087,-0.7160784,0.4803939,2.5923593,2.195755,1.6811012
19,1778598654363,0.22190319,-0.9066383,0.40703595,3.040887,1.9920316,3.7939312
20,1778598654373,0.66662425,-1.0639645,0.33349505,3.4193182,2.0532708,4.76368
21,1778598654383,1.1925696,-1.2225714,0.18135203,3.7048976,2.288912,4.436714
22,1778598654393,1.3869102,-1.1673242,0.0140252095,3.7392588,2.5016458,3.733761
23,1778598654403,1.1820812,-0.9245661,-0.02561125,3.5217907,2.934444,1.2105823
24,1778598654413,0.75980043,-0.59472984,-0.007561417,3.40649,2.957046,-0.24358252
25,1778598654423,0.48179638,-0.40441385,-0.0019513334,3.40649,2.957046,-0.24358252
26,1778598654433,0.257515,-0.22641563,-0.008841979,3.4202344,2.765387,-1.1015427
27,1778598654443,0.18995011,-0.15964346,-0.015183813,3.4423783,2.688418,-1.2185235
28,1778598654453,0.095920235,-0.069577225,-0.024086772,3.509268,2.5300512,-1.3483323
29,1778598654463,-0.23586741,0.25208786,-2.2174466,2.9739974,1.2583824,-1.3562735
30,1778598654473,-0.59058326,0.32837284,-2.8208354,0.6942484,-3.2096386,-1.1479685
31,1778598654483,-0.57478964,0.19269417,-1.8658404,-0.8197812,-4.8970013,-0.84604836
32,1778598654493,-0.21629311,-0.02426971,-0.474174,-0.852157,-1.5257887,-0.7695375
33,1778598654503,0.02207446,-0.057625312,0.041282896,-0.37064248,1.231657,-1.0360274
34,1778598654513,0.02841629,-0.04622221,0.08506594,-0.24556783,1.7487545,-1.1045971
35,1778598654523,0.3876446,-0.43252525,-0.078114316,-0.08399397,2.5576928,-1.1129965
36,1778598654533,0.3876446,-0.43252525,-0.078114316,-0.5299256,3.623958,-1.2388347
37,1778598654543,0.8129743,-0.87651455,-0.140496,-0.5299256,3.623958,-1.2388347
38,1778598654553,0.8129743,-0.87651455,-0.140496,-3.0957124,2.713158,-1.1876748
39,1778598654563,3.741194,-4.6667967,0.13915445,-4.8030806,1.423316,-0.3820962
40,1778598654573,4.047919,-4.953033,0.24806325,-5.701511,1.0413725,0.19486602
41,1778598654583,4.047919,-4.953033,0.24806325,-5.701511,1.0413725,0.19486602
42,1778598654593,4.047919,-4.953033,0.24806325,-5.701511,1.0413725,0.19486602
43,1778598654603,4.047919,-4.953033,0.24806325,-5.701511,1.0413725,0.19486602
44,1778598654613,2.8299212,-2.675339,0.54899544,-0.77488256,12.443478,1.0146471
45,1778598654623,1.2121439,-0.49594358,-2.5460632,-1.4352279,-8.076555,0.059864793
46,1778598654633,0.95023835,-0.4850283,-1.3953862,-2.0694587,-8.901376,0.4642576
47,1778598654643,0.8462079,-0.46027076,-0.64528155,-2.1992676,-5.6769233,0.82695884
48,1778598654653,0.8462079,-0.46027076,-0.64528155,-2.1992676,-5.6769233,0.82695884
49,1778598654663,0.8462079,-0.46027076,-0.64528155,-2.1992676,-5.6769233,0.82695884
50,1778598654673,0.8063275,-0.41551206,-0.28465074,-2.2015584,-3.9765801,0.04062254
51,1778598654683,0.62942696,-0.06738198,0.39496207,-2.1461222,-4.586987,-0.2611449
52,1778598654693,0.52204263,0.039331563,0.58942467,-1.9543107,-5.397147,-0.7800749
53,1778598654703,0.5124079,0.06713806,0.6109503,-1.7663169,-5.668982,-1.3614659
54,1778598654713,0.52381104,0.10768921,0.7655325,-1.7663169,-5.668982,-1.3614659
55,1778598654723,0.52381104,0.10768921,0.7655325,-1.7663169,-5.668982,-1.3614659
56,1778598654733,0.52381104,0.10768921,0.7655325,-1.7663169,-5.668982,-1.3614659
57,1778598654743,0.52381104,0.10768921,0.7655325,-1.7663169,-5.668982,-1.3614659
58,1778598654753,0.57863134,0.11183579,0.8888324,-1.5184582,-6.0193133,-1.5822937
59,1778598654763,0.57863134,0.11183579,0.8888324,-1.5184582,-6.0193133,-1.5822937
60,1778598654773,0.57863134,0.11183579,0.8888324,-1.5184582,-6.0193133,-1.5822937
61,1778598654783,0.4927117,0.15525296,0.33044612,-3.209486,-6.8482575,1.2450961
62,1778598654793,0.47960114,0.09457869,0.26623505,-3.2953126,-6.3371162,1.4271339
63,1778598654803,0.38923004,-0.12933682,-0.3067862,-3.4142785,-4.600579,1.6920967
64,1778598654813,0.18873052,-0.7444947,-2.1146965,-4.6781588,3.1940618,1.2837334
65,1778598654823,0.6307075,-0.66522175,-0.61515784,-4.705495,15.333176,-0.7139487
66,1778598654833,0.8212674,-0.7109561,-0.19165753,-2.4492643,21.045683,-2.7221682
67,1778598654843,0.35556954,-1.2007408,-3.7876601,-2.062892,20.346851,-3.1364875
68,1778598654853,0.48265013,-1.1431764,-0.8837101,-1.6048957,6.5185432,-2.7953193
69,1778598654863,0.24275808,-0.99109435,0.4667955,0.5876524,0.03604105,-2.244777
70,1778598654873,0.24275808,-0.99109435,0.4667955,0.5876524,0.03604105,-2.244777
71,1778598654883,-0.20306063,-0.6454645,0.58911973,5.1010303,0.00061086525,-0.20861048
72,1778598654893,-0.2737355,-0.58820504,0.20714624,5.6263742,0.7507534,0.49877146
73,1778598654903,-0.2737355,-0.58820504,0.20714624,5.9660153,1.8698585,2.1148155
74,1778598654913,-0.20238985,-0.59588844,0.09488358,5.8775926,2.9588785,3.4261904
75,1778598654923,-0.20238985,-0.59588844,0.09488358,5.701816,3.828598,4.482071
76,1778598654933,-0.09488358,-0.60558414,0.07415067,5.0361257,5.409059,6.262438
77,1778598654943,0.3109328,-0.629244,0.25781992,4.5793514,5.7598486,6.817256
78,1778598654953,0.48630884,-0.65229416,0.3266654,4.3780713,5.3898168,6.744105
79,1778598654963,0.48630884,-0.65229416,0.3266654,4.3780713,5.3898168,6.744105
80,1778598654973,0.8182185,-0.6163774,0.25885656,4.160756,4.0011673,5.505423
81,1778598654983,0.8182185,-0.6163774,0.25885656,4.1120396,3.5030067,4.855157
82,1778598654993,0.6976017,-0.4019137,0.20629252,4.0391936,2.5178337,3.5375206
83,1778598655003,0.57302123,-0.32764107,0.18757193,4.0391936,2.5178337,3.5375206
84,1778598655013,0.41673166,-0.24598998,0.12409261,4.0187297,1.2154691,2.0392208
85,1778598655023,0.37069237,-0.22153732,0.07994369,4.0204096,0.7460192,1.5370897
86,1778598655033,0.37447307,-0.23428197,0.05335677,4.0022364,0.37782016,1.156826
87,1778598655043,0.47600338,-0.34770322,0.056710627,3.8747182,-0.56169057,0.3193298
88,1778598655053,0.60308397,-0.49948034,-0.10457927,3.6118934,-1.6937766,-0.5878051
89,1778598655063,0.684857,-1.3358096,-2.7910166,1.4978416,-4.3741007,-1.3093897
90,1778598655073,1.0476221,-1.2402554,-0.92993236,-1.7476854,-7.66697,-2.1213822
91,1778598655083,2.1181724,-2.3850782,0.03683142,-3.071125,-8.977123,-3.2461379
92,1778598655093,2.1181724,-2.3850782,0.03683142,-5.830556,-7.3122096,-6.493192
93,1778598655103,2.1862862,-3.9187043,-0.6590018,-6.9710417,10.295828,-7.1755285
94,1778598655113,1.4562435,-3.7662563,-0.070735835,-6.9710417,10.295828,-7.1755285
95,1778598655123,1.5110028,-3.6479568,0.23629428,-7.3125153,13.003183,-4.9206724
96,1778598655133,2.572894,-3.3245232,0.41404852,-7.907192,9.778578,0.623388
97,1778598655143,2.572894,-3.3245232,0.41404852,-7.907192,9.778578,0.623388
98,1778598655153,2.622836,-2.6447885,-0.31843323,-6.4559293,10.765125,0.42913285
99,1778598655163,1.6007642,-1.2653787,-0.4119143,-1.7153096,-2.734691,-0.713796
100,1778598655173,1.6007642,-1.2653787,-0.4119143,-1.7153096,-2.734691,-0.713796
101,1778598655183,0.9500555,-0.9242003,0.07439458,0.18234327,-5.531385,-0.033292156
102,1778598655193,0.8599282,-0.78809476,-0.01103723,0.59299743,-4.852408,0.07040222
103,1778598655203,0.6274147,-0.43197644,-0.5191766,1.3098478,-2.5066855,0.11789699
104,1778598655213,0.46508813,-0.16689998,-1.1219556,0.5581781,-2.1491766,-0.016798794
105,1778598655223,0.42850062,-0.0951275,-0.9004794,-0.5035057,-3.2168164,-0.15607607
106,1778598655233,0.42850062,-0.0951275,-0.9004794,-0.5035057,-3.2168164,-0.15607607
107,1778598655243,0.42850062,-0.0951275,-0.9004794,-0.5035057,-3.2168164,-0.15607607
108,1778598655253,0.42295152,-0.07695571,-0.51533496,-2.01219,-6.032447,-0.9503536
109,1778598655263,0.3404467,0.07305304,0.35282546,-2.0493002,-6.1208696,-1.1679744
110,1778598655273,0.31983575,0.10665256,0.3975232,-2.0320432,-6.178444,-1.3341297
111,1778598655283,0.38587618,0.09610317,0.47435695,-1.9278907,-6.5113654,-1.5216653
112,1778598655293,0.38587618,0.09610317,0.47435695,-1.9278907,-6.5113654,-1.5216653
113,1778598655303,0.38587618,0.09610317,0.47435695,-1.9278907,-6.5113654,-1.5216653
114,1778598655313,0.43392777,0.04981998,0.5246038,-1.8093829,-6.8745246,-1.629483
115,1778598655323,0.4437454,0.061162103,0.5630816,-1.824349,-8.115955,-1.6158913
116,1778598655333,0.44453815,0.013415418,0.4106337,-2.3302982,-7.5547233,-1.2996159
117,1778598655343,0.4538679,-0.0011586042,0.41282898,-2.658791,-7.0816083,-1.0639745
118,1778598655353,0.54917836,-0.077809416,0.3314218,-3.4993415,-5.187773,-0.35888332
119,1778598655363,0.55509335,-0.21671996,0.015000875,-3.9596286,-3.3484578,-0.118507855
120,1778598655373,0.55509335,-0.21671996,0.015000875,-3.9596286,-3.3484578,-0.118507855
121,1778598655383,0.55509335,-0.21671996,0.015000875,-3.9596286,-3.3484578,-0.118507855
122,1778598655393,0.55509335,-0.21671996,0.015000875,-3.9596286,-3.3484578,-0.118507855
123,1778598655403,0.55509335,-0.21671996,0.015000875,-3.9596286,-3.3484578,-0.118507855
124,1778598655413,0.63119537,-1.4231929,-0.5069198,-4.771163,10.760544,-3.7858374
125,1778598655423,0.15537491,-0.9974363,0.63265884,1.3698653,-1.4752395,-1.641395
126,1778598655433,-0.03378246,-0.85639143,0.89846706,3.4303138,-1.6400205,-0.59650993
127,1778598655443,-0.03378246,-0.85639143,0.89846706,3.4303138,-1.6400205,-0.59650993
128,1778598655453,-0.21269535,-0.7344331,0.6778444,3.4303138,-1.6400205,-0.59650993
129,1778598655463,-0.24434352,-0.66522175,0.43886706,7.146665,1.1194105,3.7316232
130,1778598655473,-0.1478135,-0.5260063,0.052198168,7.063893,1.8988746,4.5011606
131,1778598655483,-0.1153116,-0.5215548,0.01835473,6.894836,2.4929411,4.974734
132,1778598655493,0.02555027,-0.4978339,0.0014025208,6.894836,2.4929411,4.974734
133,1778598655503,0.02555027,-0.4978339,0.0014025208,5.837428,4.821101,6.371477
134,1778598655513,0.2441606,-0.5371045,0.10110346,4.9964194,5.8465915,6.814507
135,1778598655523,0.41630477,-0.59137595,0.17799819,4.9964194,5.8465915,6.814507
136,1778598655533,0.6784542,-0.6816251,0.24025792,4.162894,5.445253,6.388887
137,1778598655543,0.6784542,-0.6816251,0.24025792,4.162894,5.445253,6.388887
138,1778598655553,1.1137235,-0.80333954,0.36014298,3.8918226,3.6352592,4.4457245
139,1778598655563,1.0018877,-0.6716246,0.3033104,3.8747182,2.0874794,2.9106202
140,1778598655573,0.7837042,-0.4679541,0.25916147,3.8588357,0.8564331,1.7828102
141,1778598655583,0.47783276,-0.27910164,0.17385161,3.88663,-0.20937407,0.76083267
142,1778598655593,0.38392484,-0.22623271,0.12494631,3.881285,-0.7144069,0.23930646
143,1778598655603,0.20232888,-0.15067953,0.010122542,3.8047743,-1.1171198,-0.19501872
144,1778598655613,0.16513158,-0.1583629,-0.018903542,3.7091737,-1.3646729,-0.46502116
145,1778598655623,0.25592956,-0.2992248,-0.04549046,3.7091737,-1.3646729,-0.46502116
146,1778598655633,-0.19885308,-1.5411265,-5.195425,1.2733486,-3.4778085,-0.8425359
147,1778598655643,1.0532932,-1.0817704,0.13195892,-4.169461,-6.805039,-0.74189585
148,1778598655653,1.4213024,-1.5560055,0.17220518,-6.104529,-7.572744,-2.321746
149,1778598655663,1.4213024,-1.5560055,0.17220518,-6.104529,-7.572744,-2.321746
150,1778598655673,1.9619439,-3.137561,-0.27708933,-6.85177,-3.7169623,-3.98895
151,1778598655683,1.9619439,-3.137561,-0.27708933,-6.85177,-3.7169623,-3.98895
152,1778598655693,1.3317851,-3.3292189,0.12683667,-5.3782105,13.171476,-5.7801595
153,1778598655703,0.9931067,-3.3248892,0.4610635,-5.5491,11.323303,-1.4001031
154,1778598655713,0.9931067,-3.3248892,0.4610635,-5.5491,11.323303,-1.4001031
155,1778598655723,2.4111774,-2.939074,1.0139006,-4.9698467,4.459622,2.3446536
156,1778598655733,1.6502792,-3.254702,0.79553425,-5.6537104,8.388248,1.6574302
157,1778598655743,2.3544667,-2.0503635,1.3391025,-5.6537104,8.388248,1.6574302
158,1778598655753,1.7067459,-1.0573788,-1.5469196,2.733622,0.5777258,0.61941737
159,1778598655763,1.2953194,-1.0884781,-1.0306699,2.0587685,-4.5518622,0.5983425
160,1778598655773,1.012742,-0.86389184,-0.6815032,1.2728904,-7.185608,0.817185
161,1778598655783,0.9043211,-0.6877841,-0.86748964,1.1533136,-6.9397345,0.8373435
162,1778598655793,0.9043211,-0.6877841,-0.86748964,1.1533136,-6.9397345,0.8373435
163,1778598655803,0.5246038,-0.30587152,-1.3906299,0.049021937,-1.0042624,0.495259
164,1778598655813,0.48801628,-0.20568272,-1.3975816,-1.3712398,-0.8184067,0.13561209
165,1778598655823,0.5639963,-0.13031249,-0.8475495,-2.71102,-2.0983222,-0.34223726
166,1778598655833,0.54960525,-0.11829959,0.016159479,-3.6942077,-4.2406263,-1.1775955
167,1778598655843,0.48307696,-0.05963763,0.20336552,-3.6942077,-4.2406263,-1.1775955
168,1778598655853,0.48307696,-0.05963763,0.20336552,-3.7592647,-4.8240027,-1.6441438
169,1778598655863,0.44795296,-0.037136313,0.44002566,-3.719253,-4.944038,-2.03861
170,1778598655873,0.44795296,-0.037136313,0.44002566,-3.719253,-4.944038,-2.03861
171,1778598655883,0.5366167,-0.050185855,0.60290104,-2.7217102,-6.074291,-2.9304733
172,1778598655893,0.5483857,-0.06866254,0.6071086,-2.2175937,-6.720892,-3.2194126
173,1778598655903,0.47405204,-0.084883004,0.5417389,-2.2175937,-6.720892,-3.2194126
174,1778598655913,0.39118138,-0.0962861,0.5001511,-1.8822285,-7.234019,-3.346167
175,1778598655923,0.39118138,-0.0962861,0.5001511,-1.8822285,-7.234019,-3.346167
176,1778598655933,0.34502012,-0.083480485,0.474174,-1.8822285,-7.234019,-3.346167
177,1778598655943,0.34502012,-0.083480485,0.474174,-1.8822285,-7.234019,-3.346167
178,1778598655953,0.34502012,-0.083480485,0.474174,-1.8822285,-7.234019,-3.346167
179,1778598655963,0.4876504,-0.35721594,-1.3737997,-3.4738379,-3.1552718,-1.1071932
180,1778598655973,0.8832222,-0.7766917,-1.7925436,-5.502674,5.180901,-1.0735956
181,1778598655983,1.434169,-1.1478719,-0.9851795,-6.23388,14.065172,-2.250122
182,1778598655993,1.434169,-1.1478719,-0.9851795,-6.23388,14.065172,-2.250122
183,1778598656003,1.434169,-1.1478719,-0.9851795,-6.23388,14.065172,-2.250122
184,1778598656013,1.434169,-1.1478719,-0.9851795,-6.23388,14.065172,-2.250122
185,1778598656023,0.3055666,-1.2220836,0.9604829,0.6433938,0.46578476,-1.6675094
186,1778598656033,-0.031831127,-0.8521839,0.99396044,4.3154573,0.14538592,0.28252518
187,1778598656043,-0.12281204,-0.76961803,0.7810212,5.658292,-0.092240654,1.3613132
188,1778598656053,-0.20684133,-0.6500989,0.23489174,7.009679,-0.0047342055,3.5042286
189,1778598656063,-0.20684133,-0.6500989,0.23489174,7.009679,-0.0047342055,3.5042286
190,1778598656073,-0.20684133,-0.6500989,0.23489174,7.009679,-0.0047342055,3.5042286
191,1778598656083,-0.03683142,-0.5345434,-0.07280912,7.1188707,1.0679451,5.1984634
192,1778598656093,0.05256404,-0.5544836,-0.08189502,6.2581615,3.296229,6.8109946
193,1778598656103,0.19842622,-0.59997404,0.031709168,5.8673606,3.886172,7.069085
194,1778598656113,0.19842622,-0.59997404,0.031709168,5.613699,4.21665,7.078401
195,1778598656123,0.37941238,-0.661502,0.100554645,5.310557,4.353331,6.7798405
196,1778598656133,0.6664413,-0.7508365,0.11573846,5.310557,4.353331,6.7798405
197,1778598656143,1.2048264,-0.91340697,0.15458219,4.743216,3.9330559,4.875621
198,1778598656153,1.188545,-0.77455735,0.22019579,4.572632,2.983313,3.2392657
199,1778598656163,0.9211513,-0.5461904,0.2112928,4.5089493,1.8544341,2.0089831
200,1778598656173,0.63241494,-0.35563052,0.16610725,4.5069637,0.91797775,1.0732902
201,1778598656183,0.43734258,-0.26879618,0.11872645,4.525748,0.45463645,0.5725334
202,1778598656193,0.43734258,-0.26879618,0.11872645,4.525748,0.45463645,0.5725334
203,1778598656203,-0.31325,-0.18988912,-1.9130994,4.188092,-0.41172317,-0.25427267
204,1778598656213,0.091224834,-0.15141128,-0.14202048,-0.36193767,-3.1867313,0.52855116
205,1778598656223,0.091224834,-0.15141128,-0.14202048,-3.0045407,-5.011386,1.0894781
206,1778598656233,0.35630128,-0.3055666,0.20946345,-2.5466971,-4.852866,0.7247916
207,1778598656243,0.5800948,-0.520945,0.23239161,-2.259896,-4.3574543,0.24373524
208,1778598656253,0.9510311,-1.0692697,0.11616532,-2.0948095,-3.6404514,-0.8481864
209,1778598656263,1.7029651,-2.1431127,-0.16183871,-1.9173533,-0.36880988,-2.770274
210,1778598656273,2.0739625,-2.8060784,-0.01981823,-1.9173533,-0.36880988,-2.770274
211,1778598656283,2.0739625,-2.8060784,-0.01981823,-1.4219415,3.2081115,-4.402811
212,1778598656293,2.7481482,-4.1368265,-0.016220458,-1.1491902,7.101919,-8.565553
213,1778598656303,2.0630474,-4.3364725,-0.16781467,-2.4405594,6.7896147,-7.0799284
214,1778598656313,0.9372498,-3.6446638,-0.054576356,-3.5042286,5.677687,-1.6479617
215,1778598656323,2.051827,-2.8557763,-0.118360564,-3.2676709,8.141459,2.0137172
216,1778598656333,2.2636688,-2.2789745,-0.7407749,-2.191479,11.516948,1.8988746
217,1778598656343,2.2839139,-1.6441813,-2.640581,-1.6317738,11.312919,1.1362094
218,1778598656353,1.6358271,-1.0830511,-1.9537115,-2.5277603,0.644921,-0.69974613
219,1778598656363,1.1992164,-1.1728734,-0.8707825,-2.8516717,-4.7697887,-1.0685561
220,1778598656373,0.9210903,-1.0689038,-0.30959123,-1.9989038,-4.2572727,-0.7153232
221,1778598656383,0.7782771,-0.834195,-0.10287185,-1.9989038,-4.2572727,-0.7153232
222,1778598656393,0.6150359,-0.5866806,-0.11146992,-1.2681563,-2.7293458,-0.7464773
223,1778598656403,0.38727868,-0.23763582,-0.40356013,-1.282817,-2.4538457,-0.8846856
224,1778598656413,0.38727868,-0.23763582,-0.40356013,-1.282817,-2.4538457,-0.8846856
225,1778598656423,0.34148335,-0.14006914,-0.27172315,-1.8559613,-4.2264237,-1.1146764
226,1778598656433,0.24178241,0.012683666,0.11281146,-2.030058,-4.918687,-1.2217305
227,1778598656443,0.24178241,0.012683666,0.11281146,-2.1455114,-5.409059,-1.3611605
228,1778598656453,0.24598998,0.04177073,0.3595332,-2.1876612,-5.5681896,-1.4807373
229,1778598656463,0.24598998,0.04177073,0.3595332,-2.1876612,-5.5681896,-1.4807373
230,1778598656473,0.31575012,0.030977417,0.50905406,-2.0862575,-5.9107323,-1.6242907
231,1778598656483,0.40008432,-0.016647313,0.68540585,-1.3956743,-7.3716164,-1.95034
232,1778598656493,0.40112096,-0.029940773,0.6393056,-0.9242391,-8.530886,-2.0966423
233,1778598656503,0.39282778,-0.019940188,0.5835096,-0.8556695,-9.01011,-2.0770946
234,1778598656513,0.37599754,0.015183813,0.4864308,-1.056186,-9.022174,-1.9315559
235,1778598656523,0.35136196,0.03603869,0.35337427,-1.597718,-8.547532,-1.4903585
236,1778598656533,0.4050846,-0.017440042,0.13092227,-2.018146,-8.001571,-1.1111639
237,1778598656543,0.4050846,-0.017440042,0.13092227,-2.018146,-8.001571,-1.1111639
238,1778598656553,0.40319425,-0.12872702,-0.060247418,-3.5430183,-4.296368,0.05681047
239,1778598656563,0.6504038,-0.4642954,-1.3518472,-4.498259,-0.72097373,0.1693624
240,1778598656573,0.6504038,-0.4642954,-1.3518472,-4.498259,-0.72097373,0.1693624
241,1778598656583,1.2406821,-0.72461545,-0.40173078,-5.6925006,12.923771,-1.3745996
242,1778598656593,1.1445789,-1.8571815,-2.435447,-3.8063014,12.357498,-3.5072827
243,1778598656603,1.0642694,-1.8880979,-0.69815046,-2.6676486,4.6674685,-2.777299
244,1778598656613,0.49466303,-1.5802141,0.4843575,1.6409367,0.15561792,-0.28725937
245,1778598656623,0.49466303,-1.5802141,0.4843575,1.6409367,0.15561792,-0.28725937
246,1778598656633,0.49466303,-1.5802141,0.4843575,1.6409367,0.15561792,-0.28725937
247,1778598656643,0.49466303,-1.5802141,0.4843575,1.6409367,0.15561792,-0.28725937
248,1778598656653,-0.13836174,-1.009693,0.27458918,6.31879,0.13622294,6.645756
249,1778598656663,0.09085896,-0.94657964,0.07335794,6.5354943,1.1368202,8.698263
250,1778598656673,0.09085896,-0.94657964,0.07335794,6.5354943,1.1368202,8.698263
251,1778598656683,0.09085896,-0.94657964,0.07335794,6.5354943,1.1368202,8.698263
252,1778598656693,0.24269708,-0.97975224,0.07091877,6.425997,1.514793,8.899085
253,1778598656703,0.24269708,-0.97975224,0.07091877,6.425997,1.514793,8.899085
254,1778598656713,0.24269708,-0.97975224,0.07091877,5.945093,1.51968,6.945996
255,1778598656723,0.85523283,-0.79644895,0.12256813,5.797264,0.67179906,4.638911
256,1778598656733,0.34672755,-0.2912365,-0.020793896,5.7409115,-0.11178834,3.3938146
257,1778598656743,0.34672755,-0.2912365,-0.020793896,5.6398134,-0.69226307,2.5809057
258,1778598656753,0.34672755,-0.2912365,-0.020793896,5.6398134,-0.69226307,2.5809057
259,1778598656763,0.34672755,-0.2912365,-0.020793896,5.6398134,-0.69226307,2.5809057
260,1778598656773,0.18415709,-0.07067485,-0.8199259,5.0074153,-0.90209526,2.0774
261,1778598656783,-0.037990022,0.039331563,-0.44978234,0.3921755,0.053297993,1.7837266
262,1778598656793,-0.10598179,0.0031099375,-0.5026513,-0.3381139,0.07070765,1.8121318
263,1778598656803,-0.07860215,-0.06402813,-0.37532678,-1.5102116,-0.2452624,1.9822577
264,1778598656813,-0.07860215,-0.06402813,-0.37532678,-1.5102116,-0.2452624,1.9822577
265,1778598656823,0.010854292,-0.06256463,-0.10006681,-1.7545577,-0.581391,1.8903224
266,1778598656833,0.06305246,-0.07799236,-0.0009146876,-1.7368426,-0.6178902,1.8379408
267,1778598656843,0.3553256,-0.43496442,-0.16171674,-1.7443258,-0.47571132,1.4679092
268,1778598656853,0.55466646,-0.9977411,-0.36380172,-1.8637499,0.11575896,0.8089383
269,1778598656863,0.55466646,-0.9977411,-0.36380172,-1.8310685,2.0199788,-0.78542
270,1778598656873,1.1693364,-3.913582,0.25855166,-1.0545062,4.7248898,-3.029128
271,1778598656883,1.5027096,-4.9944987,0.25763696,-0.6795876,5.9913664,-4.8915033
272,1778598656893,1.9085871,-5.7146015,0.30520073,-0.6065892,6.202115,-6.964322
273,1778598656903,1.9082211,-5.707528,0.2441606,-0.7296785,5.6456165,-8.011345
274,1778598656913,1.5559444,-5.087309,0.25300255,-0.8268061,4.60684,-7.6368847
275,1778598656923,0.93432283,-3.4272733,0.260503,-0.6198755,3.491553,-5.950133
276,1778598656933,0.5078345,-2.5629544,0.23483077,2.1158845,6.710355,-1.2838861
277,1778598656943,0.17665665,-1.2868433,-1.6057035,2.1158845,6.710355,-1.2838861
278,1778598656953,0.36246017,-0.56924057,-3.5341694,0.75228053,1.9758437,0.33826664
279,1778598656963,0.5651549,-0.66930735,-2.3228185,-1.361924,-2.7421741,0.8410087
280,1778598656973,0.5996082,-0.7397383,-1.2714766,-3.276223,-5.2181635,1.1058189
281,1778598656983,0.47142997,-0.46277088,-0.5510687,-3.5234706,-4.043317,0.98929626
282,1778598656993,0.42191488,-0.2804432,-0.43100074,-3.6914587,-2.3762658,0.7330383
283,1778598657003,0.42191488,-0.2804432,-0.43100074,-3.6914587,-2.3762658,0.7330383
284,1778598657013,0.45197758,-0.10555494,0.0734799,-3.8203511,-1.2547172,0.33857206
285,1778598657023,0.43100074,-0.074577525,0.20495099,-3.8203511,-1.2547172,0.33857206
286,1778598657033,0.36270407,0.003963646,0.36020395,-3.2391129,-1.5741998,-1.0009027
287,1778598657043,0.3582526,0.023598937,0.4042919,-2.8021915,-1.9895881,-1.4283557
288,1778598657053,0.37563166,0.039148625,0.51295674,-2.4390323,-2.296548,-1.7464638
289,1778598657063,0.42746398,0.01750102,0.65552604,-1.8686367,-2.870914,-2.1687243
290,1778598657073,0.38660794,0.006707709,0.7020531,-1.2618948,-3.7588065,-2.5428793
291,1778598657083,0.31050593,0.0043295207,0.71248055,-0.8385653,-4.4741297,-2.7795897
292,1778598657093,0.24922185,0.013598354,0.69180864,-0.5555819,-5.3562193,-2.871983
293,1778598657103,0.24513626,0.0248795,0.7047972,-0.4344779,-6.646825,-2.821892
294,1778598657113,0.26446667,0.028294332,0.6693683,-0.6383542,-7.5229583,-2.6348145
295,1778598657123,0.29001692,0.05055173,0.58796114,-0.8910997,-7.781812,-2.4518604
296,1778598657133,0.30831066,0.014147166,0.43362287,-1.4874569,-7.769137,-2.0825922
297,1778598657143,0.35319135,-0.09085896,0.29160237,-2.0983222,-6.814202,-1.7185167
298,1778598657153,0.35319135,-0.09085896,0.29160237,-2.0983222,-6.814202,-1.7185167
299,1778598657163,0.35319135,-0.09085896,0.29160237,-2.0983222,-6.814202,-1.7185167
300,1778598657173,1.2385479,-1.048232,-0.38801044,-7.4695077,11.2191515,-4.022395
301,1778598657183,1.1260413,-1.1859229,0.18513274,-5.5182514,15.273922,-4.900361
302,1778598657193,1.1260413,-1.1859229,0.18513274,-5.5182514,15.273922,-4.900361
303,1778598657203,0.22592781,-2.2012868,-0.56234986,-2.1326833,15.54988,-4.402964
304,1778598657213,0.00042685418,-2.1582968,-0.113421254,2.081218,3.2206342,1.8742872
305,1778598657223,-0.08067544,-1.8897444,0.04329521,4.3208027,-0.6220135,5.976858
306,1778598657233,0.006524771,-1.478196,0.10195717,5.5961366,-1.9162843,8.273101
307,1778598657243,0.07689473,-1.3067836,0.07476046,6.303213,-2.084883,9.265451
308,1778598657253,0.17397358,-1.1690316,-0.012195834,6.5500026,-1.7629571,9.59486
309,1778598657263,0.31209138,-1.1546406,-0.04268542,6.5348835,-1.5239561,9.55943
310,1778598657273,0.47929627,-1.1454936,0.05390558,6.4342437,-1.0381655,9.149387
311,1778598657283,0.56045955,-1.1264682,0.066650234,6.127589,-0.839787,7.7239327
312,1778598657293,0.6358908,-1.0787824,0.050734665,6.127589,-0.839787,7.7239327
313,1778598657303,0.6107673,-0.9198098,-0.023111105,5.7577105,-1.1099422,6.364605
314,1778598657313,0.54783684,-0.7267497,-0.03146525,5.433341,-1.5381587,5.661041
315,1778598657323,0.54783684,-0.7267497,-0.03146525,5.433341,-1.5381587,5.661041
316,1778598657333,0.54783684,-0.7267497,-0.03146525,5.433341,-1.5381587,5.661041
317,1778598657343,0.43331796,-0.4281347,-0.013842272,4.720919,-2.7832549,3.0509665
318,1778598657353,0.10610375,-0.05866196,-0.42081723,4.390136,-2.6505444,2.6618452
319,1778598657363,-0.11409202,0.08098034,-1.4125215,0.9240864,0.9841039,2.4145975
320,1778598657373,-0.11409202,0.08098034,-1.4125215,0.9240864,0.9841039,2.4145975
321,1778598657383,-0.11409202,0.08098034,-1.4125215,0.9240864,0.9841039,2.4145975
322,1778598657393,-0.11409202,0.08098034,-1.4125215,0.9240864,0.9841039,2.4145975
323,1778598657403,-0.11409202,0.08098034,-1.4125215,0.9240864,0.9841039,2.4145975
324,1778598657413,0.046953958,-0.037746105,-0.023050126,-2.9437597,3.059824,1.2670872
325,1778598657423,0.18635234,-0.12976366,0.035550855,-2.9865203,2.9245174,0.7903069
326,1778598657433,0.31135964,-0.37392426,0.10659158,-2.922532,2.6177104,-0.50610185
327,1778598657443,0.31135964,-0.37392426,0.10659158,-2.922532,2.6177104,-0.50610185
328,1778598657453,0.31135964,-0.37392426,0.10659158,-2.922532,2.6177104,-0.50610185
329,1778598657463,0.400999,-0.86553836,0.26410076,-2.6616926,2.3690882,-2.0412061
330,1778598657473,0.07890704,-3.9962697,0.8963328,1.3733778,1.8802432,-6.1779857
331,1778598657483,0.12500729,-5.6306944,0.41539007,4.067752,2.485458,-6.266256
332,1778598657493,0.3488618,-6.1459684,0.11360419,4.1548,2.7191138,-5.532759
333,1778598657503,0.3492277,-6.043279,0.06360127,3.3560936,2.531731,-4.2584944
334,1778598657513,0.3222749,-5.0251713,-0.036892395,2.2542455,2.2273674,-2.512336
335,1778598657523,0.37331447,-1.7002212,-3.655152,1.6754507,3.8012617,0.968985
336,1778598657533,0.5353971,-1.4621586,-2.9820032,-1.3538301,2.2414174,1.5202909
337,1778598657543,0.5353971,-1.4621586,-2.9820032,-3.4051156,1.0943651,1.449736
338,1778598657553,0.5479588,-1.5257597,-1.5985688,-4.425413,0.49434268,1.1814134
339,1778598657563,0.48887,-1.1689097,-0.26343,-4.425413,0.49434268,1.1814134
340,1778598657573,0.48887,-1.1689097,-0.26343,-4.6955686,0.37003163,0.8266534
341,1778598657583,0.3448372,-0.4911872,-0.0515274,-4.1853433,1.135904,-0.06505715
342,1778598657593,0.37977824,-0.27007675,-0.018781584,-3.98727,1.5477798,-0.5352707
343,1778598657603,0.40173078,-0.1381788,0.19324298,-3.836081,1.7455474,-1.0978775
344,1778598657613,0.38691282,-0.072016396,0.32386038,-3.653585,1.715615,-1.4624114
345,1778598657623,0.38691282,-0.072016396,0.32386038,-3.1334333,1.3127494,-2.1033618
346,1778598657633,0.30044436,0.021403689,0.4344156,-3.1334333,1.3127494,-2.1033618
347,1778598657643,0.30044436,0.021403689,0.4344156,-3.1334333,1.3127494,-2.1033618
348,1778598657653,0.3032494,0.004268542,0.5608864,-1.6997325,-0.26313022,-3.265991
349,1778598657663,0.2795895,-0.006829667,0.6436351,-1.1702651,-1.377043,-3.5271358
350,1778598657673,0.20702426,0.0039026667,0.6281464,-0.5323691,-3.2580497,-3.7270415
351,1778598657683,0.088968605,0.019574312,0.57655805,-0.23548855,-5.7167826,-3.7187948
352,1778598657693,-0.034941066,0.051771317,0.52033526,-0.62964934,-9.333563,-3.0176742
353,1778598657703,-0.080492504,0.104396336,0.4622221,-0.62964934,-9.333563,-3.0176742
354,1778598657713,0.06555261,0.07713865,0.4966753,-1.0161743,-10.021397,-2.6392434
355,1778598657723,0.28739482,-0.22580586,-0.023659917,-2.3550382,-8.542187,-1.2370021
356,1778598657733,0.28739482,-0.22580586,-0.023659917,-2.3550382,-8.542187,-1.2370021
357,1778598657743,0.49582162,-0.9974972,-1.967188,-4.501466,-4.0285034,-1.2226468
358,1778598657753,0.7059558,-1.0570738,-0.5954616,-7.4323974,2.4248295,-1.8060231
359,1778598657763,0.7059558,-1.0570738,-0.5954616,-7.4323974,2.4248295,-1.8060231
360,1778598657773,0.85407424,-1.0068271,0.322031,-7.7648606,4.535827,-2.3819163
361,1778598657783,0.90474784,-1.7169905,-0.53808016,-2.8499918,13.392152,-5.210986
362,1778598657793,0.74486053,-1.8194354,-0.8707825,-1.5459472,15.541328,-5.2128186
363,1778598657803,0.74486053,-1.8194354,-0.8707825,-1.5459472,15.541328,-5.2128186
364,1778598657813,-0.43301308,-2.0069463,-0.53869,2.250275,6.8219905,-0.7279987
365,1778598657823,-0.620707,-1.7397356,-0.0009756667,3.881285,0.64721173,4.5045204
366,1778598657833,-0.2248302,-1.352396,0.10787215,4.730846,-0.9297369,8.094728
367,1778598657843,-0.07915096,-1.2023262,0.11866546,5.087133,-0.9579894,9.617768
368,1778598657853,0.054637335,-1.1208581,0.04542948,5.2097645,-0.6815729,10.265743
369,1778598657863,0.22659859,-1.0915271,0.042441502,5.2138877,-0.3052799,10.543229
370,1778598657873,0.43240327,-1.0782946,0.11933623,5.2085423,0.124311075,10.466718
371,1778598657883,0.59344923,-0.96225125,0.13122717,5.1670036,0.45738536,9.808205
372,1778598657893,0.5969251,-0.8322436,0.09555435,5.0617824,0.4456262,8.984148
373,1778598657903,0.46990547,-0.61064535,-0.012195834,4.6859474,0.08582657,7.543422
374,1778598657913,0.46990547,-0.61064535,-0.012195834,4.6859474,0.08582657,7.543422
375,1778598657923,0.3192869,-0.31453055,-0.087566085,4.1115813,-0.84788096,6.0107613
376,1778598657933,0.32282373,-0.15110639,-0.793217,3.4316883,-0.48334712,5.3357553
377,1778598657943,0.32282373,-0.15110639,-0.793217,3.4316883,-0.48334712,5.3357553
378,1778598657953,0.2139759,0.018842563,-1.0760994,-1.6843082,5.5967474,4.38418
379,1778598657963,0.2139759,0.018842563,-1.0760994,-2.6584857,6.365216,4.0506473
380,1778598657973,0.19177948,-0.040734082,-0.4732593,-2.6584857,6.365216,4.0506473
381,1778598657983,0.1475086,-0.109640546,0.0061588963,-2.9700267,4.8902817,2.728735
382,1778598657993,-0.08963938,-0.4211831,-0.47484478,-1.6184875,-0.70722926,2.031127
383,1778598658003,0.14836231,-0.36447248,0.17403455,0.120493166,-5.4939694,1.4807373
384,1778598658013,0.14836231,-0.36447248,0.17403455,0.120493166,-5.4939694,1.4807373
385,1778598658023,0.14836231,-0.36447248,0.17403455,0.120493166,-5.4939694,1.4807373
386,1778598658033,0.14836231,-0.36447248,0.17403455,0.120493166,-5.4939694,1.4807373
387,1778598658043,0.47813767,-0.85425717,-0.006219875,2.0018053,-8.823795,-1.4188873
388,1778598658053,0.14043503,-3.0914,0.14263028,-0.9828822,-10.257191,-6.733873
389,1778598658063,-0.39642558,-4.364157,0.48136955,-2.2420282,-9.502772,-7.098407
390,1778598658073,-0.39642558,-4.364157,0.48136955,-2.2420282,-9.502772,-7.098407
391,1778598658083,-0.39642558,-4.364157,0.48136955,-2.2420282,-9.502772,-7.098407
392,1778598658093,-0.39642558,-4.364157,0.48136955,-2.2420282,-9.502772,-7.098407
393,1778598658103,-0.39642558,-4.364157,0.48136955,-2.2420282,-9.502772,-7.098407
394,1778598658113,-0.39642558,-4.364157,0.48136955,0.93370754,10.84469,1.2521211
395,1778598658123,-0.39642558,-4.364157,0.48136955,0.93370754,10.84469,1.2521211
396,1778598658133,0.060125455,-0.9311519,-2.4596555,5.0764427,9.812481,1.1736249
397,1778598658143,0.060125455,-0.9311519,-2.4596555,5.0764427,9.812481,1.1736249
398,1778598658153,0.060125455,-0.9311519,-2.4596555,5.0764427,9.812481,1.1736249
399,1778598658163,0.50191957,-0.52765274,-3.0142612,-2.2508857,4.2899537,-0.8781188
400,1778598658173,0.2309891,-0.5904003,0.52801865,-5.3846245,2.7496572,-2.9970577
401,1778598658183,0.25653934,-0.3905106,0.6208289,-4.6412015,2.060143,-3.5277467
402,1778598658193,0.26471058,-0.23074517,0.60430354,-3.987881,1.669342,-3.9061778
403,1778598658203,0.26471058,-0.23074517,0.60430354,-3.987881,1.669342,-3.9061778
404,1778598658213,0.20928052,-0.12299499,0.72083473,-2.617863,0.34284812,-4.563774
405,1778598658223,0.16531453,-0.12903193,0.73461604,-1.8797851,-0.6927212,-4.78109
406,1778598658233,0.05945469,-0.16665606,0.76913023,-0.98853266,-2.9307787,-4.902041
407,1778598658243,-0.023233064,-0.1314101,0.6767468,-0.54137933,-4.5840855,-4.820338
408,1778598658253,-0.10445731,-0.093054205,0.4873455,-0.54137933,-4.5840855,-4.820338
409,1778598658263,-0.10445731,-0.093054205,0.4873455,-0.49571714,-6.7231827,-4.5958447
410,1778598658273,-0.17385161,-0.059515666,0.4379524,-1.0456486,-8.959408,-4.0016255
411,1778598658283,-0.120067984,-0.06280854,0.52234757,-2.2629502,-10.283,-2.5321891
412,1778598658293,-0.120067984,-0.06280854,0.52234757,-2.2629502,-10.283,-2.5321891
413,1778598658303,-0.017744938,-0.09768862,0.5496662,-2.5776987,-9.804387,-1.9294178
414,1778598658313,0.11592139,-0.2051949,0.649794,-2.6526823,-8.150011,-1.3261884
415,1778598658323,0.48100364,-1.1682999,-0.8005345,-5.0362787,2.440254,-1.6148223
416,1778598658333,0.7292499,-1.0353043,0.6383299,-5.039638,5.96907,-2.3070853
417,1778598658343,0.71174884,-1.0671964,1.1999481,-5.039638,5.96907,-2.3070853
418,1778598658353,0.49496788,-1.4969776,0.8995037,-1.0526736,9.495442,-3.5100317
419,1778598658363,0.49496788,-1.4969776,0.8995037,-1.0526736,9.495442,-3.5100317
420,1778598658373,-0.5375314,-2.678083,-1.1021374,3.186884,12.234562,-1.0343475
421,1778598658383,-0.5375314,-2.678083,-1.1021374,3.186884,12.234562,-1.0343475
422,1778598658393,-0.7686424,-2.7764425,-0.79132664,3.6604574,2.891225,5.7797017
423,1778598658403,-0.3187381,-2.1698828,-0.06433302,3.61113,0.53038377,8.076708
424,1778598658413,-0.10683551,-1.8588281,0.008537084,3.4999523,-0.5412266,9.422443
425,1778598658423,0.19873111,-1.6002764,0.10884781,3.1812334,-1.0096076,10.085538
426,1778598658433,0.32282373,-1.4824035,0.15586275,3.1812334,-1.0096076,10.085538
427,1778598658443,0.44856274,-1.3042834,0.15006974,3.133586,-1.1522446,9.609827
428,1778598658453,0.45588025,-1.0310358,0.0863465,3.0810516,-1.4078916,8.672301
429,1778598658463,0.3770952,-0.5576545,-0.02207446,2.7736337,-1.817935,6.905526
430,1778598658473,0.30373722,-0.34953257,-0.0219525,2.6137397,-2.1206186,5.9698334
431,1778598658483,0.26306412,-0.22306179,-0.025428312,2.6137397,-2.1206186,5.9698334
432,1778598658493,0.16482669,-0.13506886,-0.05427146,2.5789204,-2.2609649,5.4061575
433,1778598658503,0.16482669,-0.13506886,-0.05427146,2.58396,-2.383749,4.910135
434,1778598658513,0.24098967,0.23605035,-2.6680825,0.22021692,1.64674,4.3757806
435,1778598658523,0.20409729,0.14513041,-1.7858359,-2.8820622,6.274808,4.072944
436,1778598658533,0.20409729,0.14513041,-1.7858359,-2.8820622,6.274808,4.072944
437,1778598658543,0.07341892,0.38819337,-1.8768778,-4.8075094,0.41905355,2.930015
438,1778598658553,0.07341892,0.38819337,-1.8768778,-4.8075094,0.41905355,2.930015
439,1778598658563,0.18866955,0.02207446,0.10433535,-0.9934196,-8.0844965,1.7864754
440,1778598658573,0.23995303,-0.013659334,0.2617226,-0.17180584,-7.5141006,1.1262828
441,1778598658583,0.23995303,-0.013659334,0.2617226,-0.17180584,-7.5141006,1.1262828
442,1778598658593,0.22495215,-0.08933448,0.25178298,-0.17180584,-7.5141006,1.1262828
443,1778598658603,0.23476979,-0.047319833,0.26452765,0.30543262,-6.50938,0.09865474
444,1778598658613,0.22903776,-0.57857037,0.27391842,0.30543262,-6.50938,0.09865474
445,1778598658623,0.2239155,-0.16750978,0.20062146,0.41370848,-5.8485765,-0.84894997
446,1778598658633,-1.6144235,-4.5931334,1.1566528,-0.7124216,-0.1826487,-3.3664784
447,1778598658643,-1.6144235,-4.5931334,1.1566528,-1.4908166,4.586071,-3.430161
448,1778598658653,-2.6446664,-6.287013,0.79077786,-1.9711094,14.04532,-0.13607024
449,1778598658663,-2.3607476,-6.193532,0.78925335,-1.6218473,14.2742405,1.2023355
450,1778598658673,-1.2475119,-4.275981,0.87816095,5.361106,6.8203106,1.2403619
451,1778598658683,-0.9823134,-3.5395358,-0.064820856,7.840608,2.3587034,1.1985176
452,1778598658693,-0.9823134,-3.5395358,-0.064820856,7.840608,2.3587034,1.1985176
453,1778598658703,-0.6778444,-2.5924072,-0.272272,7.5864882,0.42088616,0.89904094
454,1778598658713,-0.6778444,-2.5924072,-0.272272,7.5864882,0.42088616,0.89904094
455,1778598658723,-0.6778444,-2.5924072,-0.272272,7.5864882,0.42088616,0.89904094
456,1778598658733,-0.33319017,-1.1937891,-2.6041155,3.8374555,7.4160566,0.4196644
457,1778598658743,0.14232537,-0.45472166,-0.44917256,-2.2661574,5.8013873,-2.1090124
458,1778598658753,0.17921777,-0.39362052,-0.01975725,-2.4485006,4.584849,-2.6557367
459,1778598658763,0.17921777,-0.39362052,-0.01975725,-2.4485006,4.584849,-2.6557367
460,1778598658773,0.17921777,-0.39362052,-0.01975725,-2.4485006,4.584849,-2.6557367
461,1778598658783,0.17921777,-0.39362052,-0.01975725,-2.4485006,4.584849,-2.6557367
462,1778598658793,0.17379062,-0.2883095,0.1694611,-2.4394903,3.9202278,-3.1019738
463,1778598658803,0.11549455,0.0070126047,0.12086072,-1.6190983,1.6487253,-4.0453024
464,1778598658813,0.11336028,0.018781584,0.13189794,-1.5457945,1.4208726,-4.130671
465,1778598658823,0.10049367,0.017135147,0.10451829,-1.5457945,1.4208726,-4.130671
466,1778598658833,0.10049367,0.017135147,0.10451829,-1.5457945,1.4208726,-4.130671
467,1778598658843,0.10049367,0.017135147,0.10451829,-1.5457945,1.4208726,-4.130671
468,1778598658853,0.061893854,0.00798827,0.06524771,-2.278833,-2.645352,-4.5700355
469,1778598658863,-0.0075004376,-0.025001459,0.10299382,-3.3206635,-5.620113,-4.3429465
470,1778598658873,0.028904125,-0.052076213,0.38776654,-3.8712058,-7.396509,-4.0197988
471,1778598658883,0.0866514,-0.1074453,0.49478498,-4.1899247,-8.595485,-3.6743546
472,1778598658893,0.16665606,-0.18604743,0.58472925,-4.3223295,-9.072876,-3.240182
473,1778598658903,0.18860857,-0.22373258,0.6570505,-4.241237,-8.793711,-3.019354
474,1778598658913,0.18934031,-0.29105356,0.62332904,-3.7432294,-7.579158,-2.6481009
475,1778598658923,0.15061855,-0.40118194,0.558996,-3.26706,-6.3809457,-2.4726298
476,1778598658933,0.10896978,-1.5821655,-1.9307225,-3.179248,2.0169244,-2.724459
477,1778598658943,0.6168043,-1.6894279,-0.070613876,-2.0920608,15.082416,-3.816075
478,1778598658953,0.5485686,-1.7132096,0.6843692,1.0772609,20.369453,-4.49551
479,1778598658963,0.11909231,-2.3994083,0.75717837,1.0772609,20.369453,-4.49551
480,1778598658973,0.11909231,-2.3994083,0.75717837,7.2790704,17.45639,-3.3912184
481,1778598658983,0.11909231,-2.3994083,0.75717837,7.2790704,17.45639,-3.3912184
482,1778598658993,-1.2394016,-2.5972857,-1.7514437,9.122204,2.2197316,2.3816109
483,1778598659003,-0.62991476,-2.125063,-0.07238227,3.801567,-1.3025174,7.6634574
484,1778598659013,-0.62991476,-2.125063,-0.07238227,2.0780108,-1.2977833,9.74941
485,1778598659023,-0.33361703,-2.0750601,0.055247124,0.05955936,-1.7806722,11.15165
486,1778598659033,-0.08689531,-1.9537115,0.023050126,-0.8718574,-2.7627907,10.61638
487,1778598659043,0.19208437,-1.6665606,-0.02201348,-0.8718574,-2.7627907,10.61638
488,1778598659053,0.45100194,-1.0290844,0.085309856,-1.8376354,-5.005277,8.028449
489,1778598659063,0.48362577,-0.88267344,0.096042186,-1.8678732,-5.3496523,7.3531375
490,1778598659073,0.48990667,-0.39795005,0.15933856,-1.6862935,-5.917146,5.1338644
491,1778598659083,0.4241711,-0.24824621,0.15976542,-1.4978416,-5.947537,4.3852487
492,1778598659093,0.4241711,-0.24824621,0.15976542,-1.4978416,-5.947537,4.3852487
493,1778598659103,0.16842447,0.013110521,0.08524887,-0.65316767,-5.596595,2.992018
494,1778598659113,0.14067894,0.033355605,0.068174705,-0.49877146,-5.5310793,2.8861856
495,1778598659123,0.14067894,0.033355605,0.068174705,-0.0346666,-5.3404894,2.6780334
496,1778598659133,0.09342009,0.10409144,0.026891813,0.3052799,-5.1567717,2.534938
497,1778598659143,0.09342009,0.10409144,0.026891813,0.3052799,-5.1567717,2.534938
498,1778598659153,-0.398072,0.4556973,-1.3575792,-3.4179437,8.195368,3.5392005
499,1778598659163,-0.06085721,0.35563052,-0.5478978,-3.4179437,8.195368,3.5392005
500,1778598659173,0.15385045,0.25891754,0.033843435,0.48090366,-2.7424796,1.8128953
501,1778598659183,0.07408969,0.08232188,-0.17580293,1.7806722,-4.3327146,0.54199016
502,1778598659193,0.04762473,-0.042502478,-0.43520832,1.8886427,-2.796541,-0.25152376
503,1778598659203,0.24312395,-0.029270003,-0.045551438,1.8153389,-1.5564847,-1.4731015
504,1778598659213,0.20110929,-0.5664965,0.13366634,1.6780468,-1.6355917,-2.3900104
505,1778598659223,0.20110929,-0.5664965,0.13366634,1.2710578,-1.7933476,-3.997044
506,1778598659233,-0.1806203,-1.0036561,0.2570272,1.0195341,-1.6362026,-4.7552805
507,1778598659243,-3.488862,-4.777718,1.1484207,0.3727805,0.64599,-5.4611354
508,1778598659253,-3.488862,-4.777718,1.1484207,0.120493166,4.7919326,-3.1627548
509,1778598659263,-3.7321079,-5.9692507,0.57680196,-0.97433007,8.657946,2.9741502
510,1778598659273,-3.7321079,-5.9692507,0.57680196,-1.5796975,6.1198006,2.791196
511,1778598659283,-1.5182594,-3.73473,0.42581752,-0.5181664,3.231019,1.8530598
512,1778598659293,-1.3164183,-2.4899623,0.07091877,3.7836993,-6.7557116,0.95356065
513,1778598659303,-1.2053142,-2.087134,-0.07030898,4.7461176,-9.333868,0.82711154
514,1778598659313,0.07451654,-0.3208724,-5.129202,4.7378707,-3.3589952,0.9224065
515,1778598659323,0.12171442,-0.48752844,-2.8397388,2.1096232,7.039611,0.82512623
516,1778598659333,0.31251824,-0.40538952,-1.4758178,0.116980694,11.144014,-0.010537425
517,1778598659343,0.39081547,-0.31050593,-0.77449644,-0.39477167,9.322567,-1.2223413
518,1778598659353,0.42661023,-0.2836141,-0.36166742,-0.5015204,7.6217656,-1.8975002
519,1778598659363,0.4191708,-0.19763349,-0.0046344167,-0.5920811,5.715408,-2.96178
520,1778598659373,0.42002448,-0.10939662,0.15409435,-0.6750061,4.7309985,-3.8330266
521,1778598659383,0.34532502,-0.06671121,0.08610259,-0.72387534,4.0340014,-4.3968554
522,1778598659393,0.2596493,-0.047990605,0.014817937,-0.8943067,2.9970577,-4.9087605
523,1778598659403,0.21922012,-0.05116152,0.015427729,-0.8943067,2.9970577,-4.9087605
524,1778598659413,0.21922012,-0.05116152,0.015427729,-1.467451,0.7466301,-5.5171824
525,1778598659423,0.21922012,-0.05116152,0.015427729,-1.467451,0.7466301,-5.5171824
526,1778598659433,-0.06415008,-0.1355567,0.084761046,-3.5604281,-4.1723623,-5.6729527
527,1778598659443,-0.06726002,-0.15964346,0.16982698,-3.5604281,-4.1723623,-5.6729527
528,1778598659453,-0.06726002,-0.15964346,0.16982698,-4.2670465,-5.4837375,-5.445558
529,1778598659463,-0.06726002,-0.15964346,0.16982698,-4.2670465,-5.4837375,-5.445558
530,1778598659473,-0.06726002,-0.15964346,0.16982698,-4.2670465,-5.4837375,-5.445558
531,1778598659483,-0.06726002,-0.15964346,0.16982698,-4.2670465,-5.4837375,-5.445558
532,1778598659493,0.083053626,-0.4159389,0.8011443,-4.8866167,-6.8598638,-3.2968397
533,1778598659503,0.0065857503,-0.5792411,0.93834746,-4.032169,-4.9301405,-2.7892108
534,1778598659513,-0.06335735,-0.7138221,0.7472997,-3.228881,-0.97433007,-2.346486
535,1778598659523,-0.06335735,-0.7138221,0.7472997,-3.228881,-0.97433007,-2.346486
536,1778598659533,-0.06335735,-0.7138221,0.7472997,-3.228881,-0.97433007,-2.346486
537,1778598659543,-0.06335735,-0.7138221,0.7472997,-3.228881,-0.97433007,-2.346486
538,1778598659553,0.18684018,-1.7976048,0.4463675,-3.228881,-0.97433007,-2.346486
539,1778598659563,-0.1308613,-2.833519,0.81120586,3.430161,18.566792,-2.9404
540,1778598659573,-1.0462805,-2.4049573,-1.727052,7.0327387,-0.6188065,4.1259365
541,1778598659583,-1.0462805,-2.4049573,-1.727052,7.0327387,-0.6188065,4.1259365
542,1778598659593,-1.0462805,-2.4049573,-1.727052,7.0327387,-0.6188065,4.1259365
543,1778598659603,-0.44777006,-1.402216,0.052625023,1.8965839,-1.6204728,7.8998623
544,1778598659613,-0.16891229,-1.0651841,0.045917314,0.8042041,-1.8073975,8.301048
545,1778598659623,0.03469715,-0.86614805,0.036282603,0.3051272,-1.956296,7.96217
546,1778598659633,0.03469715,-0.86614805,0.036282603,0.3051272,-1.956296,7.96217
547,1778598659643,0.03469715,-0.86614805,0.036282603,0.3051272,-1.956296,7.96217
548,1778598659653,0.35965514,-0.3679483,0.050429773,-0.31780264,-2.4860687,5.8293343
549,1778598659663,0.40313327,-0.16226557,0.1185435,-0.21655174,-2.789058,4.425566
550,1778598659673,0.37770495,-0.045856334,0.15189911,-0.016646078,-2.7974575,3.7833939
551,1778598659683,0.37770495,-0.045856334,0.15189911,0.2359467,-2.745381,3.2513304
552,1778598659693,0.23806266,0.06043036,0.114153,0.5508477,-2.7172813,2.7809641
553,1778598659703,0.18775485,0.06872352,0.07305304,0.7687739,-2.7027733,2.59633
554,1778598659713,0.13561767,0.0851879,0.004024625,1.0997101,-2.7035367,2.3426683
555,1778598659723,0.11982407,0.09140777,-0.026830835,1.2577715,-2.75882,2.2020166
556,1778598659733,0.11262852,0.123055965,-0.1554359,1.4277447,-2.9020681,2.0176878
557,1778598659743,-1.2924535,0.15409435,-4.402208,1.4277447,-2.9020681,2.0176878
558,1778598659753,-0.4238662,-0.032014064,-1.416668,-4.288427,5.218011,2.9674306
559,1778598659763,0.094517715,0.058113147,-0.0071345624,-2.6555839,-1.9240729,2.2864685
560,1778598659773,0.15275282,0.077382565,0.10378654,-1.7224873,-3.9500074,1.8577939
561,1778598659783,0.15275282,0.077382565,0.10378654,-0.5337435,-5.7528234,0.9967794
562,1778598659793,0.19531627,0.07305304,0.14403279,-0.5337435,-5.7528234,0.9967794
563,1778598659803,0.36306998,-0.1232389,0.053783625,-0.6082691,-5.677229,-3.4826956
564,1778598659813,0.155131,-0.8720021,0.09067602,-1.1136073,-5.319873,-4.689918
565,1778598659823,-2.291902,-3.5374622,0.962922,-2.1326833,-2.3693936,-5.8438425
566,1778598659833,-4.0350523,-5.190669,1.3741045,-2.1766655,2.9520063,-3.6112826
567,1778598659843,-4.0350523,-5.190669,1.3741045,-2.1766655,2.9520063,-3.6112826
568,1778598659853,-3.9632802,-6.427082,1.40807,0.73639804,7.513948,2.9014573
569,1778598659863,-2.4569116,-5.2659173,0.5936322,4.845383,2.8280005,2.692236
570,1778598659873,-1.4338032,-3.343061,-0.071772486,6.1943264,0.2845105,0.550695
571,1778598659883,-1.0414022,-1.846998,-2.057315,6.5387015,1.2450961,-0.10308351
572,1778598659893,-0.436184,-1.3419076,-2.842117,5.806732,5.7555723,-0.030848695
573,1778598659903,0.04530752,-0.9091384,-2.40014,3.4585662,11.104767,-0.3501785
574,1778598659913,0.14915505,-0.6694903,-2.0512173,2.2336287,11.141418,-0.8181013
575,1778598659923,0.14933798,-0.42947626,-1.2218397,0.46975538,7.385208,-1.7814357
576,1778598659933,0.14683785,-0.35813063,-0.5876562,-0.5340489,4.7778826,-2.4523184
577,1778598659943,0.30312744,-0.106957465,0.09006623,-1.1221595,3.7395644,-2.947272
578,1778598659953,0.30312744,-0.106957465,0.09006623,-1.5519031,2.8803823,-3.532481
579,1778598659963,0.31837222,-0.052746978,0.096347086,-1.733941,2.3316727,-3.9521453
580,1778598659973,0.29977357,0.020001167,0.15665549,-1.8408424,1.7968601,-4.4399214
581,1778598659983,0.2952611,0.0049393126,0.034514207,-1.8924606,1.3515394,-4.864167
582,1778598659993,0.2128173,-0.0041465834,-0.054881252,-2.1429152,0.6953174,-5.159215
583,1778598660003,0.2128173,-0.0041465834,-0.054881252,-2.4958427,-0.049480084,-5.412724
584,1778598660013,0.2128173,-0.0041465834,-0.054881252,-2.893974,-0.7504479,-5.554292
585,1778598660023,-0.038538832,-0.14586218,0.012561709,-2.893974,-0.7504479,-5.554292
586,1778598660033,-0.038538832,-0.14586218,0.012561709,-2.893974,-0.7504479,-5.554292
587,1778598660043,-0.0012195833,-0.28062615,0.31721362,-5.7053285,-4.985729,-5.039638
588,1778598660053,0.023720896,-0.32471406,0.48173544,-6.498079,-6.902319,-4.3785295
589,1778598660063,0.10189619,-0.39179114,0.70065063,-6.557791,-7.8181586,-3.66061
590,1778598660073,0.15635058,-0.441977,0.8938326,-6.1779857,-7.327787,-3.0621147
591,1778598660083,0.15635058,-0.441977,0.8938326,-6.1779857,-7.327787,-3.0621147
592,1778598660093,0.1753151,-0.47606438,1.0172545,-5.546809,-6.2587724,-2.6355782
593,1778598660103,0.1753151,-0.47606438,1.0172545,-5.546809,-6.2587724,-2.6355782
594,1778598660113,0.1753151,-0.47606438,1.0172545,-5.546809,-6.2587724,-2.6355782
595,1778598660123,0.125861,-0.5046636,1.0117663,-4.402964,-4.4542766,-2.2209532
596,1778598660133,0.25678328,-2.5531368,0.13183697,6.753879,19.326555,-2.742785
597,1778598660143,-0.29019985,-2.6975355,-0.5189937,10.423957,11.155468,-1.4932601
598,1778598660153,-0.29019985,-2.6975355,-0.5189937,10.423957,11.155468,-1.4932601
599,1778598660163,-0.29019985,-2.6975355,-0.5189937,10.423957,11.155468,-1.4932601
600,1778598660173,-0.29019985,-2.6975355,-0.5189937,10.423957,11.155468,-1.4932601
601,1778598660183,-0.7662642,-1.3616039,-0.045124583,3.7737727,-4.1867175,4.7083964
602,1778598660193,-0.7662642,-1.3616039,-0.045124583,3.7737727,-4.1867175,4.7083964
603,1778598660203,-0.6161945,-1.2288522,0.32221392,3.4391713,-3.9032762,6.230673
604,1778598660213,-0.28105298,-1.1278098,0.18738899,3.0068314,-1.3642148,8.107709
605,1778598660223,-0.039209604,-1.0160959,0.061710916,2.4190264,-0.8578075,8.041888
606,1778598660233,-0.039209604,-1.0160959,0.061710916,2.4190264,-0.8578075,8.041888
607,1778598660243,-0.039209604,-1.0160959,0.061710916,2.4190264,-0.8578075,8.041888
608,1778598660253,-0.039209604,-1.0160959,0.061710916,2.4190264,-0.8578075,8.041888
609,1778598660263,0.37343642,-0.31196943,0.006524771,-0.2779437,-2.0131063,4.501466
610,1778598660273,0.29837108,-0.11476279,0.0866514,-0.39629883,-2.349693,3.6114354
611,1778598660283,0.23111105,-0.045002624,0.09000525,-0.311694,-2.4828618,3.1513011
612,1778598660293,0.1624485,-0.0016464376,0.056649648,-0.1908954,-2.5289822,2.8538096
613,1778598660303,0.13470298,0.031709168,0.033538543,-0.0076358155,-2.5514314,2.5700629
614,1778598660313,0.14092286,0.08677336,0.011464084,0.124005646,-2.5324945,2.4275784
615,1778598660323,0.14092286,0.08677336,0.011464084,0.25717425,-2.530662,2.2866213
616,1778598660333,0.114701815,0.119641125,-0.01841571,0.505491,-2.6198483,2.049911
617,1778598660343,0.10482319,0.096469045,-0.08549279,0.6740898,-2.6740627,1.7881553
618,1778598660353,-0.64253753,-0.29215118,-2.912182,-4.0190353,6.3508606,1.9269744
619,1778598660363,-0.46600276,-0.25336844,-2.253973,-5.0675855,-1.2197452,1.1746938
620,1778598660373,0.20062146,-0.2579419,-0.15135029,-5.0675855,-1.2197452,1.1746938
621,1778598660383,0.20062146,-0.2579419,-0.15135029,-3.8340957,-7.230048,0.06337727
622,1778598660393,0.34880084,-0.37929043,0.4656979,-2.720183,-6.9698195,-3.467424
623,1778598660403,0.34880084,-0.37929043,0.4656979,-2.720183,-6.9698195,-3.467424
624,1778598660413,0.16580236,-0.7080291,0.5882661,-2.520888,-6.230978,-4.785671
625,1778598660423,-3.6102717,-4.5467896,1.2101315,-0.99128157,0.6032294,-5.4953437
626,1778598660433,-4.6206965,-5.5716667,1.1794591,-0.99128157,0.6032294,-5.4953437
627,1778598660443,-3.8846169,-5.71326,0.9147485,3.8292089,4.249026,3.042109
628,1778598660453,-3.0573735,-5.6478295,0.71900535,4.6751046,5.1696,4.430911
629,1778598660463,-0.82736534,-3.129329,-0.10634767,5.435021,5.3333116,3.1077769
630,1778598660473,-0.82736534,-3.129329,-0.10634767,6.0887995,3.4637587,1.4459181
631,1778598660483,-0.47923526,-2.08378,-1.5918002,6.970278,1.120785,0.6072
632,1778598660493,0.14147167,-1.2785501,-3.4808738,5.551085,6.1107903,0.27198774
633,1778598660503,0.14147167,-1.2785501,-3.4808738,0.7545713,10.399064,-1.2318097
634,1778598660513,0.14147167,-1.2785501,-3.4808738,0.7545713,10.399064,-1.2318097
635,1778598660523,-0.002927,-0.6159506,-0.5953396,-0.34300083,7.111235,-1.929876
636,1778598660533,0.07969977,-0.46020976,-0.21873227,-0.86467975,4.6770897,-2.34389
637,1778598660543,0.13147108,-0.33154374,-0.012256813,-1.1348349,3.2968397,-2.7217102
638,1778598660553,0.18452296,-0.10482319,0.057625312,-1.5108224,1.9984456,-3.331659
639,1778598660563,0.24452646,-0.037685126,0.06274756,-1.6412421,1.5234979,-3.646102
640,1778598660573,0.24452646,-0.037685126,0.06274756,-1.6412421,1.5234979,-3.646102
641,1778598660583,0.24452646,-0.037685126,0.06274756,-1.7128662,1.1528554,-3.9165626
642,1778598660593,0.20495099,-0.020062147,0.008537084,-2.0412061,0.0954477,-4.387845
643,1778598660603,0.15006974,-0.03164819,0.000365875,-2.3851233,-0.73471814,-4.607909
644,1778598660613,0.07110171,-0.0629305,-0.0336605,-2.770274,-1.4475979,-4.635551
645,1778598660623,-0.02207446,-0.086834334,-0.00798827,-3.3507485,-2.3774874,-4.509407
646,1778598660633,-0.061893854,-0.085004956,0.023233064,-4.0472875,-3.4591773,-4.2255077
647,1778598660643,-0.07402871,-0.083053626,0.06451596,-4.499175,-4.13907,-3.9869647
648,1778598660653,-0.058540005,-0.11903133,0.19769447,-5.21572,-5.336519,-3.4691038
649,1778598660663,0.015793605,-0.19988972,0.37044844,-5.649587,-6.26595,-2.8429668
650,1778598660673,0.112567544,-0.27672347,0.5371045,-5.6862392,-6.583753,-2.2374468
651,1778598660683,0.18482786,-0.31343293,0.646928,-5.4255524,-6.383847,-1.8487836
652,1778598660693,0.2157443,-0.4288055,0.64375705,-4.9473977,-5.6602774,-1.5980235
653,1778598660703,-0.040124293,-1.2525121,-0.69510156,-5.3798904,-0.53985214,-1.389413
654,1778598660713,0.34636167,-1.4839281,0.39099842,-4.4238863,13.622448,-3.0552425
655,1778598660723,0.097444706,-2.0768285,0.18873052,-4.4238863,13.622448,-3.0552425
656,1778598660733,0.097444706,-2.0768285,0.18873052,0.7481572,15.021634,-3.4455855
657,1778598660743,-0.29227313,-2.1564674,-0.18799877,5.5434494,10.781924,-2.8351784
658,1778598660753,-1.068294,-1.2425725,-1.8233992,8.135809,-1.8269452,0.61941737
659,1778598660763,-1.068294,-1.2425725,-1.8233992,8.135809,-1.8269452,0.61941737
660,1778598660773,-0.74797046,-0.74028707,-0.25044146,5.35851,-1.7698293,3.0764701
661,1778598660783,-0.74797046,-0.74028707,-0.25044146,5.35851,-1.7698293,3.0764701
662,1778598660793,-0.74797046,-0.74028707,-0.25044146,5.35851,-1.7698293,3.0764701
663,1778598660803,-0.74797046,-0.74028707,-0.25044146,5.35851,-1.7698293,3.0764701
664,1778598660813,-0.74797046,-0.74028707,-0.25044146,5.35851,-1.7698293,3.0764701
665,1778598660823,-0.59973013,-0.6667462,0.045002624,4.6857944,2.468201,7.3635225
666,1778598660833,-0.115799434,-0.9487749,0.07573613,4.018577,3.0112603,7.6446733
667,1778598660843,0.12823918,-0.9065163,0.016769271,2.7809641,2.8015807,7.364897
668,1778598660853,0.2836141,-0.813584,-0.02426971,1.6154331,1.8640553,6.58696
669,1778598660863,0.36246017,-0.59729093,-0.04414892,0.13881913,-0.14676037,5.149747
670,1778598660873,0.36246017,-0.59729093,-0.04414892,0.13881913,-0.14676037,5.149747
671,1778598660883,0.36246017,-0.59729093,-0.04414892,0.13881913,-0.14676037,5.149747
672,1778598660893,0.28782168,-0.22306179,0.08256579,0.13881913,-0.14676037,5.149747
673,1778598660903,0.08293167,0.01683025,0.056100838,-1.0881038,-2.7834074,2.2350032
674,1778598660913,0.08293167,0.01683025,0.056100838,-0.8953757,-2.9765937,2.0169244
675,1778598660923,0.063540295,0.03664848,0.032745812,-0.7787005,-2.9552133,1.9428569
676,1778598660933,0.063540295,0.03664848,0.032745812,-0.7787005,-2.9552133,1.9428569
677,1778598660943,0.063540295,0.03664848,0.032745812,-0.7787005,-2.9552133,1.9428569
678,1778598660953,0.06085721,0.03164819,0.013781292,-0.68462723,-2.8936687,1.8955148
679,1778598660963,0.15848486,-0.40148684,0.008415125,-0.7108944,-3.0066788,0.048563786
680,1778598660973,0.15848486,-0.40148684,0.008415125,-0.7108944,-3.0066788,0.048563786
681,1778598660983,0.15848486,-0.40148684,0.008415125,-0.86437434,-2.968805,-3.2594242
682,1778598660993,0.15848486,-0.40148684,0.008415125,-0.86437434,-2.968805,-3.2594242
683,1778598661003,-3.3662941,-4.9047985,0.21117085,2.0065396,-10.0455265,-2.9210048
684,1778598661013,-3.966451,-5.9665065,-0.08098034,3.491553,-9.231548,0.33551773
685,1778598661023,-3.966451,-5.9665065,-0.08098034,3.3469307,-4.195728,1.4834863
686,1778598661033,-1.4147776,-3.9499257,-1.638632,0.9277516,6.0327525,1.0468704
687,1778598661043,-1.0524395,-2.9174263,-1.1886669,-0.12583824,8.330828,0.3726278
688,1778598661053,-0.8562694,-1.937491,-0.6570505,-0.26083946,6.476393,-0.09407325
689,1778598661063,-0.7965709,-1.5385044,-0.42965922,-0.14049901,3.5440874,-0.06047566
690,1778598661073,-0.71711504,-1.2953194,-0.42648828,-0.24007004,2.1203132,-0.04184427
691,1778598661083,-0.5771678,-1.0203035,-0.64680606,-0.5332854,1.2889256,-0.029932396
692,1778598661093,-0.13866661,-0.4873455,-1.0962834,-1.0877982,1.3458889,-0.057421334
693,1778598661103,-0.13866661,-0.4873455,-1.0962834,-2.143068,2.3521366,-0.23090707
694,1778598661113,-0.07616298,-0.43691576,-0.98761857,-2.7375927,3.2061262,-0.4289801
695,1778598661123,0.11897036,-0.27154022,-0.112994395,-3.715435,4.6265407,-1.4013249
696,1778598661133,0.11897036,-0.27154022,-0.112994395,-3.715435,4.6265407,-1.4013249
697,1778598661143,0.16141187,-0.105920814,0.22653762,-3.4423783,4.693583,-2.510809
698,1778598661153,0.16141187,-0.08354146,0.2139759,-3.2667546,4.683351,-2.7774515
699,1778598661163,0.10531103,-0.09811548,0.17519315,-3.0051515,4.2681155,-3.1986432
700,1778598661173,0.023111105,-0.1797666,0.2596493,-2.8487701,2.9162707,-3.4391713
701,1778598661183,-0.0011586042,-0.20848778,0.3153233,-2.7907379,2.2574525,-3.4961345
702,1778598661193,0.024818521,-0.29574898,0.5486296,-2.4352143,-0.37094793,-3.6555703
703,1778598661203,0.025428312,-0.30824968,0.5980227,-2.2021692,-1.9564487,-3.720933
704,1778598661213,0.0018903542,-0.32233587,0.6710147,-1.7621936,-5.180901,-3.7317758
705,1778598661223,-0.07445556,-0.29983455,0.688028,-1.5734361,-7.0238814,-3.6264014
706,1778598661233,-0.13397123,-0.26306412,0.71620035,-1.4937183,-8.184983,-3.3910656
707,1778598661243,-0.13372731,-0.25531977,0.6922355,-1.5467108,-8.610603,-2.9921706
708,1778598661253,-0.8323047,-1.2567197,-1.5226499,-2.0583105,-7.2778487,-2.5211935
709,1778598661263,-0.8323047,-1.2567197,-1.5226499,-5.552918,0.47219884,-1.3970488
710,1778598661273,-0.21098791,-1.2778184,0.23916028,-7.3207617,5.6770763,-1.0699304
711,1778598661283,0.018476687,-1.5302722,0.3995355,-7.1006975,6.7972503,-1.398576
712,1778598661293,0.008110229,-1.6218629,0.1261659,-6.2366285,7.347487,-1.9839376
713,1778598661303,-0.35880142,-2.016886,-0.8882226,0.8034405,-1.7150042,-1.2635747
714,1778598661313,-0.67814934,-1.4936237,-0.35203275,3.815617,-4.618905,-0.16829337
715,1778598661323,-0.67814934,-1.4936237,-0.35203275,3.815617,-4.618905,-0.16829337
716,1778598661333,-0.70644367,-1.0864048,-0.050307814,4.6641088,-3.9362628,0.46303585
717,1778598661343,-0.6577823,-0.711383,0.22915971,5.2343516,-2.3295345,1.5842791
718,1778598661353,-0.5234452,-0.4867357,0.26184455,5.5885005,-1.6377298,2.3434317
719,1778598661363,-0.43886706,-0.48454046,0.18421806,5.7545033,-1.0132728,2.8619037
720,1778598661373,-0.40849942,-0.5218597,0.18842563,5.8329997,-0.44837508,3.1523702
721,1778598661383,-0.3731315,-0.5397266,0.17433943,5.918368,0.32528573,3.455512
722,1778598661393,-0.31105474,-0.5388729,0.15354554,5.9107323,0.7672467,3.5662313
723,1778598661403,-0.31105474,-0.5388729,0.15354554,5.9107323,0.7672467,3.5662313
724,1778598661413,-0.31105474,-0.5388729,0.15354554,5.9107323,0.7672467,3.5662313
725,1778598661423,0.13793488,-0.3594112,-0.08043153,4.7436743,1.7701348,2.6140451
726,1778598661433,0.13793488,-0.3594112,-0.08043153,3.9069414,1.3862059,1.6633861
727,1778598661443,0.14122775,-0.26336902,-0.05683258,3.5051448,1.1583532,1.1369729
728,1778598661453,0.09140777,-0.13439809,-0.02042802,3.0364585,0.9370673,0.50976706
729,1778598661463,0.09140777,-0.13439809,-0.02042802,3.0364585,0.9370673,0.50976706
730,1778598661473,0.079211935,-0.07207738,-0.011525063,2.7511845,0.7089091,0.16646078
731,1778598661483,0.079211935,-0.07207738,-0.011525063,2.7511845,0.7089091,0.16646078
732,1778598661493,0.079211935,-0.07207738,-0.011525063,2.7511845,0.7089091,0.16646078
733,1778598661503,-0.36166742,-0.23342825,-2.0148737,1.7227927,-1.4092661,0.111177474
734,1778598661513,0.06280854,-0.007073583,-0.06756492,2.6212227,-0.12339478,0.020922136
735,1778598661523,-0.016220458,-0.2025728,-0.2409287,-2.4885123,-5.632025,1.0024298
736,1778598661533,-0.016220458,-0.2025728,-0.2409287,-2.4885123,-5.632025,1.0024298
737,1778598661543,-0.016220458,-0.2025728,-0.2409287,-2.4885123,-5.632025,1.0024298
738,1778598661553,-0.016220458,-0.2025728,-0.2409287,-2.4885123,-5.632025,1.0024298
739,1778598661563,-0.29410252,-0.7701059,0.059576645,-3.2879822,-4.315152,-0.1684461
740,1778598661573,-2.5680766,-3.7582679,0.2786748,-3.72246,-2.0233383,0.13194689
741,1778598661583,-3.2926311,-5.043648,0.2365382,-1.8623754,-6.1732516,1.2617421
742,1778598661593,-2.7096703,-5.189693,0.6735149,1.5749633,-9.291261,2.610227
743,1778598661603,-2.7096703,-5.189693,0.6735149,1.5749633,-9.291261,2.610227
744,1778598661613,-2.7096703,-5.189693,0.6735149,1.5749633,-9.291261,2.610227
745,1778598661623,-2.0942686,-4.9538255,0.40532854,1.5749633,-9.291261,2.610227
746,1778598661633,-0.35020337,-2.1001227,-1.0230476,1.2246321,6.028171,0.7808385
747,1778598661643,-0.34721538,-1.6727196,-0.73687226,0.81290895,7.7908225,0.15439619
748,1778598661653,-0.29861498,-0.9994486,-0.6669292,0.9289733,7.444309,-0.17623462
749,1778598661663,-0.15110639,-0.7319939,-0.778643,1.1198688,4.7607784,-0.5908594
750,1778598661673,-0.15110639,-0.7319939,-0.778643,1.1198688,4.7607784,-0.5908594
751,1778598661683,0.10872585,-0.3009322,-1.0395728,-0.26526824,4.9522843,-1.317331
752,1778598661693,0.124885336,-0.20440216,-0.90615046,-1.1643091,5.4208183,-1.7298176
753,1778598661703,0.17397358,-0.16757075,-0.4665516,-2.0851886,5.7900863,-2.2449298
754,1778598661713,0.18860857,-0.17458336,-0.118360564,-2.4405594,5.806732,-2.6642888
755,1778598661723,0.18860857,-0.17458336,-0.118360564,-2.5011878,5.2954383,-3.1532865
756,1778598661733,0.19946286,-0.117689796,0.27818695,-2.5011878,5.2954383,-3.1532865
757,1778598661743,0.18202282,-0.10957957,0.26477155,-1.9614882,3.5874588,-3.95016
758,1778598661753,0.14994776,-0.14055698,0.37593657,-1.694082,2.4341452,-4.192063
759,1778598661763,0.0983594,-0.17824212,0.43728164,-1.4083499,0.76342887,-4.3681445
760,1778598661773,0.047990605,-0.19696271,0.46380752,-1.1989758,-1.2114985,-4.477337
761,1778598661783,0.025306353,-0.2145247,0.49984625,-1.0386237,-3.8727329,-4.518112
762,1778598661793,0.014269125,-0.20976834,0.48216227,-1.0073168,-5.4287596,-4.4845147
763,1778598661803,-0.0866514,-0.22318375,0.44575772,-1.0823005,-8.120232,-4.272086
764,1778598661813,-0.0866514,-0.22318375,0.44575772,-1.3330606,-9.381058,-3.9541306
765,1778598661823,-0.24220926,-0.4269761,-0.024086772,-2.0497584,-8.881981,-3.541033
766,1778598661833,-0.2125734,-0.8586477,-0.49795586,-3.7114644,-5.913328,-2.9202414
767,1778598661843,-0.2037314,-1.15647,-0.51905465,-4.829348,-3.1735976,-2.6314547
768,1778598661853,0.16696097,-1.5442364,0.922127,-5.7354136,6.221357,-2.8495336
769,1778598661863,0.16696097,-1.5442364,0.922127,-5.7354136,6.221357,-2.8495336
770,1778598661873,-0.112445585,-1.8111423,0.15409435,-3.3573153,9.341962,-3.4345899
771,1778598661883,-0.112445585,-1.8111423,0.15409435,-2.272877,10.958922,-3.3108897
772,1778598661893,-0.6841862,-2.0054219,-0.63759816,3.5532503,3.8223367,-0.92164296
773,1778598661903,-0.9882284,-1.7332109,-0.2991028,5.2603135,-0.5983425,0.97784257
774,1778598661913,-0.9120045,-1.5186251,-0.10262794,5.916383,-2.6250408,2.6456573
775,1778598661923,-0.7505926,-1.2903802,-0.05067369,5.916383,-2.6250408,2.6456573
776,1778598661933,-0.62418276,-1.1881791,-0.030245667,5.916383,-2.6250408,2.6456573
777,1778598661943,-0.62418276,-1.1881791,-0.030245667,5.916383,-2.6250408,2.6456573
778,1778598661953,-0.62418276,-1.1881791,-0.030245667,6.2351017,-2.7753136,5.1010303
779,1778598661963,-0.3111767,-1.0249379,0.11073817,6.116899,-1.553583,6.297868
780,1778598661973,-0.037868064,-0.87681943,0.03664848,5.6692877,0.6214027,7.3149586
781,1778598661983,-0.037868064,-0.87681943,0.03664848,5.6692877,0.6214027,7.3149586
782,1778598661993,0.22586684,-0.6260121,-0.06860156,3.5428658,1.5609134,6.245639
783,1778598662003,0.30690816,-0.51692045,-0.096895896,2.768594,1.2389874,5.670662
784,1778598662013,0.30690816,-0.51692045,-0.096895896,2.768594,1.2389874,5.670662
785,1778598662023,0.30690816,-0.51692045,-0.096895896,2.768594,1.2389874,5.670662
786,1778598662033,0.23257454,-0.10287185,-0.02134271,0.9976957,-0.70570207,3.3492215
787,1778598662043,0.15708233,-0.0010366458,-0.039941356,0.8579602,-1.0477866,2.9582677
788,1778598662053,0.11543357,0.015610667,-0.07854117,0.8355109,-1.6465873,2.5605943
789,1778598662063,0.11543357,0.015610667,-0.07854117,0.8355109,-1.6465873,2.5605943
790,1778598662073,0.1009815,0.022318374,-0.09921311,0.83062404,-2.0117319,2.430022
791,1778598662083,0.0951275,0.020793896,-0.09976192,0.8240572,-2.224313,2.357329
792,1778598662093,-0.26385686,-0.39910865,-2.9430985,-0.1656972,-1.0151054,2.237294
793,1778598662103,-0.044270877,-0.18610841,-0.6682707,-3.907094,4.1635046,2.1997259
794,1778598662113,-0.30007848,-0.6249755,-0.8564524,-3.4797938,0.3678936,1.5635096
795,1778598662123,-0.30007848,-0.6249755,-0.8564524,-3.4797938,0.3678936,1.5635096
796,1778598662133,-0.06360127,-0.58546096,-0.09829842,-0.464563,-7.7262235,0.14660765
797,1778598662143,-0.45039213,-1.6740612,0.38294917,-0.46639562,-7.687739,-1.0476339
798,1778598662153,-1.5889952,-3.1718924,0.54051936,-0.46639562,-7.687739,-1.0476339
799,1778598662163,-1.5889952,-3.1718924,0.54051936,-1.9303342,-0.8333729,-1.642922
800,1778598662173,-2.8694966,-4.6010003,0.80742514,-1.9303342,-0.8333729,-1.642922
801,1778598662183,-2.8694966,-4.6010003,0.80742514,-1.9303342,-0.8333729,-1.642922
802,1778598662193,-2.8694966,-4.6010003,0.80742514,-1.9303342,-0.8333729,-1.642922
803,1778598662203,-1.8958422,-4.3270817,0.17153439,3.0173688,1.0439687,0.2817616
804,1778598662213,-0.8714533,-2.046156,-1.2803795,3.046843,2.4399486,-0.08353582
805,1778598662223,-0.8714533,-2.046156,-1.2803795,3.046843,2.4399486,-0.08353582
806,1778598662233,-0.8714533,-2.046156,-1.2803795,3.046843,2.4399486,-0.08353582
807,1778598662243,-0.8714533,-2.046156,-1.2803795,3.046843,2.4399486,-0.08353582
808,1778598662253,-0.8714533,-2.046156,-1.2803795,3.046843,2.4399486,-0.08353582
809,1778598662263,-0.21147576,-0.857733,-1.5476513,1.1268936,8.055938,-0.8723156
810,1778598662273,0.0074394583,-0.36044785,-0.415634,-1.6016886,4.4894013,-2.3747387
811,1778598662283,0.07817529,-0.20940247,-0.12098267,-2.0792327,3.7669005,-2.7111726
812,1778598662293,0.07817529,-0.20940247,-0.12098267,-2.0792327,3.7669005,-2.7111726
813,1778598662303,0.07817529,-0.20940247,-0.12098267,-2.0792327,3.7669005,-2.7111726
814,1778598662313,0.07817529,-0.20940247,-0.12098267,-2.0792327,3.7669005,-2.7111726
815,1778598662323,0.15519199,-0.05390558,0.18537667,-2.1500928,0.93126404,-4.0591993
816,1778598662333,0.15519199,-0.05390558,0.18537667,-2.1500928,0.93126404,-4.0591993
817,1778598662343,0.050063897,-0.107628234,0.19958481,-2.2348504,0.03481932,-4.1048617
818,1778598662353,0.013598354,-0.15037462,0.31623796,-2.4799602,-2.32984,-4.1248674
819,1778598662363,0.015732625,-0.16049717,0.3514839,-2.5961773,-3.6572502,-4.0883684
820,1778598662373,-0.024086772,-0.1855596,0.64912325,-2.826321,-7.5748816,-3.5978436
821,1778598662383,-0.030062728,-0.1589727,0.7471777,-2.890767,-8.530428,-3.2479706
822,1778598662393,0.05195425,-0.19549921,0.9029186,-3.0271428,-8.792794,-2.627637
823,1778598662403,0.05195425,-0.19549921,0.9029186,-3.0083587,-7.9045963,-2.2078197
824,1778598662413,-1.0279258,-1.1370785,-0.78583854,-3.0392072,-5.9573107,-1.7817413
825,1778598662423,-1.0279258,-1.1370785,-0.78583854,-3.0392072,-5.9573107,-1.7817413
826,1778598662433,-0.29690757,-0.43972078,0.046710044,-3.0392072,-5.9573107,-1.7817413
827,1778598662443,0.21818347,-1.123968,0.86529446,-4.094324,9.681603,-1.041678
828,1778598662453,0.21818347,-1.123968,0.86529446,-4.094324,9.681603,-1.041678
829,1778598662463,-0.018842563,-1.7528461,-1.1200044,-3.015689,10.649366,-1.5783231
830,1778598662473,-0.8800513,-1.9340763,-1.1200653,3.03936,4.568203,-1.1566733
831,1778598662483,-1.097747,-1.4831352,-0.8144378,6.614449,-2.4239132,1.1786644
832,1778598662493,-1.097747,-1.4831352,-0.8144378,6.1752367,-2.1998785,2.6442828
833,1778598662503,-0.94298184,-1.1383591,-0.15586275,5.7952785,-1.7829629,3.8096611
834,1778598662513,-0.8259628,-1.0845145,0.0069516255,5.5309267,-1.3313808,4.837442
835,1778598662523,-0.69815046,-1.074209,0.08750511,5.3076553,-0.8188649,5.689141
836,1778598662533,-0.5363728,-1.0817704,0.14866722,4.9852715,-0.10323623,6.4536386
837,1778598662543,-0.4563681,-1.0950639,0.09896919,4.703815,0.3129157,6.711882
838,1778598662553,-0.23501371,-1.097808,0.04762473,3.9782598,0.83199847,6.7002754
839,1778598662563,-0.0029879792,-0.8716362,-0.016708292,2.769663,0.98639464,5.798944
840,1778598662573,0.17129049,-0.7490681,-0.039819397,2.2249238,0.8891144,5.0313916
841,1778598662583,0.29306588,-0.53490925,-0.06317442,1.3287846,0.27305678,3.458719
842,1778598662593,0.27562585,-0.39788908,-0.01097625,0.9121745,-0.13988814,2.563496
843,1778598662603,0.22940363,-0.17287594,0.043356188,0.5154176,-0.5531385,1.4138476
844,1778598662613,0.16110696,-0.08165111,0.046892982,0.43783766,-0.6458373,0.990518
845,1778598662623,0.16110696,-0.08165111,0.046892982,0.43783766,-0.6458373,0.990518
846,1778598662633,0.16110696,-0.08165111,0.046892982,0.43783766,-0.6458373,0.990518
847,1778598662643,0.07482144,0.032318957,0.029513916,0.4970916,-0.9989174,0.5384777
848,1778598662653,0.070187025,0.05408852,-0.0064028124,0.63270366,-1.3411547,0.42088616
849,1778598662663,0.0617719,0.060247418,-0.046527103,0.7076874,-1.6618589,0.36270124
850,1778598662673,0.072321296,0.04463675,-0.07445556,0.76923203,-1.947133,0.27488935
851,1778598662683,0.072321296,0.04463675,-0.07445556,0.76923203,-1.947133,0.27488935
852,1778598662693,0.072321296,0.04463675,-0.07445556,0.62888575,-3.3860261,0.20173825
853,1778598662703,0.07823627,-0.3514839,-0.18891345,-4.496121,-8.634886,1.1513283
854,1778598662713,0.07823627,-0.3514839,-0.18891345,-4.496121,-8.634886,1.1513283
855,1778598662723,-0.3030055,-1.1067109,0.56942344,-3.382208,-6.162103,-0.26725355
856,1778598662733,-0.78467995,-1.7316253,0.70924866,-2.806162,-4.591416,-1.1093313
857,1778598662743,-2.1650653,-3.6119182,1.0474391,-1.3651311,-2.1126773,-1.7136297
858,1778598662753,-2.9518795,-4.5408745,1.170861,1.1045971,0.036651913,-0.78694713
859,1778598662763,-2.9979799,-4.9615088,0.80571777,2.4636195,2.0627391,0.6262896
860,1778598662773,-2.4438622,-4.7419233,0.43770844,2.8079948,3.8777726,1.587486
861,1778598662783,-2.4438622,-4.7419233,0.43770844,2.8079948,3.8777726,1.587486
862,1778598662793,-1.2408041,-3.0778625,0.16909523,2.7977629,4.4209843,0.9430232
863,1778598662803,-0.93615216,-2.2123241,0.04549046,3.803247,2.0360138,0.75732017
864,1778598662813,-0.16909523,-0.84157354,-2.4991093,4.9689307,0.44135013,0.4250095
865,1778598662823,-0.16909523,-0.84157354,-2.4991093,4.9689307,0.44135013,0.4250095
866,1778598662833,0.27763817,-0.38538834,-2.0032265,0.81413066,9.716423,-0.8848383
867,1778598662843,0.27763817,-0.38538834,-2.0032265,0.060322944,9.271407,-1.4773777
868,1778598662853,0.25946635,-0.31788442,-1.4340471,0.060322944,9.271407,-1.4773777
869,1778598662863,0.25330746,-0.3298363,-0.7541904,-0.49602258,7.272045,-2.368172
870,1778598662873,0.25330746,-0.3298363,-0.7541904,-0.49602258,7.272045,-2.368172
871,1778598662883,0.25330746,-0.3298363,-0.7541904,-0.49602258,7.272045,-2.368172
872,1778598662893,0.25330746,-0.3298363,-0.7541904,-0.49602258,7.272045,-2.368172
873,1778598662903,0.25330746,-0.3298363,-0.7541904,-1.7249308,0.8023715,-4.736191
874,1778598662913,0.20690231,-0.32215294,-0.40288937,-0.73975784,5.494733,-2.9717066
875,1778598662923,0.24806325,-0.19531627,0.2923341,-1.6374242,-0.29245174,-5.0686545
876,1778598662933,0.24806325,-0.19531627,0.2923341,-1.6374242,-0.29245174,-5.0686545
877,1778598662943,0.24806325,-0.19531627,0.2923341,-1.6374242,-0.29245174,-5.0686545
878,1778598662953,0.24806325,-0.19531627,0.2923341,-1.6374242,-0.29245174,-5.0686545
879,1778598662963,-0.26416174,-0.27093044,0.03469715,-2.2957842,-5.0814824,-4.358218
880,1778598662973,-0.357094,-0.41850004,-0.042380523,-3.0234776,-4.606535,-3.712839
881,1778598662983,-0.357094,-0.41850004,-0.042380523,-4.163352,-3.304781,-2.5986207
882,1778598662993,-0.357094,-0.41850004,-0.042380523,-4.163352,-3.304781,-2.5986207
883,1778598663003,-0.357094,-0.41850004,-0.042380523,-4.163352,-3.304781,-2.5986207
884,1778598663013,-0.011647021,-0.8701117,0.0918956,-5.1289773,-1.055117,-1.7232509
885,1778598663023,0.5752165,-1.8595597,0.5918638,-4.990922,6.712798,-3.0327933
886,1778598663033,0.80510795,-2.526245,0.020549979,-3.4723108,9.539883,-4.352415
887,1778598663043,0.80510795,-2.526245,0.020549979,-3.4723108,9.539883,-4.352415
888,1778598663053,0.76632524,-3.0413358,-0.18940128,-2.1438315,11.290775,-4.9319735
889,1778598663063,-1.0119493,-2.194823,-1.6230215,6.1653104,2.7102563,-1.43141
890,1778598663073,-0.85376936,-1.3508716,-0.77175236,4.3542476,-0.59498274,1.3122913
891,1778598663083,-0.7379089,-1.0607326,-0.18592548,3.430161,-2.439185,2.7380507
892,1778598663093,-0.49240676,-0.7321159,0.27300373,3.1607695,-3.5569155,3.9753582
893,1778598663103,-0.49240676,-0.7321159,0.27300373,3.1607695,-3.5569155,3.9753582
894,1778598663113,-0.27288178,-0.45197758,0.13921544,3.4274123,-3.3912184,5.068807
895,1778598663123,-0.16482669,-0.3842907,0.066345334,3.487735,-2.8716774,5.3777523
896,1778598663133,-0.06933331,-0.35935023,0.054820273,3.4429893,-2.2602015,5.525429
897,1778598663143,0.07250423,-0.32056746,0.031892106,3.3272302,-1.8275561,5.497176
898,1778598663153,0.14397182,-0.30202982,0.037746105,3.202003,-1.5344934,5.365535
899,1778598663163,0.19842622,-0.27733323,0.038965687,3.044247,-1.3539828,5.0701814
900,1778598663173,0.31227434,-0.19958481,0.06299148,2.8677068,-1.3374895,4.6751046
901,1778598663183,0.31227434,-0.19958481,0.06299148,2.531273,-1.669342,3.7873645
902,1778598663193,0.2359284,-0.09799352,-0.020367041,2.3307564,-1.9530889,3.4521523
903,1778598663203,0.2359284,-0.09799352,-0.020367041,2.189799,-2.189952,3.156188
904,1778598663213,0.19568215,-0.055308107,-0.017440042,2.1033618,-2.3704627,2.8738155
905,1778598663223,0.13189794,-0.036770437,-0.03146525,2.1033618,-2.3704627,2.8738155
906,1778598663233,0.13189794,-0.036770437,-0.03146525,2.1033618,-2.3704627,2.8738155
907,1778598663243,0.13189794,-0.036770437,-0.03146525,2.1033618,-2.3704627,2.8738155
908,1778598663253,-0.72888404,-0.66497785,-4.0702376,-0.3315471,0.83001316,2.605493
909,1778598663263,0.017927876,-0.10982348,-0.09695688,-3.7841575,6.0984206,2.7235427
910,1778598663273,0.04469773,-0.08823685,0.038965687,-3.8847976,5.7935987,2.5308146
911,1778598663283,0.071162686,-0.1454963,0.05945469,-4.0071235,4.9861875,1.8923078
912,1778598663293,0.0395145,-0.24605095,0.21922012,-3.2097914,2.8312078,1.4046847
913,1778598663303,-0.045734376,-0.45966098,0.18836464,-0.8571966,-2.5105035,0.9618073
914,1778598663313,-0.34373957,-1.2083632,-0.030062728,0.5580254,-6.541603,0.29978213
915,1778598663323,-0.53039676,-1.8663285,0.0131715005,0.74113226,-7.4728675,-0.44012842
916,1778598663333,-2.1373808,-4.1472545,0.18738899,-0.41355577,-6.5736737,-1.4921911
917,1778598663343,-2.9403546,-5.0979805,0.38398582,-1.5696182,-4.034612,-1.321607
918,1778598663353,-3.4237971,-6.22329,0.7019312,-0.8022188,-0.5636759,0.7351763
919,1778598663363,-3.4237971,-6.22329,0.7019312,-0.8022188,-0.5636759,0.7351763
920,1778598663373,-2.1093304,-4.4898963,0.26885715,-0.8022188,-0.5636759,0.7351763
921,1778598663383,-2.1093304,-4.4898963,0.26885715,-0.8022188,-0.5636759,0.7351763
922,1778598663393,-0.52643317,-1.1118941,-1.7840065,1.1027645,3.769344,0.060170226
923,1778598663403,-0.3233725,-0.8388904,-1.2342184,-0.113926366,6.296341,-0.2527455
924,1778598663413,-0.24166043,-0.6940039,-0.9071871,-0.5364924,6.650948,-0.5308419
925,1778598663423,-0.13269067,-0.49161404,-0.6137553,-0.8530733,5.9107323,-1.1206323
926,1778598663433,-0.045124583,-0.30648127,-0.51039565,-0.8863655,5.071403,-1.4526376
927,1778598663443,0.0043295207,-0.14330104,-0.48021096,-0.892016,4.1761804,-1.8220583
928,1778598663453,0.04396598,-0.05945469,-0.39654753,-0.9837985,3.8699841,-2.066099
929,1778598663463,0.095920235,-0.008293167,-0.20903657,-1.1837041,3.790266,-2.3472497
930,1778598663473,0.13848369,0.0014635,0.016403396,-1.2841915,3.8270707,-2.5841126
931,1778598663483,0.13415417,0.021708583,0.100432694,-1.2592987,3.67298,-2.8793132
932,1778598663493,0.11427496,0.026038107,0.13476396,-1.2188289,3.3396003,-3.0783026
933,1778598663503,0.0898833,0.009390792,0.14836231,-1.2014192,2.798832,-3.2461379
934,1778598663513,0.033294626,-0.024513626,0.16866837,-1.258077,1.6873626,-3.4155004
935,1778598663523,0.033294626,-0.024513626,0.16866837,-1.4170547,0.018784106,-3.5686748
936,1778598663533,-0.0336605,-0.046588086,0.2506244,-1.7308867,-2.138792,-3.6438112
937,1778598663543,-0.025367333,-0.07165052,0.31629896,-1.9793562,-3.9309177,-3.6209037
938,1778598663553,-0.021220751,-0.07689473,0.3427639,-2.2296581,-5.558263,-3.5117116
939,1778598663563,-0.021220751,-0.07689473,0.3427639,-2.5889995,-7.151705,-3.2603405
940,1778598663573,-0.021220751,-0.07689473,0.3427639,-2.5889995,-7.151705,-3.2603405
941,1778598663583,-0.021220751,-0.07689473,0.3427639,-2.5889995,-7.151705,-3.2603405
942,1778598663593,0.040124293,-0.23263553,0.59088814,-3.3232596,-6.9313354,-2.2149973
943,1778598663603,-0.35837457,-0.7138221,-0.6274147,-5.6138515,2.8189905,-1.3875804
944,1778598663613,-0.4173414,-1.2772697,-0.834073,-5.6138515,2.8189905,-1.3875804
945,1778598663623,-0.4173414,-1.2772697,-0.834073,-5.6138515,2.8189905,-1.3875804
946,1778598663633,-0.4173414,-1.2772697,-0.834073,-5.6138515,2.8189905,-1.3875804
947,1778598663643,-0.4173414,-1.2772697,-0.834073,3.7966802,6.3562055,-2.7166705
948,1778598663653,-0.96676373,-2.6559477,-1.132505,6.627277,0.97097033,-0.84879726
949,1778598663663,-1.1498841,-2.4742906,-1.2598907,6.6301785,-0.29016098,0.5131268
950,1778598663673,-0.96316594,-2.1657362,-1.0030463,5.839261,-0.80481493,2.361147
951,1778598663683,-0.717054,-1.7348573,-0.41575596,4.498259,-0.81107634,4.5791984
952,1778598663693,-0.717054,-1.7348573,-0.41575596,4.498259,-0.81107634,4.5791984
953,1778598663703,-0.58003384,-1.4464258,-0.09823744,4.498259,-0.81107634,4.5791984
954,1778598663713,-0.4030723,-1.1048815,-0.009085896,2.6435194,-0.23335053,6.780757
955,1778598663723,-0.15189911,-0.769862,0.023476979,2.2799017,-0.089186326,6.750977
956,1778598663733,0.137569,-0.45417285,0.03561183,1.3356569,0.034055736,5.9406643
957,1778598663743,0.137569,-0.45417285,0.03561183,1.3356569,0.034055736,5.9406643
958,1778598663753,0.2637349,-0.15263085,0.06097917,0.8698721,-0.30970868,4.983744
959,1778598663763,0.25775895,-0.06488183,0.072016396,0.6478226,-0.70509124,4.30492
960,1778598663773,0.24794129,-0.00512225,0.18958424,0.5439755,-1.3888022,3.063031
961,1778598663783,0.22818404,0.031160356,0.14360595,0.77824235,-1.3698653,2.5712845
962,1778598663793,0.17458336,0.043356188,0.08933448,0.77824235,-1.3698653,2.5712845
963,1778598663803,0.14482552,0.037136313,0.04085604,1.0943651,-1.2918273,2.0470095
964,1778598663813,0.1323248,0.039941356,0.021708583,1.1688906,-1.340391,1.9338466
965,1778598663823,0.12726352,0.06073525,-0.019513333,1.2964088,-1.5338826,1.7458528
966,1778598663833,0.12726352,0.06073525,-0.019513333,1.3443617,-1.670411,1.6867516
967,1778598663843,0.12726352,0.06073525,-0.019513333,1.3443617,-1.670411,1.6867516
968,1778598663853,0.12726352,0.06073525,-0.019513333,1.3443617,-1.670411,1.6867516
969,1778598663863,0.12726352,0.06073525,-0.019513333,1.3443617,-1.670411,1.6867516
970,1778598663873,-0.2300744,-0.09061504,-1.5060635,1.3799446,-2.8842003,1.1806498
971,1778598663883,-0.2555027,-0.19366984,-1.5391752,-2.7563767,1.176221,1.2173017
972,1778598663893,0.09134679,-0.055308107,-0.26068595,-3.6596937,1.4054482,0.8167268
973,1778598663903,0.14738666,-0.093359105,-0.09006623,-3.758043,0.32055154,-0.20586158
974,1778598663913,-0.01396423,-0.68211293,-0.08055348,-2.6352727,-4.9032626,-2.2606595
975,1778598663923,-0.5250916,-1.147384,0.1817789,-1.9914207,-6.8262663,-2.8052459
976,1778598663933,-0.5250916,-1.147384,0.1817789,-1.9914207,-6.8262663,-2.8052459
977,1778598663943,-4.126582,-5.1048713,0.8161452,-0.4841107,-5.6094227,-1.1737776
978,1778598663953,-4.413855,-5.9466276,0.7446776,-0.4841107,-5.6094227,-1.1737776
979,1778598663963,-3.7727203,-6.1366386,0.7456533,0.15653422,0.08231409,3.2942436
980,1778598663973,-3.7727203,-6.1366386,0.7456533,1.1840096,-0.6458373,2.6186266
981,1778598663983,-1.8693774,-3.4598968,0.17964463,3.5596645,-4.0088034,0.6962337
982,1778598663993,-1.0878685,-1.9753592,-1.8667552,4.5909576,-3.3727398,0.4981606
983,1778598664003,-0.44008666,-1.1845204,-2.5439289,3.6764925,6.1506495,0.49846604
984,1778598664013,-0.16476572,-0.94932365,-1.7819333,3.6764925,6.1506495,0.49846604
985,1778598664023,-0.054942228,-0.772789,-1.3609331,1.379181,10.781008,-0.6543894
986,1778598664033,-0.012256813,-0.48386967,-0.86700183,0.8228355,9.021411,-1.2379184
987,1778598664043,0.050002918,-0.1797666,-0.5431415,-0.12415836,5.673411,-2.0717494
988,1778598664053,0.06982114,-0.14293517,-0.49807784,-0.42638394,4.958393,-2.2530236
989,1778598664063,0.17025384,-0.052381106,-0.2579419,-1.1556044,3.8997638,-2.6826148
990,1778598664073,0.20501198,-0.025428312,0.008598062,-1.7035505,3.2168164,-3.1726813
991,1778598664083,0.23946518,0.0038416875,0.10409144,-1.8338175,2.7982209,-3.3932037
992,1778598664093,0.23946518,0.0038416875,0.10409144,-1.9795089,1.6904168,-4.046524
993,1778598664103,0.26477155,-0.017257104,0.17287594,-2.016619,0.9964739,-4.3460007
994,1778598664113,0.11293342,-0.057503358,0.21812248,-2.016619,0.9964739,-4.3460007
995,1778598664123,0.00073175,-0.07549221,0.3041031,-2.5071437,-1.9924897,-4.5252895
996,1778598664133,0.0020732917,-0.0910419,0.3100181,-2.5071437,-1.9924897,-4.5252895
997,1778598664143,0.0020732917,-0.0910419,0.3100181,-2.642145,-2.6279423,-4.4672575
998,1778598664153,-0.018110814,-0.0831146,0.38038805,-3.1560352,-4.903415,-4.12105
999,1778598664163,-0.008171208,-0.07390675,0.50118774,-3.5619552,-6.1932573,-3.816075
1000,1778598664173,0.037624147,-0.11378712,0.72876203,-4.2604795,-8.08419,-2.7667613
