id,timestamp,acc_x,acc_y,acc_z,gyro_x,gyro_y,gyro_z
1,1778607669.0468512,0.4749058,-1.5537492,0.26684484,1.2904519,-1.5987859,-0.099418245
2,1778607669.057239,0.4749058,-1.5537492,0.26684484,1.2904519,-1.5987859,-0.099418245
3,1778607669.067826,0.4749058,-1.5537492,0.26684484,1.2904519,-1.5987859,-0.099418245
4,1778607669.079297,0.4749058,-1.5537492,0.26684484,1.2904519,-1.5987859,-0.099418245
5,1778607669.088452,0.4749058,-1.5537492,0.26684484,1.2904519,-1.5987859,-0.099418245
6,1778607669.098912,0.4749058,-1.5537492,0.26684484,1.2904519,-1.5987859,-0.099418245
7,1778607669.1092548,0.4749058,-1.5537492,0.26684484,1.2904519,-1.5987859,-0.099418245
8,1778607669.120167,0.4749058,-1.5537492,0.26684484,1.2904519,-1.5987859,-0.099418245
9,1778607669.131454,0.4749058,-1.5537492,0.26684484,1.2904519,-1.5987859,-0.099418245
10,1778607669.141016,0.4749058,-1.5537492,0.26684484,1.2904519,-1.5987859,-0.099418245
11,1778607669.151565,0.4749058,-1.5537492,0.26684484,1.2904519,-1.5987859,-0.099418245
12,1778607669.161825,0.4749058,-1.5537492,0.26684484,1.2904519,-1.5987859,-0.099418245
13,1778607669.173633,0.4749058,-1.5537492,0.26684484,1.2904519,-1.5987859,-0.099418245
14,1778607669.182988,0.4749058,-1.5537492,0.26684484,1.2904519,-1.5987859,-0.099418245
15,1778607669.1933959,0.4749058,-1.5537492,0.26684484,1.2904519,-1.5987859,-0.099418245
16,1778607669.204142,0.4749058,-1.5537492,0.26684484,1.2904519,-1.5987859,-0.099418245
17,1778607669.214369,0.4749058,-1.5537492,0.26684484,1.2904519,-1.5987859,-0.099418245
18,1778607669.225616,0.4749058,-1.5537492,0.26684484,1.2904519,-1.5987859,-0.099418245
19,1778607669.2358642,0.4749058,-1.5537492,0.26684484,1.2904519,-1.5987859,-0.099418245
20,1778607669.246826,0.4749058,-1.5537492,0.26684484,1.2904519,-1.5987859,-0.099418245
21,1778607669.257695,0.4749058,-1.5537492,0.26684484,1.2904519,-1.5987859,-0.099418245
22,1778607669.269093,0.4749058,-1.5537492,0.26684484,1.2904519,-1.5987859,-0.099418245
23,1778607669.279855,0.4749058,-1.5537492,0.26684484,1.2904519,-1.5987859,-0.099418245
24,1778607669.290123,0.4749058,-1.5537492,0.26684484,1.2904519,-1.5987859,-0.099418245
25,1778607669.3009338,0.4749058,-1.5537492,0.26684484,1.2904519,-1.5987859,-0.099418245
26,1778607669.311502,0.4749058,-1.5537492,0.26684484,1.2904519,-1.5987859,-0.099418245
27,1778607669.323392,0.4749058,-1.5537492,0.26684484,1.2904519,-1.5987859,-0.099418245
28,1778607669.3332212,0.4749058,-1.5537492,0.26684484,1.2904519,-1.5987859,-0.099418245
29,1778607669.346171,0.4749058,-1.5537492,0.26684484,1.2904519,-1.5987859,-0.099418245
30,1778607669.355724,0.4749058,-1.5537492,0.26684484,1.2904519,-1.5987859,-0.099418245
31,1778607669.3663208,0.4749058,-1.5537492,0.26684484,1.2904519,-1.5987859,-0.099418245
32,1778607669.379887,0.4749058,-1.5537492,0.26684484,1.2904519,-1.5987859,-0.099418245
33,1778607669.3968918,0.4749058,-1.5537492,0.26684484,1.2904519,-1.5987859,-0.099418245
34,1778607669.4018009,0.4749058,-1.5537492,0.26684484,1.2904519,-1.5987859,-0.099418245
35,1778607669.413743,0.4749058,-1.5537492,0.26684484,1.2904519,-1.5987859,-0.099418245
36,1778607669.424787,0.4749058,-1.5537492,0.26684484,1.2904519,-1.5987859,-0.099418245
37,1778607669.435149,0.4749058,-1.5537492,0.26684484,1.2904519,-1.5987859,-0.099418245
38,1778607669.449734,0.4749058,-1.5537492,0.26684484,1.2904519,-1.5987859,-0.099418245
39,1778607669.464494,0.4749058,-1.5537492,0.26684484,1.2904519,-1.5987859,-0.099418245
40,1778607669.470779,0.4749058,-1.5537492,0.26684484,1.2904519,-1.5987859,-0.099418245
41,1778607669.484732,0.4749058,-1.5537492,0.26684484,1.2904519,-1.5987859,-0.099418245
42,1778607669.500615,0.4749058,-1.5537492,0.26684484,1.2904519,-1.5987859,-0.099418245
43,1778607669.5058188,0.4749058,-1.5537492,0.26684484,1.2904519,-1.5987859,-0.099418245
44,1778607669.5180218,0.4749058,-1.5537492,0.26684484,1.2904519,-1.5987859,-0.099418245
45,1778607669.529361,0.4749058,-1.5537492,0.26684484,1.2904519,-1.5987859,-0.099418245
46,1778607669.540195,0.4749058,-1.5537492,0.26684484,1.2904519,-1.5987859,-0.099418245
47,1778607669.551966,0.4749058,-1.5537492,0.26684484,1.2904519,-1.5987859,-0.099418245
48,1778607669.562909,0.4749058,-1.5537492,0.26684484,1.2904519,-1.5987859,-0.099418245
49,1778607669.5735722,0.4749058,-1.5537492,0.26684484,1.2904519,-1.5987859,-0.099418245
50,1778607669.586632,0.4749058,-1.5537492,0.26684484,1.2904519,-1.5987859,-0.099418245
51,1778607669.597942,0.4749058,-1.5537492,0.26684484,1.2904519,-1.5987859,-0.099418245
52,1778607669.609243,0.4749058,-1.5537492,0.26684484,1.2904519,-1.5987859,-0.099418245
53,1778607669.6209311,0.4749058,-1.5537492,0.26684484,1.2904519,-1.5987859,-0.099418245
54,1778607669.6320992,0.4749058,-1.5537492,0.26684484,1.2904519,-1.5987859,-0.099418245
55,1778607669.6434188,0.4749058,-1.5537492,0.26684484,1.2904519,-1.5987859,-0.099418245
56,1778607669.654769,0.4749058,-1.5537492,0.26684484,1.2904519,-1.5987859,-0.099418245
57,1778607669.666024,0.4749058,-1.5537492,0.26684484,1.2904519,-1.5987859,-0.099418245
58,1778607669.676911,0.4749058,-1.5537492,0.26684484,1.2904519,-1.5987859,-0.099418245
59,1778607669.687335,0.4749058,-1.5537492,0.26684484,1.2904519,-1.5987859,-0.099418245
60,1778607669.69774,0.4749058,-1.5537492,0.26684484,1.2904519,-1.5987859,-0.099418245
61,1778607669.708126,0.4749058,-1.5537492,0.26684484,1.2904519,-1.5987859,-0.099418245
62,1778607669.719063,0.4749058,-1.5537492,0.26684484,1.2904519,-1.5987859,-0.099418245
63,1778607669.729811,0.4749058,-1.5537492,0.26684484,1.2904519,-1.5987859,-0.099418245
64,1778607669.7405162,0.4749058,-1.5537492,0.26684484,1.2904519,-1.5987859,-0.099418245
65,1778607669.751905,0.4749058,-1.5537492,0.26684484,1.2904519,-1.5987859,-0.099418245
66,1778607669.762176,0.4749058,-1.5537492,0.26684484,1.2904519,-1.5987859,-0.099418245
67,1778607669.772495,0.4749058,-1.5537492,0.26684484,1.2904519,-1.5987859,-0.099418245
68,1778607669.7837949,0.4749058,-1.5537492,0.26684484,1.2904519,-1.5987859,-0.099418245
69,1778607669.794316,0.4749058,-1.5537492,0.26684484,1.2904519,-1.5987859,-0.099418245
70,1778607669.805408,0.4749058,-1.5537492,0.26684484,1.2904519,-1.5987859,-0.099418245
71,1778607669.815712,0.4749058,-1.5537492,0.26684484,1.2904519,-1.5987859,-0.099418245
72,1778607669.8263512,0.4749058,-1.5537492,0.26684484,1.2904519,-1.5987859,-0.099418245
73,1778607669.837257,0.4749058,-1.5537492,0.26684484,1.2904519,-1.5987859,-0.099418245
74,1778607669.848342,0.4749058,-1.5537492,0.26684484,1.2904519,-1.5987859,-0.099418245
75,1778607669.860162,0.4749058,-1.5537492,0.26684484,1.2904519,-1.5987859,-0.099418245
76,1778607669.871399,0.4749058,-1.5537492,0.26684484,1.2904519,-1.5987859,-0.099418245
77,1778607669.882703,0.4749058,-1.5537492,0.26684484,1.2904519,-1.5987859,-0.099418245
78,1778607669.894428,0.4749058,-1.5537492,0.26684484,1.2904519,-1.5987859,-0.099418245
79,1778607669.905548,0.4749058,-1.5537492,0.26684484,1.2904519,-1.5987859,-0.099418245
80,1778607669.91677,0.4749058,-1.5537492,0.26684484,1.2904519,-1.5987859,-0.099418245
81,1778607669.9354482,0.4749058,-1.5537492,0.26684484,1.2904519,-1.5987859,-0.099418245
82,1778607669.95304,0.4749058,-1.5537492,0.26684484,1.2904519,-1.5987859,-0.099418245
83,1778607669.9696,0.4749058,-1.5537492,0.26684484,1.2904519,-1.5987859,-0.099418245
84,1778607669.988856,0.4749058,-1.5537492,0.26684484,1.2904519,-1.5987859,-0.099418245
85,1778607670.002867,0.4749058,-1.5537492,0.26684484,1.2904519,-1.5987859,-0.099418245
86,1778607670.01889,0.4749058,-1.5537492,0.26684484,1.2904519,-1.5987859,-0.099418245
87,1778607670.0237298,0.4749058,-1.5537492,0.26684484,1.2904519,-1.5987859,-0.099418245
88,1778607670.036008,0.4749058,-1.5537492,0.26684484,1.2904519,-1.5987859,-0.099418245
89,1778607670.0465631,0.4749058,-1.5537492,0.26684484,1.2904519,-1.5987859,-0.099418245
90,1778607670.057235,0.4749058,-1.5537492,0.26684484,1.2904519,-1.5987859,-0.099418245
91,1778607670.069154,0.4749058,-1.5537492,0.26684484,1.2904519,-1.5987859,-0.099418245
92,1778607670.0801332,0.4749058,-1.5537492,0.26684484,1.2904519,-1.5987859,-0.099418245
93,1778607670.090846,0.4749058,-1.5537492,0.26684484,1.2904519,-1.5987859,-0.099418245
94,1778607670.1022239,0.4749058,-1.5537492,0.26684484,1.2904519,-1.5987859,-0.099418245
95,1778607670.113486,0.4749058,-1.5537492,0.26684484,1.2904519,-1.5987859,-0.099418245
96,1778607670.123821,0.4749058,-1.5537492,0.26684484,1.2904519,-1.5987859,-0.099418245
97,1778607670.13642,0.4749058,-1.5537492,0.26684484,1.2904519,-1.5987859,-0.099418245
98,1778607670.147166,0.4749058,-1.5537492,0.26684484,1.2904519,-1.5987859,-0.099418245
99,1778607670.1574779,0.4749058,-1.5537492,0.26684484,1.2904519,-1.5987859,-0.099418245
100,1778607670.168639,0.4749058,-1.5537492,0.26684484,1.2904519,-1.5987859,-0.099418245
101,1778607670.179879,0.4749058,-1.5537492,0.26684484,1.2904519,-1.5987859,-0.099418245
102,1778607670.190785,0.4749058,-1.5537492,0.26684484,1.2904519,-1.5987859,-0.099418245
103,1778607670.2017221,0.4749058,-1.5537492,0.26684484,1.2904519,-1.5987859,-0.099418245
104,1778607670.212285,0.4749058,-1.5537492,0.26684484,1.2904519,-1.5987859,-0.099418245
105,1778607670.223064,0.4749058,-1.5537492,0.26684484,1.2904519,-1.5987859,-0.099418245
106,1778607670.233288,0.4749058,-1.5537492,0.26684484,1.2904519,-1.5987859,-0.099418245
107,1778607670.2445061,0.4749058,-1.5537492,0.26684484,1.2904519,-1.5987859,-0.099418245
108,1778607670.2547462,0.4749058,-1.5537492,0.26684484,1.2904519,-1.5987859,-0.099418245
109,1778607670.265392,0.4749058,-1.5537492,0.26684484,1.2904519,-1.5987859,-0.099418245
110,1778607670.275996,0.4749058,-1.5537492,0.26684484,1.2904519,-1.5987859,-0.099418245
111,1778607670.288376,0.4749058,-1.5537492,0.26684484,1.2904519,-1.5987859,-0.099418245
112,1778607670.299674,0.4749058,-1.5537492,0.26684484,1.2904519,-1.5987859,-0.099418245
113,1778607670.311012,0.4749058,-1.5537492,0.26684484,1.2904519,-1.5987859,-0.099418245
114,1778607670.32205,0.4749058,-1.5537492,0.26684484,1.2904519,-1.5987859,-0.099418245
115,1778607670.333338,0.4749058,-1.5537492,0.26684484,1.2904519,-1.5987859,-0.099418245
116,1778607670.3442938,0.4749058,-1.5537492,0.26684484,1.2904519,-1.5987859,-0.099418245
117,1778607670.355257,0.4749058,-1.5537492,0.26684484,1.2904519,-1.5987859,-0.099418245
118,1778607670.366552,0.4749058,-1.5537492,0.26684484,1.2904519,-1.5987859,-0.099418245
119,1778607670.377415,0.4749058,-1.5537492,0.26684484,1.2904519,-1.5987859,-0.099418245
120,1778607670.387993,0.4749058,-1.5537492,0.26684484,1.2904519,-1.5987859,-0.099418245
121,1778607670.398286,0.4749058,-1.5537492,0.26684484,1.2904519,-1.5987859,-0.099418245
122,1778607670.4093928,0.4749058,-1.5537492,0.26684484,1.2904519,-1.5987859,-0.099418245
123,1778607670.420588,0.4749058,-1.5537492,0.26684484,1.2904519,-1.5987859,-0.099418245
124,1778607670.4314969,0.4749058,-1.5537492,0.26684484,1.2904519,-1.5987859,-0.099418245
125,1778607670.443489,0.4749058,-1.5537492,0.26684484,1.2904519,-1.5987859,-0.099418245
126,1778607670.4533179,0.4749058,-1.5537492,0.26684484,1.2904519,-1.5987859,-0.099418245
127,1778607670.464107,0.4749058,-1.5537492,0.26684484,1.2904519,-1.5987859,-0.099418245
128,1778607670.474707,0.4749058,-1.5537492,0.26684484,1.2904519,-1.5987859,-0.099418245
129,1778607670.485867,0.4749058,-1.5537492,0.26684484,1.2904519,-1.5987859,-0.099418245
130,1778607670.5012841,0.4749058,-1.5537492,0.26684484,1.2904519,-1.5987859,-0.099418245
131,1778607670.5215979,0.4749058,-1.5537492,0.26684484,1.2904519,-1.5987859,-0.099418245
132,1778607670.52224,0.4749058,-1.5537492,0.26684484,1.2904519,-1.5987859,-0.099418245
133,1778607670.537317,0.4749058,-1.5537492,0.26684484,1.2904519,-1.5987859,-0.099418245
134,1778607670.55518,0.4749058,-1.5537492,0.26684484,1.2904519,-1.5987859,-0.099418245
135,1778607670.558385,0.4749058,-1.5537492,0.26684484,1.2904519,-1.5987859,-0.099418245
136,1778607670.571174,0.4749058,-1.5537492,0.26684484,1.2904519,-1.5987859,-0.099418245
137,1778607670.581555,0.4749058,-1.5537492,0.26684484,1.2904519,-1.5987859,-0.099418245
138,1778607670.592316,0.4749058,-1.5537492,0.26684484,1.2904519,-1.5987859,-0.099418245
139,1778607670.6051059,0.4749058,-1.5537492,0.26684484,1.2904519,-1.5987859,-0.099418245
140,1778607670.6163,0.4749058,-1.5537492,0.26684484,1.2904519,-1.5987859,-0.099418245
141,1778607670.627069,0.4749058,-1.5537492,0.26684484,1.2904519,-1.5987859,-0.099418245
142,1778607670.6391602,0.4749058,-1.5537492,0.26684484,1.2904519,-1.5987859,-0.099418245
143,1778607670.650496,0.4749058,-1.5537492,0.26684484,1.2904519,-1.5987859,-0.099418245
144,1778607670.661449,0.4749058,-1.5537492,0.26684484,1.2904519,-1.5987859,-0.099418245
145,1778607670.6718342,0.4749058,-1.5537492,0.26684484,1.2904519,-1.5987859,-0.099418245
146,1778607670.682674,0.4749058,-1.5537492,0.26684484,1.2904519,-1.5987859,-0.099418245
147,1778607670.693017,0.4749058,-1.5537492,0.26684484,1.2904519,-1.5987859,-0.099418245
148,1778607670.704491,0.4749058,-1.5537492,0.26684484,1.2904519,-1.5987859,-0.099418245
149,1778607670.714869,0.4749058,-1.5537492,0.26684484,1.2904519,-1.5987859,-0.099418245
150,1778607670.7251992,0.4749058,-1.5537492,0.26684484,1.2904519,-1.5987859,-0.099418245
151,1778607670.735808,0.4749058,-1.5537492,0.26684484,1.2904519,-1.5987859,-0.099418245
152,1778607670.7465951,0.4749058,-1.5537492,0.26684484,1.2904519,-1.5987859,-0.099418245
153,1778607670.75774,0.4749058,-1.5537492,0.26684484,1.2904519,-1.5987859,-0.099418245
154,1778607670.769023,0.4749058,-1.5537492,0.26684484,1.2904519,-1.5987859,-0.099418245
155,1778607670.779503,0.4749058,-1.5537492,0.26684484,1.2904519,-1.5987859,-0.099418245
156,1778607670.790793,0.4749058,-1.5537492,0.26684484,1.2904519,-1.5987859,-0.099418245
157,1778607670.802181,0.4749058,-1.5537492,0.26684484,1.2904519,-1.5987859,-0.099418245
158,1778607670.812725,0.4749058,-1.5537492,0.26684484,1.2904519,-1.5987859,-0.099418245
159,1778607670.8241,0.4749058,-1.5537492,0.26684484,1.2904519,-1.5987859,-0.099418245
160,1778607670.8356218,0.4749058,-1.5537492,0.26684484,1.2904519,-1.5987859,-0.099418245
161,1778607670.8460119,0.4749058,-1.5537492,0.26684484,1.2904519,-1.5987859,-0.099418245
162,1778607670.857302,0.4749058,-1.5537492,0.26684484,1.2904519,-1.5987859,-0.099418245
163,1778607670.868502,0.4749058,-1.5537492,0.26684484,1.2904519,-1.5987859,-0.099418245
164,1778607670.88236,0.4749058,-1.5537492,0.26684484,1.2904519,-1.5987859,-0.099418245
165,1778607670.894061,0.4749058,-1.5537492,0.26684484,1.2904519,-1.5987859,-0.099418245
166,1778607670.9118872,0.4749058,-1.5537492,0.26684484,1.2904519,-1.5987859,-0.099418245
167,1778607670.931762,0.4749058,-1.5537492,0.26684484,1.2904519,-1.5987859,-0.099418245
168,1778607670.947776,0.4749058,-1.5537492,0.26684484,1.2904519,-1.5987859,-0.099418245
169,1778607670.9687092,0.4749058,-1.5537492,0.26684484,1.2904519,-1.5987859,-0.099418245
170,1778607670.9850051,0.4749058,-1.5537492,0.26684484,1.2904519,-1.5987859,-0.099418245
171,1778607670.9982421,0.4749058,-1.5537492,0.26684484,1.2904519,-1.5987859,-0.099418245
172,1778607671.012885,0.4749058,-1.5537492,0.26684484,1.2904519,-1.5987859,-0.099418245
173,1778607671.032557,0.4749058,-1.5537492,0.26684484,1.2904519,-1.5987859,-0.099418245
174,1778607671.0463629,0.4749058,-1.5537492,0.26684484,1.2904519,-1.5987859,-0.099418245
175,1778607671.056772,0.4749058,-1.5537492,0.26684484,1.2904519,-1.5987859,-0.099418245
176,1778607671.0674071,0.4749058,-1.5537492,0.26684484,1.2904519,-1.5987859,-0.099418245
177,1778607671.08044,0.4749058,-1.5537492,0.26684484,1.2904519,-1.5987859,-0.099418245
178,1778607671.090909,0.4749058,-1.5537492,0.26684484,1.2904519,-1.5987859,-0.099418245
179,1778607671.101451,0.4749058,-1.5537492,0.26684484,1.2904519,-1.5987859,-0.099418245
180,1778607671.1153998,0.4749058,-1.5537492,0.26684484,1.2904519,-1.5987859,-0.099418245
181,1778607671.1312761,0.4749058,-1.5537492,0.26684484,1.2904519,-1.5987859,-0.099418245
182,1778607671.1425889,0.4749058,-1.5537492,0.26684484,1.2904519,-1.5987859,-0.099418245
183,1778607671.153705,0.4749058,-1.5537492,0.26684484,1.2904519,-1.5987859,-0.099418245
184,1778607671.1637928,0.4749058,-1.5537492,0.26684484,1.2904519,-1.5987859,-0.099418245
185,1778607671.1746612,0.4749058,-1.5537492,0.26684484,1.2904519,-1.5987859,-0.099418245
186,1778607671.185337,0.4749058,-1.5537492,0.26684484,1.2904519,-1.5987859,-0.099418245
187,1778607671.1967208,0.4749058,-1.5537492,0.26684484,1.2904519,-1.5987859,-0.099418245
188,1778607671.207225,0.4749058,-1.5537492,0.26684484,1.2904519,-1.5987859,-0.099418245
189,1778607671.21753,0.4749058,-1.5537492,0.26684484,1.2904519,-1.5987859,-0.099418245
190,1778607671.227764,0.4749058,-1.5537492,0.26684484,1.2904519,-1.5987859,-0.099418245
191,1778607671.238082,0.4749058,-1.5537492,0.26684484,1.2904519,-1.5987859,-0.099418245
192,1778607671.248425,0.4749058,-1.5537492,0.26684484,1.2904519,-1.5987859,-0.099418245
193,1778607671.259868,0.4749058,-1.5537492,0.26684484,1.2904519,-1.5987859,-0.099418245
194,1778607671.2696059,0.4749058,-1.5537492,0.26684484,1.2904519,-1.5987859,-0.099418245
195,1778607671.281158,0.4749058,-1.5537492,0.26684484,1.2904519,-1.5987859,-0.099418245
196,1778607671.2907772,0.4749058,-1.5537492,0.26684484,1.2904519,-1.5987859,-0.099418245
197,1778607671.301377,0.4749058,-1.5537492,0.26684484,1.2904519,-1.5987859,-0.099418245
198,1778607671.312751,0.4749058,-1.5537492,0.26684484,1.2904519,-1.5987859,-0.099418245
199,1778607671.323124,0.4749058,-1.5537492,0.26684484,1.2904519,-1.5987859,-0.099418245
200,1778607671.333762,0.4749058,-1.5537492,0.26684484,1.2904519,-1.5987859,-0.099418245
201,1778607671.344188,0.4749058,-1.5537492,0.26684484,1.2904519,-1.5987859,-0.099418245
202,1778607671.354688,0.4749058,-1.5537492,0.26684484,1.2904519,-1.5987859,-0.099418245
203,1778607671.365278,0.4749058,-1.5537492,0.26684484,1.2904519,-1.5987859,-0.099418245
204,1778607671.376149,0.4749058,-1.5537492,0.26684484,1.2904519,-1.5987859,-0.099418245
205,1778607671.3865118,0.4749058,-1.5537492,0.26684484,1.2904519,-1.5987859,-0.099418245
206,1778607671.396765,0.4749058,-1.5537492,0.26684484,1.2904519,-1.5987859,-0.099418245
207,1778607671.40751,0.4749058,-1.5537492,0.26684484,1.2904519,-1.5987859,-0.099418245
208,1778607671.418391,0.4749058,-1.5537492,0.26684484,1.2904519,-1.5987859,-0.099418245
209,1778607671.43093,0.4749058,-1.5537492,0.26684484,1.2904519,-1.5987859,-0.099418245
210,1778607671.4398332,0.4749058,-1.5537492,0.26684484,1.2904519,-1.5987859,-0.099418245
211,1778607671.450739,0.4749058,-1.5537492,0.26684484,1.2904519,-1.5987859,-0.099418245
212,1778607671.46191,0.4749058,-1.5537492,0.26684484,1.2904519,-1.5987859,-0.099418245
213,1778607671.47235,0.4749058,-1.5537492,0.26684484,1.2904519,-1.5987859,-0.099418245
214,1778607671.483652,0.4749058,-1.5537492,0.26684484,1.2904519,-1.5987859,-0.099418245
215,1778607671.4948869,0.4749058,-1.5537492,0.26684484,1.2904519,-1.5987859,-0.099418245
216,1778607671.5234401,0.4749058,-1.5537492,0.26684484,1.2904519,-1.5987859,-0.099418245
217,1778607671.543696,0.4749058,-1.5537492,0.26684484,1.2904519,-1.5987859,-0.099418245
218,1778607671.5532742,0.4749058,-1.5537492,0.26684484,1.2904519,-1.5987859,-0.099418245
219,1778607671.57141,0.4749058,-1.5537492,0.26684484,1.2904519,-1.5987859,-0.099418245
220,1778607671.5863628,0.4749058,-1.5537492,0.26684484,1.2904519,-1.5987859,-0.099418245
221,1778607671.605742,0.4749058,-1.5537492,0.26684484,1.2904519,-1.5987859,-0.099418245
222,1778607671.6209338,0.4749058,-1.5537492,0.26684484,1.2904519,-1.5987859,-0.099418245
223,1778607671.638001,0.4749058,-1.5537492,0.26684484,1.2904519,-1.5987859,-0.099418245
224,1778607671.654044,0.4749058,-1.5537492,0.26684484,1.2904519,-1.5987859,-0.099418245
225,1778607671.673758,0.4749058,-1.5537492,0.26684484,1.2904519,-1.5987859,-0.099418245
226,1778607671.6880372,0.4749058,-1.5537492,0.26684484,1.2904519,-1.5987859,-0.099418245
227,1778607671.708535,0.4749058,-1.5537492,0.26684484,1.2904519,-1.5987859,-0.099418245
228,1778607671.709603,0.4749058,-1.5537492,0.26684484,1.2904519,-1.5987859,-0.099418245
229,1778607671.7246962,0.4749058,-1.5537492,0.26684484,1.2904519,-1.5987859,-0.099418245
230,1778607671.7446022,0.4749058,-1.5537492,0.26684484,1.2904519,-1.5987859,-0.099418245
231,1778607671.758985,0.4749058,-1.5537492,0.26684484,1.2904519,-1.5987859,-0.099418245
232,1778607671.7803571,0.4749058,-1.5537492,0.26684484,1.2904519,-1.5987859,-0.099418245
233,1778607671.794831,0.4749058,-1.5537492,0.26684484,1.2904519,-1.5987859,-0.099418245
234,1778607671.814219,0.4749058,-1.5537492,0.26684484,1.2904519,-1.5987859,-0.099418245
235,1778607671.828643,0.4749058,-1.5537492,0.26684484,1.2904519,-1.5987859,-0.099418245
236,1778607671.8468301,0.4749058,-1.5537492,0.26684484,1.2904519,-1.5987859,-0.099418245
237,1778607671.862773,0.4749058,-1.5537492,0.26684484,1.2904519,-1.5987859,-0.099418245
238,1778607671.879919,0.4749058,-1.5537492,0.26684484,1.2904519,-1.5987859,-0.099418245
239,1778607671.8955488,0.4749058,-1.5537492,0.26684484,1.2904519,-1.5987859,-0.099418245
240,1778607671.906278,0.4749058,-1.5537492,0.26684484,1.2904519,-1.5987859,-0.099418245
241,1778607671.916796,0.4749058,-1.5537492,0.26684484,1.2904519,-1.5987859,-0.099418245
242,1778607671.930047,0.4749058,-1.5537492,0.26684484,1.2904519,-1.5987859,-0.099418245
243,1778607671.941438,0.4749058,-1.5537492,0.26684484,1.2904519,-1.5987859,-0.099418245
244,1778607671.951694,0.4749058,-1.5537492,0.26684484,1.2904519,-1.5987859,-0.099418245
245,1778607671.963816,0.4749058,-1.5537492,0.26684484,1.2904519,-1.5987859,-0.099418245
246,1778607671.975222,0.4749058,-1.5537492,0.26684484,1.2904519,-1.5987859,-0.099418245
247,1778607671.985533,0.4749058,-1.5537492,0.26684484,1.2904519,-1.5987859,-0.099418245
248,1778607671.998027,0.4749058,-1.5537492,0.26684484,1.2904519,-1.5987859,-0.099418245
249,1778607672.008613,0.4749058,-1.5537492,0.26684484,1.2904519,-1.5987859,-0.099418245
250,1778607672.0188959,0.4749058,-1.5537492,0.26684484,1.2904519,-1.5987859,-0.099418245
251,1778607672.029839,0.4749058,-1.5537492,0.26684484,1.2904519,-1.5987859,-0.099418245
252,1778607672.0412328,0.4749058,-1.5537492,0.26684484,1.2904519,-1.5987859,-0.099418245
253,1778607672.052261,0.4749058,-1.5537492,0.26684484,1.2904519,-1.5987859,-0.099418245
254,1778607672.062788,0.4749058,-1.5537492,0.26684484,1.2904519,-1.5987859,-0.099418245
255,1778607672.074202,0.4749058,-1.5537492,0.26684484,1.2904519,-1.5987859,-0.099418245
256,1778607672.085618,0.4749058,-1.5537492,0.26684484,1.2904519,-1.5987859,-0.099418245
257,1778607672.095994,0.4749058,-1.5537492,0.26684484,1.2904519,-1.5987859,-0.099418245
258,1778607672.106653,0.4749058,-1.5537492,0.26684484,1.2904519,-1.5987859,-0.099418245
259,1778607672.1170602,0.4749058,-1.5537492,0.26684484,1.2904519,-1.5987859,-0.099418245
260,1778607672.12758,0.4749058,-1.5537492,0.26684484,1.2904519,-1.5987859,-0.099418245
261,1778607672.138446,0.4749058,-1.5537492,0.26684484,1.2904519,-1.5987859,-0.099418245
262,1778607672.150369,0.4749058,-1.5537492,0.26684484,1.2904519,-1.5987859,-0.099418245
263,1778607672.159918,0.4749058,-1.5537492,0.26684484,1.2904519,-1.5987859,-0.099418245
264,1778607672.170295,0.4749058,-1.5537492,0.26684484,1.2904519,-1.5987859,-0.099418245
265,1778607672.181026,0.4749058,-1.5537492,0.26684484,1.2904519,-1.5987859,-0.099418245
266,1778607672.191327,0.4749058,-1.5537492,0.26684484,1.2904519,-1.5987859,-0.099418245
267,1778607672.2037702,0.4749058,-1.5537492,0.26684484,1.2904519,-1.5987859,-0.099418245
268,1778607672.212776,0.4749058,-1.5537492,0.26684484,1.2904519,-1.5987859,-0.099418245
269,1778607672.223583,0.4749058,-1.5537492,0.26684484,1.2904519,-1.5987859,-0.099418245
270,1778607672.235117,0.4749058,-1.5537492,0.26684484,1.2904519,-1.5987859,-0.099418245
271,1778607672.252501,0.4749058,-1.5537492,0.26684484,1.2904519,-1.5987859,-0.099418245
272,1778607672.265107,0.4749058,-1.5537492,0.26684484,1.2904519,-1.5987859,-0.099418245
273,1778607672.288848,0.4749058,-1.5537492,0.26684484,1.2904519,-1.5987859,-0.099418245
274,1778607672.300081,0.4749058,-1.5537492,0.26684484,1.2904519,-1.5987859,-0.099418245
275,1778607672.311136,0.4749058,-1.5537492,0.26684484,1.2904519,-1.5987859,-0.099418245
276,1778607672.322376,0.4749058,-1.5537492,0.26684484,1.2904519,-1.5987859,-0.099418245
277,1778607672.342499,0.4749058,-1.5537492,0.26684484,1.2904519,-1.5987859,-0.099418245
278,1778607672.353952,0.4749058,-1.5537492,0.26684484,1.2904519,-1.5987859,-0.099418245
279,1778607672.364716,0.4749058,-1.5537492,0.26684484,1.2904519,-1.5987859,-0.099418245
280,1778607672.376218,0.4749058,-1.5537492,0.26684484,1.2904519,-1.5987859,-0.099418245
281,1778607672.387635,0.4749058,-1.5537492,0.26684484,1.2904519,-1.5987859,-0.099418245
282,1778607672.398339,0.4749058,-1.5537492,0.26684484,1.2904519,-1.5987859,-0.099418245
283,1778607672.4099479,0.4749058,-1.5537492,0.26684484,1.2904519,-1.5987859,-0.099418245
284,1778607672.4214022,0.4749058,-1.5537492,0.26684484,1.2904519,-1.5987859,-0.099418245
285,1778607672.442351,0.4749058,-1.5537492,0.26684484,1.2904519,-1.5987859,-0.099418245
286,1778607672.4569678,0.4749058,-1.5537492,0.26684484,1.2904519,-1.5987859,-0.099418245
287,1778607672.481281,0.4749058,-1.5537492,0.26684484,1.2904519,-1.5987859,-0.099418245
288,1778607672.4927151,0.4749058,-1.5537492,0.26684484,1.2904519,-1.5987859,-0.099418245
289,1778607672.508178,0.4749058,-1.5537492,0.26684484,1.2904519,-1.5987859,-0.099418245
290,1778607672.525184,0.4749058,-1.5537492,0.26684484,1.2904519,-1.5987859,-0.099418245
291,1778607672.541074,0.4749058,-1.5537492,0.26684484,1.2904519,-1.5987859,-0.099418245
292,1778607672.55858,0.4749058,-1.5537492,0.26684484,1.2904519,-1.5987859,-0.099418245
293,1778607672.573036,0.4749058,-1.5537492,0.26684484,1.2904519,-1.5987859,-0.099418245
294,1778607672.583612,0.4749058,-1.5537492,0.26684484,1.2904519,-1.5987859,-0.099418245
295,1778607672.593697,0.4749058,-1.5537492,0.26684484,1.2904519,-1.5987859,-0.099418245
296,1778607672.6076212,0.4749058,-1.5537492,0.26684484,1.2904519,-1.5987859,-0.099418245
297,1778607672.6185129,0.4749058,-1.5537492,0.26684484,1.2904519,-1.5987859,-0.099418245
298,1778607672.6288488,0.4749058,-1.5537492,0.26684484,1.2904519,-1.5987859,-0.099418245
299,1778607672.641016,0.4749058,-1.5537492,0.26684484,1.2904519,-1.5987859,-0.099418245
300,1778607672.651456,0.4749058,-1.5537492,0.26684484,1.2904519,-1.5987859,-0.099418245
301,1778607672.6616478,0.4749058,-1.5537492,0.26684484,1.2904519,-1.5987859,-0.099418245
302,1778607672.673616,0.4749058,-1.5537492,0.26684484,1.2904519,-1.5987859,-0.099418245
303,1778607672.683039,0.4749058,-1.5537492,0.26684484,1.2904519,-1.5987859,-0.099418245
304,1778607672.693441,0.4749058,-1.5537492,0.26684484,1.2904519,-1.5987859,-0.099418245
305,1778607672.7038999,0.4749058,-1.5537492,0.26684484,1.2904519,-1.5987859,-0.099418245
306,1778607672.7146199,0.4749058,-1.5537492,0.26684484,1.2904519,-1.5987859,-0.099418245
307,1778607672.726793,0.4749058,-1.5537492,0.26684484,1.2904519,-1.5987859,-0.099418245
308,1778607672.7370088,0.4749058,-1.5537492,0.26684484,1.2904519,-1.5987859,-0.099418245
309,1778607672.7478578,0.4749058,-1.5537492,0.26684484,1.2904519,-1.5987859,-0.099418245
310,1778607672.758251,0.4749058,-1.5537492,0.26684484,1.2904519,-1.5987859,-0.099418245
311,1778607672.769155,0.4749058,-1.5537492,0.26684484,1.2904519,-1.5987859,-0.099418245
312,1778607672.78059,0.4749058,-1.5537492,0.26684484,1.2904519,-1.5987859,-0.099418245
313,1778607672.791363,0.4749058,-1.5537492,0.26684484,1.2904519,-1.5987859,-0.099418245
314,1778607672.802252,0.4749058,-1.5537492,0.26684484,1.2904519,-1.5987859,-0.099418245
315,1778607672.813805,0.4749058,-1.5537492,0.26684484,1.2904519,-1.5987859,-0.099418245
316,1778607672.8251362,0.4749058,-1.5537492,0.26684484,1.2904519,-1.5987859,-0.099418245
317,1778607672.8443809,0.4749058,-1.5537492,0.26684484,1.2904519,-1.5987859,-0.099418245
318,1778607672.858043,0.4749058,-1.5537492,0.26684484,1.2904519,-1.5987859,-0.099418245
319,1778607672.883174,0.4749058,-1.5537492,0.26684484,1.2904519,-1.5987859,-0.099418245
320,1778607672.893559,0.4749058,-1.5537492,0.26684484,1.2904519,-1.5987859,-0.099418245
321,1778607672.9093351,0.4749058,-1.5537492,0.26684484,1.2904519,-1.5987859,-0.099418245
322,1778607672.928946,0.4749058,-1.5537492,0.26684484,1.2904519,-1.5987859,-0.099418245
323,1778607672.942754,0.4749058,-1.5537492,0.26684484,1.2904519,-1.5987859,-0.099418245
324,1778607672.96081,0.4749058,-1.5537492,0.26684484,1.2904519,-1.5987859,-0.099418245
325,1778607672.965066,0.4749058,-1.5537492,0.26684484,1.2904519,-1.5987859,-0.099418245
326,1778607672.9768882,0.4749058,-1.5537492,0.26684484,1.2904519,-1.5987859,-0.099418245
327,1778607672.987325,0.4749058,-1.5537492,0.26684484,1.2904519,-1.5987859,-0.099418245
328,1778607672.999103,0.4749058,-1.5537492,0.26684484,1.2904519,-1.5987859,-0.099418245
329,1778607673.009965,0.4749058,-1.5537492,0.26684484,1.2904519,-1.5987859,-0.099418245
330,1778607673.02095,0.4749058,-1.5537492,0.26684484,1.2904519,-1.5987859,-0.099418245
331,1778607673.0331562,0.4749058,-1.5537492,0.26684484,1.2904519,-1.5987859,-0.099418245
332,1778607673.044275,0.4749058,-1.5537492,0.26684484,1.2904519,-1.5987859,-0.099418245
333,1778607673.0555708,0.4749058,-1.5537492,0.26684484,1.2904519,-1.5987859,-0.099418245
334,1778607673.066581,0.4749058,-1.5537492,0.26684484,1.2904519,-1.5987859,-0.099418245
335,1778607673.077604,0.4749058,-1.5537492,0.26684484,1.2904519,-1.5987859,-0.099418245
336,1778607673.0888479,0.4749058,-1.5537492,0.26684484,1.2904519,-1.5987859,-0.099418245
337,1778607673.101059,0.4749058,-1.5537492,0.26684484,1.2904519,-1.5987859,-0.099418245
338,1778607673.1097221,0.4749058,-1.5537492,0.26684484,1.2904519,-1.5987859,-0.099418245
339,1778607673.120354,0.4749058,-1.5537492,0.26684484,1.2904519,-1.5987859,-0.099418245
340,1778607673.130961,0.4749058,-1.5537492,0.26684484,1.2904519,-1.5987859,-0.099418245
341,1778607673.1412601,0.4749058,-1.5537492,0.26684484,1.2904519,-1.5987859,-0.099418245
342,1778607673.15258,0.4749058,-1.5537492,0.26684484,1.2904519,-1.5987859,-0.099418245
343,1778607673.1629,0.4749058,-1.5537492,0.26684484,1.2904519,-1.5987859,-0.099418245
344,1778607673.173634,0.4749058,-1.5537492,0.26684484,1.2904519,-1.5987859,-0.099418245
345,1778607673.184453,0.4749058,-1.5537492,0.26684484,1.2904519,-1.5987859,-0.099418245
346,1778607673.1963892,0.4749058,-1.5537492,0.26684484,1.2904519,-1.5987859,-0.099418245
347,1778607673.205025,0.4749058,-1.5537492,0.26684484,1.2904519,-1.5987859,-0.099418245
348,1778607673.2155578,0.4749058,-1.5537492,0.26684484,1.2904519,-1.5987859,-0.099418245
349,1778607673.226537,0.4749058,-1.5537492,0.26684484,1.2904519,-1.5987859,-0.099418245
350,1778607673.237089,0.4749058,-1.5537492,0.26684484,1.2904519,-1.5987859,-0.099418245
351,1778607673.248343,0.4749058,-1.5537492,0.26684484,1.2904519,-1.5987859,-0.099418245
352,1778607673.2580109,0.4749058,-1.5537492,0.26684484,1.2904519,-1.5987859,-0.099418245
353,1778607673.268418,0.4749058,-1.5537492,0.26684484,1.2904519,-1.5987859,-0.099418245
354,1778607673.27914,0.4749058,-1.5537492,0.26684484,1.2904519,-1.5987859,-0.099418245
355,1778607673.289676,0.4749058,-1.5537492,0.26684484,1.2904519,-1.5987859,-0.099418245
356,1778607673.3019662,0.4749058,-1.5537492,0.26684484,1.2904519,-1.5987859,-0.099418245
357,1778607673.310965,0.4749058,-1.5537492,0.26684484,1.2904519,-1.5987859,-0.099418245
358,1778607673.3315709,0.4749058,-1.5537492,0.26684484,1.2904519,-1.5987859,-0.099418245
359,1778607673.346247,0.4749058,-1.5537492,0.26684484,1.2904519,-1.5987859,-0.099418245
360,1778607673.364359,0.4749058,-1.5537492,0.26684484,1.2904519,-1.5987859,-0.099418245
361,1778607673.37945,0.4749058,-1.5537492,0.26684484,1.2904519,-1.5987859,-0.099418245
362,1778607673.39796,0.4749058,-1.5537492,0.26684484,1.2904519,-1.5987859,-0.099418245
363,1778607673.412886,0.4749058,-1.5537492,0.26684484,1.2904519,-1.5987859,-0.099418245
364,1778607673.430788,0.4749058,-1.5537492,0.26684484,1.2904519,-1.5987859,-0.099418245
365,1778607673.4336991,0.4749058,-1.5537492,0.26684484,1.2904519,-1.5987859,-0.099418245
366,1778607673.4471629,0.4749058,-1.5537492,0.26684484,1.2904519,-1.5987859,-0.099418245
367,1778607673.4639301,0.4749058,-1.5537492,0.26684484,1.2904519,-1.5987859,-0.099418245
368,1778607673.467947,0.4749058,-1.5537492,0.26684484,1.2904519,-1.5987859,-0.099418245
369,1778607673.4805372,0.4749058,-1.5537492,0.26684484,1.2904519,-1.5987859,-0.099418245
370,1778607673.491832,0.4749058,-1.5537492,0.26684484,1.2904519,-1.5987859,-0.099418245
371,1778607673.5023098,0.4749058,-1.5537492,0.26684484,1.2904519,-1.5987859,-0.099418245
372,1778607673.5138612,0.4749058,-1.5537492,0.26684484,1.2904519,-1.5987859,-0.099418245
373,1778607673.5244632,0.4749058,-1.5537492,0.26684484,1.2904519,-1.5987859,-0.099418245
374,1778607673.53551,0.4749058,-1.5537492,0.26684484,1.2904519,-1.5987859,-0.099418245
375,1778607673.546454,0.4749058,-1.5537492,0.26684484,1.2904519,-1.5987859,-0.099418245
376,1778607673.557567,0.4749058,-1.5537492,0.26684484,1.2904519,-1.5987859,-0.099418245
377,1778607673.5685482,0.4749058,-1.5537492,0.26684484,1.2904519,-1.5987859,-0.099418245
378,1778607673.5797849,0.4749058,-1.5537492,0.26684484,1.2904519,-1.5987859,-0.099418245
379,1778607673.589259,0.4749058,-1.5537492,0.26684484,1.2904519,-1.5987859,-0.099418245
380,1778607673.5996292,0.4749058,-1.5537492,0.26684484,1.2904519,-1.5987859,-0.099418245
381,1778607673.6108491,0.4749058,-1.5537492,0.26684484,1.2904519,-1.5987859,-0.099418245
382,1778607673.6214342,0.4749058,-1.5537492,0.26684484,1.2904519,-1.5987859,-0.099418245
383,1778607673.6325629,0.4749058,-1.5537492,0.26684484,1.2904519,-1.5987859,-0.099418245
384,1778607673.6438541,0.4749058,-1.5537492,0.26684484,1.2904519,-1.5987859,-0.099418245
385,1778607673.654321,0.4749058,-1.5537492,0.26684484,1.2904519,-1.5987859,-0.099418245
386,1778607673.6649,0.4749058,-1.5537492,0.26684484,1.2904519,-1.5987859,-0.099418245
387,1778607673.676169,0.4749058,-1.5537492,0.26684484,1.2904519,-1.5987859,-0.099418245
388,1778607673.686634,0.4749058,-1.5537492,0.26684484,1.2904519,-1.5987859,-0.099418245
389,1778607673.6979158,0.4749058,-1.5537492,0.26684484,1.2904519,-1.5987859,-0.099418245
390,1778607673.7089121,0.4749058,-1.5537492,0.26684484,1.2904519,-1.5987859,-0.099418245
391,1778607673.721055,0.4749058,-1.5537492,0.26684484,1.2904519,-1.5987859,-0.099418245
392,1778607673.732228,0.4749058,-1.5537492,0.26684484,1.2904519,-1.5987859,-0.099418245
393,1778607673.751772,0.4749058,-1.5537492,0.26684484,1.2904519,-1.5987859,-0.099418245
394,1778607673.7641642,0.4749058,-1.5537492,0.26684484,1.2904519,-1.5987859,-0.099418245
395,1778607673.7874491,0.4749058,-1.5537492,0.26684484,1.2904519,-1.5987859,-0.099418245
396,1778607673.798651,0.4749058,-1.5537492,0.26684484,1.2904519,-1.5987859,-0.099418245
397,1778607673.811424,0.4749058,-1.5537492,0.26684484,1.2904519,-1.5987859,-0.099418245
398,1778607673.825482,0.4749058,-1.5537492,0.26684484,1.2904519,-1.5987859,-0.099418245
399,1778607673.838201,0.4749058,-1.5537492,0.26684484,1.2904519,-1.5987859,-0.099418245
400,1778607673.8532841,0.4749058,-1.5537492,0.26684484,1.2904519,-1.5987859,-0.099418245
401,1778607673.8726459,0.4749058,-1.5537492,0.26684484,1.2904519,-1.5987859,-0.099418245
402,1778607673.887538,0.4749058,-1.5537492,0.26684484,1.2904519,-1.5987859,-0.099418245
403,1778607673.9047868,0.4749058,-1.5537492,0.26684484,1.2904519,-1.5987859,-0.099418245
404,1778607673.9196868,0.4749058,-1.5537492,0.26684484,1.2904519,-1.5987859,-0.099418245
405,1778607673.9384499,0.4749058,-1.5537492,0.26684484,1.2904519,-1.5987859,-0.099418245
406,1778607673.9551098,0.4749058,-1.5537492,0.26684484,1.2904519,-1.5987859,-0.099418245
407,1778607673.972002,0.4749058,-1.5537492,0.26684484,1.2904519,-1.5987859,-0.099418245
408,1778607673.986287,0.4749058,-1.5537492,0.26684484,1.2904519,-1.5987859,-0.099418245
409,1778607673.996999,0.4749058,-1.5537492,0.26684484,1.2904519,-1.5987859,-0.099418245
410,1778607674.007607,0.4749058,-1.5537492,0.26684484,1.2904519,-1.5987859,-0.099418245
411,1778607674.021572,0.4749058,-1.5537492,0.26684484,1.2904519,-1.5987859,-0.099418245
412,1778607674.0320902,0.4749058,-1.5537492,0.26684484,1.2904519,-1.5987859,-0.099418245
413,1778607674.043448,0.4749058,-1.5537492,0.26684484,1.2904519,-1.5987859,-0.099418245
414,1778607674.0538821,0.4749058,-1.5537492,0.26684484,1.2904519,-1.5987859,-0.099418245
415,1778607674.064522,0.4749058,-1.5537492,0.26684484,1.2904519,-1.5987859,-0.099418245
416,1778607674.07502,0.4749058,-1.5537492,0.26684484,1.2904519,-1.5987859,-0.099418245
417,1778607674.088118,0.4749058,-1.5537492,0.26684484,1.2904519,-1.5987859,-0.099418245
418,1778607674.0961542,0.4749058,-1.5537492,0.26684484,1.2904519,-1.5987859,-0.099418245
419,1778607674.106617,0.4749058,-1.5537492,0.26684484,1.2904519,-1.5987859,-0.099418245
420,1778607674.1173792,0.4749058,-1.5537492,0.26684484,1.2904519,-1.5987859,-0.099418245
421,1778607674.129777,0.4749058,-1.5537492,0.26684484,1.2904519,-1.5987859,-0.099418245
422,1778607674.140099,0.4749058,-1.5537492,0.26684484,1.2904519,-1.5987859,-0.099418245
423,1778607674.151424,0.4749058,-1.5537492,0.26684484,1.2904519,-1.5987859,-0.099418245
424,1778607674.163002,0.4749058,-1.5537492,0.26684484,1.2904519,-1.5987859,-0.099418245
425,1778607674.175074,0.4749058,-1.5537492,0.26684484,1.2904519,-1.5987859,-0.099418245
426,1778607674.1834838,0.4749058,-1.5537492,0.26684484,1.2904519,-1.5987859,-0.099418245
427,1778607674.194151,0.4749058,-1.5537492,0.26684484,1.2904519,-1.5987859,-0.099418245
428,1778607674.2054331,0.4749058,-1.5537492,0.26684484,1.2904519,-1.5987859,-0.099418245
429,1778607674.216595,0.4749058,-1.5537492,0.26684484,1.2904519,-1.5987859,-0.099418245
430,1778607674.2271192,0.4749058,-1.5537492,0.26684484,1.2904519,-1.5987859,-0.099418245
431,1778607674.237416,0.4749058,-1.5537492,0.26684484,1.2904519,-1.5987859,-0.099418245
432,1778607674.248331,0.4749058,-1.5537492,0.26684484,1.2904519,-1.5987859,-0.099418245
433,1778607674.25992,0.4749058,-1.5537492,0.26684484,1.2904519,-1.5987859,-0.099418245
434,1778607674.280906,0.4749058,-1.5537492,0.26684484,1.2904519,-1.5987859,-0.099418245
435,1778607674.295796,0.4749058,-1.5537492,0.26684484,1.2904519,-1.5987859,-0.099418245
436,1778607674.3092961,0.4749058,-1.5537492,0.26684484,1.2904519,-1.5987859,-0.099418245
437,1778607674.325971,0.4749058,-1.5537492,0.26684484,1.2904519,-1.5987859,-0.099418245
438,1778607674.341923,0.4749058,-1.5537492,0.26684484,1.2904519,-1.5987859,-0.099418245
439,1778607674.357772,0.4749058,-1.5537492,0.26684484,1.2904519,-1.5987859,-0.099418245
440,1778607674.375511,0.4749058,-1.5537492,0.26684484,1.2904519,-1.5987859,-0.099418245
441,1778607674.378674,0.4749058,-1.5537492,0.26684484,1.2904519,-1.5987859,-0.099418245
442,1778607674.390773,0.4749058,-1.5537492,0.26684484,1.2904519,-1.5987859,-0.099418245
443,1778607674.4012318,0.4749058,-1.5537492,0.26684484,1.2904519,-1.5987859,-0.099418245
444,1778607674.411715,0.4749058,-1.5537492,0.26684484,1.2904519,-1.5987859,-0.099418245
445,1778607674.424278,0.4749058,-1.5537492,0.26684484,1.2904519,-1.5987859,-0.099418245
446,1778607674.4353962,0.4749058,-1.5537492,0.26684484,1.2904519,-1.5987859,-0.099418245
447,1778607674.446131,0.4749058,-1.5537492,0.26684484,1.2904519,-1.5987859,-0.099418245
448,1778607674.458391,0.4749058,-1.5537492,0.26684484,1.2904519,-1.5987859,-0.099418245
449,1778607674.4690719,0.4749058,-1.5537492,0.26684484,1.2904519,-1.5987859,-0.099418245
450,1778607674.479695,0.4749058,-1.5537492,0.26684484,1.2904519,-1.5987859,-0.099418245
451,1778607674.49071,0.4749058,-1.5537492,0.26684484,1.2904519,-1.5987859,-0.099418245
452,1778607674.501596,0.4749058,-1.5537492,0.26684484,1.2904519,-1.5987859,-0.099418245
453,1778607674.5121868,0.4749058,-1.5537492,0.26684484,1.2904519,-1.5987859,-0.099418245
454,1778607674.523982,0.4749058,-1.5537492,0.26684484,1.2904519,-1.5987859,-0.099418245
455,1778607674.5333068,0.4749058,-1.5537492,0.26684484,1.2904519,-1.5987859,-0.099418245
456,1778607674.543783,0.4749058,-1.5537492,0.26684484,1.2904519,-1.5987859,-0.099418245
457,1778607674.554228,0.4749058,-1.5537492,0.26684484,1.2904519,-1.5987859,-0.099418245
458,1778607674.565305,0.4749058,-1.5537492,0.26684484,1.2904519,-1.5987859,-0.099418245
459,1778607674.5756931,0.4749058,-1.5537492,0.26684484,1.2904519,-1.5987859,-0.099418245
460,1778607674.586606,0.4749058,-1.5537492,0.26684484,1.2904519,-1.5987859,-0.099418245
461,1778607674.5973241,0.4749058,-1.5537492,0.26684484,1.2904519,-1.5987859,-0.099418245
462,1778607674.608257,0.4749058,-1.5537492,0.26684484,1.2904519,-1.5987859,-0.099418245
463,1778607674.62037,0.4749058,-1.5537492,0.26684484,1.2904519,-1.5987859,-0.099418245
464,1778607674.629334,0.4749058,-1.5537492,0.26684484,1.2904519,-1.5987859,-0.099418245
465,1778607674.639921,0.4749058,-1.5537492,0.26684484,1.2904519,-1.5987859,-0.099418245
466,1778607674.650922,0.4749058,-1.5537492,0.26684484,1.2904519,-1.5987859,-0.099418245
467,1778607674.662248,0.4749058,-1.5537492,0.26684484,1.2904519,-1.5987859,-0.099418245
468,1778607674.6722019,0.4749058,-1.5537492,0.26684484,1.2904519,-1.5987859,-0.099418245
469,1778607674.682933,0.4749058,-1.5537492,0.26684484,1.2904519,-1.5987859,-0.099418245
470,1778607674.6934998,0.4749058,-1.5537492,0.26684484,1.2904519,-1.5987859,-0.099418245
471,1778607674.703987,0.4749058,-1.5537492,0.26684484,1.2904519,-1.5987859,-0.099418245
472,1778607674.716025,0.4749058,-1.5537492,0.26684484,1.2904519,-1.5987859,-0.099418245
473,1778607674.727158,0.4749058,-1.5537492,0.26684484,1.2904519,-1.5987859,-0.099418245
474,1778607674.7459881,0.4749058,-1.5537492,0.26684484,1.2904519,-1.5987859,-0.099418245
475,1778607674.762336,0.4749058,-1.5537492,0.26684484,1.2904519,-1.5987859,-0.099418245
476,1778607674.782167,0.4749058,-1.5537492,0.26684484,1.2904519,-1.5987859,-0.099418245
477,1778607674.792932,0.4749058,-1.5537492,0.26684484,1.2904519,-1.5987859,-0.099418245
478,1778607674.8047612,0.4749058,-1.5537492,0.26684484,1.2904519,-1.5987859,-0.099418245
479,1778607674.816536,0.4749058,-1.5537492,0.26684484,1.2904519,-1.5987859,-0.099418245
480,1778607674.8323681,0.4749058,-1.5537492,0.26684484,1.2904519,-1.5987859,-0.099418245
481,1778607674.845451,0.4749058,-1.5537492,0.26684484,1.2904519,-1.5987859,-0.099418245
482,1778607674.86898,0.4749058,-1.5537492,0.26684484,1.2904519,-1.5987859,-0.099418245
483,1778607674.882931,0.4749058,-1.5537492,0.26684484,1.2904519,-1.5987859,-0.099418245
484,1778607674.898907,0.4749058,-1.5537492,0.26684484,1.2904519,-1.5987859,-0.099418245
485,1778607674.9149709,0.4749058,-1.5537492,0.26684484,1.2904519,-1.5987859,-0.099418245
486,1778607674.933782,0.4749058,-1.5537492,0.26684484,1.2904519,-1.5987859,-0.099418245
487,1778607674.9470348,0.4749058,-1.5537492,0.26684484,1.2904519,-1.5987859,-0.099418245
488,1778607674.9654882,0.4749058,-1.5537492,0.26684484,1.2904519,-1.5987859,-0.099418245
489,1778607674.9681458,0.4749058,-1.5537492,0.26684484,1.2904519,-1.5987859,-0.099418245
490,1778607674.981556,0.4749058,-1.5537492,0.26684484,1.2904519,-1.5987859,-0.099418245
491,1778607674.992367,0.4749058,-1.5537492,0.26684484,1.2904519,-1.5987859,-0.099418245
492,1778607675.002986,0.4749058,-1.5537492,0.26684484,1.2904519,-1.5987859,-0.099418245
493,1778607675.015131,0.4749058,-1.5537492,0.26684484,1.2904519,-1.5987859,-0.099418245
494,1778607675.0257258,0.4749058,-1.5537492,0.26684484,1.2904519,-1.5987859,-0.099418245
495,1778607675.036598,0.4749058,-1.5537492,0.26684484,1.2904519,-1.5987859,-0.099418245
496,1778607675.047534,0.4749058,-1.5537492,0.26684484,1.2904519,-1.5987859,-0.099418245
497,1778607675.058987,0.4749058,-1.5537492,0.26684484,1.2904519,-1.5987859,-0.099418245
498,1778607675.06951,0.4749058,-1.5537492,0.26684484,1.2904519,-1.5987859,-0.099418245
499,1778607675.08143,0.4749058,-1.5537492,0.26684484,1.2904519,-1.5987859,-0.099418245
500,1778607675.092663,0.4749058,-1.5537492,0.26684484,1.2904519,-1.5987859,-0.099418245
501,1778607675.103534,0.4749058,-1.5537492,0.26684484,1.2904519,-1.5987859,-0.099418245
502,1778607675.114322,0.4749058,-1.5537492,0.26684484,1.2904519,-1.5987859,-0.099418245
503,1778607675.1253178,0.4749058,-1.5537492,0.26684484,1.2904519,-1.5987859,-0.099418245
504,1778607675.1357708,0.4749058,-1.5537492,0.26684484,1.2904519,-1.5987859,-0.099418245
505,1778607675.146488,0.4749058,-1.5537492,0.26684484,1.2904519,-1.5987859,-0.099418245
506,1778607675.1573179,0.4749058,-1.5537492,0.26684484,1.2904519,-1.5987859,-0.099418245
507,1778607675.167727,0.4749058,-1.5537492,0.26684484,1.2904519,-1.5987859,-0.099418245
508,1778607675.1780329,0.4749058,-1.5537492,0.26684484,1.2904519,-1.5987859,-0.099418245
509,1778607675.1887538,0.4749058,-1.5537492,0.26684484,1.2904519,-1.5987859,-0.099418245
510,1778607675.1991081,0.4749058,-1.5537492,0.26684484,1.2904519,-1.5987859,-0.099418245
511,1778607675.210646,0.4749058,-1.5537492,0.26684484,1.2904519,-1.5987859,-0.099418245
512,1778607675.221333,0.4749058,-1.5537492,0.26684484,1.2904519,-1.5987859,-0.099418245
513,1778607675.232467,0.4749058,-1.5537492,0.26684484,1.2904519,-1.5987859,-0.099418245
514,1778607675.245017,0.4749058,-1.5537492,0.26684484,1.2904519,-1.5987859,-0.099418245
515,1778607675.2540202,0.4749058,-1.5537492,0.26684484,1.2904519,-1.5987859,-0.099418245
516,1778607675.264395,0.4749058,-1.5537492,0.26684484,1.2904519,-1.5987859,-0.099418245
517,1778607675.2751858,0.4749058,-1.5537492,0.26684484,1.2904519,-1.5987859,-0.099418245
518,1778607675.28785,0.4749058,-1.5537492,0.26684484,1.2904519,-1.5987859,-0.099418245
519,1778607675.297083,0.4749058,-1.5537492,0.26684484,1.2904519,-1.5987859,-0.099418245
520,1778607675.307838,0.4749058,-1.5537492,0.26684484,1.2904519,-1.5987859,-0.099418245
521,1778607675.318783,0.4749058,-1.5537492,0.26684484,1.2904519,-1.5987859,-0.099418245
522,1778607675.33025,0.4749058,-1.5537492,0.26684484,1.2904519,-1.5987859,-0.099418245
523,1778607675.35357,0.4749058,-1.5537492,0.26684484,1.2904519,-1.5987859,-0.099418245
524,1778607675.3655858,0.4749058,-1.5537492,0.26684484,1.2904519,-1.5987859,-0.099418245
525,1778607675.389271,0.4749058,-1.5537492,0.26684484,1.2904519,-1.5987859,-0.099418245
526,1778607675.410903,0.4749058,-1.5537492,0.26684484,1.2904519,-1.5987859,-0.099418245
527,1778607675.427187,0.4749058,-1.5537492,0.26684484,1.2904519,-1.5987859,-0.099418245
528,1778607675.439702,0.4749058,-1.5537492,0.26684484,1.2904519,-1.5987859,-0.099418245
529,1778607675.45392,0.4749058,-1.5537492,0.26684484,1.2904519,-1.5987859,-0.099418245
530,1778607675.464214,0.4749058,-1.5537492,0.26684484,1.2904519,-1.5987859,-0.099418245
531,1778607675.474667,0.4749058,-1.5537492,0.26684484,1.2904519,-1.5987859,-0.099418245
532,1778607675.489482,0.4749058,-1.5537492,0.26684484,1.2904519,-1.5987859,-0.099418245
533,1778607675.505942,0.4749058,-1.5537492,0.26684484,1.2904519,-1.5987859,-0.099418245
534,1778607675.510684,0.4749058,-1.5537492,0.26684484,1.2904519,-1.5987859,-0.099418245
535,1778607675.52248,0.4749058,-1.5537492,0.26684484,1.2904519,-1.5987859,-0.099418245
536,1778607675.5328152,0.4749058,-1.5537492,0.26684484,1.2904519,-1.5987859,-0.099418245
537,1778607675.543543,0.4749058,-1.5537492,0.26684484,1.2904519,-1.5987859,-0.099418245
538,1778607675.5551832,0.4749058,-1.5537492,0.26684484,1.2904519,-1.5987859,-0.099418245
539,1778607675.5659451,0.4749058,-1.5537492,0.26684484,1.2904519,-1.5987859,-0.099418245
540,1778607675.576639,0.4749058,-1.5537492,0.26684484,1.2904519,-1.5987859,-0.099418245
541,1778607675.588496,0.4749058,-1.5537492,0.26684484,1.2904519,-1.5987859,-0.099418245
542,1778607675.6009789,0.4749058,-1.5537492,0.26684484,1.2904519,-1.5987859,-0.099418245
543,1778607675.609191,0.4749058,-1.5537492,0.26684484,1.2904519,-1.5987859,-0.099418245
544,1778607675.6204789,0.4749058,-1.5537492,0.26684484,1.2904519,-1.5987859,-0.099418245
545,1778607675.631271,0.4749058,-1.5537492,0.26684484,1.2904519,-1.5987859,-0.099418245
546,1778607675.642325,0.4749058,-1.5537492,0.26684484,1.2904519,-1.5987859,-0.099418245
547,1778607675.653343,0.4749058,-1.5537492,0.26684484,1.2904519,-1.5987859,-0.099418245
548,1778607675.6639922,0.4749058,-1.5537492,0.26684484,1.2904519,-1.5987859,-0.099418245
549,1778607675.676151,0.4749058,-1.5537492,0.26684484,1.2904519,-1.5987859,-0.099418245
550,1778607675.687489,0.4749058,-1.5537492,0.26684484,1.2904519,-1.5987859,-0.099418245
551,1778607675.698091,0.4749058,-1.5537492,0.26684484,1.2904519,-1.5987859,-0.099418245
552,1778607675.7088761,0.4749058,-1.5537492,0.26684484,1.2904519,-1.5987859,-0.099418245
553,1778607675.720269,0.4749058,-1.5537492,0.26684484,1.2904519,-1.5987859,-0.099418245
554,1778607675.730867,0.4749058,-1.5537492,0.26684484,1.2904519,-1.5987859,-0.099418245
555,1778607675.7421372,0.4749058,-1.5537492,0.26684484,1.2904519,-1.5987859,-0.099418245
556,1778607675.7522361,0.4749058,-1.5537492,0.26684484,1.2904519,-1.5987859,-0.099418245
557,1778607675.762979,0.4749058,-1.5537492,0.26684484,1.2904519,-1.5987859,-0.099418245
558,1778607675.773707,0.4749058,-1.5537492,0.26684484,1.2904519,-1.5987859,-0.099418245
559,1778607675.7848299,0.4749058,-1.5537492,0.26684484,1.2904519,-1.5987859,-0.099418245
560,1778607675.7953448,0.4749058,-1.5537492,0.26684484,1.2904519,-1.5987859,-0.099418245
561,1778607675.805727,0.4749058,-1.5537492,0.26684484,1.2904519,-1.5987859,-0.099418245
562,1778607675.816374,0.4749058,-1.5537492,0.26684484,1.2904519,-1.5987859,-0.099418245
563,1778607675.8277051,0.4749058,-1.5537492,0.26684484,1.2904519,-1.5987859,-0.099418245
564,1778607675.838526,0.4749058,-1.5537492,0.26684484,1.2904519,-1.5987859,-0.099418245
565,1778607675.849063,0.4749058,-1.5537492,0.26684484,1.2904519,-1.5987859,-0.099418245
566,1778607675.8602161,0.4749058,-1.5537492,0.26684484,1.2904519,-1.5987859,-0.099418245
567,1778607675.8709261,0.4749058,-1.5537492,0.26684484,1.2904519,-1.5987859,-0.099418245
568,1778607675.883446,0.4749058,-1.5537492,0.26684484,1.2904519,-1.5987859,-0.099418245
569,1778607675.891767,0.4749058,-1.5537492,0.26684484,1.2904519,-1.5987859,-0.099418245
570,1778607675.9122329,0.4749058,-1.5537492,0.26684484,1.2904519,-1.5987859,-0.099418245
571,1778607675.925313,0.4749058,-1.5537492,0.26684484,1.2904519,-1.5987859,-0.099418245
572,1778607675.9462159,0.4749058,-1.5537492,0.26684484,1.2904519,-1.5987859,-0.099418245
573,1778607675.9611971,0.4749058,-1.5537492,0.26684484,1.2904519,-1.5987859,-0.099418245
574,1778607675.980324,0.4749058,-1.5537492,0.26684484,1.2904519,-1.5987859,-0.099418245
575,1778607675.995811,0.4749058,-1.5537492,0.26684484,1.2904519,-1.5987859,-0.099418245
576,1778607676.01192,0.4749058,-1.5537492,0.26684484,1.2904519,-1.5987859,-0.099418245
577,1778607676.027961,0.4749058,-1.5537492,0.26684484,1.2904519,-1.5987859,-0.099418245
578,1778607676.038846,0.4749058,-1.5537492,0.26684484,1.2904519,-1.5987859,-0.099418245
579,1778607676.049495,0.4749058,-1.5537492,0.26684484,1.2904519,-1.5987859,-0.099418245
580,1778607676.0620852,0.4749058,-1.5537492,0.26684484,1.2904519,-1.5987859,-0.099418245
581,1778607676.072499,0.4749058,-1.5537492,0.26684484,1.2904519,-1.5987859,-0.099418245
582,1778607676.083345,0.4749058,-1.5537492,0.26684484,1.2904519,-1.5987859,-0.099418245
583,1778607676.0950248,0.4749058,-1.5537492,0.26684484,1.2904519,-1.5987859,-0.099418245
584,1778607676.10548,0.4749058,-1.5537492,0.26684484,1.2904519,-1.5987859,-0.099418245
585,1778607676.11769,0.4749058,-1.5537492,0.26684484,1.2904519,-1.5987859,-0.099418245
586,1778607676.127278,0.4749058,-1.5537492,0.26684484,1.2904519,-1.5987859,-0.099418245
587,1778607676.138117,0.4749058,-1.5537492,0.26684484,1.2904519,-1.5987859,-0.099418245
588,1778607676.1488068,0.4749058,-1.5537492,0.26684484,1.2904519,-1.5987859,-0.099418245
589,1778607676.160146,0.4749058,-1.5537492,0.26684484,1.2904519,-1.5987859,-0.099418245
590,1778607676.170541,0.4749058,-1.5537492,0.26684484,1.2904519,-1.5987859,-0.099418245
591,1778607676.1809878,0.4749058,-1.5537492,0.26684484,1.2904519,-1.5987859,-0.099418245
592,1778607676.191423,0.4749058,-1.5537492,0.26684484,1.2904519,-1.5987859,-0.099418245
593,1778607676.202256,0.4749058,-1.5537492,0.26684484,1.2904519,-1.5987859,-0.099418245
594,1778607676.21297,0.4749058,-1.5537492,0.26684484,1.2904519,-1.5987859,-0.099418245
595,1778607676.223862,0.4749058,-1.5537492,0.26684484,1.2904519,-1.5987859,-0.099418245
596,1778607676.234893,0.4749058,-1.5537492,0.26684484,1.2904519,-1.5987859,-0.099418245
597,1778607676.245279,0.4749058,-1.5537492,0.26684484,1.2904519,-1.5987859,-0.099418245
598,1778607676.2558541,0.4749058,-1.5537492,0.26684484,1.2904519,-1.5987859,-0.099418245
599,1778607676.26634,0.4749058,-1.5537492,0.26684484,1.2904519,-1.5987859,-0.099418245
600,1778607676.277251,0.4749058,-1.5537492,0.26684484,1.2904519,-1.5987859,-0.099418245
601,1778607676.287564,0.4749058,-1.5537492,0.26684484,1.2904519,-1.5987859,-0.099418245
602,1778607676.2985091,0.4749058,-1.5537492,0.26684484,1.2904519,-1.5987859,-0.099418245
603,1778607676.30934,0.4749058,-1.5537492,0.26684484,1.2904519,-1.5987859,-0.099418245
604,1778607676.320821,0.4749058,-1.5537492,0.26684484,1.2904519,-1.5987859,-0.099418245
605,1778607676.3321228,0.4749058,-1.5537492,0.26684484,1.2904519,-1.5987859,-0.099418245
606,1778607676.343505,0.4749058,-1.5537492,0.26684484,1.2904519,-1.5987859,-0.099418245
607,1778607676.355325,0.4749058,-1.5537492,0.26684484,1.2904519,-1.5987859,-0.099418245
608,1778607676.3651578,0.4749058,-1.5537492,0.26684484,1.2904519,-1.5987859,-0.099418245
609,1778607676.3828359,0.4749058,-1.5537492,0.26684484,1.2904519,-1.5987859,-0.099418245
610,1778607676.398154,0.4749058,-1.5537492,0.26684484,1.2904519,-1.5987859,-0.099418245
611,1778607676.419216,0.4749058,-1.5537492,0.26684484,1.2904519,-1.5987859,-0.099418245
612,1778607676.440396,0.4749058,-1.5537492,0.26684484,1.2904519,-1.5987859,-0.099418245
613,1778607676.4568708,0.4749058,-1.5537492,0.26684484,1.2904519,-1.5987859,-0.099418245
614,1778607676.470222,0.4749058,-1.5537492,0.26684484,1.2904519,-1.5987859,-0.099418245
615,1778607676.4840882,0.4749058,-1.5537492,0.26684484,1.2904519,-1.5987859,-0.099418245
616,1778607676.504818,0.4749058,-1.5537492,0.26684484,1.2904519,-1.5987859,-0.099418245
617,1778607676.520622,0.4749058,-1.5537492,0.26684484,1.2904519,-1.5987859,-0.099418245
618,1778607676.539453,0.4749058,-1.5537492,0.26684484,1.2904519,-1.5987859,-0.099418245
619,1778607676.553975,0.4749058,-1.5537492,0.26684484,1.2904519,-1.5987859,-0.099418245
620,1778607676.5721622,0.4749058,-1.5537492,0.26684484,1.2904519,-1.5987859,-0.099418245
621,1778607676.5872068,0.4749058,-1.5537492,0.26684484,1.2904519,-1.5987859,-0.099418245
622,1778607676.5983732,0.4749058,-1.5537492,0.26684484,1.2904519,-1.5987859,-0.099418245
623,1778607676.608701,0.4749058,-1.5537492,0.26684484,1.2904519,-1.5987859,-0.099418245
624,1778607676.622418,0.4749058,-1.5537492,0.26684484,1.2904519,-1.5987859,-0.099418245
625,1778607676.633721,0.4749058,-1.5537492,0.26684484,1.2904519,-1.5987859,-0.099418245
626,1778607676.645204,0.4749058,-1.5537492,0.26684484,1.2904519,-1.5987859,-0.099418245
627,1778607676.655617,0.4749058,-1.5537492,0.26684484,1.2904519,-1.5987859,-0.099418245
628,1778607676.666547,0.4749058,-1.5537492,0.26684484,1.2904519,-1.5987859,-0.099418245
629,1778607676.677356,0.4749058,-1.5537492,0.26684484,1.2904519,-1.5987859,-0.099418245
630,1778607676.687576,0.4749058,-1.5537492,0.26684484,1.2904519,-1.5987859,-0.099418245
631,1778607676.6979158,0.4749058,-1.5537492,0.26684484,1.2904519,-1.5987859,-0.099418245
632,1778607676.708189,0.4749058,-1.5537492,0.26684484,1.2904519,-1.5987859,-0.099418245
633,1778607676.719071,0.4749058,-1.5537492,0.26684484,1.2904519,-1.5987859,-0.099418245
634,1778607676.73011,0.4749058,-1.5537492,0.26684484,1.2904519,-1.5987859,-0.099418245
635,1778607676.7406569,0.4749058,-1.5537492,0.26684484,1.2904519,-1.5987859,-0.099418245
636,1778607676.751349,0.4749058,-1.5537492,0.26684484,1.2904519,-1.5987859,-0.099418245
637,1778607676.762149,0.4749058,-1.5537492,0.26684484,1.2904519,-1.5987859,-0.099418245
638,1778607676.772672,0.4749058,-1.5537492,0.26684484,1.2904519,-1.5987859,-0.099418245
639,1778607676.783118,0.4749058,-1.5537492,0.26684484,1.2904519,-1.5987859,-0.099418245
640,1778607676.793547,0.4749058,-1.5537492,0.26684484,1.2904519,-1.5987859,-0.099418245
641,1778607676.804651,0.4749058,-1.5537492,0.26684484,1.2904519,-1.5987859,-0.099418245
642,1778607676.816569,0.4749058,-1.5537492,0.26684484,1.2904519,-1.5987859,-0.099418245
643,1778607676.827109,0.4749058,-1.5537492,0.26684484,1.2904519,-1.5987859,-0.099418245
644,1778607676.8378618,0.4749058,-1.5537492,0.26684484,1.2904519,-1.5987859,-0.099418245
645,1778607676.848394,0.4749058,-1.5537492,0.26684484,1.2904519,-1.5987859,-0.099418245
646,1778607676.858985,0.4749058,-1.5537492,0.26684484,1.2904519,-1.5987859,-0.099418245
647,1778607676.869317,0.4749058,-1.5537492,0.26684484,1.2904519,-1.5987859,-0.099418245
648,1778607676.8800168,0.4749058,-1.5537492,0.26684484,1.2904519,-1.5987859,-0.099418245
649,1778607676.890759,0.4749058,-1.5537492,0.26684484,1.2904519,-1.5987859,-0.099418245
650,1778607676.90179,0.4749058,-1.5537492,0.26684484,1.2904519,-1.5987859,-0.099418245
651,1778607676.912168,0.4749058,-1.5537492,0.26684484,1.2904519,-1.5987859,-0.099418245
652,1778607676.923424,0.4749058,-1.5537492,0.26684484,1.2904519,-1.5987859,-0.099418245
653,1778607676.9459178,0.4749058,-1.5537492,0.26684484,1.2904519,-1.5987859,-0.099418245
654,1778607676.964405,0.4749058,-1.5537492,0.26684484,1.2904519,-1.5987859,-0.099418245
655,1778607676.9754398,0.4749058,-1.5537492,0.26684484,1.2904519,-1.5987859,-0.099418245
656,1778607676.990752,0.4749058,-1.5537492,0.26684484,1.2904519,-1.5987859,-0.099418245
657,1778607677.007274,0.4749058,-1.5537492,0.26684484,1.2904519,-1.5987859,-0.099418245
658,1778607677.025644,0.4749058,-1.5537492,0.26684484,1.2904519,-1.5987859,-0.099418245
659,1778607677.0408478,0.4749058,-1.5537492,0.26684484,1.2904519,-1.5987859,-0.099418245
660,1778607677.052105,0.4749058,-1.5537492,0.26684484,1.2904519,-1.5987859,-0.099418245
661,1778607677.063133,0.4749058,-1.5537492,0.26684484,1.2904519,-1.5987859,-0.099418245
662,1778607677.074741,0.4749058,-1.5537492,0.26684484,1.2904519,-1.5987859,-0.099418245
663,1778607677.085568,0.4749058,-1.5537492,0.26684484,1.2904519,-1.5987859,-0.099418245
664,1778607677.096386,0.4749058,-1.5537492,0.26684484,1.2904519,-1.5987859,-0.099418245
665,1778607677.107719,0.4749058,-1.5537492,0.26684484,1.2904519,-1.5987859,-0.099418245
666,1778607677.1187258,0.4749058,-1.5537492,0.26684484,1.2904519,-1.5987859,-0.099418245
667,1778607677.129697,0.4749058,-1.5537492,0.26684484,1.2904519,-1.5987859,-0.099418245
668,1778607677.141027,0.4749058,-1.5537492,0.26684484,1.2904519,-1.5987859,-0.099418245
669,1778607677.151923,0.4749058,-1.5537492,0.26684484,1.2904519,-1.5987859,-0.099418245
670,1778607677.1627278,0.4749058,-1.5537492,0.26684484,1.2904519,-1.5987859,-0.099418245
671,1778607677.174873,0.4749058,-1.5537492,0.26684484,1.2904519,-1.5987859,-0.099418245
672,1778607677.1839502,0.4749058,-1.5537492,0.26684484,1.2904519,-1.5987859,-0.099418245
673,1778607677.194479,0.4749058,-1.5537492,0.26684484,1.2904519,-1.5987859,-0.099418245
674,1778607677.2051132,0.4749058,-1.5537492,0.26684484,1.2904519,-1.5987859,-0.099418245
675,1778607677.21563,0.4749058,-1.5537492,0.26684484,1.2904519,-1.5987859,-0.099418245
676,1778607677.2264352,0.4749058,-1.5537492,0.26684484,1.2904519,-1.5987859,-0.099418245
677,1778607677.2366369,0.4749058,-1.5537492,0.26684484,1.2904519,-1.5987859,-0.099418245
678,1778607677.247277,0.4749058,-1.5537492,0.26684484,1.2904519,-1.5987859,-0.099418245
679,1778607677.258303,0.4749058,-1.5537492,0.26684484,1.2904519,-1.5987859,-0.099418245
680,1778607677.270095,0.4749058,-1.5537492,0.26684484,1.2904519,-1.5987859,-0.099418245
681,1778607677.278985,0.4749058,-1.5537492,0.26684484,1.2904519,-1.5987859,-0.099418245
682,1778607677.2897222,0.4749058,-1.5537492,0.26684484,1.2904519,-1.5987859,-0.099418245
683,1778607677.300545,0.4749058,-1.5537492,0.26684484,1.2904519,-1.5987859,-0.099418245
684,1778607677.311677,0.4749058,-1.5537492,0.26684484,1.2904519,-1.5987859,-0.099418245
685,1778607677.3227708,0.4749058,-1.5537492,0.26684484,1.2904519,-1.5987859,-0.099418245
686,1778607677.333484,0.4749058,-1.5537492,0.26684484,1.2904519,-1.5987859,-0.099418245
687,1778607677.344064,0.4749058,-1.5537492,0.26684484,1.2904519,-1.5987859,-0.099418245
688,1778607677.35454,0.4749058,-1.5537492,0.26684484,1.2904519,-1.5987859,-0.099418245
689,1778607677.366954,0.4749058,-1.5537492,0.26684484,1.2904519,-1.5987859,-0.099418245
690,1778607677.37815,0.4749058,-1.5537492,0.26684484,1.2904519,-1.5987859,-0.099418245
691,1778607677.3960268,0.4749058,-1.5537492,0.26684484,1.2904519,-1.5987859,-0.099418245
692,1778607677.4103649,0.4749058,-1.5537492,0.26684484,1.2904519,-1.5987859,-0.099418245
693,1778607677.43223,0.4749058,-1.5537492,0.26684484,1.2904519,-1.5987859,-0.099418245
694,1778607677.453537,0.4749058,-1.5537492,0.26684484,1.2904519,-1.5987859,-0.099418245
695,1778607677.47001,0.4749058,-1.5537492,0.26684484,1.2904519,-1.5987859,-0.099418245
696,1778607677.483018,0.4749058,-1.5537492,0.26684484,1.2904519,-1.5987859,-0.099418245
697,1778607677.496275,0.4749058,-1.5537492,0.26684484,1.2904519,-1.5987859,-0.099418245
698,1778607677.5175161,0.4749058,-1.5537492,0.26684484,1.2904519,-1.5987859,-0.099418245
699,1778607677.532802,0.4749058,-1.5537492,0.26684484,1.2904519,-1.5987859,-0.099418245
700,1778607677.548983,0.4749058,-1.5537492,0.26684484,1.2904519,-1.5987859,-0.099418245
701,1778607677.565999,0.4749058,-1.5537492,0.26684484,1.2904519,-1.5987859,-0.099418245
702,1778607677.584825,0.4749058,-1.5537492,0.26684484,1.2904519,-1.5987859,-0.099418245
703,1778607677.587286,0.4749058,-1.5537492,0.26684484,1.2904519,-1.5987859,-0.099418245
704,1778607677.5998888,0.4749058,-1.5537492,0.26684484,1.2904519,-1.5987859,-0.099418245
705,1778607677.610195,0.4749058,-1.5537492,0.26684484,1.2904519,-1.5987859,-0.099418245
706,1778607677.621154,0.4749058,-1.5537492,0.26684484,1.2904519,-1.5987859,-0.099418245
707,1778607677.632467,0.4749058,-1.5537492,0.26684484,1.2904519,-1.5987859,-0.099418245
708,1778607677.6438642,0.4749058,-1.5537492,0.26684484,1.2904519,-1.5987859,-0.099418245
709,1778607677.654426,0.4749058,-1.5537492,0.26684484,1.2904519,-1.5987859,-0.099418245
710,1778607677.6681669,0.4749058,-1.5537492,0.26684484,1.2904519,-1.5987859,-0.099418245
711,1778607677.678905,0.4749058,-1.5537492,0.26684484,1.2904519,-1.5987859,-0.099418245
712,1778607677.6894789,0.4749058,-1.5537492,0.26684484,1.2904519,-1.5987859,-0.099418245
713,1778607677.7012422,0.4749058,-1.5537492,0.26684484,1.2904519,-1.5987859,-0.099418245
714,1778607677.712168,0.4749058,-1.5537492,0.26684484,1.2904519,-1.5987859,-0.099418245
715,1778607677.722616,0.4749058,-1.5537492,0.26684484,1.2904519,-1.5987859,-0.099418245
716,1778607677.736408,0.4749058,-1.5537492,0.26684484,1.2904519,-1.5987859,-0.099418245
717,1778607677.747709,0.4749058,-1.5537492,0.26684484,1.2904519,-1.5987859,-0.099418245
718,1778607677.760447,0.4749058,-1.5537492,0.26684484,1.2904519,-1.5987859,-0.099418245
719,1778607677.76976,0.4749058,-1.5537492,0.26684484,1.2904519,-1.5987859,-0.099418245
720,1778607677.781075,0.4749058,-1.5537492,0.26684484,1.2904519,-1.5987859,-0.099418245
721,1778607677.792384,0.4749058,-1.5537492,0.26684484,1.2904519,-1.5987859,-0.099418245
722,1778607677.803215,0.4749058,-1.5537492,0.26684484,1.2904519,-1.5987859,-0.099418245
723,1778607677.8143208,0.4749058,-1.5537492,0.26684484,1.2904519,-1.5987859,-0.099418245
724,1778607677.82556,0.4749058,-1.5537492,0.26684484,1.2904519,-1.5987859,-0.099418245
725,1778607677.836643,0.4749058,-1.5537492,0.26684484,1.2904519,-1.5987859,-0.099418245
726,1778607677.8479471,0.4749058,-1.5537492,0.26684484,1.2904519,-1.5987859,-0.099418245
727,1778607677.8589902,0.4749058,-1.5537492,0.26684484,1.2904519,-1.5987859,-0.099418245
728,1778607677.8698628,0.4749058,-1.5537492,0.26684484,1.2904519,-1.5987859,-0.099418245
729,1778607677.880333,0.4749058,-1.5537492,0.26684484,1.2904519,-1.5987859,-0.099418245
730,1778607677.890761,0.4749058,-1.5537492,0.26684484,1.2904519,-1.5987859,-0.099418245
731,1778607677.901908,0.4749058,-1.5537492,0.26684484,1.2904519,-1.5987859,-0.099418245
732,1778607677.9127638,0.4749058,-1.5537492,0.26684484,1.2904519,-1.5987859,-0.099418245
733,1778607677.924743,0.4749058,-1.5537492,0.26684484,1.2904519,-1.5987859,-0.099418245
734,1778607677.9336529,0.4749058,-1.5537492,0.26684484,1.2904519,-1.5987859,-0.099418245
735,1778607677.9443278,0.4749058,-1.5537492,0.26684484,1.2904519,-1.5987859,-0.099418245
736,1778607677.955743,0.4749058,-1.5537492,0.26684484,1.2904519,-1.5987859,-0.099418245
737,1778607677.96644,0.4749058,-1.5537492,0.26684484,1.2904519,-1.5987859,-0.099418245
738,1778607677.989516,0.4749058,-1.5537492,0.26684484,1.2904519,-1.5987859,-0.099418245
739,1778607678.004907,0.4749058,-1.5537492,0.26684484,1.2904519,-1.5987859,-0.099418245
740,1778607678.0276842,0.4749058,-1.5537492,0.26684484,1.2904519,-1.5987859,-0.099418245
741,1778607678.038949,0.4749058,-1.5537492,0.26684484,1.2904519,-1.5987859,-0.099418245
742,1778607678.05504,0.4749058,-1.5537492,0.26684484,1.2904519,-1.5987859,-0.099418245
743,1778607678.072629,0.4749058,-1.5537492,0.26684484,1.2904519,-1.5987859,-0.099418245
744,1778607678.087778,0.4749058,-1.5537492,0.26684484,1.2904519,-1.5987859,-0.099418245
745,1778607678.1054342,0.4749058,-1.5537492,0.26684484,1.2904519,-1.5987859,-0.099418245
746,1778607678.108982,0.4749058,-1.5537492,0.26684484,1.2904519,-1.5987859,-0.099418245
747,1778607678.1214368,0.4749058,-1.5537492,0.26684484,1.2904519,-1.5987859,-0.099418245
748,1778607678.132714,0.4749058,-1.5537492,0.26684484,1.2904519,-1.5987859,-0.099418245
749,1778607678.143102,0.4749058,-1.5537492,0.26684484,1.2904519,-1.5987859,-0.099418245
750,1778607678.1536782,0.4749058,-1.5537492,0.26684484,1.2904519,-1.5987859,-0.099418245
751,1778607678.164613,0.4749058,-1.5537492,0.26684484,1.2904519,-1.5987859,-0.099418245
752,1778607678.175219,0.4749058,-1.5537492,0.26684484,1.2904519,-1.5987859,-0.099418245
753,1778607678.1871428,0.4749058,-1.5537492,0.26684484,1.2904519,-1.5987859,-0.099418245
754,1778607678.1972349,0.4749058,-1.5537492,0.26684484,1.2904519,-1.5987859,-0.099418245
755,1778607678.2074869,0.4749058,-1.5537492,0.26684484,1.2904519,-1.5987859,-0.099418245
756,1778607678.218605,0.4749058,-1.5537492,0.26684484,1.2904519,-1.5987859,-0.099418245
757,1778607678.228962,0.4749058,-1.5537492,0.26684484,1.2904519,-1.5987859,-0.099418245
758,1778607678.2393332,0.4749058,-1.5537492,0.26684484,1.2904519,-1.5987859,-0.099418245
759,1778607678.2499561,0.4749058,-1.5537492,0.26684484,1.2904519,-1.5987859,-0.099418245
760,1778607678.2608068,0.4749058,-1.5537492,0.26684484,1.2904519,-1.5987859,-0.099418245
761,1778607678.2713752,0.4749058,-1.5537492,0.26684484,1.2904519,-1.5987859,-0.099418245
762,1778607678.28193,0.4749058,-1.5537492,0.26684484,1.2904519,-1.5987859,-0.099418245
763,1778607678.292688,0.4749058,-1.5537492,0.26684484,1.2904519,-1.5987859,-0.099418245
764,1778607678.303,0.4749058,-1.5537492,0.26684484,1.2904519,-1.5987859,-0.099418245
765,1778607678.3132858,0.4749058,-1.5537492,0.26684484,1.2904519,-1.5987859,-0.099418245
766,1778607678.324597,0.4749058,-1.5537492,0.26684484,1.2904519,-1.5987859,-0.099418245
767,1778607678.336019,0.4749058,-1.5537492,0.26684484,1.2904519,-1.5987859,-0.099418245
768,1778607678.346518,0.4749058,-1.5537492,0.26684484,1.2904519,-1.5987859,-0.099418245
769,1778607678.3568761,0.4749058,-1.5537492,0.26684484,1.2904519,-1.5987859,-0.099418245
770,1778607678.3682408,0.4749058,-1.5537492,0.26684484,1.2904519,-1.5987859,-0.099418245
771,1778607678.394652,0.4749058,-1.5537492,0.26684484,1.2904519,-1.5987859,-0.099418245
772,1778607678.394829,0.4749058,-1.5537492,0.26684484,1.2904519,-1.5987859,-0.099418245
773,1778607678.405072,0.4749058,-1.5537492,0.26684484,1.2904519,-1.5987859,-0.099418245
774,1778607678.428833,0.4749058,-1.5537492,0.26684484,1.2904519,-1.5987859,-0.099418245
775,1778607678.4400299,0.4749058,-1.5537492,0.26684484,1.2904519,-1.5987859,-0.099418245
776,1778607678.4521978,0.4749058,-1.5537492,0.26684484,1.2904519,-1.5987859,-0.099418245
777,1778607678.463975,0.4749058,-1.5537492,0.26684484,1.2904519,-1.5987859,-0.099418245
778,1778607678.483134,0.4749058,-1.5537492,0.26684484,1.2904519,-1.5987859,-0.099418245
779,1778607678.495687,0.4749058,-1.5537492,0.26684484,1.2904519,-1.5987859,-0.099418245
780,1778607678.518816,0.4749058,-1.5537492,0.26684484,1.2904519,-1.5987859,-0.099418245
781,1778607678.5290308,0.4749058,-1.5537492,0.26684484,1.2904519,-1.5987859,-0.099418245
782,1778607678.5431921,0.4749058,-1.5537492,0.26684484,1.2904519,-1.5987859,-0.099418245
783,1778607678.562021,0.4749058,-1.5537492,0.26684484,1.2904519,-1.5987859,-0.099418245
784,1778607678.56378,0.4749058,-1.5537492,0.26684484,1.2904519,-1.5987859,-0.099418245
785,1778607678.579045,0.4749058,-1.5537492,0.26684484,1.2904519,-1.5987859,-0.099418245
786,1778607678.5945861,0.4749058,-1.5537492,0.26684484,1.2904519,-1.5987859,-0.099418245
787,1778607678.6057951,0.4749058,-1.5537492,0.26684484,1.2904519,-1.5987859,-0.099418245
788,1778607678.6163242,0.4749058,-1.5537492,0.26684484,1.2904519,-1.5987859,-0.099418245
789,1778607678.6289651,0.4749058,-1.5537492,0.26684484,1.2904519,-1.5987859,-0.099418245
790,1778607678.6399739,0.4749058,-1.5537492,0.26684484,1.2904519,-1.5987859,-0.099418245
791,1778607678.651156,0.4749058,-1.5537492,0.26684484,1.2904519,-1.5987859,-0.099418245
792,1778607678.662007,0.4749058,-1.5537492,0.26684484,1.2904519,-1.5987859,-0.099418245
793,1778607678.673302,0.4749058,-1.5537492,0.26684484,1.2904519,-1.5987859,-0.099418245
794,1778607678.68369,0.4749058,-1.5537492,0.26684484,1.2904519,-1.5987859,-0.099418245
795,1778607678.695343,0.4749058,-1.5537492,0.26684484,1.2904519,-1.5987859,-0.099418245
796,1778607678.7066371,0.4749058,-1.5537492,0.26684484,1.2904519,-1.5987859,-0.099418245
797,1778607678.717506,0.4749058,-1.5537492,0.26684484,1.2904519,-1.5987859,-0.099418245
798,1778607678.727741,0.4749058,-1.5537492,0.26684484,1.2904519,-1.5987859,-0.099418245
799,1778607678.738986,0.4749058,-1.5537492,0.26684484,1.2904519,-1.5987859,-0.099418245
800,1778607678.7499352,0.4749058,-1.5537492,0.26684484,1.2904519,-1.5987859,-0.099418245
801,1778607678.7604392,0.4749058,-1.5537492,0.26684484,1.2904519,-1.5987859,-0.099418245
802,1778607678.77125,0.4749058,-1.5537492,0.26684484,1.2904519,-1.5987859,-0.099418245
803,1778607678.781791,0.4749058,-1.5537492,0.26684484,1.2904519,-1.5987859,-0.099418245
804,1778607678.793104,0.4749058,-1.5537492,0.26684484,1.2904519,-1.5987859,-0.099418245
805,1778607678.804513,0.4749058,-1.5537492,0.26684484,1.2904519,-1.5987859,-0.099418245
806,1778607678.8149812,0.4749058,-1.5537492,0.26684484,1.2904519,-1.5987859,-0.099418245
807,1778607678.8276942,0.4749058,-1.5537492,0.26684484,1.2904519,-1.5987859,-0.099418245
808,1778607678.837286,0.4749058,-1.5537492,0.26684484,1.2904519,-1.5987859,-0.099418245
809,1778607678.847428,0.4749058,-1.5537492,0.26684484,1.2904519,-1.5987859,-0.099418245
810,1778607678.858784,0.4749058,-1.5537492,0.26684484,1.2904519,-1.5987859,-0.099418245
811,1778607678.8696141,0.4749058,-1.5537492,0.26684484,1.2904519,-1.5987859,-0.099418245
812,1778607678.880984,0.4749058,-1.5537492,0.26684484,1.2904519,-1.5987859,-0.099418245
813,1778607678.891305,0.4749058,-1.5537492,0.26684484,1.2904519,-1.5987859,-0.099418245
814,1778607678.901966,0.4749058,-1.5537492,0.26684484,1.2904519,-1.5987859,-0.099418245
815,1778607678.912276,0.4749058,-1.5537492,0.26684484,1.2904519,-1.5987859,-0.099418245
816,1778607678.922755,0.4749058,-1.5537492,0.26684484,1.2904519,-1.5987859,-0.099418245
817,1778607678.934989,0.4749058,-1.5537492,0.26684484,1.2904519,-1.5987859,-0.099418245
818,1778607678.945575,0.4749058,-1.5537492,0.26684484,1.2904519,-1.5987859,-0.099418245
819,1778607678.956905,0.4749058,-1.5537492,0.26684484,1.2904519,-1.5987859,-0.099418245
820,1778607678.981392,0.4749058,-1.5537492,0.26684484,1.2904519,-1.5987859,-0.099418245
821,1778607678.981594,0.4749058,-1.5537492,0.26684484,1.2904519,-1.5987859,-0.099418245
822,1778607678.995965,0.4749058,-1.5537492,0.26684484,1.2904519,-1.5987859,-0.099418245
823,1778607679.019278,0.4749058,-1.5537492,0.26684484,1.2904519,-1.5987859,-0.099418245
