id,timestamp,acc_x,acc_y,acc_z,gyro_x,gyro_y,gyro_z
1,1778607587.558537,-0.57003325,-1.0171325,-0.2856264,-1.2599086,-0.49434233,-1.0732894
2,1778607587.609372,-0.57003325,-1.0171325,-0.2856264,-1.2599086,-0.49434233,-1.0732894
3,1778607587.659689,-0.57003325,-1.0171325,-0.2856264,-1.2599086,-0.49434233,-1.0732894
4,1778607587.710059,-0.57003325,-1.0171325,-0.2856264,-1.2599086,-0.49434233,-1.0732894
5,1778607587.761396,-0.57003325,-1.0171325,-0.2856264,-1.2599086,-0.49434233,-1.0732894
6,1778607587.811369,-0.57003325,-1.0171325,-0.2856264,-1.2599086,-0.49434233,-1.0732894
7,1778607587.862741,-0.57003325,-1.0171325,-0.2856264,-1.2599086,-0.49434233,-1.0732894
8,1778607587.918954,-0.57003325,-1.0171325,-0.2856264,-1.2599086,-0.49434233,-1.0732894
9,1778607587.9692879,-0.57003325,-1.0171325,-0.2856264,-1.2599086,-0.49434233,-1.0732894
10,1778607588.0202188,-0.57003325,-1.0171325,-0.2856264,-1.2599086,-0.49434233,-1.0732894
11,1778607588.071132,-0.57003325,-1.0171325,-0.2856264,-1.2599086,-0.49434233,-1.0732894
12,1778607588.122452,-0.57003325,-1.0171325,-0.2856264,-1.2599086,-0.49434233,-1.0732894
13,1778607588.173701,-0.57003325,-1.0171325,-0.2856264,-1.2599086,-0.49434233,-1.0732894
14,1778607588.224941,-0.57003325,-1.0171325,-0.2856264,-1.2599086,-0.49434233,-1.0732894
15,1778607588.2757099,-0.57003325,-1.0171325,-0.2856264,-1.2599086,-0.49434233,-1.0732894
16,1778607588.328806,-0.57003325,-1.0171325,-0.2856264,-1.2599086,-0.49434233,-1.0732894
17,1778607588.379703,-0.57003325,-1.0171325,-0.2856264,-1.2599086,-0.49434233,-1.0732894
18,1778607588.4300601,-0.57003325,-1.0171325,-0.2856264,-1.2599086,-0.49434233,-1.0732894
19,1778607588.481645,-0.57003325,-1.0171325,-0.2856264,-1.2599086,-0.49434233,-1.0732894
20,1778607588.5318558,-0.57003325,-1.0171325,-0.2856264,-1.2599086,-0.49434233,-1.0732894
21,1778607588.582369,-0.57003325,-1.0171325,-0.2856264,-1.2599086,-0.49434233,-1.0732894
22,1778607588.6330628,-0.57003325,-1.0171325,-0.2856264,-1.2599086,-0.49434233,-1.0732894
23,1778607588.683958,-0.57003325,-1.0171325,-0.2856264,-1.2599086,-0.49434233,-1.0732894
24,1778607588.734318,-0.57003325,-1.0171325,-0.2856264,-1.2599086,-0.49434233,-1.0732894
25,1778607588.7848508,-0.57003325,-1.0171325,-0.2856264,-1.2599086,-0.49434233,-1.0732894
26,1778607588.835402,-0.57003325,-1.0171325,-0.2856264,-1.2599086,-0.49434233,-1.0732894
27,1778607588.8859332,-0.57003325,-1.0171325,-0.2856264,-1.2599086,-0.49434233,-1.0732894
28,1778607588.936485,-0.57003325,-1.0171325,-0.2856264,-1.2599086,-0.49434233,-1.0732894
29,1778607588.987194,-0.57003325,-1.0171325,-0.2856264,-1.2599086,-0.49434233,-1.0732894
30,1778607589.037725,-0.57003325,-1.0171325,-0.2856264,-1.2599086,-0.49434233,-1.0732894
31,1778607589.088497,-0.57003325,-1.0171325,-0.2856264,-1.2599086,-0.49434233,-1.0732894
32,1778607589.139193,-0.57003325,-1.0171325,-0.2856264,-1.2599086,-0.49434233,-1.0732894
33,1778607589.189884,-0.57003325,-1.0171325,-0.2856264,-1.2599086,-0.49434233,-1.0732894
34,1778607589.240619,-0.57003325,-1.0171325,-0.2856264,-1.2599086,-0.49434233,-1.0732894
35,1778607589.306305,-0.57003325,-1.0171325,-0.2856264,-1.2599086,-0.49434233,-1.0732894
36,1778607589.341456,-0.57003325,-1.0171325,-0.2856264,-1.2599086,-0.49434233,-1.0732894
37,1778607589.392481,-0.57003325,-1.0171325,-0.2856264,-1.2599086,-0.49434233,-1.0732894
38,1778607589.4433181,-0.57003325,-1.0171325,-0.2856264,-1.2599086,-0.49434233,-1.0732894
39,1778607589.49402,-0.57003325,-1.0171325,-0.2856264,-1.2599086,-0.49434233,-1.0732894
40,1778607589.5442922,-0.57003325,-1.0171325,-0.2856264,-1.2599086,-0.49434233,-1.0732894
41,1778607589.594711,-0.57003325,-1.0171325,-0.2856264,-1.2599086,-0.49434233,-1.0732894
42,1778607589.6454668,-0.57003325,-1.0171325,-0.2856264,-1.2599086,-0.49434233,-1.0732894
43,1778607589.696053,-0.57003325,-1.0171325,-0.2856264,-1.2599086,-0.49434233,-1.0732894
44,1778607589.746995,-0.57003325,-1.0171325,-0.2856264,-1.2599086,-0.49434233,-1.0732894
45,1778607589.813073,-0.57003325,-1.0171325,-0.2856264,-1.2599086,-0.49434233,-1.0732894
46,1778607589.863322,-0.57003325,-1.0171325,-0.2856264,-1.2599086,-0.49434233,-1.0732894
47,1778607589.913698,-0.57003325,-1.0171325,-0.2856264,-1.2599086,-0.49434233,-1.0732894
48,1778607589.96432,-0.57003325,-1.0171325,-0.2856264,-1.2599086,-0.49434233,-1.0732894
49,1778607590.0147982,-0.57003325,-1.0171325,-0.2856264,-1.2599086,-0.49434233,-1.0732894
50,1778607590.065419,-0.57003325,-1.0171325,-0.2856264,-1.2599086,-0.49434233,-1.0732894
51,1778607590.115751,-0.57003325,-1.0171325,-0.2856264,-1.2599086,-0.49434233,-1.0732894
52,1778607590.166284,-0.57003325,-1.0171325,-0.2856264,-1.2599086,-0.49434233,-1.0732894
53,1778607590.216873,-0.57003325,-1.0171325,-0.2856264,-1.2599086,-0.49434233,-1.0732894
54,1778607590.26773,-0.57003325,-1.0171325,-0.2856264,-1.2599086,-0.49434233,-1.0732894
55,1778607590.318238,-0.57003325,-1.0171325,-0.2856264,-1.2599086,-0.49434233,-1.0732894
56,1778607590.370572,-0.57003325,-1.0171325,-0.2856264,-1.2599086,-0.49434233,-1.0732894
57,1778607590.421034,-0.57003325,-1.0171325,-0.2856264,-1.2599086,-0.49434233,-1.0732894
58,1778607590.4714031,-0.57003325,-1.0171325,-0.2856264,-1.2599086,-0.49434233,-1.0732894
59,1778607590.521715,-0.57003325,-1.0171325,-0.2856264,-1.2599086,-0.49434233,-1.0732894
60,1778607590.571993,-0.57003325,-1.0171325,-0.2856264,-1.2599086,-0.49434233,-1.0732894
61,1778607590.624224,-0.57003325,-1.0171325,-0.2856264,-1.2599086,-0.49434233,-1.0732894
62,1778607590.673507,-0.57003325,-1.0171325,-0.2856264,-1.2599086,-0.49434233,-1.0732894
63,1778607590.7268748,-0.57003325,-1.0171325,-0.2856264,-1.2599086,-0.49434233,-1.0732894
64,1778607590.7819571,-0.57003325,-1.0171325,-0.2856264,-1.2599086,-0.49434233,-1.0732894
65,1778607590.8325498,-0.57003325,-1.0171325,-0.2856264,-1.2599086,-0.49434233,-1.0732894
66,1778607590.8839638,-0.57003325,-1.0171325,-0.2856264,-1.2599086,-0.49434233,-1.0732894
67,1778607590.934518,-0.57003325,-1.0171325,-0.2856264,-1.2599086,-0.49434233,-1.0732894
68,1778607590.9853928,-0.57003325,-1.0171325,-0.2856264,-1.2599086,-0.49434233,-1.0732894
69,1778607591.036254,-0.57003325,-1.0171325,-0.2856264,-1.2599086,-0.49434233,-1.0732894
70,1778607591.087268,-0.57003325,-1.0171325,-0.2856264,-1.2599086,-0.49434233,-1.0732894
71,1778607591.13765,-0.57003325,-1.0171325,-0.2856264,-1.2599086,-0.49434233,-1.0732894
72,1778607591.188281,-0.57003325,-1.0171325,-0.2856264,-1.2599086,-0.49434233,-1.0732894
73,1778607591.238762,-0.57003325,-1.0171325,-0.2856264,-1.2599086,-0.49434233,-1.0732894
74,1778607591.304669,-0.57003325,-1.0171325,-0.2856264,-1.2599086,-0.49434233,-1.0732894
75,1778607591.341783,-0.57003325,-1.0171325,-0.2856264,-1.2599086,-0.49434233,-1.0732894
76,1778607591.392716,-0.57003325,-1.0171325,-0.2856264,-1.2599086,-0.49434233,-1.0732894
77,1778607591.443315,-0.57003325,-1.0171325,-0.2856264,-1.2599086,-0.49434233,-1.0732894
78,1778607591.494059,-0.57003325,-1.0171325,-0.2856264,-1.2599086,-0.49434233,-1.0732894
79,1778607591.5454059,-0.57003325,-1.0171325,-0.2856264,-1.2599086,-0.49434233,-1.0732894
80,1778607591.59625,-0.57003325,-1.0171325,-0.2856264,-1.2599086,-0.49434233,-1.0732894
81,1778607591.6474571,-0.57003325,-1.0171325,-0.2856264,-1.2599086,-0.49434233,-1.0732894
82,1778607591.6983411,-0.57003325,-1.0171325,-0.2856264,-1.2599086,-0.49434233,-1.0732894
83,1778607591.7488132,-0.57003325,-1.0171325,-0.2856264,-1.2599086,-0.49434233,-1.0732894
84,1778607591.799201,-0.57003325,-1.0171325,-0.2856264,-1.2599086,-0.49434233,-1.0732894
85,1778607591.862813,-0.57003325,-1.0171325,-0.2856264,-1.2599086,-0.49434233,-1.0732894
86,1778607591.913105,-0.57003325,-1.0171325,-0.2856264,-1.2599086,-0.49434233,-1.0732894
87,1778607591.964343,-0.57003325,-1.0171325,-0.2856264,-1.2599086,-0.49434233,-1.0732894
88,1778607592.0148082,-0.57003325,-1.0171325,-0.2856264,-1.2599086,-0.49434233,-1.0732894
89,1778607592.075278,-0.57003325,-1.0171325,-0.2856264,-1.2599086,-0.49434233,-1.0732894
90,1778607592.125757,-0.57003325,-1.0171325,-0.2856264,-1.2599086,-0.49434233,-1.0732894
91,1778607592.176159,-0.57003325,-1.0171325,-0.2856264,-1.2599086,-0.49434233,-1.0732894
92,1778607592.2272918,-0.57003325,-1.0171325,-0.2856264,-1.2599086,-0.49434233,-1.0732894
93,1778607592.2784598,-0.57003325,-1.0171325,-0.2856264,-1.2599086,-0.49434233,-1.0732894
94,1778607592.329813,-0.57003325,-1.0171325,-0.2856264,-1.2599086,-0.49434233,-1.0732894
95,1778607592.380106,-0.57003325,-1.0171325,-0.2856264,-1.2599086,-0.49434233,-1.0732894
96,1778607592.4314072,-0.57003325,-1.0171325,-0.2856264,-1.2599086,-0.49434233,-1.0732894
97,1778607592.484576,-0.57003325,-1.0171325,-0.2856264,-1.2599086,-0.49434233,-1.0732894
98,1778607592.534854,-0.57003325,-1.0171325,-0.2856264,-1.2599086,-0.49434233,-1.0732894
99,1778607592.585519,-0.57003325,-1.0171325,-0.2856264,-1.2599086,-0.49434233,-1.0732894
100,1778607592.638655,-0.57003325,-1.0171325,-0.2856264,-1.2599086,-0.49434233,-1.0732894
101,1778607592.689027,-0.57003325,-1.0171325,-0.2856264,-1.2599086,-0.49434233,-1.0732894
102,1778607592.73921,-0.57003325,-1.0171325,-0.2856264,-1.2599086,-0.49434233,-1.0732894
103,1778607592.78999,-0.57003325,-1.0171325,-0.2856264,-1.2599086,-0.49434233,-1.0732894
104,1778607592.8410509,-0.57003325,-1.0171325,-0.2856264,-1.2599086,-0.49434233,-1.0732894
105,1778607592.8924842,-0.57003325,-1.0171325,-0.2856264,-1.2599086,-0.49434233,-1.0732894
106,1778607592.943234,-0.57003325,-1.0171325,-0.2856264,-1.2599086,-0.49434233,-1.0732894
107,1778607592.993481,-0.57003325,-1.0171325,-0.2856264,-1.2599086,-0.49434233,-1.0732894
108,1778607593.044724,-0.57003325,-1.0171325,-0.2856264,-1.2599086,-0.49434233,-1.0732894
109,1778607593.094957,-0.57003325,-1.0171325,-0.2856264,-1.2599086,-0.49434233,-1.0732894
110,1778607593.145631,-0.57003325,-1.0171325,-0.2856264,-1.2599086,-0.49434233,-1.0732894
111,1778607593.196168,-0.57003325,-1.0171325,-0.2856264,-1.2599086,-0.49434233,-1.0732894
112,1778607593.24672,-0.57003325,-1.0171325,-0.2856264,-1.2599086,-0.49434233,-1.0732894
113,1778607593.2985868,-0.57003325,-1.0171325,-0.2856264,-1.2599086,-0.49434233,-1.0732894
114,1778607593.359431,-0.57003325,-1.0171325,-0.2856264,-1.2599086,-0.49434233,-1.0732894
115,1778607593.4097211,-0.57003325,-1.0171325,-0.2856264,-1.2599086,-0.49434233,-1.0732894
116,1778607593.460472,-0.57003325,-1.0171325,-0.2856264,-1.2599086,-0.49434233,-1.0732894
117,1778607593.511359,-0.57003325,-1.0171325,-0.2856264,-1.2599086,-0.49434233,-1.0732894
118,1778607593.562386,-0.57003325,-1.0171325,-0.2856264,-1.2599086,-0.49434233,-1.0732894
119,1778607593.613533,-0.57003325,-1.0171325,-0.2856264,-1.2599086,-0.49434233,-1.0732894
120,1778607593.66473,-0.57003325,-1.0171325,-0.2856264,-1.2599086,-0.49434233,-1.0732894
121,1778607593.715731,-0.57003325,-1.0171325,-0.2856264,-1.2599086,-0.49434233,-1.0732894
122,1778607593.766369,-0.57003325,-1.0171325,-0.2856264,-1.2599086,-0.49434233,-1.0732894
123,1778607593.828332,-0.57003325,-1.0171325,-0.2856264,-1.2599086,-0.49434233,-1.0732894
124,1778607593.880398,-0.57003325,-1.0171325,-0.2856264,-1.2599086,-0.49434233,-1.0732894
125,1778607593.9356549,-0.57003325,-1.0171325,-0.2856264,-1.2599086,-0.49434233,-1.0732894
126,1778607593.9871628,-0.57003325,-1.0171325,-0.2856264,-1.2599086,-0.49434233,-1.0732894
127,1778607594.038485,-0.57003325,-1.0171325,-0.2856264,-1.2599086,-0.49434233,-1.0732894
128,1778607594.095146,-0.57003325,-1.0171325,-0.2856264,-1.2599086,-0.49434233,-1.0732894
129,1778607594.14608,-0.57003325,-1.0171325,-0.2856264,-1.2599086,-0.49434233,-1.0732894
130,1778607594.1964102,-0.57003325,-1.0171325,-0.2856264,-1.2599086,-0.49434233,-1.0732894
131,1778607594.24784,-0.57003325,-1.0171325,-0.2856264,-1.2599086,-0.49434233,-1.0732894
132,1778607594.29841,-0.57003325,-1.0171325,-0.2856264,-1.2599086,-0.49434233,-1.0732894
133,1778607594.349685,-0.57003325,-1.0171325,-0.2856264,-1.2599086,-0.49434233,-1.0732894
134,1778607594.400098,-0.57003325,-1.0171325,-0.2856264,-1.2599086,-0.49434233,-1.0732894
135,1778607594.4513412,-0.57003325,-1.0171325,-0.2856264,-1.2599086,-0.49434233,-1.0732894
136,1778607594.502066,-0.57003325,-1.0171325,-0.2856264,-1.2599086,-0.49434233,-1.0732894
137,1778607594.555616,-0.57003325,-1.0171325,-0.2856264,-1.2599086,-0.49434233,-1.0732894
138,1778607594.606466,-0.57003325,-1.0171325,-0.2856264,-1.2599086,-0.49434233,-1.0732894
139,1778607594.6569788,-0.57003325,-1.0171325,-0.2856264,-1.2599086,-0.49434233,-1.0732894
140,1778607594.7075222,-0.57003325,-1.0171325,-0.2856264,-1.2599086,-0.49434233,-1.0732894
141,1778607594.757997,-0.57003325,-1.0171325,-0.2856264,-1.2599086,-0.49434233,-1.0732894
142,1778607594.809363,-0.57003325,-1.0171325,-0.2856264,-1.2599086,-0.49434233,-1.0732894
143,1778607594.86094,-0.57003325,-1.0171325,-0.2856264,-1.2599086,-0.49434233,-1.0732894
144,1778607594.911216,-0.57003325,-1.0171325,-0.2856264,-1.2599086,-0.49434233,-1.0732894
145,1778607594.961728,-0.57003325,-1.0171325,-0.2856264,-1.2599086,-0.49434233,-1.0732894
146,1778607595.0121942,-0.57003325,-1.0171325,-0.2856264,-1.2599086,-0.49434233,-1.0732894
147,1778607595.062685,-0.57003325,-1.0171325,-0.2856264,-1.2599086,-0.49434233,-1.0732894
148,1778607595.113318,-0.57003325,-1.0171325,-0.2856264,-1.2599086,-0.49434233,-1.0732894
149,1778607595.163976,-0.57003325,-1.0171325,-0.2856264,-1.2599086,-0.49434233,-1.0732894
150,1778607595.214831,-0.57003325,-1.0171325,-0.2856264,-1.2599086,-0.49434233,-1.0732894
151,1778607595.265142,-0.57003325,-1.0171325,-0.2856264,-1.2599086,-0.49434233,-1.0732894
152,1778607595.316656,-0.57003325,-1.0171325,-0.2856264,-1.2599086,-0.49434233,-1.0732894
153,1778607595.3660748,-0.57003325,-1.0171325,-0.2856264,-1.2599086,-0.49434233,-1.0732894
154,1778607595.417432,-0.57003325,-1.0171325,-0.2856264,-1.2599086,-0.49434233,-1.0732894
155,1778607595.468396,-0.57003325,-1.0171325,-0.2856264,-1.2599086,-0.49434233,-1.0732894
156,1778607595.518872,-0.57003325,-1.0171325,-0.2856264,-1.2599086,-0.49434233,-1.0732894
157,1778607595.5696971,-0.57003325,-1.0171325,-0.2856264,-1.2599086,-0.49434233,-1.0732894
158,1778607595.620714,-0.57003325,-1.0171325,-0.2856264,-1.2599086,-0.49434233,-1.0732894
159,1778607595.671381,-0.57003325,-1.0171325,-0.2856264,-1.2599086,-0.49434233,-1.0732894
160,1778607595.722249,-0.57003325,-1.0171325,-0.2856264,-1.2599086,-0.49434233,-1.0732894
161,1778607595.78099,-0.57003325,-1.0171325,-0.2856264,-1.2599086,-0.49434233,-1.0732894
162,1778607595.831445,-0.57003325,-1.0171325,-0.2856264,-1.2599086,-0.49434233,-1.0732894
163,1778607595.882566,-0.57003325,-1.0171325,-0.2856264,-1.2599086,-0.49434233,-1.0732894
164,1778607595.933016,-0.57003325,-1.0171325,-0.2856264,-1.2599086,-0.49434233,-1.0732894
165,1778607595.98338,-0.57003325,-1.0171325,-0.2856264,-1.2599086,-0.49434233,-1.0732894
166,1778607596.033706,-0.57003325,-1.0171325,-0.2856264,-1.2599086,-0.49434233,-1.0732894
167,1778607596.0866392,-0.57003325,-1.0171325,-0.2856264,-1.2599086,-0.49434233,-1.0732894
168,1778607596.135193,-0.57003325,-1.0171325,-0.2856264,-1.2599086,-0.49434233,-1.0732894
169,1778607596.1896598,-0.57003325,-1.0171325,-0.2856264,-1.2599086,-0.49434233,-1.0732894
170,1778607596.238972,-0.57003325,-1.0171325,-0.2856264,-1.2599086,-0.49434233,-1.0732894
171,1778607596.289943,-0.57003325,-1.0171325,-0.2856264,-1.2599086,-0.49434233,-1.0732894
172,1778607596.341228,-0.57003325,-1.0171325,-0.2856264,-1.2599086,-0.49434233,-1.0732894
173,1778607596.392585,-0.57003325,-1.0171325,-0.2856264,-1.2599086,-0.49434233,-1.0732894
174,1778607596.443392,-0.57003325,-1.0171325,-0.2856264,-1.2599086,-0.49434233,-1.0732894
175,1778607596.494575,-0.57003325,-1.0171325,-0.2856264,-1.2599086,-0.49434233,-1.0732894
176,1778607596.550955,-0.57003325,-1.0171325,-0.2856264,-1.2599086,-0.49434233,-1.0732894
177,1778607596.607702,-0.57003325,-1.0171325,-0.2856264,-1.2599086,-0.49434233,-1.0732894
178,1778607596.657384,-0.57003325,-1.0171325,-0.2856264,-1.2599086,-0.49434233,-1.0732894
179,1778607596.710133,-0.57003325,-1.0171325,-0.2856264,-1.2599086,-0.49434233,-1.0732894
180,1778607596.7589629,-0.57003325,-1.0171325,-0.2856264,-1.2599086,-0.49434233,-1.0732894
181,1778607596.810303,-0.57003325,-1.0171325,-0.2856264,-1.2599086,-0.49434233,-1.0732894
182,1778607596.861502,-0.57003325,-1.0171325,-0.2856264,-1.2599086,-0.49434233,-1.0732894
183,1778607596.912647,-0.57003325,-1.0171325,-0.2856264,-1.2599086,-0.49434233,-1.0732894
184,1778607596.964226,-0.57003325,-1.0171325,-0.2856264,-1.2599086,-0.49434233,-1.0732894
185,1778607597.015214,-0.57003325,-1.0171325,-0.2856264,-1.2599086,-0.49434233,-1.0732894
186,1778607597.065511,-0.57003325,-1.0171325,-0.2856264,-1.2599086,-0.49434233,-1.0732894
187,1778607597.115971,-0.57003325,-1.0171325,-0.2856264,-1.2599086,-0.49434233,-1.0732894
188,1778607597.168211,-0.57003325,-1.0171325,-0.2856264,-1.2599086,-0.49434233,-1.0732894
189,1778607597.218685,-0.57003325,-1.0171325,-0.2856264,-1.2599086,-0.49434233,-1.0732894
190,1778607597.2689059,-0.57003325,-1.0171325,-0.2856264,-1.2599086,-0.49434233,-1.0732894
191,1778607597.319756,-0.57003325,-1.0171325,-0.2856264,-1.2599086,-0.49434233,-1.0732894
192,1778607597.370079,-0.57003325,-1.0171325,-0.2856264,-1.2599086,-0.49434233,-1.0732894
193,1778607597.4206269,-0.57003325,-1.0171325,-0.2856264,-1.2599086,-0.49434233,-1.0732894
194,1778607597.4759512,-0.57003325,-1.0171325,-0.2856264,-1.2599086,-0.49434233,-1.0732894
