id,timestamp,acc_x,acc_y,acc_z,gyro_x,gyro_y,gyro_z
1,1778607699.12707,0.4749058,-1.5537492,0.26684484,1.2904519,-1.5987859,-0.099418245
2,1778607699.137824,0.4749058,-1.5537492,0.26684484,1.2904519,-1.5987859,-0.099418245
3,1778607699.152401,0.4749058,-1.5537492,0.26684484,1.2904519,-1.5987859,-0.099418245
4,1778607699.1681201,0.4749058,-1.5537492,0.26684484,1.2904519,-1.5987859,-0.099418245
5,1778607699.178828,0.4749058,-1.5537492,0.26684484,1.2904519,-1.5987859,-0.099418245
6,1778607699.1949692,0.4749058,-1.5537492,0.26684484,1.2904519,-1.5987859,-0.099418245
7,1778607699.204963,0.4749058,-1.5537492,0.26684484,1.2904519,-1.5987859,-0.099418245
8,1778607699.218566,0.4749058,-1.5537492,0.26684484,1.2904519,-1.5987859,-0.099418245
9,1778607699.230088,0.4749058,-1.5537492,0.26684484,1.2904519,-1.5987859,-0.099418245
10,1778607699.238781,0.4749058,-1.5537492,0.26684484,1.2904519,-1.5987859,-0.099418245
11,1778607699.257476,0.4749058,-1.5537492,0.26684484,1.2904519,-1.5987859,-0.099418245
12,1778607699.272774,0.4749058,-1.5537492,0.26684484,1.2904519,-1.5987859,-0.099418245
13,1778607699.2902641,0.4749058,-1.5537492,0.26684484,1.2904519,-1.5987859,-0.099418245
14,1778607699.2938309,0.4749058,-1.5537492,0.26684484,1.2904519,-1.5987859,-0.099418245
15,1778607699.306041,0.4749058,-1.5537492,0.26684484,1.2904519,-1.5987859,-0.099418245
16,1778607699.3170922,0.4749058,-1.5537492,0.26684484,1.2904519,-1.5987859,-0.099418245
17,1778607699.327636,0.4749058,-1.5537492,0.26684484,1.2904519,-1.5987859,-0.099418245
18,1778607699.341262,0.4749058,-1.5537492,0.26684484,1.2904519,-1.5987859,-0.099418245
19,1778607699.35798,0.4749058,-1.5537492,0.26684484,1.2904519,-1.5987859,-0.099418245
20,1778607699.363008,0.4749058,-1.5537492,0.26684484,1.2904519,-1.5987859,-0.099418245
21,1778607699.374007,0.4749058,-1.5537492,0.26684484,1.2904519,-1.5987859,-0.099418245
22,1778607699.385292,0.4749058,-1.5537492,0.26684484,1.2904519,-1.5987859,-0.099418245
23,1778607699.396626,0.4749058,-1.5537492,0.26684484,1.2904519,-1.5987859,-0.099418245
24,1778607699.407331,0.4749058,-1.5537492,0.26684484,1.2904519,-1.5987859,-0.099418245
25,1778607699.418617,0.4749058,-1.5537492,0.26684484,1.2904519,-1.5987859,-0.099418245
26,1778607699.429656,0.4749058,-1.5537492,0.26684484,1.2904519,-1.5987859,-0.099418245
27,1778607699.440089,0.4749058,-1.5537492,0.26684484,1.2904519,-1.5987859,-0.099418245
28,1778607699.450349,0.4749058,-1.5537492,0.26684484,1.2904519,-1.5987859,-0.099418245
29,1778607699.460973,0.4749058,-1.5537492,0.26684484,1.2904519,-1.5987859,-0.099418245
30,1778607699.47123,0.4749058,-1.5537492,0.26684484,1.2904519,-1.5987859,-0.099418245
31,1778607699.48235,0.4749058,-1.5537492,0.26684484,1.2904519,-1.5987859,-0.099418245
32,1778607699.4928489,0.4749058,-1.5537492,0.26684484,1.2904519,-1.5987859,-0.099418245
33,1778607699.503275,0.4749058,-1.5537492,0.26684484,1.2904519,-1.5987859,-0.099418245
34,1778607699.51392,0.4749058,-1.5537492,0.26684484,1.2904519,-1.5987859,-0.099418245
35,1778607699.5260239,0.4749058,-1.5537492,0.26684484,1.2904519,-1.5987859,-0.099418245
36,1778607699.5355918,0.4749058,-1.5537492,0.26684484,1.2904519,-1.5987859,-0.099418245
37,1778607699.546176,0.4749058,-1.5537492,0.26684484,1.2904519,-1.5987859,-0.099418245
38,1778607699.556979,0.4749058,-1.5537492,0.26684484,1.2904519,-1.5987859,-0.099418245
39,1778607699.56805,0.4749058,-1.5537492,0.26684484,1.2904519,-1.5987859,-0.099418245
40,1778607699.5789871,0.4749058,-1.5537492,0.26684484,1.2904519,-1.5987859,-0.099418245
41,1778607699.590261,0.4749058,-1.5537492,0.26684484,1.2904519,-1.5987859,-0.099418245
42,1778607699.601064,0.4749058,-1.5537492,0.26684484,1.2904519,-1.5987859,-0.099418245
43,1778607699.612808,0.4749058,-1.5537492,0.26684484,1.2904519,-1.5987859,-0.099418245
44,1778607699.6231081,0.4749058,-1.5537492,0.26684484,1.2904519,-1.5987859,-0.099418245
45,1778607699.643179,0.4749058,-1.5537492,0.26684484,1.2904519,-1.5987859,-0.099418245
46,1778607699.6570182,0.4749058,-1.5537492,0.26684484,1.2904519,-1.5987859,-0.099418245
47,1778607699.6750631,0.4749058,-1.5537492,0.26684484,1.2904519,-1.5987859,-0.099418245
48,1778607699.690922,0.4749058,-1.5537492,0.26684484,1.2904519,-1.5987859,-0.099418245
49,1778607699.708661,0.4749058,-1.5537492,0.26684484,1.2904519,-1.5987859,-0.099418245
50,1778607699.7263849,0.4749058,-1.5537492,0.26684484,1.2904519,-1.5987859,-0.099418245
51,1778607699.741247,0.4749058,-1.5537492,0.26684484,1.2904519,-1.5987859,-0.099418245
52,1778607699.759139,0.4749058,-1.5537492,0.26684484,1.2904519,-1.5987859,-0.099418245
53,1778607699.762431,0.4749058,-1.5537492,0.26684484,1.2904519,-1.5987859,-0.099418245
54,1778607699.776387,0.4749058,-1.5537492,0.26684484,1.2904519,-1.5987859,-0.099418245
55,1778607699.791175,0.4749058,-1.5537492,0.26684484,1.2904519,-1.5987859,-0.099418245
56,1778607699.7971358,0.4749058,-1.5537492,0.26684484,1.2904519,-1.5987859,-0.099418245
57,1778607699.809074,0.4749058,-1.5537492,0.26684484,1.2904519,-1.5987859,-0.099418245
58,1778607699.82006,0.4749058,-1.5537492,0.26684484,1.2904519,-1.5987859,-0.099418245
59,1778607699.831012,0.4749058,-1.5537492,0.26684484,1.2904519,-1.5987859,-0.099418245
60,1778607699.841255,0.4749058,-1.5537492,0.26684484,1.2904519,-1.5987859,-0.099418245
61,1778607699.8516889,0.4749058,-1.5537492,0.26684484,1.2904519,-1.5987859,-0.099418245
62,1778607699.8620522,0.4749058,-1.5537492,0.26684484,1.2904519,-1.5987859,-0.099418245
63,1778607699.8728561,0.4749058,-1.5537492,0.26684484,1.2904519,-1.5987859,-0.099418245
64,1778607699.883324,0.4749058,-1.5537492,0.26684484,1.2904519,-1.5987859,-0.099418245
65,1778607699.893527,0.4749058,-1.5537492,0.26684484,1.2904519,-1.5987859,-0.099418245
66,1778607699.903886,0.4749058,-1.5537492,0.26684484,1.2904519,-1.5987859,-0.099418245
67,1778607699.914825,0.4749058,-1.5537492,0.26684484,1.2904519,-1.5987859,-0.099418245
68,1778607699.926186,0.4749058,-1.5537492,0.26684484,1.2904519,-1.5987859,-0.099418245
69,1778607699.936448,0.4749058,-1.5537492,0.26684484,1.2904519,-1.5987859,-0.099418245
70,1778607699.9467819,0.4749058,-1.5537492,0.26684484,1.2904519,-1.5987859,-0.099418245
71,1778607699.957053,0.4749058,-1.5537492,0.26684484,1.2904519,-1.5987859,-0.099418245
72,1778607699.968269,0.4749058,-1.5537492,0.26684484,1.2904519,-1.5987859,-0.099418245
73,1778607699.980531,0.4749058,-1.5537492,0.26684484,1.2904519,-1.5987859,-0.099418245
74,1778607699.991541,0.4749058,-1.5537492,0.26684484,1.2904519,-1.5987859,-0.099418245
75,1778607700.002369,0.4749058,-1.5537492,0.26684484,1.2904519,-1.5987859,-0.099418245
76,1778607700.014179,0.4749058,-1.5537492,0.26684484,1.2904519,-1.5987859,-0.099418245
77,1778607700.0251389,0.4749058,-1.5537492,0.26684484,1.2904519,-1.5987859,-0.099418245
78,1778607700.0356202,0.4749058,-1.5537492,0.26684484,1.2904519,-1.5987859,-0.099418245
79,1778607700.046431,0.4749058,-1.5537492,0.26684484,1.2904519,-1.5987859,-0.099418245
80,1778607700.056948,0.4749058,-1.5537492,0.26684484,1.2904519,-1.5987859,-0.099418245
81,1778607700.0723982,0.4749058,-1.5537492,0.26684484,1.2904519,-1.5987859,-0.099418245
82,1778607700.0951302,0.4749058,-1.5537492,0.26684484,1.2904519,-1.5987859,-0.099418245
83,1778607700.108435,0.4749058,-1.5537492,0.26684484,1.2904519,-1.5987859,-0.099418245
84,1778607700.1254709,0.4749058,-1.5537492,0.26684484,1.2904519,-1.5987859,-0.099418245
85,1778607700.1422021,0.4749058,-1.5537492,0.26684484,1.2904519,-1.5987859,-0.099418245
86,1778607700.157881,0.4749058,-1.5537492,0.26684484,1.2904519,-1.5987859,-0.099418245
87,1778607700.1642618,0.4749058,-1.5537492,0.26684484,1.2904519,-1.5987859,-0.099418245
88,1778607700.175203,0.4749058,-1.5537492,0.26684484,1.2904519,-1.5987859,-0.099418245
89,1778607700.186774,0.4749058,-1.5537492,0.26684484,1.2904519,-1.5987859,-0.099418245
90,1778607700.19562,0.4749058,-1.5537492,0.26684484,1.2904519,-1.5987859,-0.099418245
91,1778607700.2087328,0.4749058,-1.5537492,0.26684484,1.2904519,-1.5987859,-0.099418245
92,1778607700.220491,0.4749058,-1.5537492,0.26684484,1.2904519,-1.5987859,-0.099418245
93,1778607700.2296278,0.4749058,-1.5537492,0.26684484,1.2904519,-1.5987859,-0.099418245
94,1778607700.242228,0.4749058,-1.5537492,0.26684484,1.2904519,-1.5987859,-0.099418245
95,1778607700.251609,0.4749058,-1.5537492,0.26684484,1.2904519,-1.5987859,-0.099418245
96,1778607700.262187,0.4749058,-1.5537492,0.26684484,1.2904519,-1.5987859,-0.099418245
97,1778607700.273505,0.4749058,-1.5537492,0.26684484,1.2904519,-1.5987859,-0.099418245
98,1778607700.284367,0.4749058,-1.5537492,0.26684484,1.2904519,-1.5987859,-0.099418245
99,1778607700.2947881,0.4749058,-1.5537492,0.26684484,1.2904519,-1.5987859,-0.099418245
100,1778607700.305057,0.4749058,-1.5537492,0.26684484,1.2904519,-1.5987859,-0.099418245
101,1778607700.315658,0.4749058,-1.5537492,0.26684484,1.2904519,-1.5987859,-0.099418245
102,1778607700.326533,0.4749058,-1.5537492,0.26684484,1.2904519,-1.5987859,-0.099418245
103,1778607700.3378901,0.4749058,-1.5537492,0.26684484,1.2904519,-1.5987859,-0.099418245
104,1778607700.3485188,0.4749058,-1.5537492,0.26684484,1.2904519,-1.5987859,-0.099418245
105,1778607700.3592079,0.4749058,-1.5537492,0.26684484,1.2904519,-1.5987859,-0.099418245
106,1778607700.370477,0.4749058,-1.5537492,0.26684484,1.2904519,-1.5987859,-0.099418245
107,1778607700.38111,0.4749058,-1.5537492,0.26684484,1.2904519,-1.5987859,-0.099418245
108,1778607700.391478,0.4749058,-1.5537492,0.26684484,1.2904519,-1.5987859,-0.099418245
109,1778607700.4024582,0.4749058,-1.5537492,0.26684484,1.2904519,-1.5987859,-0.099418245
110,1778607700.413455,0.4749058,-1.5537492,0.26684484,1.2904519,-1.5987859,-0.099418245
111,1778607700.424095,0.4749058,-1.5537492,0.26684484,1.2904519,-1.5987859,-0.099418245
112,1778607700.439755,0.4749058,-1.5537492,0.26684484,1.2904519,-1.5987859,-0.099418245
113,1778607700.461983,0.4749058,-1.5537492,0.26684484,1.2904519,-1.5987859,-0.099418245
114,1778607700.475559,0.4749058,-1.5537492,0.26684484,1.2904519,-1.5987859,-0.099418245
115,1778607700.4913201,0.4749058,-1.5537492,0.26684484,1.2904519,-1.5987859,-0.099418245
116,1778607700.509155,0.4749058,-1.5537492,0.26684484,1.2904519,-1.5987859,-0.099418245
117,1778607700.524705,0.4749058,-1.5537492,0.26684484,1.2904519,-1.5987859,-0.099418245
118,1778607700.535522,0.4749058,-1.5537492,0.26684484,1.2904519,-1.5987859,-0.099418245
119,1778607700.546578,0.4749058,-1.5537492,0.26684484,1.2904519,-1.5987859,-0.099418245
120,1778607700.558489,0.4749058,-1.5537492,0.26684484,1.2904519,-1.5987859,-0.099418245
121,1778607700.569249,0.4749058,-1.5537492,0.26684484,1.2904519,-1.5987859,-0.099418245
122,1778607700.579938,0.4749058,-1.5537492,0.26684484,1.2904519,-1.5987859,-0.099418245
123,1778607700.594319,0.4749058,-1.5537492,0.26684484,1.2904519,-1.5987859,-0.099418245
124,1778607700.6053178,0.4749058,-1.5537492,0.26684484,1.2904519,-1.5987859,-0.099418245
125,1778607700.615896,0.4749058,-1.5537492,0.26684484,1.2904519,-1.5987859,-0.099418245
126,1778607700.626593,0.4749058,-1.5537492,0.26684484,1.2904519,-1.5987859,-0.099418245
127,1778607700.6375391,0.4749058,-1.5537492,0.26684484,1.2904519,-1.5987859,-0.099418245
128,1778607700.6481102,0.4749058,-1.5537492,0.26684484,1.2904519,-1.5987859,-0.099418245
129,1778607700.659955,0.4749058,-1.5537492,0.26684484,1.2904519,-1.5987859,-0.099418245
130,1778607700.668971,0.4749058,-1.5537492,0.26684484,1.2904519,-1.5987859,-0.099418245
131,1778607700.679347,0.4749058,-1.5537492,0.26684484,1.2904519,-1.5987859,-0.099418245
132,1778607700.690651,0.4749058,-1.5537492,0.26684484,1.2904519,-1.5987859,-0.099418245
133,1778607700.7010372,0.4749058,-1.5537492,0.26684484,1.2904519,-1.5987859,-0.099418245
134,1778607700.7115562,0.4749058,-1.5537492,0.26684484,1.2904519,-1.5987859,-0.099418245
135,1778607700.7228532,0.4749058,-1.5537492,0.26684484,1.2904519,-1.5987859,-0.099418245
136,1778607700.7338061,0.4749058,-1.5537492,0.26684484,1.2904519,-1.5987859,-0.099418245
137,1778607700.7446852,0.4749058,-1.5537492,0.26684484,1.2904519,-1.5987859,-0.099418245
138,1778607700.755979,0.4749058,-1.5537492,0.26684484,1.2904519,-1.5987859,-0.099418245
139,1778607700.768307,0.4749058,-1.5537492,0.26684484,1.2904519,-1.5987859,-0.099418245
140,1778607700.7772238,0.4749058,-1.5537492,0.26684484,1.2904519,-1.5987859,-0.099418245
141,1778607700.78821,0.4749058,-1.5537492,0.26684484,1.2904519,-1.5987859,-0.099418245
142,1778607700.7986329,0.4749058,-1.5537492,0.26684484,1.2904519,-1.5987859,-0.099418245
143,1778607700.809483,0.4749058,-1.5537492,0.26684484,1.2904519,-1.5987859,-0.099418245
144,1778607700.820238,0.4749058,-1.5537492,0.26684484,1.2904519,-1.5987859,-0.099418245
145,1778607700.831053,0.4749058,-1.5537492,0.26684484,1.2904519,-1.5987859,-0.099418245
146,1778607700.841834,0.4749058,-1.5537492,0.26684484,1.2904519,-1.5987859,-0.099418245
147,1778607700.852597,0.4749058,-1.5537492,0.26684484,1.2904519,-1.5987859,-0.099418245
148,1778607700.863213,0.4749058,-1.5537492,0.26684484,1.2904519,-1.5987859,-0.099418245
149,1778607700.873686,0.4749058,-1.5537492,0.26684484,1.2904519,-1.5987859,-0.099418245
150,1778607700.884716,0.4749058,-1.5537492,0.26684484,1.2904519,-1.5987859,-0.099418245
151,1778607700.895019,0.4749058,-1.5537492,0.26684484,1.2904519,-1.5987859,-0.099418245
152,1778607700.910825,0.4749058,-1.5537492,0.26684484,1.2904519,-1.5987859,-0.099418245
153,1778607700.923124,0.4749058,-1.5537492,0.26684484,1.2904519,-1.5987859,-0.099418245
154,1778607700.9333918,0.4749058,-1.5537492,0.26684484,1.2904519,-1.5987859,-0.099418245
155,1778607700.944475,0.4749058,-1.5537492,0.26684484,1.2904519,-1.5987859,-0.099418245
156,1778607700.957023,0.4749058,-1.5537492,0.26684484,1.2904519,-1.5987859,-0.099418245
157,1778607700.967724,0.4749058,-1.5537492,0.26684484,1.2904519,-1.5987859,-0.099418245
158,1778607700.97894,0.4749058,-1.5537492,0.26684484,1.2904519,-1.5987859,-0.099418245
159,1778607700.989795,0.4749058,-1.5537492,0.26684484,1.2904519,-1.5987859,-0.099418245
160,1778607701.000206,0.4749058,-1.5537492,0.26684484,1.2904519,-1.5987859,-0.099418245
161,1778607701.011231,0.4749058,-1.5537492,0.26684484,1.2904519,-1.5987859,-0.099418245
162,1778607701.022479,0.4749058,-1.5537492,0.26684484,1.2904519,-1.5987859,-0.099418245
163,1778607701.032468,0.4749058,-1.5537492,0.26684484,1.2904519,-1.5987859,-0.099418245
164,1778607701.043009,0.4749058,-1.5537492,0.26684484,1.2904519,-1.5987859,-0.099418245
165,1778607701.054086,0.4749058,-1.5537492,0.26684484,1.2904519,-1.5987859,-0.099418245
166,1778607701.0649679,0.4749058,-1.5537492,0.26684484,1.2904519,-1.5987859,-0.099418245
167,1778607701.0753012,0.4749058,-1.5537492,0.26684484,1.2904519,-1.5987859,-0.099418245
168,1778607701.085699,0.4749058,-1.5537492,0.26684484,1.2904519,-1.5987859,-0.099418245
169,1778607701.096543,0.4749058,-1.5537492,0.26684484,1.2904519,-1.5987859,-0.099418245
170,1778607701.107777,0.4749058,-1.5537492,0.26684484,1.2904519,-1.5987859,-0.099418245
171,1778607701.118488,0.4749058,-1.5537492,0.26684484,1.2904519,-1.5987859,-0.099418245
172,1778607701.1291,0.4749058,-1.5537492,0.26684484,1.2904519,-1.5987859,-0.099418245
173,1778607701.1397,0.4749058,-1.5537492,0.26684484,1.2904519,-1.5987859,-0.099418245
174,1778607701.150151,0.4749058,-1.5537492,0.26684484,1.2904519,-1.5987859,-0.099418245
175,1778607701.161908,0.4749058,-1.5537492,0.26684484,1.2904519,-1.5987859,-0.099418245
176,1778607701.173183,0.4749058,-1.5537492,0.26684484,1.2904519,-1.5987859,-0.099418245
177,1778607701.1833978,0.4749058,-1.5537492,0.26684484,1.2904519,-1.5987859,-0.099418245
178,1778607701.1939042,0.4749058,-1.5537492,0.26684484,1.2904519,-1.5987859,-0.099418245
179,1778607701.204366,0.4749058,-1.5537492,0.26684484,1.2904519,-1.5987859,-0.099418245
180,1778607701.214964,0.4749058,-1.5537492,0.26684484,1.2904519,-1.5987859,-0.099418245
181,1778607701.225408,0.4749058,-1.5537492,0.26684484,1.2904519,-1.5987859,-0.099418245
182,1778607701.2364402,0.4749058,-1.5537492,0.26684484,1.2904519,-1.5987859,-0.099418245
183,1778607701.24832,0.4749058,-1.5537492,0.26684484,1.2904519,-1.5987859,-0.099418245
184,1778607701.259618,0.4749058,-1.5537492,0.26684484,1.2904519,-1.5987859,-0.099418245
185,1778607701.2705789,0.4749058,-1.5537492,0.26684484,1.2904519,-1.5987859,-0.099418245
186,1778607701.281261,0.4749058,-1.5537492,0.26684484,1.2904519,-1.5987859,-0.099418245
187,1778607701.2974238,0.4749058,-1.5537492,0.26684484,1.2904519,-1.5987859,-0.099418245
188,1778607701.3162081,0.4749058,-1.5537492,0.26684484,1.2904519,-1.5987859,-0.099418245
189,1778607701.3337212,0.4749058,-1.5537492,0.26684484,1.2904519,-1.5987859,-0.099418245
190,1778607701.3445609,0.4749058,-1.5537492,0.26684484,1.2904519,-1.5987859,-0.099418245
191,1778607701.361238,0.4749058,-1.5537492,0.26684484,1.2904519,-1.5987859,-0.099418245
192,1778607701.377984,0.4749058,-1.5537492,0.26684484,1.2904519,-1.5987859,-0.099418245
193,1778607701.3953001,0.4749058,-1.5537492,0.26684484,1.2904519,-1.5987859,-0.099418245
194,1778607701.399024,0.4749058,-1.5537492,0.26684484,1.2904519,-1.5987859,-0.099418245
195,1778607701.411909,0.4749058,-1.5537492,0.26684484,1.2904519,-1.5987859,-0.099418245
196,1778607701.4231849,0.4749058,-1.5537492,0.26684484,1.2904519,-1.5987859,-0.099418245
197,1778607701.433685,0.4749058,-1.5537492,0.26684484,1.2904519,-1.5987859,-0.099418245
198,1778607701.444591,0.4749058,-1.5537492,0.26684484,1.2904519,-1.5987859,-0.099418245
199,1778607701.455064,0.4749058,-1.5537492,0.26684484,1.2904519,-1.5987859,-0.099418245
200,1778607701.4659572,0.4749058,-1.5537492,0.26684484,1.2904519,-1.5987859,-0.099418245
201,1778607701.478078,0.4749058,-1.5537492,0.26684484,1.2904519,-1.5987859,-0.099418245
202,1778607701.489374,0.4749058,-1.5537492,0.26684484,1.2904519,-1.5987859,-0.099418245
203,1778607701.500715,0.4749058,-1.5537492,0.26684484,1.2904519,-1.5987859,-0.099418245
204,1778607701.5121841,0.4749058,-1.5537492,0.26684484,1.2904519,-1.5987859,-0.099418245
205,1778607701.523285,0.4749058,-1.5537492,0.26684484,1.2904519,-1.5987859,-0.099418245
206,1778607701.534621,0.4749058,-1.5537492,0.26684484,1.2904519,-1.5987859,-0.099418245
207,1778607701.545413,0.4749058,-1.5537492,0.26684484,1.2904519,-1.5987859,-0.099418245
208,1778607701.556743,0.4749058,-1.5537492,0.26684484,1.2904519,-1.5987859,-0.099418245
209,1778607701.567884,0.4749058,-1.5537492,0.26684484,1.2904519,-1.5987859,-0.099418245
210,1778607701.5797288,0.4749058,-1.5537492,0.26684484,1.2904519,-1.5987859,-0.099418245
211,1778607701.589947,0.4749058,-1.5537492,0.26684484,1.2904519,-1.5987859,-0.099418245
212,1778607701.600564,0.4749058,-1.5537492,0.26684484,1.2904519,-1.5987859,-0.099418245
213,1778607701.6108868,0.4749058,-1.5537492,0.26684484,1.2904519,-1.5987859,-0.099418245
214,1778607701.621588,0.4749058,-1.5537492,0.26684484,1.2904519,-1.5987859,-0.099418245
215,1778607701.633344,0.4749058,-1.5537492,0.26684484,1.2904519,-1.5987859,-0.099418245
216,1778607701.6436741,0.4749058,-1.5537492,0.26684484,1.2904519,-1.5987859,-0.099418245
217,1778607701.654368,0.4749058,-1.5537492,0.26684484,1.2904519,-1.5987859,-0.099418245
218,1778607701.6650639,0.4749058,-1.5537492,0.26684484,1.2904519,-1.5987859,-0.099418245
219,1778607701.6763918,0.4749058,-1.5537492,0.26684484,1.2904519,-1.5987859,-0.099418245
220,1778607701.686848,0.4749058,-1.5537492,0.26684484,1.2904519,-1.5987859,-0.099418245
221,1778607701.698472,0.4749058,-1.5537492,0.26684484,1.2904519,-1.5987859,-0.099418245
222,1778607701.717451,0.4749058,-1.5537492,0.26684484,1.2904519,-1.5987859,-0.099418245
223,1778607701.727963,0.4749058,-1.5537492,0.26684484,1.2904519,-1.5987859,-0.099418245
224,1778607701.7521951,0.4749058,-1.5537492,0.26684484,1.2904519,-1.5987859,-0.099418245
225,1778607701.772884,0.4749058,-1.5537492,0.26684484,1.2904519,-1.5987859,-0.099418245
226,1778607701.785145,0.4749058,-1.5537492,0.26684484,1.2904519,-1.5987859,-0.099418245
227,1778607701.799422,0.4749058,-1.5537492,0.26684484,1.2904519,-1.5987859,-0.099418245
228,1778607701.81657,0.4749058,-1.5537492,0.26684484,1.2904519,-1.5987859,-0.099418245
229,1778607701.833618,0.4749058,-1.5537492,0.26684484,1.2904519,-1.5987859,-0.099418245
230,1778607701.8503082,0.4749058,-1.5537492,0.26684484,1.2904519,-1.5987859,-0.099418245
231,1778607701.8658612,0.4749058,-1.5537492,0.26684484,1.2904519,-1.5987859,-0.099418245
232,1778607701.877026,0.4749058,-1.5537492,0.26684484,1.2904519,-1.5987859,-0.099418245
233,1778607701.889306,0.4749058,-1.5537492,0.26684484,1.2904519,-1.5987859,-0.099418245
234,1778607701.899594,0.4749058,-1.5537492,0.26684484,1.2904519,-1.5987859,-0.099418245
235,1778607701.910378,0.4749058,-1.5537492,0.26684484,1.2904519,-1.5987859,-0.099418245
236,1778607701.921201,0.4749058,-1.5537492,0.26684484,1.2904519,-1.5987859,-0.099418245
237,1778607701.933082,0.4749058,-1.5537492,0.26684484,1.2904519,-1.5987859,-0.099418245
238,1778607701.9437802,0.4749058,-1.5537492,0.26684484,1.2904519,-1.5987859,-0.099418245
239,1778607701.9544692,0.4749058,-1.5537492,0.26684484,1.2904519,-1.5987859,-0.099418245
240,1778607701.965848,0.4749058,-1.5537492,0.26684484,1.2904519,-1.5987859,-0.099418245
241,1778607701.976414,0.4749058,-1.5537492,0.26684484,1.2904519,-1.5987859,-0.099418245
242,1778607701.9870012,0.4749058,-1.5537492,0.26684484,1.2904519,-1.5987859,-0.099418245
243,1778607701.998073,0.4749058,-1.5537492,0.26684484,1.2904519,-1.5987859,-0.099418245
244,1778607702.0093582,0.4749058,-1.5537492,0.26684484,1.2904519,-1.5987859,-0.099418245
245,1778607702.0198982,0.4749058,-1.5537492,0.26684484,1.2904519,-1.5987859,-0.099418245
246,1778607702.03103,0.4749058,-1.5537492,0.26684484,1.2904519,-1.5987859,-0.099418245
247,1778607702.042082,0.4749058,-1.5537492,0.26684484,1.2904519,-1.5987859,-0.099418245
248,1778607702.052453,0.4749058,-1.5537492,0.26684484,1.2904519,-1.5987859,-0.099418245
249,1778607702.062985,0.4749058,-1.5537492,0.26684484,1.2904519,-1.5987859,-0.099418245
250,1778607702.073641,0.4749058,-1.5537492,0.26684484,1.2904519,-1.5987859,-0.099418245
251,1778607702.0849879,0.4749058,-1.5537492,0.26684484,1.2904519,-1.5987859,-0.099418245
252,1778607702.095592,0.4749058,-1.5537492,0.26684484,1.2904519,-1.5987859,-0.099418245
253,1778607702.106038,0.4749058,-1.5537492,0.26684484,1.2904519,-1.5987859,-0.099418245
254,1778607702.116381,0.4749058,-1.5537492,0.26684484,1.2904519,-1.5987859,-0.099418245
255,1778607702.126542,0.4749058,-1.5537492,0.26684484,1.2904519,-1.5987859,-0.099418245
256,1778607702.137364,0.4749058,-1.5537492,0.26684484,1.2904519,-1.5987859,-0.099418245
257,1778607702.1480162,0.4749058,-1.5537492,0.26684484,1.2904519,-1.5987859,-0.099418245
258,1778607702.158714,0.4749058,-1.5537492,0.26684484,1.2904519,-1.5987859,-0.099418245
259,1778607702.1700962,0.4749058,-1.5537492,0.26684484,1.2904519,-1.5987859,-0.099418245
260,1778607702.1815639,0.4749058,-1.5537492,0.26684484,1.2904519,-1.5987859,-0.099418245
261,1778607702.2044,0.4749058,-1.5537492,0.26684484,1.2904519,-1.5987859,-0.099418245
262,1778607702.216854,0.4749058,-1.5537492,0.26684484,1.2904519,-1.5987859,-0.099418245
263,1778607702.240629,0.4749058,-1.5537492,0.26684484,1.2904519,-1.5987859,-0.099418245
264,1778607702.261656,0.4749058,-1.5537492,0.26684484,1.2904519,-1.5987859,-0.099418245
265,1778607702.27895,0.4749058,-1.5537492,0.26684484,1.2904519,-1.5987859,-0.099418245
266,1778607702.291991,0.4749058,-1.5537492,0.26684484,1.2904519,-1.5987859,-0.099418245
267,1778607702.305421,0.4749058,-1.5537492,0.26684484,1.2904519,-1.5987859,-0.099418245
268,1778607702.3259609,0.4749058,-1.5537492,0.26684484,1.2904519,-1.5987859,-0.099418245
269,1778607702.342491,0.4749058,-1.5537492,0.26684484,1.2904519,-1.5987859,-0.099418245
270,1778607702.35818,0.4749058,-1.5537492,0.26684484,1.2904519,-1.5987859,-0.099418245
271,1778607702.374989,0.4749058,-1.5537492,0.26684484,1.2904519,-1.5987859,-0.099418245
272,1778607702.3911629,0.4749058,-1.5537492,0.26684484,1.2904519,-1.5987859,-0.099418245
273,1778607702.408538,0.4749058,-1.5537492,0.26684484,1.2904519,-1.5987859,-0.099418245
274,1778607702.412194,0.4749058,-1.5537492,0.26684484,1.2904519,-1.5987859,-0.099418245
275,1778607702.424324,0.4749058,-1.5537492,0.26684484,1.2904519,-1.5987859,-0.099418245
276,1778607702.435515,0.4749058,-1.5537492,0.26684484,1.2904519,-1.5987859,-0.099418245
277,1778607702.446133,0.4749058,-1.5537492,0.26684484,1.2904519,-1.5987859,-0.099418245
278,1778607702.458796,0.4749058,-1.5537492,0.26684484,1.2904519,-1.5987859,-0.099418245
279,1778607702.46919,0.4749058,-1.5537492,0.26684484,1.2904519,-1.5987859,-0.099418245
280,1778607702.479491,0.4749058,-1.5537492,0.26684484,1.2904519,-1.5987859,-0.099418245
281,1778607702.491992,0.4749058,-1.5537492,0.26684484,1.2904519,-1.5987859,-0.099418245
282,1778607702.503264,0.4749058,-1.5537492,0.26684484,1.2904519,-1.5987859,-0.099418245
283,1778607702.514166,0.4749058,-1.5537492,0.26684484,1.2904519,-1.5987859,-0.099418245
284,1778607702.526685,0.4749058,-1.5537492,0.26684484,1.2904519,-1.5987859,-0.099418245
285,1778607702.53806,0.4749058,-1.5537492,0.26684484,1.2904519,-1.5987859,-0.099418245
286,1778607702.548888,0.4749058,-1.5537492,0.26684484,1.2904519,-1.5987859,-0.099418245
287,1778607702.559386,0.4749058,-1.5537492,0.26684484,1.2904519,-1.5987859,-0.099418245
288,1778607702.5706549,0.4749058,-1.5537492,0.26684484,1.2904519,-1.5987859,-0.099418245
289,1778607702.5815308,0.4749058,-1.5537492,0.26684484,1.2904519,-1.5987859,-0.099418245
290,1778607702.591757,0.4749058,-1.5537492,0.26684484,1.2904519,-1.5987859,-0.099418245
291,1778607702.602738,0.4749058,-1.5537492,0.26684484,1.2904519,-1.5987859,-0.099418245
292,1778607702.6132019,0.4749058,-1.5537492,0.26684484,1.2904519,-1.5987859,-0.099418245
293,1778607702.623818,0.4749058,-1.5537492,0.26684484,1.2904519,-1.5987859,-0.099418245
294,1778607702.634511,0.4749058,-1.5537492,0.26684484,1.2904519,-1.5987859,-0.099418245
295,1778607702.645227,0.4749058,-1.5537492,0.26684484,1.2904519,-1.5987859,-0.099418245
296,1778607702.6557,0.4749058,-1.5537492,0.26684484,1.2904519,-1.5987859,-0.099418245
297,1778607702.6667361,0.4749058,-1.5537492,0.26684484,1.2904519,-1.5987859,-0.099418245
298,1778607702.677074,0.4749058,-1.5537492,0.26684484,1.2904519,-1.5987859,-0.099418245
299,1778607702.688533,0.4749058,-1.5537492,0.26684484,1.2904519,-1.5987859,-0.099418245
300,1778607702.6983092,0.4749058,-1.5537492,0.26684484,1.2904519,-1.5987859,-0.099418245
301,1778607702.708554,0.4749058,-1.5537492,0.26684484,1.2904519,-1.5987859,-0.099418245
302,1778607702.719393,0.4749058,-1.5537492,0.26684484,1.2904519,-1.5987859,-0.099418245
303,1778607702.729972,0.4749058,-1.5537492,0.26684484,1.2904519,-1.5987859,-0.099418245
304,1778607702.741371,0.4749058,-1.5537492,0.26684484,1.2904519,-1.5987859,-0.099418245
305,1778607702.7518568,0.4749058,-1.5537492,0.26684484,1.2904519,-1.5987859,-0.099418245
306,1778607702.764174,0.4749058,-1.5537492,0.26684484,1.2904519,-1.5987859,-0.099418245
307,1778607702.7723699,0.4749058,-1.5537492,0.26684484,1.2904519,-1.5987859,-0.099418245
308,1778607702.783008,0.4749058,-1.5537492,0.26684484,1.2904519,-1.5987859,-0.099418245
309,1778607702.7935581,0.4749058,-1.5537492,0.26684484,1.2904519,-1.5987859,-0.099418245
310,1778607702.804621,0.4749058,-1.5537492,0.26684484,1.2904519,-1.5987859,-0.099418245
311,1778607702.828661,0.4749058,-1.5537492,0.26684484,1.2904519,-1.5987859,-0.099418245
312,1778607702.830534,0.4749058,-1.5537492,0.26684484,1.2904519,-1.5987859,-0.099418245
313,1778607702.8434792,0.4749058,-1.5537492,0.26684484,1.2904519,-1.5987859,-0.099418245
314,1778607702.865522,0.4749058,-1.5537492,0.26684484,1.2904519,-1.5987859,-0.099418245
315,1778607702.879284,0.4749058,-1.5537492,0.26684484,1.2904519,-1.5987859,-0.099418245
316,1778607702.902282,0.4749058,-1.5537492,0.26684484,1.2904519,-1.5987859,-0.099418245
317,1778607702.9127731,0.4749058,-1.5537492,0.26684484,1.2904519,-1.5987859,-0.099418245
318,1778607702.92793,0.4749058,-1.5537492,0.26684484,1.2904519,-1.5987859,-0.099418245
319,1778607702.945733,0.4749058,-1.5537492,0.26684484,1.2904519,-1.5987859,-0.099418245
320,1778607702.963103,0.4749058,-1.5537492,0.26684484,1.2904519,-1.5987859,-0.099418245
321,1778607702.981426,0.4749058,-1.5537492,0.26684484,1.2904519,-1.5987859,-0.099418245
322,1778607702.997826,0.4749058,-1.5537492,0.26684484,1.2904519,-1.5987859,-0.099418245
323,1778607703.015519,0.4749058,-1.5537492,0.26684484,1.2904519,-1.5987859,-0.099418245
324,1778607703.032771,0.4749058,-1.5537492,0.26684484,1.2904519,-1.5987859,-0.099418245
325,1778607703.049386,0.4749058,-1.5537492,0.26684484,1.2904519,-1.5987859,-0.099418245
326,1778607703.065514,0.4749058,-1.5537492,0.26684484,1.2904519,-1.5987859,-0.099418245
327,1778607703.082168,0.4749058,-1.5537492,0.26684484,1.2904519,-1.5987859,-0.099418245
328,1778607703.098608,0.4749058,-1.5537492,0.26684484,1.2904519,-1.5987859,-0.099418245
329,1778607703.113138,0.4749058,-1.5537492,0.26684484,1.2904519,-1.5987859,-0.099418245
330,1778607703.120766,0.4749058,-1.5537492,0.26684484,1.2904519,-1.5987859,-0.099418245
331,1778607703.1324642,0.4749058,-1.5537492,0.26684484,1.2904519,-1.5987859,-0.099418245
332,1778607703.143414,0.4749058,-1.5537492,0.26684484,1.2904519,-1.5987859,-0.099418245
333,1778607703.154562,0.4749058,-1.5537492,0.26684484,1.2904519,-1.5987859,-0.099418245
334,1778607703.164999,0.4749058,-1.5537492,0.26684484,1.2904519,-1.5987859,-0.099418245
335,1778607703.176231,0.4749058,-1.5537492,0.26684484,1.2904519,-1.5987859,-0.099418245
336,1778607703.1872818,0.4749058,-1.5537492,0.26684484,1.2904519,-1.5987859,-0.099418245
337,1778607703.19748,0.4749058,-1.5537492,0.26684484,1.2904519,-1.5987859,-0.099418245
338,1778607703.2077582,0.4749058,-1.5537492,0.26684484,1.2904519,-1.5987859,-0.099418245
339,1778607703.218015,0.4749058,-1.5537492,0.26684484,1.2904519,-1.5987859,-0.099418245
340,1778607703.2286668,0.4749058,-1.5537492,0.26684484,1.2904519,-1.5987859,-0.099418245
341,1778607703.239655,0.4749058,-1.5537492,0.26684484,1.2904519,-1.5987859,-0.099418245
342,1778607703.249992,0.4749058,-1.5537492,0.26684484,1.2904519,-1.5987859,-0.099418245
343,1778607703.2612312,0.4749058,-1.5537492,0.26684484,1.2904519,-1.5987859,-0.099418245
344,1778607703.271999,0.4749058,-1.5537492,0.26684484,1.2904519,-1.5987859,-0.099418245
345,1778607703.282889,0.4749058,-1.5537492,0.26684484,1.2904519,-1.5987859,-0.099418245
346,1778607703.2936509,0.4749058,-1.5537492,0.26684484,1.2904519,-1.5987859,-0.099418245
347,1778607703.304606,0.4749058,-1.5537492,0.26684484,1.2904519,-1.5987859,-0.099418245
348,1778607703.3150342,0.4749058,-1.5537492,0.26684484,1.2904519,-1.5987859,-0.099418245
349,1778607703.326306,0.4749058,-1.5537492,0.26684484,1.2904519,-1.5987859,-0.099418245
350,1778607703.33665,0.4749058,-1.5537492,0.26684484,1.2904519,-1.5987859,-0.099418245
351,1778607703.347336,0.4749058,-1.5537492,0.26684484,1.2904519,-1.5987859,-0.099418245
352,1778607703.358179,0.4749058,-1.5537492,0.26684484,1.2904519,-1.5987859,-0.099418245
353,1778607703.370123,0.4749058,-1.5537492,0.26684484,1.2904519,-1.5987859,-0.099418245
354,1778607703.381568,0.4749058,-1.5537492,0.26684484,1.2904519,-1.5987859,-0.099418245
355,1778607703.39254,0.4749058,-1.5537492,0.26684484,1.2904519,-1.5987859,-0.099418245
356,1778607703.4053,0.4749058,-1.5537492,0.26684484,1.2904519,-1.5987859,-0.099418245
357,1778607703.416395,0.4749058,-1.5537492,0.26684484,1.2904519,-1.5987859,-0.099418245
358,1778607703.43583,0.4749058,-1.5537492,0.26684484,1.2904519,-1.5987859,-0.099418245
359,1778607703.450464,0.4749058,-1.5537492,0.26684484,1.2904519,-1.5987859,-0.099418245
360,1778607703.472351,0.4749058,-1.5537492,0.26684484,1.2904519,-1.5987859,-0.099418245
361,1778607703.483571,0.4749058,-1.5537492,0.26684484,1.2904519,-1.5987859,-0.099418245
362,1778607703.494038,0.4749058,-1.5537492,0.26684484,1.2904519,-1.5987859,-0.099418245
363,1778607703.5043929,0.4749058,-1.5537492,0.26684484,1.2904519,-1.5987859,-0.099418245
364,1778607703.515148,0.4749058,-1.5537492,0.26684484,1.2904519,-1.5987859,-0.099418245
365,1778607703.538667,0.4749058,-1.5537492,0.26684484,1.2904519,-1.5987859,-0.099418245
366,1778607703.553677,0.4749058,-1.5537492,0.26684484,1.2904519,-1.5987859,-0.099418245
367,1778607703.575393,0.4749058,-1.5537492,0.26684484,1.2904519,-1.5987859,-0.099418245
368,1778607703.595653,0.4749058,-1.5537492,0.26684484,1.2904519,-1.5987859,-0.099418245
369,1778607703.612833,0.4749058,-1.5537492,0.26684484,1.2904519,-1.5987859,-0.099418245
370,1778607703.626518,0.4749058,-1.5537492,0.26684484,1.2904519,-1.5987859,-0.099418245
371,1778607703.638477,0.4749058,-1.5537492,0.26684484,1.2904519,-1.5987859,-0.099418245
372,1778607703.661772,0.4749058,-1.5537492,0.26684484,1.2904519,-1.5987859,-0.099418245
373,1778607703.674768,0.4749058,-1.5537492,0.26684484,1.2904519,-1.5987859,-0.099418245
374,1778607703.692312,0.4749058,-1.5537492,0.26684484,1.2904519,-1.5987859,-0.099418245
375,1778607703.70826,0.4749058,-1.5537492,0.26684484,1.2904519,-1.5987859,-0.099418245
376,1778607703.725138,0.4749058,-1.5537492,0.26684484,1.2904519,-1.5987859,-0.099418245
377,1778607703.741598,0.4749058,-1.5537492,0.26684484,1.2904519,-1.5987859,-0.099418245
378,1778607703.760017,0.4749058,-1.5537492,0.26684484,1.2904519,-1.5987859,-0.099418245
379,1778607703.762012,0.4749058,-1.5537492,0.26684484,1.2904519,-1.5987859,-0.099418245
380,1778607703.777055,0.4749058,-1.5537492,0.26684484,1.2904519,-1.5987859,-0.099418245
381,1778607703.792463,0.4749058,-1.5537492,0.26684484,1.2904519,-1.5987859,-0.099418245
382,1778607703.802924,0.4749058,-1.5537492,0.26684484,1.2904519,-1.5987859,-0.099418245
383,1778607703.813262,0.4749058,-1.5537492,0.26684484,1.2904519,-1.5987859,-0.099418245
384,1778607703.8268852,0.4749058,-1.5537492,0.26684484,1.2904519,-1.5987859,-0.099418245
385,1778607703.837353,0.4749058,-1.5537492,0.26684484,1.2904519,-1.5987859,-0.099418245
386,1778607703.847931,0.4749058,-1.5537492,0.26684484,1.2904519,-1.5987859,-0.099418245
387,1778607703.859377,0.4749058,-1.5537492,0.26684484,1.2904519,-1.5987859,-0.099418245
388,1778607703.870454,0.4749058,-1.5537492,0.26684484,1.2904519,-1.5987859,-0.099418245
389,1778607703.8814652,0.4749058,-1.5537492,0.26684484,1.2904519,-1.5987859,-0.099418245
390,1778607703.891936,0.4749058,-1.5537492,0.26684484,1.2904519,-1.5987859,-0.099418245
391,1778607703.903391,0.4749058,-1.5537492,0.26684484,1.2904519,-1.5987859,-0.099418245
392,1778607703.9125571,0.4749058,-1.5537492,0.26684484,1.2904519,-1.5987859,-0.099418245
393,1778607703.923378,0.4749058,-1.5537492,0.26684484,1.2904519,-1.5987859,-0.099418245
394,1778607703.9337542,0.4749058,-1.5537492,0.26684484,1.2904519,-1.5987859,-0.099418245
395,1778607703.944076,0.4749058,-1.5537492,0.26684484,1.2904519,-1.5987859,-0.099418245
396,1778607703.9544241,0.4749058,-1.5537492,0.26684484,1.2904519,-1.5987859,-0.099418245
397,1778607703.965436,0.4749058,-1.5537492,0.26684484,1.2904519,-1.5987859,-0.099418245
398,1778607703.976276,0.4749058,-1.5537492,0.26684484,1.2904519,-1.5987859,-0.099418245
399,1778607703.987325,0.4749058,-1.5537492,0.26684484,1.2904519,-1.5987859,-0.099418245
400,1778607703.998029,0.4749058,-1.5537492,0.26684484,1.2904519,-1.5987859,-0.099418245
401,1778607704.008652,0.4749058,-1.5537492,0.26684484,1.2904519,-1.5987859,-0.099418245
402,1778607704.0197089,0.4749058,-1.5537492,0.26684484,1.2904519,-1.5987859,-0.099418245
403,1778607704.031187,0.4749058,-1.5537492,0.26684484,1.2904519,-1.5987859,-0.099418245
404,1778607704.04163,0.4749058,-1.5537492,0.26684484,1.2904519,-1.5987859,-0.099418245
405,1778607704.052567,0.4749058,-1.5537492,0.26684484,1.2904519,-1.5987859,-0.099418245
406,1778607704.0658681,0.4749058,-1.5537492,0.26684484,1.2904519,-1.5987859,-0.099418245
407,1778607704.075855,0.4749058,-1.5537492,0.26684484,1.2904519,-1.5987859,-0.099418245
408,1778607704.0964851,0.4749058,-1.5537492,0.26684484,1.2904519,-1.5987859,-0.099418245
409,1778607704.1111748,0.4749058,-1.5537492,0.26684484,1.2904519,-1.5987859,-0.099418245
410,1778607704.132542,0.4749058,-1.5537492,0.26684484,1.2904519,-1.5987859,-0.099418245
411,1778607704.143331,0.4749058,-1.5537492,0.26684484,1.2904519,-1.5987859,-0.099418245
412,1778607704.153625,0.4749058,-1.5537492,0.26684484,1.2904519,-1.5987859,-0.099418245
413,1778607704.1653702,0.4749058,-1.5537492,0.26684484,1.2904519,-1.5987859,-0.099418245
414,1778607704.182678,0.4749058,-1.5537492,0.26684484,1.2904519,-1.5987859,-0.099418245
415,1778607704.1970098,0.4749058,-1.5537492,0.26684484,1.2904519,-1.5987859,-0.099418245
416,1778607704.21946,0.4749058,-1.5537492,0.26684484,1.2904519,-1.5987859,-0.099418245
417,1778607704.240184,0.4749058,-1.5537492,0.26684484,1.2904519,-1.5987859,-0.099418245
418,1778607704.2569401,0.4749058,-1.5537492,0.26684484,1.2904519,-1.5987859,-0.099418245
419,1778607704.2681768,0.4749058,-1.5537492,0.26684484,1.2904519,-1.5987859,-0.099418245
420,1778607704.284159,0.4749058,-1.5537492,0.26684484,1.2904519,-1.5987859,-0.099418245
421,1778607704.301861,0.4749058,-1.5537492,0.26684484,1.2904519,-1.5987859,-0.099418245
422,1778607704.318879,0.4749058,-1.5537492,0.26684484,1.2904519,-1.5987859,-0.099418245
423,1778607704.3349361,0.4749058,-1.5537492,0.26684484,1.2904519,-1.5987859,-0.099418245
424,1778607704.346221,0.4749058,-1.5537492,0.26684484,1.2904519,-1.5987859,-0.099418245
425,1778607704.357415,0.4749058,-1.5537492,0.26684484,1.2904519,-1.5987859,-0.099418245
426,1778607704.367779,0.4749058,-1.5537492,0.26684484,1.2904519,-1.5987859,-0.099418245
427,1778607704.378516,0.4749058,-1.5537492,0.26684484,1.2904519,-1.5987859,-0.099418245
428,1778607704.3894908,0.4749058,-1.5537492,0.26684484,1.2904519,-1.5987859,-0.099418245
429,1778607704.4014661,0.4749058,-1.5537492,0.26684484,1.2904519,-1.5987859,-0.099418245
430,1778607704.4127092,0.4749058,-1.5537492,0.26684484,1.2904519,-1.5987859,-0.099418245
431,1778607704.42321,0.4749058,-1.5537492,0.26684484,1.2904519,-1.5987859,-0.099418245
432,1778607704.433784,0.4749058,-1.5537492,0.26684484,1.2904519,-1.5987859,-0.099418245
433,1778607704.444478,0.4749058,-1.5537492,0.26684484,1.2904519,-1.5987859,-0.099418245
434,1778607704.455065,0.4749058,-1.5537492,0.26684484,1.2904519,-1.5987859,-0.099418245
435,1778607704.465665,0.4749058,-1.5537492,0.26684484,1.2904519,-1.5987859,-0.099418245
436,1778607704.476179,0.4749058,-1.5537492,0.26684484,1.2904519,-1.5987859,-0.099418245
437,1778607704.486331,0.4749058,-1.5537492,0.26684484,1.2904519,-1.5987859,-0.099418245
438,1778607704.4965959,0.4749058,-1.5537492,0.26684484,1.2904519,-1.5987859,-0.099418245
439,1778607704.5075321,0.4749058,-1.5537492,0.26684484,1.2904519,-1.5987859,-0.099418245
440,1778607704.51885,0.4749058,-1.5537492,0.26684484,1.2904519,-1.5987859,-0.099418245
441,1778607704.5299132,0.4749058,-1.5537492,0.26684484,1.2904519,-1.5987859,-0.099418245
442,1778607704.540704,0.4749058,-1.5537492,0.26684484,1.2904519,-1.5987859,-0.099418245
443,1778607704.551986,0.4749058,-1.5537492,0.26684484,1.2904519,-1.5987859,-0.099418245
444,1778607704.564276,0.4749058,-1.5537492,0.26684484,1.2904519,-1.5987859,-0.099418245
445,1778607704.573419,0.4749058,-1.5537492,0.26684484,1.2904519,-1.5987859,-0.099418245
446,1778607704.584194,0.4749058,-1.5537492,0.26684484,1.2904519,-1.5987859,-0.099418245
447,1778607704.595165,0.4749058,-1.5537492,0.26684484,1.2904519,-1.5987859,-0.099418245
448,1778607704.606623,0.4749058,-1.5537492,0.26684484,1.2904519,-1.5987859,-0.099418245
449,1778607704.617866,0.4749058,-1.5537492,0.26684484,1.2904519,-1.5987859,-0.099418245
450,1778607704.6388228,0.4749058,-1.5537492,0.26684484,1.2904519,-1.5987859,-0.099418245
451,1778607704.650822,0.4749058,-1.5537492,0.26684484,1.2904519,-1.5987859,-0.099418245
452,1778607704.674736,0.4749058,-1.5537492,0.26684484,1.2904519,-1.5987859,-0.099418245
453,1778607704.68549,0.4749058,-1.5537492,0.26684484,1.2904519,-1.5987859,-0.099418245
454,1778607704.698313,0.4749058,-1.5537492,0.26684484,1.2904519,-1.5987859,-0.099418245
455,1778607704.711755,0.4749058,-1.5537492,0.26684484,1.2904519,-1.5987859,-0.099418245
456,1778607704.72434,0.4749058,-1.5537492,0.26684484,1.2904519,-1.5987859,-0.099418245
457,1778607704.738507,0.4749058,-1.5537492,0.26684484,1.2904519,-1.5987859,-0.099418245
458,1778607704.762954,0.4749058,-1.5537492,0.26684484,1.2904519,-1.5987859,-0.099418245
459,1778607704.781482,0.4749058,-1.5537492,0.26684484,1.2904519,-1.5987859,-0.099418245
460,1778607704.791905,0.4749058,-1.5537492,0.26684484,1.2904519,-1.5987859,-0.099418245
461,1778607704.807771,0.4749058,-1.5537492,0.26684484,1.2904519,-1.5987859,-0.099418245
462,1778607704.8251278,0.4749058,-1.5537492,0.26684484,1.2904519,-1.5987859,-0.099418245
463,1778607704.841839,0.4749058,-1.5537492,0.26684484,1.2904519,-1.5987859,-0.099418245
464,1778607704.858237,0.4749058,-1.5537492,0.26684484,1.2904519,-1.5987859,-0.099418245
465,1778607704.874609,0.4749058,-1.5537492,0.26684484,1.2904519,-1.5987859,-0.099418245
466,1778607704.8900852,0.4749058,-1.5537492,0.26684484,1.2904519,-1.5987859,-0.099418245
467,1778607704.89555,0.4749058,-1.5537492,0.26684484,1.2904519,-1.5987859,-0.099418245
468,1778607704.907565,0.4749058,-1.5537492,0.26684484,1.2904519,-1.5987859,-0.099418245
469,1778607704.9188612,0.4749058,-1.5537492,0.26684484,1.2904519,-1.5987859,-0.099418245
470,1778607704.929409,0.4749058,-1.5537492,0.26684484,1.2904519,-1.5987859,-0.099418245
471,1778607704.939935,0.4749058,-1.5537492,0.26684484,1.2904519,-1.5987859,-0.099418245
472,1778607704.950486,0.4749058,-1.5537492,0.26684484,1.2904519,-1.5987859,-0.099418245
473,1778607704.9611342,0.4749058,-1.5537492,0.26684484,1.2904519,-1.5987859,-0.099418245
474,1778607704.9724128,0.4749058,-1.5537492,0.26684484,1.2904519,-1.5987859,-0.099418245
475,1778607704.983794,0.4749058,-1.5537492,0.26684484,1.2904519,-1.5987859,-0.099418245
476,1778607704.994399,0.4749058,-1.5537492,0.26684484,1.2904519,-1.5987859,-0.099418245
477,1778607705.005419,0.4749058,-1.5537492,0.26684484,1.2904519,-1.5987859,-0.099418245
478,1778607705.016703,0.4749058,-1.5537492,0.26684484,1.2904519,-1.5987859,-0.099418245
479,1778607705.027191,0.4749058,-1.5537492,0.26684484,1.2904519,-1.5987859,-0.099418245
480,1778607705.038543,0.4749058,-1.5537492,0.26684484,1.2904519,-1.5987859,-0.099418245
481,1778607705.0496929,0.4749058,-1.5537492,0.26684484,1.2904519,-1.5987859,-0.099418245
482,1778607705.060103,0.4749058,-1.5537492,0.26684484,1.2904519,-1.5987859,-0.099418245
483,1778607705.0715032,0.4749058,-1.5537492,0.26684484,1.2904519,-1.5987859,-0.099418245
484,1778607705.0825028,0.4749058,-1.5537492,0.26684484,1.2904519,-1.5987859,-0.099418245
485,1778607705.093322,0.4749058,-1.5537492,0.26684484,1.2904519,-1.5987859,-0.099418245
486,1778607705.1043782,0.4749058,-1.5537492,0.26684484,1.2904519,-1.5987859,-0.099418245
487,1778607705.1152158,0.4749058,-1.5537492,0.26684484,1.2904519,-1.5987859,-0.099418245
488,1778607705.125453,0.4749058,-1.5537492,0.26684484,1.2904519,-1.5987859,-0.099418245
489,1778607705.135864,0.4749058,-1.5537492,0.26684484,1.2904519,-1.5987859,-0.099418245
490,1778607705.146267,0.4749058,-1.5537492,0.26684484,1.2904519,-1.5987859,-0.099418245
491,1778607705.1568232,0.4749058,-1.5537492,0.26684484,1.2904519,-1.5987859,-0.099418245
492,1778607705.16783,0.4749058,-1.5537492,0.26684484,1.2904519,-1.5987859,-0.099418245
493,1778607705.1798542,0.4749058,-1.5537492,0.26684484,1.2904519,-1.5987859,-0.099418245
494,1778607705.189265,0.4749058,-1.5537492,0.26684484,1.2904519,-1.5987859,-0.099418245
495,1778607705.200017,0.4749058,-1.5537492,0.26684484,1.2904519,-1.5987859,-0.099418245
496,1778607705.211652,0.4749058,-1.5537492,0.26684484,1.2904519,-1.5987859,-0.099418245
497,1778607705.228182,0.4749058,-1.5537492,0.26684484,1.2904519,-1.5987859,-0.099418245
498,1778607705.240372,0.4749058,-1.5537492,0.26684484,1.2904519,-1.5987859,-0.099418245
499,1778607705.2643661,0.4749058,-1.5537492,0.26684484,1.2904519,-1.5987859,-0.099418245
500,1778607705.2755861,0.4749058,-1.5537492,0.26684484,1.2904519,-1.5987859,-0.099418245
501,1778607705.293855,0.4749058,-1.5537492,0.26684484,1.2904519,-1.5987859,-0.099418245
502,1778607705.308946,0.4749058,-1.5537492,0.26684484,1.2904519,-1.5987859,-0.099418245
503,1778607705.326336,0.4749058,-1.5537492,0.26684484,1.2904519,-1.5987859,-0.099418245
504,1778607705.3301399,0.4749058,-1.5537492,0.26684484,1.2904519,-1.5987859,-0.099418245
505,1778607705.3427289,0.4749058,-1.5537492,0.26684484,1.2904519,-1.5987859,-0.099418245
506,1778607705.354194,0.4749058,-1.5537492,0.26684484,1.2904519,-1.5987859,-0.099418245
507,1778607705.364804,0.4749058,-1.5537492,0.26684484,1.2904519,-1.5987859,-0.099418245
508,1778607705.3764338,0.4749058,-1.5537492,0.26684484,1.2904519,-1.5987859,-0.099418245
509,1778607705.386862,0.4749058,-1.5537492,0.26684484,1.2904519,-1.5987859,-0.099418245
510,1778607705.397229,0.4749058,-1.5537492,0.26684484,1.2904519,-1.5987859,-0.099418245
511,1778607705.4109938,0.4749058,-1.5537492,0.26684484,1.2904519,-1.5987859,-0.099418245
512,1778607705.4223502,0.4749058,-1.5537492,0.26684484,1.2904519,-1.5987859,-0.099418245
513,1778607705.4328089,0.4749058,-1.5537492,0.26684484,1.2904519,-1.5987859,-0.099418245
514,1778607705.443889,0.4749058,-1.5537492,0.26684484,1.2904519,-1.5987859,-0.099418245
515,1778607705.454668,0.4749058,-1.5537492,0.26684484,1.2904519,-1.5987859,-0.099418245
516,1778607705.465184,0.4749058,-1.5537492,0.26684484,1.2904519,-1.5987859,-0.099418245
517,1778607705.477366,0.4749058,-1.5537492,0.26684484,1.2904519,-1.5987859,-0.099418245
518,1778607705.486926,0.4749058,-1.5537492,0.26684484,1.2904519,-1.5987859,-0.099418245
519,1778607705.497395,0.4749058,-1.5537492,0.26684484,1.2904519,-1.5987859,-0.099418245
520,1778607705.508244,0.4749058,-1.5537492,0.26684484,1.2904519,-1.5987859,-0.099418245
521,1778607705.5193112,0.4749058,-1.5537492,0.26684484,1.2904519,-1.5987859,-0.099418245
522,1778607705.529666,0.4749058,-1.5537492,0.26684484,1.2904519,-1.5987859,-0.099418245
523,1778607705.540438,0.4749058,-1.5537492,0.26684484,1.2904519,-1.5987859,-0.099418245
524,1778607705.55116,0.4749058,-1.5537492,0.26684484,1.2904519,-1.5987859,-0.099418245
525,1778607705.562183,0.4749058,-1.5537492,0.26684484,1.2904519,-1.5987859,-0.099418245
526,1778607705.5726569,0.4749058,-1.5537492,0.26684484,1.2904519,-1.5987859,-0.099418245
527,1778607705.583345,0.4749058,-1.5537492,0.26684484,1.2904519,-1.5987859,-0.099418245
528,1778607705.593641,0.4749058,-1.5537492,0.26684484,1.2904519,-1.5987859,-0.099418245
529,1778607705.604405,0.4749058,-1.5537492,0.26684484,1.2904519,-1.5987859,-0.099418245
530,1778607705.614893,0.4749058,-1.5537492,0.26684484,1.2904519,-1.5987859,-0.099418245
531,1778607705.625685,0.4749058,-1.5537492,0.26684484,1.2904519,-1.5987859,-0.099418245
532,1778607705.6361458,0.4749058,-1.5537492,0.26684484,1.2904519,-1.5987859,-0.099418245
533,1778607705.647139,0.4749058,-1.5537492,0.26684484,1.2904519,-1.5987859,-0.099418245
534,1778607705.658192,0.4749058,-1.5537492,0.26684484,1.2904519,-1.5987859,-0.099418245
535,1778607705.671167,0.4749058,-1.5537492,0.26684484,1.2904519,-1.5987859,-0.099418245
536,1778607705.6827462,0.4749058,-1.5537492,0.26684484,1.2904519,-1.5987859,-0.099418245
537,1778607705.697458,0.4749058,-1.5537492,0.26684484,1.2904519,-1.5987859,-0.099418245
538,1778607705.7139359,0.4749058,-1.5537492,0.26684484,1.2904519,-1.5987859,-0.099418245
539,1778607705.731601,0.4749058,-1.5537492,0.26684484,1.2904519,-1.5987859,-0.099418245
540,1778607705.747218,0.4749058,-1.5537492,0.26684484,1.2904519,-1.5987859,-0.099418245
541,1778607705.7642088,0.4749058,-1.5537492,0.26684484,1.2904519,-1.5987859,-0.099418245
542,1778607705.779541,0.4749058,-1.5537492,0.26684484,1.2904519,-1.5987859,-0.099418245
543,1778607705.798263,0.4749058,-1.5537492,0.26684484,1.2904519,-1.5987859,-0.099418245
544,1778607705.812962,0.4749058,-1.5537492,0.26684484,1.2904519,-1.5987859,-0.099418245
545,1778607705.823873,0.4749058,-1.5537492,0.26684484,1.2904519,-1.5987859,-0.099418245
546,1778607705.8344839,0.4749058,-1.5537492,0.26684484,1.2904519,-1.5987859,-0.099418245
547,1778607705.8470569,0.4749058,-1.5537492,0.26684484,1.2904519,-1.5987859,-0.099418245
548,1778607705.857515,0.4749058,-1.5537492,0.26684484,1.2904519,-1.5987859,-0.099418245
549,1778607705.86862,0.4749058,-1.5537492,0.26684484,1.2904519,-1.5987859,-0.099418245
550,1778607705.881184,0.4749058,-1.5537492,0.26684484,1.2904519,-1.5987859,-0.099418245
551,1778607705.89249,0.4749058,-1.5537492,0.26684484,1.2904519,-1.5987859,-0.099418245
552,1778607705.9036841,0.4749058,-1.5537492,0.26684484,1.2904519,-1.5987859,-0.099418245
553,1778607705.914742,0.4749058,-1.5537492,0.26684484,1.2904519,-1.5987859,-0.099418245
554,1778607705.926053,0.4749058,-1.5537492,0.26684484,1.2904519,-1.5987859,-0.099418245
555,1778607705.937268,0.4749058,-1.5537492,0.26684484,1.2904519,-1.5987859,-0.099418245
556,1778607705.9476638,0.4749058,-1.5537492,0.26684484,1.2904519,-1.5987859,-0.099418245
557,1778607705.95848,0.4749058,-1.5537492,0.26684484,1.2904519,-1.5987859,-0.099418245
558,1778607705.969656,0.4749058,-1.5537492,0.26684484,1.2904519,-1.5987859,-0.099418245
559,1778607705.9814541,0.4749058,-1.5537492,0.26684484,1.2904519,-1.5987859,-0.099418245
560,1778607705.9904482,0.4749058,-1.5537492,0.26684484,1.2904519,-1.5987859,-0.099418245
561,1778607706.0008802,0.4749058,-1.5537492,0.26684484,1.2904519,-1.5987859,-0.099418245
562,1778607706.011275,0.4749058,-1.5537492,0.26684484,1.2904519,-1.5987859,-0.099418245
563,1778607706.021921,0.4749058,-1.5537492,0.26684484,1.2904519,-1.5987859,-0.099418245
564,1778607706.0352619,0.4749058,-1.5537492,0.26684484,1.2904519,-1.5987859,-0.099418245
565,1778607706.044432,0.4749058,-1.5537492,0.26684484,1.2904519,-1.5987859,-0.099418245
566,1778607706.0553348,0.4749058,-1.5537492,0.26684484,1.2904519,-1.5987859,-0.099418245
567,1778607706.0665972,0.4749058,-1.5537492,0.26684484,1.2904519,-1.5987859,-0.099418245
568,1778607706.077944,0.4749058,-1.5537492,0.26684484,1.2904519,-1.5987859,-0.099418245
569,1778607706.088313,0.4749058,-1.5537492,0.26684484,1.2904519,-1.5987859,-0.099418245
570,1778607706.099573,0.4749058,-1.5537492,0.26684484,1.2904519,-1.5987859,-0.099418245
571,1778607706.110334,0.4749058,-1.5537492,0.26684484,1.2904519,-1.5987859,-0.099418245
572,1778607706.1229272,0.4749058,-1.5537492,0.26684484,1.2904519,-1.5987859,-0.099418245
573,1778607706.134474,0.4749058,-1.5537492,0.26684484,1.2904519,-1.5987859,-0.099418245
574,1778607706.1494532,0.4749058,-1.5537492,0.26684484,1.2904519,-1.5987859,-0.099418245
575,1778607706.1667259,0.4749058,-1.5537492,0.26684484,1.2904519,-1.5987859,-0.099418245
576,1778607706.18294,0.4749058,-1.5537492,0.26684484,1.2904519,-1.5987859,-0.099418245
577,1778607706.19923,0.4749058,-1.5537492,0.26684484,1.2904519,-1.5987859,-0.099418245
578,1778607706.2151308,0.4749058,-1.5537492,0.26684484,1.2904519,-1.5987859,-0.099418245
579,1778607706.225507,0.4749058,-1.5537492,0.26684484,1.2904519,-1.5987859,-0.099418245
580,1778607706.236098,0.4749058,-1.5537492,0.26684484,1.2904519,-1.5987859,-0.099418245
581,1778607706.251177,0.4749058,-1.5537492,0.26684484,1.2904519,-1.5987859,-0.099418245
582,1778607706.267167,0.4749058,-1.5537492,0.26684484,1.2904519,-1.5987859,-0.099418245
583,1778607706.282859,0.4749058,-1.5537492,0.26684484,1.2904519,-1.5987859,-0.099418245
584,1778607706.289289,0.4749058,-1.5537492,0.26684484,1.2904519,-1.5987859,-0.099418245
585,1778607706.2996962,0.4749058,-1.5537492,0.26684484,1.2904519,-1.5987859,-0.099418245
586,1778607706.310356,0.4749058,-1.5537492,0.26684484,1.2904519,-1.5987859,-0.099418245
587,1778607706.320962,0.4749058,-1.5537492,0.26684484,1.2904519,-1.5987859,-0.099418245
588,1778607706.332976,0.4749058,-1.5537492,0.26684484,1.2904519,-1.5987859,-0.099418245
589,1778607706.343808,0.4749058,-1.5537492,0.26684484,1.2904519,-1.5987859,-0.099418245
590,1778607706.354666,0.4749058,-1.5537492,0.26684484,1.2904519,-1.5987859,-0.099418245
591,1778607706.3665369,0.4749058,-1.5537492,0.26684484,1.2904519,-1.5987859,-0.099418245
592,1778607706.376477,0.4749058,-1.5537492,0.26684484,1.2904519,-1.5987859,-0.099418245
593,1778607706.3873038,0.4749058,-1.5537492,0.26684484,1.2904519,-1.5987859,-0.099418245
594,1778607706.398239,0.4749058,-1.5537492,0.26684484,1.2904519,-1.5987859,-0.099418245
595,1778607706.409586,0.4749058,-1.5537492,0.26684484,1.2904519,-1.5987859,-0.099418245
596,1778607706.419904,0.4749058,-1.5537492,0.26684484,1.2904519,-1.5987859,-0.099418245
597,1778607706.430502,0.4749058,-1.5537492,0.26684484,1.2904519,-1.5987859,-0.099418245
598,1778607706.441494,0.4749058,-1.5537492,0.26684484,1.2904519,-1.5987859,-0.099418245
599,1778607706.453633,0.4749058,-1.5537492,0.26684484,1.2904519,-1.5987859,-0.099418245
600,1778607706.462734,0.4749058,-1.5537492,0.26684484,1.2904519,-1.5987859,-0.099418245
601,1778607706.4733691,0.4749058,-1.5537492,0.26684484,1.2904519,-1.5987859,-0.099418245
602,1778607706.484766,0.4749058,-1.5537492,0.26684484,1.2904519,-1.5987859,-0.099418245
603,1778607706.496511,0.4749058,-1.5537492,0.26684484,1.2904519,-1.5987859,-0.099418245
604,1778607706.506447,0.4749058,-1.5537492,0.26684484,1.2904519,-1.5987859,-0.099418245
605,1778607706.517695,0.4749058,-1.5537492,0.26684484,1.2904519,-1.5987859,-0.099418245
606,1778607706.5285718,0.4749058,-1.5537492,0.26684484,1.2904519,-1.5987859,-0.099418245
607,1778607706.5402272,0.4749058,-1.5537492,0.26684484,1.2904519,-1.5987859,-0.099418245
608,1778607706.553026,0.4749058,-1.5537492,0.26684484,1.2904519,-1.5987859,-0.099418245
609,1778607706.570803,0.4749058,-1.5537492,0.26684484,1.2904519,-1.5987859,-0.099418245
610,1778607706.58497,0.4749058,-1.5537492,0.26684484,1.2904519,-1.5987859,-0.099418245
611,1778607706.6024902,0.4749058,-1.5537492,0.26684484,1.2904519,-1.5987859,-0.099418245
612,1778607706.617965,0.4749058,-1.5537492,0.26684484,1.2904519,-1.5987859,-0.099418245
613,1778607706.636208,0.4749058,-1.5537492,0.26684484,1.2904519,-1.5987859,-0.099418245
614,1778607706.651666,0.4749058,-1.5537492,0.26684484,1.2904519,-1.5987859,-0.099418245
615,1778607706.669903,0.4749058,-1.5537492,0.26684484,1.2904519,-1.5987859,-0.099418245
616,1778607706.672905,0.4749058,-1.5537492,0.26684484,1.2904519,-1.5987859,-0.099418245
617,1778607706.685196,0.4749058,-1.5537492,0.26684484,1.2904519,-1.5987859,-0.099418245
618,1778607706.695534,0.4749058,-1.5537492,0.26684484,1.2904519,-1.5987859,-0.099418245
619,1778607706.705699,0.4749058,-1.5537492,0.26684484,1.2904519,-1.5987859,-0.099418245
620,1778607706.717118,0.4749058,-1.5537492,0.26684484,1.2904519,-1.5987859,-0.099418245
621,1778607706.728547,0.4749058,-1.5537492,0.26684484,1.2904519,-1.5987859,-0.099418245
622,1778607706.7396321,0.4749058,-1.5537492,0.26684484,1.2904519,-1.5987859,-0.099418245
623,1778607706.752063,0.4749058,-1.5537492,0.26684484,1.2904519,-1.5987859,-0.099418245
624,1778607706.7613618,0.4749058,-1.5537492,0.26684484,1.2904519,-1.5987859,-0.099418245
625,1778607706.771871,0.4749058,-1.5537492,0.26684484,1.2904519,-1.5987859,-0.099418245
626,1778607706.78316,0.4749058,-1.5537492,0.26684484,1.2904519,-1.5987859,-0.099418245
627,1778607706.7943811,0.4749058,-1.5537492,0.26684484,1.2904519,-1.5987859,-0.099418245
628,1778607706.8048,0.4749058,-1.5537492,0.26684484,1.2904519,-1.5987859,-0.099418245
629,1778607706.815725,0.4749058,-1.5537492,0.26684484,1.2904519,-1.5987859,-0.099418245
630,1778607706.826433,0.4749058,-1.5537492,0.26684484,1.2904519,-1.5987859,-0.099418245
631,1778607706.8368058,0.4749058,-1.5537492,0.26684484,1.2904519,-1.5987859,-0.099418245
632,1778607706.847842,0.4749058,-1.5537492,0.26684484,1.2904519,-1.5987859,-0.099418245
633,1778607706.858512,0.4749058,-1.5537492,0.26684484,1.2904519,-1.5987859,-0.099418245
634,1778607706.869882,0.4749058,-1.5537492,0.26684484,1.2904519,-1.5987859,-0.099418245
635,1778607706.880148,0.4749058,-1.5537492,0.26684484,1.2904519,-1.5987859,-0.099418245
636,1778607706.892128,0.4749058,-1.5537492,0.26684484,1.2904519,-1.5987859,-0.099418245
637,1778607706.903787,0.4749058,-1.5537492,0.26684484,1.2904519,-1.5987859,-0.099418245
638,1778607706.9244852,0.4749058,-1.5537492,0.26684484,1.2904519,-1.5987859,-0.099418245
639,1778607706.94308,0.4749058,-1.5537492,0.26684484,1.2904519,-1.5987859,-0.099418245
640,1778607706.959229,0.4749058,-1.5537492,0.26684484,1.2904519,-1.5987859,-0.099418245
641,1778607706.972223,0.4749058,-1.5537492,0.26684484,1.2904519,-1.5987859,-0.099418245
642,1778607706.9893608,0.4749058,-1.5537492,0.26684484,1.2904519,-1.5987859,-0.099418245
643,1778607707.004523,0.4749058,-1.5537492,0.26684484,1.2904519,-1.5987859,-0.099418245
644,1778607707.0219588,0.4749058,-1.5537492,0.26684484,1.2904519,-1.5987859,-0.099418245
645,1778607707.025861,0.4749058,-1.5537492,0.26684484,1.2904519,-1.5987859,-0.099418245
646,1778607707.0378392,0.4749058,-1.5537492,0.26684484,1.2904519,-1.5987859,-0.099418245
647,1778607707.048922,0.4749058,-1.5537492,0.26684484,1.2904519,-1.5987859,-0.099418245
648,1778607707.059541,0.4749058,-1.5537492,0.26684484,1.2904519,-1.5987859,-0.099418245
649,1778607707.072128,0.4749058,-1.5537492,0.26684484,1.2904519,-1.5987859,-0.099418245
650,1778607707.0833752,0.4749058,-1.5537492,0.26684484,1.2904519,-1.5987859,-0.099418245
651,1778607707.094631,0.4749058,-1.5537492,0.26684484,1.2904519,-1.5987859,-0.099418245
652,1778607707.105385,0.4749058,-1.5537492,0.26684484,1.2904519,-1.5987859,-0.099418245
653,1778607707.116672,0.4749058,-1.5537492,0.26684484,1.2904519,-1.5987859,-0.099418245
654,1778607707.12786,0.4749058,-1.5537492,0.26684484,1.2904519,-1.5987859,-0.099418245
655,1778607707.1380439,0.4749058,-1.5537492,0.26684484,1.2904519,-1.5987859,-0.099418245
656,1778607707.1487129,0.4749058,-1.5537492,0.26684484,1.2904519,-1.5987859,-0.099418245
657,1778607707.159293,0.4749058,-1.5537492,0.26684484,1.2904519,-1.5987859,-0.099418245
658,1778607707.1702569,0.4749058,-1.5537492,0.26684484,1.2904519,-1.5987859,-0.099418245
659,1778607707.180746,0.4749058,-1.5537492,0.26684484,1.2904519,-1.5987859,-0.099418245
660,1778607707.1911418,0.4749058,-1.5537492,0.26684484,1.2904519,-1.5987859,-0.099418245
661,1778607707.201904,0.4749058,-1.5537492,0.26684484,1.2904519,-1.5987859,-0.099418245
662,1778607707.2124622,0.4749058,-1.5537492,0.26684484,1.2904519,-1.5987859,-0.099418245
663,1778607707.223561,0.4749058,-1.5537492,0.26684484,1.2904519,-1.5987859,-0.099418245
664,1778607707.2340338,0.4749058,-1.5537492,0.26684484,1.2904519,-1.5987859,-0.099418245
665,1778607707.244822,0.4749058,-1.5537492,0.26684484,1.2904519,-1.5987859,-0.099418245
666,1778607707.256234,0.4749058,-1.5537492,0.26684484,1.2904519,-1.5987859,-0.099418245
667,1778607707.2664802,0.4749058,-1.5537492,0.26684484,1.2904519,-1.5987859,-0.099418245
668,1778607707.2767448,0.4749058,-1.5537492,0.26684484,1.2904519,-1.5987859,-0.099418245
669,1778607707.2874398,0.4749058,-1.5537492,0.26684484,1.2904519,-1.5987859,-0.099418245
670,1778607707.299964,0.4749058,-1.5537492,0.26684484,1.2904519,-1.5987859,-0.099418245
671,1778607707.30946,0.4749058,-1.5537492,0.26684484,1.2904519,-1.5987859,-0.099418245
672,1778607707.320246,0.4749058,-1.5537492,0.26684484,1.2904519,-1.5987859,-0.099418245
673,1778607707.330716,0.4749058,-1.5537492,0.26684484,1.2904519,-1.5987859,-0.099418245
674,1778607707.342297,0.4749058,-1.5537492,0.26684484,1.2904519,-1.5987859,-0.099418245
675,1778607707.359114,0.4749058,-1.5537492,0.26684484,1.2904519,-1.5987859,-0.099418245
676,1778607707.375254,0.4749058,-1.5537492,0.26684484,1.2904519,-1.5987859,-0.099418245
677,1778607707.3971672,0.4749058,-1.5537492,0.26684484,1.2904519,-1.5987859,-0.099418245
678,1778607707.415822,0.4749058,-1.5537492,0.26684484,1.2904519,-1.5987859,-0.099418245
679,1778607707.4328089,0.4749058,-1.5537492,0.26684484,1.2904519,-1.5987859,-0.099418245
680,1778607707.446041,0.4749058,-1.5537492,0.26684484,1.2904519,-1.5987859,-0.099418245
681,1778607707.460337,0.4749058,-1.5537492,0.26684484,1.2904519,-1.5987859,-0.099418245
682,1778607707.480733,0.4749058,-1.5537492,0.26684484,1.2904519,-1.5987859,-0.099418245
683,1778607707.496439,0.4749058,-1.5537492,0.26684484,1.2904519,-1.5987859,-0.099418245
684,1778607707.5142112,0.4749058,-1.5537492,0.26684484,1.2904519,-1.5987859,-0.099418245
685,1778607707.529279,0.4749058,-1.5537492,0.26684484,1.2904519,-1.5987859,-0.099418245
686,1778607707.5472682,0.4749058,-1.5537492,0.26684484,1.2904519,-1.5987859,-0.099418245
687,1778607707.5625432,0.4749058,-1.5537492,0.26684484,1.2904519,-1.5987859,-0.099418245
688,1778607707.572948,0.4749058,-1.5537492,0.26684484,1.2904519,-1.5987859,-0.099418245
689,1778607707.58357,0.4749058,-1.5537492,0.26684484,1.2904519,-1.5987859,-0.099418245
690,1778607707.596205,0.4749058,-1.5537492,0.26684484,1.2904519,-1.5987859,-0.099418245
691,1778607707.6067939,0.4749058,-1.5537492,0.26684484,1.2904519,-1.5987859,-0.099418245
692,1778607707.617532,0.4749058,-1.5537492,0.26684484,1.2904519,-1.5987859,-0.099418245
693,1778607707.629502,0.4749058,-1.5537492,0.26684484,1.2904519,-1.5987859,-0.099418245
694,1778607707.64007,0.4749058,-1.5537492,0.26684484,1.2904519,-1.5987859,-0.099418245
695,1778607707.6506429,0.4749058,-1.5537492,0.26684484,1.2904519,-1.5987859,-0.099418245
696,1778607707.6635451,0.4749058,-1.5537492,0.26684484,1.2904519,-1.5987859,-0.099418245
697,1778607707.673912,0.4749058,-1.5537492,0.26684484,1.2904519,-1.5987859,-0.099418245
698,1778607707.6846201,0.4749058,-1.5537492,0.26684484,1.2904519,-1.5987859,-0.099418245
699,1778607707.6964211,0.4749058,-1.5537492,0.26684484,1.2904519,-1.5987859,-0.099418245
700,1778607707.707754,0.4749058,-1.5537492,0.26684484,1.2904519,-1.5987859,-0.099418245
701,1778607707.718387,0.4749058,-1.5537492,0.26684484,1.2904519,-1.5987859,-0.099418245
702,1778607707.729655,0.4749058,-1.5537492,0.26684484,1.2904519,-1.5987859,-0.099418245
703,1778607707.740179,0.4749058,-1.5537492,0.26684484,1.2904519,-1.5987859,-0.099418245
704,1778607707.750775,0.4749058,-1.5537492,0.26684484,1.2904519,-1.5987859,-0.099418245
705,1778607707.7615302,0.4749058,-1.5537492,0.26684484,1.2904519,-1.5987859,-0.099418245
706,1778607707.772981,0.4749058,-1.5537492,0.26684484,1.2904519,-1.5987859,-0.099418245
707,1778607707.783648,0.4749058,-1.5537492,0.26684484,1.2904519,-1.5987859,-0.099418245
708,1778607707.7942321,0.4749058,-1.5537492,0.26684484,1.2904519,-1.5987859,-0.099418245
709,1778607707.805357,0.4749058,-1.5537492,0.26684484,1.2904519,-1.5987859,-0.099418245
710,1778607707.8163562,0.4749058,-1.5537492,0.26684484,1.2904519,-1.5987859,-0.099418245
711,1778607707.826726,0.4749058,-1.5537492,0.26684484,1.2904519,-1.5987859,-0.099418245
712,1778607707.837309,0.4749058,-1.5537492,0.26684484,1.2904519,-1.5987859,-0.099418245
713,1778607707.8486001,0.4749058,-1.5537492,0.26684484,1.2904519,-1.5987859,-0.099418245
714,1778607707.859791,0.4749058,-1.5537492,0.26684484,1.2904519,-1.5987859,-0.099418245
715,1778607707.870295,0.4749058,-1.5537492,0.26684484,1.2904519,-1.5987859,-0.099418245
716,1778607707.881619,0.4749058,-1.5537492,0.26684484,1.2904519,-1.5987859,-0.099418245
717,1778607707.892724,0.4749058,-1.5537492,0.26684484,1.2904519,-1.5987859,-0.099418245
718,1778607707.9034371,0.4749058,-1.5537492,0.26684484,1.2904519,-1.5987859,-0.099418245
719,1778607707.914859,0.4749058,-1.5537492,0.26684484,1.2904519,-1.5987859,-0.099418245
720,1778607707.934259,0.4749058,-1.5537492,0.26684484,1.2904519,-1.5987859,-0.099418245
721,1778607707.9468448,0.4749058,-1.5537492,0.26684484,1.2904519,-1.5987859,-0.099418245
722,1778607707.970357,0.4749058,-1.5537492,0.26684484,1.2904519,-1.5987859,-0.099418245
723,1778607707.9839108,0.4749058,-1.5537492,0.26684484,1.2904519,-1.5987859,-0.099418245
724,1778607707.9993339,0.4749058,-1.5537492,0.26684484,1.2904519,-1.5987859,-0.099418245
725,1778607708.016722,0.4749058,-1.5537492,0.26684484,1.2904519,-1.5987859,-0.099418245
726,1778607708.034472,0.4749058,-1.5537492,0.26684484,1.2904519,-1.5987859,-0.099418245
727,1778607708.050269,0.4749058,-1.5537492,0.26684484,1.2904519,-1.5987859,-0.099418245
728,1778607708.066679,0.4749058,-1.5537492,0.26684484,1.2904519,-1.5987859,-0.099418245
729,1778607708.0773172,0.4749058,-1.5537492,0.26684484,1.2904519,-1.5987859,-0.099418245
730,1778607708.088187,0.4749058,-1.5537492,0.26684484,1.2904519,-1.5987859,-0.099418245
731,1778607708.1001651,0.4749058,-1.5537492,0.26684484,1.2904519,-1.5987859,-0.099418245
732,1778607708.1106849,0.4749058,-1.5537492,0.26684484,1.2904519,-1.5987859,-0.099418245
733,1778607708.121013,0.4749058,-1.5537492,0.26684484,1.2904519,-1.5987859,-0.099418245
734,1778607708.13492,0.4749058,-1.5537492,0.26684484,1.2904519,-1.5987859,-0.099418245
735,1778607708.145482,0.4749058,-1.5537492,0.26684484,1.2904519,-1.5987859,-0.099418245
736,1778607708.15671,0.4749058,-1.5537492,0.26684484,1.2904519,-1.5987859,-0.099418245
737,1778607708.167148,0.4749058,-1.5537492,0.26684484,1.2904519,-1.5987859,-0.099418245
738,1778607708.1774201,0.4749058,-1.5537492,0.26684484,1.2904519,-1.5987859,-0.099418245
739,1778607708.1882071,0.4749058,-1.5537492,0.26684484,1.2904519,-1.5987859,-0.099418245
740,1778607708.199519,0.4749058,-1.5537492,0.26684484,1.2904519,-1.5987859,-0.099418245
741,1778607708.210378,0.4749058,-1.5537492,0.26684484,1.2904519,-1.5987859,-0.099418245
742,1778607708.220934,0.4749058,-1.5537492,0.26684484,1.2904519,-1.5987859,-0.099418245
743,1778607708.231345,0.4749058,-1.5537492,0.26684484,1.2904519,-1.5987859,-0.099418245
744,1778607708.242502,0.4749058,-1.5537492,0.26684484,1.2904519,-1.5987859,-0.099418245
745,1778607708.253386,0.4749058,-1.5537492,0.26684484,1.2904519,-1.5987859,-0.099418245
746,1778607708.264023,0.4749058,-1.5537492,0.26684484,1.2904519,-1.5987859,-0.099418245
747,1778607708.274817,0.4749058,-1.5537492,0.26684484,1.2904519,-1.5987859,-0.099418245
748,1778607708.2858791,0.4749058,-1.5537492,0.26684484,1.2904519,-1.5987859,-0.099418245
749,1778607708.296942,0.4749058,-1.5537492,0.26684484,1.2904519,-1.5987859,-0.099418245
750,1778607708.307482,0.4749058,-1.5537492,0.26684484,1.2904519,-1.5987859,-0.099418245
751,1778607708.318539,0.4749058,-1.5537492,0.26684484,1.2904519,-1.5987859,-0.099418245
752,1778607708.32976,0.4749058,-1.5537492,0.26684484,1.2904519,-1.5987859,-0.099418245
753,1778607708.354383,0.4749058,-1.5537492,0.26684484,1.2904519,-1.5987859,-0.099418245
754,1778607708.3562691,0.4749058,-1.5537492,0.26684484,1.2904519,-1.5987859,-0.099418245
755,1778607708.367059,0.4749058,-1.5537492,0.26684484,1.2904519,-1.5987859,-0.099418245
756,1778607708.390816,0.4749058,-1.5537492,0.26684484,1.2904519,-1.5987859,-0.099418245
757,1778607708.4043908,0.4749058,-1.5537492,0.26684484,1.2904519,-1.5987859,-0.099418245
758,1778607708.421997,0.4749058,-1.5537492,0.26684484,1.2904519,-1.5987859,-0.099418245
759,1778607708.436738,0.4749058,-1.5537492,0.26684484,1.2904519,-1.5987859,-0.099418245
760,1778607708.4547908,0.4749058,-1.5537492,0.26684484,1.2904519,-1.5987859,-0.099418245
761,1778607708.4709802,0.4749058,-1.5537492,0.26684484,1.2904519,-1.5987859,-0.099418245
762,1778607708.489404,0.4749058,-1.5537492,0.26684484,1.2904519,-1.5987859,-0.099418245
763,1778607708.492355,0.4749058,-1.5537492,0.26684484,1.2904519,-1.5987859,-0.099418245
764,1778607708.504651,0.4749058,-1.5537492,0.26684484,1.2904519,-1.5987859,-0.099418245
765,1778607708.515092,0.4749058,-1.5537492,0.26684484,1.2904519,-1.5987859,-0.099418245
766,1778607708.5261078,0.4749058,-1.5537492,0.26684484,1.2904519,-1.5987859,-0.099418245
767,1778607708.536513,0.4749058,-1.5537492,0.26684484,1.2904519,-1.5987859,-0.099418245
768,1778607708.548001,0.4749058,-1.5537492,0.26684484,1.2904519,-1.5987859,-0.099418245
769,1778607708.5585978,0.4749058,-1.5537492,0.26684484,1.2904519,-1.5987859,-0.099418245
770,1778607708.570055,0.4749058,-1.5537492,0.26684484,1.2904519,-1.5987859,-0.099418245
771,1778607708.580416,0.4749058,-1.5537492,0.26684484,1.2904519,-1.5987859,-0.099418245
772,1778607708.590933,0.4749058,-1.5537492,0.26684484,1.2904519,-1.5987859,-0.099418245
773,1778607708.601994,0.4749058,-1.5537492,0.26684484,1.2904519,-1.5987859,-0.099418245
774,1778607708.612976,0.4749058,-1.5537492,0.26684484,1.2904519,-1.5987859,-0.099418245
775,1778607708.6233659,0.4749058,-1.5537492,0.26684484,1.2904519,-1.5987859,-0.099418245
776,1778607708.6341271,0.4749058,-1.5537492,0.26684484,1.2904519,-1.5987859,-0.099418245
777,1778607708.644706,0.4749058,-1.5537492,0.26684484,1.2904519,-1.5987859,-0.099418245
778,1778607708.656806,0.4749058,-1.5537492,0.26684484,1.2904519,-1.5987859,-0.099418245
779,1778607708.666163,0.4749058,-1.5537492,0.26684484,1.2904519,-1.5987859,-0.099418245
780,1778607708.676544,0.4749058,-1.5537492,0.26684484,1.2904519,-1.5987859,-0.099418245
781,1778607708.687017,0.4749058,-1.5537492,0.26684484,1.2904519,-1.5987859,-0.099418245
782,1778607708.697911,0.4749058,-1.5537492,0.26684484,1.2904519,-1.5987859,-0.099418245
783,1778607708.710479,0.4749058,-1.5537492,0.26684484,1.2904519,-1.5987859,-0.099418245
784,1778607708.7197351,0.4749058,-1.5537492,0.26684484,1.2904519,-1.5987859,-0.099418245
785,1778607708.731977,0.4749058,-1.5537492,0.26684484,1.2904519,-1.5987859,-0.099418245
786,1778607708.741267,0.4749058,-1.5537492,0.26684484,1.2904519,-1.5987859,-0.099418245
787,1778607708.752254,0.4749058,-1.5537492,0.26684484,1.2904519,-1.5987859,-0.099418245
788,1778607708.7756999,0.4749058,-1.5537492,0.26684484,1.2904519,-1.5987859,-0.099418245
789,1778607708.788642,0.4749058,-1.5537492,0.26684484,1.2904519,-1.5987859,-0.099418245
790,1778607708.811862,0.4749058,-1.5537492,0.26684484,1.2904519,-1.5987859,-0.099418245
791,1778607708.825332,0.4749058,-1.5537492,0.26684484,1.2904519,-1.5987859,-0.099418245
792,1778607708.8406332,0.4749058,-1.5537492,0.26684484,1.2904519,-1.5987859,-0.099418245
793,1778607708.8573031,0.4749058,-1.5537492,0.26684484,1.2904519,-1.5987859,-0.099418245
794,1778607708.875926,0.4749058,-1.5537492,0.26684484,1.2904519,-1.5987859,-0.099418245
795,1778607708.891092,0.4749058,-1.5537492,0.26684484,1.2904519,-1.5987859,-0.099418245
796,1778607708.909246,0.4749058,-1.5537492,0.26684484,1.2904519,-1.5987859,-0.099418245
797,1778607708.925268,0.4749058,-1.5537492,0.26684484,1.2904519,-1.5987859,-0.099418245
798,1778607708.942092,0.4749058,-1.5537492,0.26684484,1.2904519,-1.5987859,-0.099418245
799,1778607708.946678,0.4749058,-1.5537492,0.26684484,1.2904519,-1.5987859,-0.099418245
800,1778607708.957956,0.4749058,-1.5537492,0.26684484,1.2904519,-1.5987859,-0.099418245
801,1778607708.9683998,0.4749058,-1.5537492,0.26684484,1.2904519,-1.5987859,-0.099418245
802,1778607708.97909,0.4749058,-1.5537492,0.26684484,1.2904519,-1.5987859,-0.099418245
803,1778607708.989998,0.4749058,-1.5537492,0.26684484,1.2904519,-1.5987859,-0.099418245
804,1778607709.001467,0.4749058,-1.5537492,0.26684484,1.2904519,-1.5987859,-0.099418245
805,1778607709.011677,0.4749058,-1.5537492,0.26684484,1.2904519,-1.5987859,-0.099418245
806,1778607709.022778,0.4749058,-1.5537492,0.26684484,1.2904519,-1.5987859,-0.099418245
807,1778607709.034175,0.4749058,-1.5537492,0.26684484,1.2904519,-1.5987859,-0.099418245
808,1778607709.044767,0.4749058,-1.5537492,0.26684484,1.2904519,-1.5987859,-0.099418245
809,1778607709.05559,0.4749058,-1.5537492,0.26684484,1.2904519,-1.5987859,-0.099418245
810,1778607709.066622,0.4749058,-1.5537492,0.26684484,1.2904519,-1.5987859,-0.099418245
811,1778607709.076925,0.4749058,-1.5537492,0.26684484,1.2904519,-1.5987859,-0.099418245
812,1778607709.087439,0.4749058,-1.5537492,0.26684484,1.2904519,-1.5987859,-0.099418245
813,1778607709.098397,0.4749058,-1.5537492,0.26684484,1.2904519,-1.5987859,-0.099418245
814,1778607709.109349,0.4749058,-1.5537492,0.26684484,1.2904519,-1.5987859,-0.099418245
