id,timestamp,acc_x,acc_y,acc_z,gyro_x,gyro_y,gyro_z
1,1778607436.18176,1.5035024,-2.5650277,0.054393414,4.910742,-4.308582,-4.4739738
2,1778607436.1925812,1.5035024,-2.5650277,0.054393414,4.842325,-4.501615,-4.4984083
3,1778607436.202995,1.6742442,-2.6391783,0.09537142,4.8130035,-4.546819,-4.5277295
4,1778607436.213533,1.8462054,-2.6818638,0.1331785,4.753139,-4.3782206,-4.6560116
5,1778607436.2242932,2.188908,-2.7823575,0.29904184,4.5955358,-3.2701118,-5.166694
6,1778607436.235268,2.188908,-2.7823575,0.29904184,4.5955358,-3.2701118,-5.166694
7,1778607436.245603,2.318672,-2.9931016,0.386364,4.4440413,-2.3220499,-5.9388275
8,1778607436.256276,2.219154,-3.0545685,0.45124584,4.4110546,-1.977522,-6.284577
9,1778607436.266648,2.219154,-3.0545685,0.45124584,4.4110546,-1.977522,-6.284577
10,1778607436.277201,2.0315819,-3.1977477,0.4885651,4.528341,-1.783267,-6.5839005
11,1778607436.288148,2.0152395,-3.2106752,0.4422209,4.5820966,-1.7124066,-6.572905
12,1778607436.298581,1.9488941,-3.0892048,0.19659685,4.5124583,-1.4314089,-6.4971576
13,1778607436.3087978,1.8766949,-2.938952,0.040734082,4.1496043,-1.0172426,-6.4250755
14,1778607436.320035,1.8766949,-2.938952,0.040734082,4.1496043,-1.0172426,-6.4250755
15,1778607436.330755,1.7108315,-2.6013713,-0.06756492,3.216203,-0.16203189,-6.283355
16,1778607436.341789,1.6532671,-2.476486,-0.0048783333,2.973079,0.07620538,-6.2332644
17,1778607436.3523252,1.5937514,-2.2572048,0.13366634,2.4465134,0.7225003,-6.0952086
18,1778607436.362981,1.5822874,-2.0718284,0.27928457,2.3231187,1.090241,-6.0329003
19,1778607436.3760781,1.595459,-1.9813352,0.3144086,2.326784,1.4897465,-6.1037607
20,1778607436.383759,1.6581455,-1.8198622,0.2534294,2.3231187,1.5337287,-6.1819515
21,1778607436.394429,1.6581455,-1.7483947,0.158058,2.2742496,1.5899283,-6.4592843
22,1778607436.4047182,1.5391142,-1.7157098,0.061710916,2.137416,1.6461278,-6.775712
23,1778607436.415338,1.5391142,-1.7157098,0.061710916,2.137416,1.6461278,-6.775712
24,1778607436.42608,1.2054362,-1.6632679,-0.039026666,1.888183,1.8648175,-7.093362
25,1778607436.436427,1.053964,-1.6300951,-0.07390675,1.82954,1.9601123,-7.1324573
26,1778607436.4468548,0.799071,-1.5688721,-0.11317733,1.6511675,2.1079416,-7.0774794
27,1778607436.4575639,0.64589137,-1.5181373,-0.12317792,1.5998548,2.1641412,-7.0188365
28,1778607436.468807,0.42148802,-1.4342301,-0.14415476,1.4801253,2.2484405,-6.7072954
29,1778607436.479517,0.28318727,-1.3678846,-0.16318026,1.3836087,2.1568108,-6.37132
30,1778607436.4897768,0.11708001,-1.2759281,-0.16757075,1.2993094,1.9540037,-6.080548
31,1778607436.5002828,0.0131715005,-1.2200712,-0.15635058,1.246775,1.7499748,-5.844754
32,1778607436.514434,-0.13366634,-1.1432374,-0.13537374,1.1832451,1.4408773,-5.488009
33,1778607436.522172,-0.26343,-1.0927467,-0.14171559,1.1380411,1.1439971,-5.092169
34,1778607436.532557,-0.26343,-1.0927467,-0.14171559,1.1527019,1.0169371,-4.6645637
35,1778607436.543882,-0.6229632,-1.0573788,-0.39002275,1.0451896,1.3871212,-4.0964594
36,1778607436.554239,-0.7771185,-1.0081075,-0.38270527,0.93401223,1.4616467,-3.776366
37,1778607436.571102,-1.0124981,-0.91590714,-0.29196826,0.82650006,1.085354,-3.1471753
38,1778607436.5924501,-1.1537259,-0.9098092,-0.011220166,0.8741475,-0.10461059,-2.3127341
39,1778607436.605437,-1.1607994,-0.8983451,0.0012195833,1.2980876,-1.7661628,-1.0213659
40,1778607436.6230478,-1.0961615,-0.89395463,-0.104152426,1.5839723,-1.9591961,0.17837252
41,1778607436.638975,-1.0242062,-0.90785784,-0.18220575,1.5925245,-1.5205952,0.750142
42,1778607436.654392,-1.0549396,-0.9339569,-0.39392543,1.2699878,0.093309596,2.109927
43,1778607436.6658702,-1.0549396,-0.9339569,-0.39392543,1.2699878,0.093309596,2.109927
44,1778607436.6764631,-1.0173764,-0.9842038,-0.47710103,0.5430588,1.071915,3.6236498
45,1778607436.68991,-0.94273794,-1.0212791,-0.462466,0.24495678,1.2038617,4.2174106
46,1778607436.706293,-0.47197875,-1.2520242,-0.333678,-0.5357284,1.1427753,5.793442
47,1778607436.7112231,-0.47197875,-1.2520242,-0.333678,-0.5357284,1.1427753,5.793442
48,1778607436.723117,-0.47197875,-1.2520242,-0.333678,-0.7055488,1.1366667,6.361546
49,1778607436.7343621,-0.124641426,-1.5115516,-0.17562,-0.7324269,1.2686135,6.9210978
50,1778607436.745582,0.39173016,-1.949382,-0.39441326,-0.87292576,1.5997021,8.18681
51,1778607436.7557719,0.5819852,-2.1006105,-0.5029562,-1.0574069,1.5080724,8.513012
52,1778607436.766068,0.8339511,-2.388676,-0.68540585,-1.4666864,1.1244494,8.925956
53,1778607436.7768042,1.1278707,-2.7504044,-0.81053513,-2.122755,0.5184715,9.309579
54,1778607436.788032,1.1278707,-2.7504044,-0.81053513,-2.122755,0.5184715,9.309579
55,1778607436.7989628,1.7174172,-3.5319133,-0.54490983,-3.3005023,-0.19501857,10.238093
56,1778607436.809532,1.9520651,-3.9568162,-0.403926,-3.7647595,-0.054519683,10.695021
57,1778607436.82234,1.9520651,-3.9568162,-0.403926,-4.0091057,0.1763872,11.177604
58,1778607436.8328269,2.5103903,-4.6712484,-0.026830835,-4.0530877,0.27412558,11.580774
59,1778607436.8432472,3.0523732,-5.3371406,0.1797666,-3.4947574,-0.79244435,12.2001915
60,1778607436.856252,3.0523732,-5.3371406,0.1797666,-3.4947574,-0.79244435,12.2001915
61,1778607436.864351,3.1631114,-5.468368,0.21659799,-3.370141,-0.98792106,12.267386
62,1778607436.875668,3.802417,-5.901564,0.100005835,-1.7208061,-2.8339543,12.873364
63,1778607436.885175,4.016576,-5.8413167,0.05195425,-1.0097594,-3.210247,12.924677
64,1778607436.89577,4.46026,-5.351044,-0.0248795,-0.12522727,-3.2346816,12.583815
65,1778607436.9063349,4.593683,-4.9168725,-0.09683492,0.33780822,-3.0587528,12.119557
66,1778607436.916948,4.651979,-4.043163,-0.38148567,0.79229164,-2.6702425,11.022444
67,1778607436.9273221,4.6063666,-3.304827,-0.5483247,0.75808316,-2.3452625,9.939992
68,1778607436.9377449,4.538801,-2.90895,-0.5775947,0.6383537,-2.1729987,9.342566
69,1778607436.948669,4.3251305,-2.0018241,-0.5229573,0.1924224,-1.6366595,7.676127
70,1778607436.959147,3.9607186,-1.320321,-0.3322145,-0.2669479,-0.8950696,5.89118
71,1778607436.9704452,3.9607186,-1.320321,-0.3322145,-0.2669479,-0.8950696,5.89118
72,1778607436.981101,3.047251,-0.7837042,-0.082199916,-0.7373138,0.80924314,3.4391687
73,1778607436.991991,2.678205,-0.6922355,-0.008293167,-0.87292576,1.7597487,2.6071708
74,1778607437.0024378,1.7693716,-0.5305188,0.20269476,-0.7837395,3.312567,1.7702861
75,1778607437.019721,1.5042341,-0.43978173,0.2907487,-0.5442805,3.7621634,1.6835433
76,1778607437.025405,1.3498348,-0.33782458,0.33977592,-0.19730933,3.8708973,1.7287474
77,1778607437.040225,1.3022711,-0.25708818,0.30757892,0.09224058,3.6937466,1.8179336
78,1778607437.0563142,1.4756958,-0.00048783334,0.07805333,0.6542362,2.0908375,1.8936808
79,1778607437.073227,1.5657011,0.15025267,0.0031709166,0.8032872,0.547793,1.7067562
80,1778607437.077309,1.6074109,0.21342708,-0.066345334,0.8326087,-0.4271472,1.5320488
81,1778607437.091727,1.6139966,0.25586858,-0.13147108,0.7800743,-1.6036727,1.2534945
82,1778607437.106436,1.4334983,0.245868,-0.19562118,0.35246897,-3.0001097,0.8515455
83,1778607437.1174421,1.4822817,0.20074342,-0.13439809,0.35246897,-3.0001097,0.8515455
84,1778607437.127693,1.5820435,0.1565945,0.03561183,0.03604102,-3.0746353,0.524122
85,1778607437.138815,1.5913124,0.14854525,0.149277,0.022601997,-3.0465353,0.3921752
86,1778607437.1495428,1.5925319,0.08439517,0.31635994,0.14599667,-3.3043203,-0.0
87,1778607437.162291,1.6793664,-0.0046344167,0.39538893,0.32314748,-3.884642,-0.239459
88,1778607437.1732259,1.8108373,-0.09878625,0.43270817,0.32314748,-3.884642,-0.239459
89,1778607437.183864,1.8108373,-0.09878625,0.43270817,0.48685923,-4.7679524,-0.5216785
90,1778607437.195894,2.346966,-0.6261341,0.42490283,0.50152,-7.0269303,-1.825264
91,1778607437.207989,2.409409,-0.737604,0.39880377,0.3866774,-7.186977,-2.0977097
92,1778607437.217841,2.619421,-1.1481158,0.2573321,-0.26083925,-7.013491,-2.9333727
93,1778607437.229547,2.8435805,-1.4725249,0.172693,-0.95355994,-6.5443473,-3.5307984
94,1778607437.240545,3.0282257,-1.7376624,0.17781526,-2.73362,-4.908451,-5.122712
95,1778607437.2515042,3.3038511,-2.318672,0.33343408,-2.73362,-4.908451,-5.122712
96,1778607437.2635221,3.4031255,-2.9372447,0.5556422,-3.5802784,-3.997041,-6.1000957
97,1778607437.274923,2.904072,-3.8399804,1.5008193,-4.678613,-2.3880231,-7.595493
98,1778607437.285378,2.904072,-3.8399804,1.5008193,-4.678613,-2.3880231,-7.595493
99,1778607437.296808,2.4811203,-4.382207,2.8030903,-3.591274,-0.25243986,-8.343191
100,1778607437.30806,2.2135437,-4.4165993,3.44825,-2.1105378,0.5148063,-8.480025
101,1778607437.318826,1.9596267,-4.3636694,3.5960636,-0.77396566,1.1647664,-8.44826
102,1778607437.33305,1.9606023,-4.5290446,3.2423842,1.3542873,2.3571744,-8.273553
103,1778607437.341441,1.7459556,-4.847356,3.249458,3.957793,1.8843651,-8.409164
104,1778607437.352227,1.4269125,-5.0251713,3.5660617,5.3187995,0.055435978,-8.538668
105,1778607437.370383,0.80833983,-4.98151,3.6072838,6.722567,-2.315941,-8.48369
106,1778607437.3735218,0.80833983,-4.98151,3.6072838,6.722567,-2.315941,-8.48369
107,1778607437.391178,0.275138,-4.203416,2.5982003,8.043257,-5.5339766,-7.178883
108,1778607437.40655,0.58588785,-3.9073012,2.642837,7.471487,-4.8986773,-6.8868895
109,1778607437.424213,0.81151074,-3.516059,3.4670315,6.6639237,-2.6091561,-6.7427254
110,1778607437.440206,0.75321466,-3.4660559,3.8280284,6.771436,-2.3000586,-6.682861
111,1778607437.456619,0.37221682,-3.2236028,4.0882874,7.8477798,-2.23042,-6.1159782
112,1778607437.467117,0.6073525,-3.1099377,3.7063138,8.442762,-2.0728168,-5.8239846
113,1778607437.477633,0.7898022,-2.9284637,3.3058026,8.6150255,-1.6623157,-5.7604547
114,1778607437.4903822,1.0385972,-2.7389402,2.9026084,8.480636,-0.8339831,-5.7897763
115,1778607437.501177,1.4949653,-2.5099025,2.3984327,7.7304935,1.5557199,-6.2943506
116,1778607437.511563,1.4949653,-2.5099025,2.3984327,7.7304935,1.5557199,-6.2943506
117,1778607437.522642,1.5005754,-2.488438,2.0559735,7.448274,3.0963209,-6.5338097
118,1778607437.533399,1.5005754,-2.488438,2.0559735,7.448274,3.0963209,-6.5338097
119,1778607437.5436008,1.6327783,-2.5008776,1.4234977,7.630312,4.4793186,-6.4568405
120,1778607437.555584,1.6535112,-2.4857547,1.0781116,7.647416,4.965567,-6.423854
121,1778607437.566944,1.5832632,-2.414775,0.53173834,7.560673,5.308873,-6.4250755
122,1778607437.5769758,1.4034966,-2.330136,0.15269183,7.3615313,5.387064,-6.409193
123,1778607437.590324,1.2212907,-2.242326,-0.087566085,6.731119,5.1867003,-6.090322
124,1778607437.6006231,0.90054035,-2.0596323,-0.39221802,6.731119,5.1867003,-6.090322
125,1778607437.611565,0.7351648,-1.9271855,-0.53173834,6.3438306,5.011993,-5.7580113
126,1778607437.6228218,0.4051456,-1.4878917,-0.7539464,5.4678507,4.431671,-4.993209
127,1778607437.633305,0.4051456,-1.4878917,-0.7539464,5.4678507,4.431671,-4.993209
128,1778607437.645099,0.112689495,-1.2420237,-0.77589893,4.553997,3.6485426,-4.24551
129,1778607437.656137,0.013903251,-1.188362,-0.75272685,4.3047643,3.4677267,-4.0451465
130,1778607437.666841,-0.26904008,-1.0190839,-0.5910101,3.5717263,2.986365,-3.307222
131,1778607437.678879,-0.38660794,-0.9849355,-0.38563228,3.162447,2.6430593,-2.7391176
132,1778607437.689813,-0.5073467,-1.0178642,-0.12683667,2.8985534,2.1983497,-2.1148138
133,1778607437.700444,-0.6163774,-1.0903075,0.22196417,2.8875577,1.5960369,-1.1814125
134,1778607437.712675,-0.59320533,-1.1925086,0.36685067,3.1453428,1.2649482,-0.40194902
135,1778607437.723983,-0.5168594,-1.3573962,-0.043661084,3.4434447,1.3700169,0.95172733
136,1778607437.7353191,-0.52490866,-1.3927642,-0.4066091,3.1917684,1.6131412,1.4233149
137,1778607437.74608,-0.48710158,-1.4122776,-0.67516136,2.3328927,2.073733,2.1942263
138,1778607437.7573812,-0.47685713,-1.4100822,-0.69174767,1.6975932,2.3620615,2.7623305
139,1778607437.767798,-0.4749058,-1.428376,-0.52759176,0.75808316,2.6601634,3.3218827
140,1778607437.779617,-0.4251468,-1.5105759,-0.27977243,0.23151775,2.5514295,3.866774
141,1778607437.790467,-0.3822174,-1.595459,-0.15708233,-0.005497783,2.3254094,4.277275
142,1778607437.8015091,-0.24196534,-1.7047337,-0.014635001,-0.1508836,1.7805182,4.9577785
143,1778607437.815147,0.12269009,-1.9227952,-0.24025792,-0.1423315,1.423773,5.3157454
144,1778607437.822964,0.12269009,-1.9227952,-0.24025792,-0.22663084,0.93508124,5.8435326
145,1778607437.833846,0.26367393,-2.054998,-0.46880785,-0.43554658,0.7811433,6.0512266
146,1778607437.844366,0.4170975,-2.4106283,-0.8893202,-0.90102553,0.7212786,6.339555
147,1778607437.85485,0.51807904,-2.6055179,-1.0251818,-2.1765113,0.9411899,6.9870715
148,1778607437.865751,0.63150024,-2.9933453,-1.1395786,-3.5607307,0.93996817,7.760426
149,1778607437.877432,0.82785314,-3.515327,-0.9851795,-4.4806933,0.74204797,8.45559
150,1778607437.902175,1.5532614,-4.259761,-0.15244792,-5.3615603,0.7188351,9.73352
151,1778607437.910513,2.271596,-4.751497,-0.030489584,-5.3444557,0.7163917,9.922888
152,1778607437.921412,2.271596,-4.751497,-0.030489584,-5.1917396,0.5233584,10.130582
153,1778607437.935173,2.4101405,-5.1849365,-0.275138,-5.2369437,0.09697478,10.257642
154,1778607437.942776,2.5784433,-6.2147527,-0.19098675,-5.688984,-0.9133956,11.490367
155,1778607437.965224,3.6782637,-6.675267,0.6073525,-4.9021897,-1.3214532,12.715761
156,1778607437.977777,4.139998,-6.5677004,0.7778503,-3.9089236,-1.1320852,12.675445
157,1778607437.9975522,4.5268493,-5.891807,0.22928166,-2.231489,-0.8767437,11.753038
158,1778607438.012181,4.3153734,-4.5556316,-0.21367101,-1.6426154,-1.3703225,10.1318035
159,1778607438.030038,4.1621943,-4.0843844,-0.257576,-1.5534291,-1.6537637,9.448856
160,1778607438.045551,3.8760798,-2.9584653,-0.2775772,-1.4850123,-1.9017748,8.234457
161,1778607438.064001,3.4919112,-1.9686514,-0.24318492,-1.8588616,-1.0587814,6.4299626
162,1778607438.066371,3.4919112,-1.9686514,-0.24318492,-1.8588616,-1.0587814,6.4299626
163,1778607438.078985,3.3645866,-1.7947388,-0.20147517,-2.1813982,-0.35995206,5.67249
164,1778607438.0901399,2.9870036,-1.4083749,-0.12781233,-2.1813982,-0.35995206,5.67249
165,1778607438.103924,2.7360134,-1.1729952,-0.02853825,-2.877784,1.0645846,4.653568
166,1778607438.1126468,2.4774616,-0.8837101,0.23806266,-3.3139415,1.8342742,4.07569
167,1778607438.1233878,2.1959817,-0.31245726,0.9661539,-3.2100945,1.4848596,3.2265878
168,1778607438.134055,2.1959817,-0.31245726,0.9661539,-3.2100945,1.4848596,3.2265878
169,1778607438.145509,2.2557414,0.37075335,1.3491031,-2.629773,0.48670653,2.9016078
170,1778607438.1561952,2.2557414,0.37075335,1.3491031,-1.6829325,-0.78511393,2.5534148
171,1778607438.166688,2.639666,0.7541904,0.9593243,-0.9327905,-1.3238966,1.8118249
172,1778607438.177738,2.8213842,0.86273324,0.8849297,-0.85215634,-0.9989166,1.1936297
173,1778607438.188631,2.9721246,1.0168886,0.960056,-0.85215634,-0.9989166,1.1936297
174,1778607438.1990058,3.0204203,1.0612814,1.0120102,-0.70921403,0.07742711,-0.27244568
175,1778607438.2099211,3.0989614,0.7461411,0.93615216,-0.6029235,0.9033163,-1.9144502
176,1778607438.220704,3.0989614,0.7461411,0.93615216,-0.6029235,0.9033163,-1.9144502
177,1778607438.231209,2.897974,0.5061271,0.82785314,-0.5894845,1.7658573,-2.873508
178,1778607438.2416792,2.6157622,0.24074577,0.70394355,-0.618806,2.2374449,-3.3169959
179,1778607438.252971,2.3384292,-0.3509961,0.7519951,-0.70799226,2.7774494,-3.8704393
180,1778607438.2631118,2.2725716,-0.6905281,1.103479,-0.32559094,2.6259549,-4.7280936
181,1778607438.273513,2.3191597,-1.0434755,1.3178818,0.38056874,2.202015,-5.122712
182,1778607438.284199,2.3191597,-1.0434755,1.3178818,0.38056874,2.202015,-5.122712
183,1778607438.2955031,2.3752606,-1.2429993,1.3310533,1.305418,1.8635957,-5.4867873
184,1778607438.3070788,2.5757601,-1.8198622,0.9771302,2.1520767,1.6290237,-5.8300934
185,1778607438.317605,2.813335,-2.4279466,0.31733558,2.8631232,1.5544982,-6.5484705
186,1778607438.329046,2.9462695,-2.7113776,0.23586741,2.9364269,1.8073962,-6.9039936
187,1778607438.341486,2.9462695,-2.7113776,0.23586741,2.9364269,1.8073962,-6.9039936
188,1778607438.352042,3.3492196,-3.668263,0.35197178,3.4434447,2.8128796,-7.5185237
189,1778607438.362431,3.878763,-4.6058784,0.38075393,4.6835003,3.1439683,-8.150158
190,1778607438.375252,3.878763,-4.6058784,0.38075393,5.5374894,2.6736023,-8.735367
191,1778607438.385727,4.129753,-5.0585876,0.30513975,5.5374894,2.6736023,-8.735367
192,1778607438.396385,4.3958664,-5.877904,0.0017074167,6.224101,1.3932298,-9.826371
193,1778607438.409185,4.3326917,-6.126455,-0.08732217,6.353605,0.9326378,-10.302845
194,1778607438.419754,4.0156,-6.3096366,-0.25245374,6.38537,0.4696023,-10.826967
195,1778607438.4310021,3.752414,-6.289148,-0.40563342,6.2192144,0.3828595,-10.944253
196,1778607438.442585,3.752414,-6.289148,-0.40563342,6.2192144,0.3828595,-10.944253
197,1778607438.4572601,3.2060409,-5.514224,-0.7280913,5.096445,1.0352631,-10.586287
198,1778607438.46911,2.8308969,-4.985413,-0.61369437,4.3560767,1.26617,-10.39081
199,1778607438.492875,2.7523556,-4.8988223,-0.57735074,4.257117,1.2735003,-10.361488
200,1778607438.499095,1.6608287,-3.9953551,-0.0863465,3.6352563,0.5600103,-9.786054
201,1778607438.51365,1.2505608,-3.6453347,0.114153,3.7953029,-0.15103632,-9.083559
202,1778607438.531564,1.0956737,-3.4916673,-0.08268775,3.8979282,-0.2206749,-8.994373
203,1778607438.537292,0.6383299,-3.4250777,-0.30782285,3.9003716,0.0004581486,-9.0713415
204,1778607438.5480661,0.22781818,-3.4697146,-0.55076385,3.6572475,0.23014331,-9.035912
205,1778607438.5601761,-0.54076326,-3.3206813,-0.6217436,3.378693,0.49525863,-8.846543
206,1778607438.570705,-1.3915446,-3.135061,-0.6705269,3.1416776,0.8996511,-8.065859
207,1778607438.580904,-1.6544868,-3.1079862,-0.8129743,2.9168794,0.96806794,-7.376803
208,1778607438.593556,-2.2994025,-2.8565083,-1.0910393,2.1887286,0.93752474,-5.958375
209,1778607438.602217,-2.581858,-2.6384468,-0.9883504,1.5497639,0.9741766,-4.670672
210,1778607438.613211,-2.9584653,-2.2852554,-0.46441734,0.8167262,0.80557793,-1.7556254
211,1778607438.624346,-2.8969982,-2.1996405,-0.2534294,0.82405657,0.32665995,0.24923283
212,1778607438.634766,-2.8969982,-2.1996405,-0.2534294,0.82405657,0.32665995,0.24923283
213,1778607438.645451,-2.6108842,-2.186713,-0.140496,0.9657772,-0.03619374,1.7702861
214,1778607438.656679,-2.0237765,-2.2128122,-0.12415359,1.1074978,-0.24999641,3.0836453
215,1778607438.667155,-1.056647,-2.2018359,-0.3931937,1.238223,-0.31474808,4.6462374
216,1778607438.678443,-0.605889,-2.1350026,-0.5778386,1.0293071,-0.31352636,4.9602222
217,1778607438.68963,-0.46978348,-2.075487,-0.7010165,0.64079714,-0.319635,5.1483684
218,1778607438.699949,-0.3919741,-2.0296307,-0.8266336,0.2669479,-0.3037525,5.30475
219,1778607438.7102451,-0.37660733,-2.072804,-0.9663978,-0.3243692,-0.25488332,5.596743
220,1778607438.720526,-0.4080726,-2.1913474,-1.1342125,-1.3164136,-0.23655738,6.2369294
221,1778607438.730965,0.0026830835,-2.5135612,-0.90346736,-2.2876885,-0.36606073,6.9467545
222,1778607438.741333,0.0026830835,-2.5135612,-0.90346736,-3.202764,-0.52855074,7.673683
223,1778607438.75184,0.37929043,-2.784065,-0.5873514,-3.989558,-0.6323978,8.436043
224,1778607438.763211,0.69857734,-3.017493,-0.3731925,-4.1630435,-0.5994111,8.680388
225,1778607438.773896,1.2195834,-3.4031255,-0.041221917,-4.229017,-0.319635,9.252158
226,1778607438.786011,1.3220284,-3.4919112,-0.00048783334,-4.229017,-0.319635,9.252158
227,1778607438.79775,1.7608345,-4.472212,-0.27221102,-4.320647,0.21426082,10.169677
228,1778607438.8058581,1.7608345,-4.472212,-0.27221102,-4.320647,0.21426082,10.169677
229,1778607438.816395,1.917429,-5.5949607,-0.0017074167,-4.968163,0.87277305,12.023041
230,1778607438.827456,2.0935369,-6.009131,0.2122075,-5.045132,1.2710569,12.730422
231,1778607438.8386161,2.4535577,-6.5452595,0.4941752,-5.0402455,1.8635957,13.580746
232,1778607438.850239,3.1194503,-6.9840655,0.8322436,-4.802008,2.5233297,14.195275
233,1778607438.8690062,4.057554,-6.974797,1.1651899,-3.9186976,2.5929682,13.732241
234,1778607438.881376,4.313422,-6.267195,1.299588,-3.211316,1.8574871,12.984542
235,1778607438.905715,4.2934213,-4.870772,1.0925028,-1.797775,-0.35506517,11.247242
236,1778607438.917771,3.9470596,-3.3758066,0.7412628,-0.7849612,-2.6164865,8.696271
237,1778607438.934137,3.1387198,-2.1925669,0.66296554,-0.5503892,-3.0245442,7.705448
238,1778607438.950593,2.9306588,-1.9354787,0.6656486,-0.027488915,-2.32938,5.016422
239,1778607438.9682078,2.2723277,-1.489843,0.35367918,0.031154104,-0.1375973,3.49659
240,1778607438.9719381,2.0101173,-1.3691043,0.25074634,-0.17898338,1.1085669,3.0262241
241,1778607438.984006,1.6457058,-1.214705,0.14147167,-0.4893027,2.2374449,2.733009
242,1778607438.994808,1.4113019,-1.0832338,0.1419595,-0.80939585,3.1830637,2.5497496
243,1778607439.005437,1.2771477,-0.9883504,0.14976484,-1.0146464,3.7450593,2.461785
244,1778607439.015766,1.0934784,-0.79102176,0.17171735,-1.291979,4.3461504,2.3701553
245,1778607439.027125,0.9832281,-0.60905993,0.17927876,-1.4703516,4.5880527,2.3200645
246,1778607439.037749,0.9310299,-0.4492945,0.15830192,-1.5839723,4.575835,2.2895212
247,1778607439.050443,0.93956697,-0.3261166,0.12366576,-1.6817107,4.464658,2.240652
248,1778607439.0612202,0.96810526,-0.21952501,0.083907336,-1.8527529,4.2337513,2.127031
249,1778607439.071826,1.001522,-0.10854292,0.082199916,-2.123977,3.8427975,1.9095633
250,1778607439.0832372,1.0666476,-0.01975725,0.17488825,-2.5002697,3.2759151,1.5051708
251,1778607439.09333,1.0666476,-0.01975725,0.17488825,-2.5002697,3.2759151,1.5051708
252,1778607439.103949,1.1086012,0.011464084,0.27099144,-2.6554291,2.9448264,1.2363904
253,1778607439.114597,1.1398226,0.0600035,0.51881075,-2.7091854,2.3669484,0.5558869
254,1778607439.125294,1.1242119,0.0248795,0.5612523,-2.6212208,2.24111,0.27000225
255,1778607439.135508,1.0734773,-0.009268833,0.570765,-2.5271475,2.2288928,0.037873615
256,1778607439.145827,1.0490856,-0.06658925,0.6144261,-2.5271475,2.2288928,0.037873615
257,1778607439.1565282,0.9888382,-0.07049192,0.6968699,-2.3512185,2.3205225,-0.2761109
258,1778607439.16701,0.910541,-0.0307335,0.8695629,-2.0360124,2.36817,-0.42394015
259,1778607439.1800299,0.9473723,-0.030489584,0.9754228,-1.6584979,2.2765403,-0.5290089
260,1778607439.188052,1.0578667,-0.08781,1.0090833,-1.1246021,2.029751,-0.76235926
261,1778607439.19919,1.1683608,-0.21611017,0.9610317,-0.74097896,1.7658573,-1.0409136
262,1778607439.209772,1.179581,-0.26440567,0.94054264,-0.5760455,1.6216933,-1.1899645
263,1778607439.221843,1.1749467,-0.37977824,0.94176227,0.22174391,0.9766201,-1.7592906
264,1778607439.2315872,1.1559211,-0.5817413,1.0281088,0.22174391,0.9766201,-1.7592906
265,1778607439.242126,1.1786054,-0.6895524,1.1120161,0.6469058,0.80557793,-1.883907
266,1778607439.2528708,1.1786054,-0.6895524,1.1120161,1.174693,0.59421873,-1.9743149
267,1778607439.263947,1.2129976,-0.77614284,1.129822,2.2852452,0.13729186,-2.1209226
268,1778607439.2749472,1.4269125,-1.0939662,1.0337188,2.5955644,-0.048411034,-2.1795654
269,1778607439.2856178,1.9237708,-1.6086304,0.79029,3.4055712,-0.7044798,-2.5680754
270,1778607439.2965178,2.3942862,-2.151101,0.51807904,3.8490589,-1.1333069,-3.307222
271,1778607439.326565,2.7955291,-3.2806792,0.16976601,4.187478,-0.9524909,-6.0842133
272,1778607439.330488,2.7955291,-3.2806792,0.16976601,4.187478,-0.9524909,-6.0842133
273,1778607439.342767,2.5977125,-3.7019231,0.07000408,4.1715956,-0.47845984,-6.902772
274,1778607439.356262,2.0491438,-4.159511,0.104396336,4.255895,0.755487,-7.3694725
275,1778607439.3695638,1.8423026,-4.2631755,0.19366984,4.5332274,1.5496112,-7.142231
276,1778607439.388705,2.0325575,-4.3890367,0.34953257,5.642558,1.8379394,-6.807477
277,1778607439.4035919,2.1530523,-4.483188,0.33611718,6.2082186,1.4164428,-6.916211
278,1778607439.4142258,2.1401248,-4.5392895,0.131715,6.938813,0.25335616,-7.3487034
279,1778607439.4246058,2.1401248,-4.5392895,0.131715,6.938813,0.25335616,-7.3487034
280,1778607439.438165,1.8254724,-4.343668,-0.143423,7.0316644,-1.6110032,-7.7763085
281,1778607439.448545,1.6003373,-4.1282897,-0.2617226,6.7201233,-2.4197881,-7.84106
282,1778607439.459188,1.5003314,-3.9951112,-0.29587093,6.382926,-2.9634578,-7.8459473
283,1778607439.4710138,1.4044722,-3.7985144,-0.29587093,5.6938705,-3.72093,-7.828843
284,1778607439.4819999,1.3266628,-3.6426516,-0.2222081,5.103775,-4.146092,-7.8227344
285,1778607439.492588,1.2047045,-3.389466,-0.0012195833,4.1996956,-4.380664,-7.7421002
286,1778607439.503365,1.2047045,-3.389466,-0.0012195833,4.1996956,-4.380664,-7.7421002
287,1778607439.514744,1.0534761,-3.1577451,0.11903133,3.731773,-4.0886707,-7.5588408
288,1778607439.525972,1.0293283,-3.1033518,0.13000758,3.614487,-3.9689412,-7.4733195
289,1778607439.538078,0.8827344,-2.8987057,0.12512925,3.4483316,-3.757582,-7.398794
290,1778607439.549352,0.7193103,-2.730647,0.12269009,3.321272,-3.563327,-7.3120513
291,1778607439.559989,0.5283235,-2.5360017,0.11171384,3.2137597,-3.3385286,-7.1642222
292,1778607439.570966,0.34319076,-2.3396487,0.06512575,3.1135778,-3.0648613,-6.9455323
293,1778607439.581868,0.21635409,-2.189884,0.00219525,3.021948,-2.8095198,-6.7341733
294,1778607439.5925,0.04463675,-1.9449916,-0.1243975,2.7947063,-2.320828,-6.3053465
295,1778607439.602884,-0.0658575,-1.7220517,-0.19464551,2.4819436,-1.801593,-5.845976
296,1778607439.6136699,-0.19830425,-1.4378887,-0.2122075,2.1019857,-1.1760675,-5.1789117
297,1778607439.6239061,-0.25855166,-1.2822698,-0.24123359,1.8894048,-0.8486439,-4.75375
298,1778607439.636309,-0.3012371,-1.179581,-0.27684543,1.7159191,-0.7130319,-4.47153
299,1778607439.647312,-0.36660674,-1.0871366,-0.2912365,1.5485423,-0.7289144,-4.233293
300,1778607439.658926,-0.4300251,-1.0227425,-0.30392018,1.4227041,-0.85475254,-4.051255
301,1778607439.670701,-0.5256404,-0.9437136,-0.36367974,1.174693,-1.2200497,-3.7079492
302,1778607439.681254,-0.5573496,-0.9178584,-0.38782752,0.62735814,-1.7661628,-2.9956808
303,1778607439.693181,-0.7232129,-0.7673619,-0.46880785,0.31459537,-1.8993313,-2.5497496
304,1778607439.702209,-0.7232129,-0.7673619,-0.46880785,0.31459537,-1.8993313,-2.5497496
305,1778607439.712692,-0.7671179,-0.69296724,-0.5197864,-0.026267186,-1.9115486,-2.0586143
306,1778607439.72298,-0.7561417,-0.68589365,-0.5266161,-0.56627166,-1.6806418,-1.2864813
307,1778607439.733568,-0.7561417,-0.68589365,-0.5266161,-0.56627166,-1.6806418,-1.2864813
308,1778607439.745733,-0.6612581,-0.66613644,-0.5202743,-1.4752384,-0.89262617,-0.07208204
309,1778607439.755018,-0.6612581,-0.66613644,-0.5202743,-1.4752384,-0.89262617,-0.07208204
310,1778607439.77596,-0.6549163,-0.6490623,-0.4961265,-2.457509,0.06887501,1.1227695
311,1778607439.788474,-0.7607761,-0.7002848,-0.45124584,-2.9743006,0.5734493,1.8851287
312,1778607439.81197,-0.71077317,-0.924932,-0.3319706,-3.862498,1.3016001,3.6896234
313,1778607439.8239958,-0.65369666,-1.0142055,-0.30538365,-3.9920013,1.3639083,3.9877253
314,1778607439.8419552,-0.5290553,-1.1864107,-0.26294217,-4.3524117,1.4262166,4.85271
315,1778607439.8586,-0.25416118,-1.51643,-0.23318435,-4.77513,1.2331833,5.761677
316,1778607439.875283,0.019513333,-1.8730361,-0.18610841,-5.241831,0.62598366,6.717069
317,1778607439.892023,0.5353971,-2.4503868,-0.061710916,-5.4544115,0.12751803,7.3609204
318,1778607439.908427,0.83297545,-2.6582038,-0.03609967,-5.570476,-0.40759954,8.206357
319,1778607439.913012,0.83297545,-2.6582038,-0.03609967,-5.570476,-0.40759954,8.206357
320,1778607439.9246342,1.2920266,-2.9872475,-0.16171674,-5.5900235,-0.45280352,8.423825
321,1778607439.935364,1.5022827,-3.19726,-0.2695279,-5.927221,0.0016798781,8.51179
322,1778607439.946147,1.5832632,-3.4553235,-0.36514327,-6.29374,0.2790125,8.539889
323,1778607439.959071,1.7391258,-3.785343,-0.38782752,-6.8154182,0.44394597,8.7048235
324,1778607439.970325,2.0174348,-4.033162,-0.27855286,-7.477596,0.59666216,8.853874
325,1778607439.980706,2.4903893,-4.282689,-0.122934,-7.8856535,0.75915223,8.743918
326,1778607439.9922829,2.9111454,-4.341473,-0.07000408,-8.595478,1.65468,7.8263993
327,1778607440.0035489,2.9111454,-4.341473,-0.07000408,-8.595478,1.65468,7.8263993
328,1778607440.0150568,2.8772411,-4.3461075,-0.2646496,-9.878294,3.9209883,6.568018
329,1778607440.02547,2.7850406,-4.3426924,-0.2646496,-10.291239,4.667465,6.2674727
330,1778607440.0367239,2.5986881,-4.372206,-0.22562292,-11.406678,6.6405582,5.5576477
331,1778607440.048059,2.4847791,-4.366596,0.016342416,-12.478135,8.445053,4.640129
332,1778607440.05888,2.4847791,-4.366596,0.016342416,-12.478135,8.445053,4.640129
333,1778607440.0702012,2.3716018,-4.1968303,0.6549163,-13.304024,10.247104,2.476446
334,1778607440.081342,2.3618453,-4.099508,0.84200037,-13.255155,10.415703,1.8081597
335,1778607440.092264,1.9949944,-3.2504337,1.5269184,-11.1977625,9.663117,-1.5051708
336,1778607440.102626,1.9949944,-3.2504337,1.5269184,-11.1977625,9.663117,-1.5051708
337,1778607440.112917,1.9949944,-3.2504337,1.5269184,-11.1977625,9.663117,-1.5051708
338,1778607440.123292,1.5120394,-2.567467,1.3434931,-8.720095,8.215367,-3.1508405
339,1778607440.134441,1.4632561,-2.1050007,1.1547015,-6.613833,6.4487467,-4.006051
340,1778607440.144786,1.5371628,-1.905721,1.1781175,-5.68654,5.164709,-4.4202175
341,1778607440.155141,1.5371628,-1.905721,1.1781175,-5.68654,5.164709,-4.4202175
342,1778607440.1660311,1.5415534,-1.6322904,1.0288405,-3.988336,1.7292055,-5.524661
343,1778607440.1769412,1.5415534,-1.6322904,1.0288405,-3.988336,1.7292055,-5.524661
344,1778607440.187928,1.5415534,-1.6322904,1.0288405,-3.988336,1.7292055,-5.524661
345,1778607440.198696,1.1759223,-1.5830191,0.4610025,-3.7122252,-0.83887005,-6.4385147
346,1778607440.209546,1.1759223,-1.5830191,0.4610025,-3.7122252,-0.83887005,-6.4385147
347,1778607440.221976,0.9495676,-1.7174172,0.24464841,-4.689609,-0.4650208,-6.532588
348,1778607440.2314298,0.84224427,-1.7832749,0.28123593,-5.1074405,0.10674862,-6.478832
349,1778607440.242571,0.6363786,-2.0276792,0.8871249,-5.796496,2.1800237,-6.460506
350,1778607440.253727,0.6363786,-2.0276792,0.8871249,-5.796496,2.1800237,-6.460506
351,1778607440.265472,0.035367917,-2.0218253,1.5120394,-5.0475755,2.955822,-6.47761
352,1778607440.2761211,0.035367917,-2.0218253,1.5120394,-5.0475755,2.955822,-6.47761
353,1778607440.287178,-0.23855051,-1.8993791,1.6918061,-4.4574804,2.9533784,-6.2393727
354,1778607440.2998981,-0.7232129,-1.466671,1.9271855,-2.1423028,2.24111,-4.794067
355,1778607440.308583,-0.71760285,-1.3615428,1.8357168,0.010384701,1.2869394,-3.4416122
356,1778607440.3296041,-0.7383357,-1.188362,1.2973927,0.8484912,0.9460768,-2.913825
357,1778607440.342026,-0.92517596,-0.9178584,0.3905106,1.4617994,0.37675086,-1.7421863
358,1778607440.3658571,-0.9610317,-0.6788201,0.04049017,1.1514801,0.09575305,-0.38117963
359,1778607440.3783119,-0.95468986,-0.63150024,0.016586334,1.0464114,0.07131846,-0.074525505
360,1778607440.395401,-0.86614805,-0.49002862,0.05683258,0.75686145,0.037110034,1.1435388
361,1778607440.4114938,-0.65052575,-0.48075974,0.078785084,0.78862643,-0.020311253,2.0268493
362,1778607440.4158988,-0.65052575,-0.48075974,0.078785084,0.87292576,-0.11438443,2.5717406
363,1778607440.4286919,-0.53808016,-0.49954134,0.04268542,0.93889916,-0.2121228,2.9345944
364,1778607440.439287,-0.3466056,-0.5617401,-0.04170975,1.0085378,-0.4356993,3.4135125
365,1778607440.450498,-0.24830718,-0.62662196,-0.089517415,1.0622939,-0.6189587,3.7336056
366,1778607440.462348,-0.10220108,-0.79370487,-0.1009815,1.4373648,-1.1443025,4.482526
367,1778607440.472905,-0.10220108,-0.79370487,-0.1009815,1.6438371,-1.4277437,4.7806277
368,1778607440.483454,0.037563168,-1.0320115,-0.43368387,1.9065089,-1.9482005,5.270541
369,1778607440.4937952,0.0512225,-1.1164066,-0.6422326,1.9346087,-2.3672538,5.7176943
370,1778607440.504952,0.0512225,-1.1164066,-0.6422326,1.9346087,-2.3672538,5.7176943
371,1778607440.5158699,0.3275801,-1.4539872,-1.1771418,1.3237439,-2.9768968,6.6779737
372,1778607440.528234,0.456612,-1.6049716,-1.3298336,0.8118393,-2.989114,7.023723
373,1778607440.539826,0.7732159,-1.8866955,-1.3591037,-0.30237806,-2.8791585,7.5735016
374,1778607440.550865,1.121285,-2.1391492,-1.1693364,-1.1954623,-2.7630942,7.909477
375,1778607440.562525,1.612777,-2.5899072,-0.37221682,-2.3023493,-2.2414155,8.189253
376,1778607440.574066,1.612777,-2.5899072,-0.37221682,-2.3023493,-2.2414155,8.189253
377,1778607440.584919,1.7074167,-2.9721246,0.049515083,-2.1423028,-1.3507748,8.366404
378,1778607440.596041,1.7015628,-3.0187128,0.058783915,-2.0958772,-1.2041672,8.409164
379,1778607440.608278,1.653999,-3.2914116,0.040002335,-1.9614868,-0.20723587,8.837992
380,1778607440.6190872,1.7357111,-3.4789836,0.07658983,-2.0494514,0.6357575,9.301027
381,1778607440.63098,2.0737796,-3.5021555,0.38685185,-2.2253804,1.388343,9.665103
382,1778607440.6425111,2.0737796,-3.5021555,0.38685185,-2.2253804,1.388343,9.665103
383,1778607440.649556,2.2408626,-3.3911736,0.626378,-2.0958772,1.4115558,9.523382
384,1778607440.66067,2.4396546,-3.0545685,0.9124923,-1.8478659,1.3101523,9.290031
385,1778607440.6717901,2.4396546,-3.0545685,0.9124923,-1.2272273,0.9619593,8.687719
386,1778607440.683198,2.3613572,-2.5886877,0.87419736,0.06536253,0.1226311,7.5099716
387,1778607440.6944692,2.3613572,-2.5886877,0.87419736,0.06536253,0.1226311,7.5099716
388,1778607440.705119,2.1267095,-2.2089093,0.602962,1.1539235,-0.7313579,6.339555
389,1778607440.717559,2.002068,-2.0818288,0.44709927,1.5265511,-1.0575596,5.8117676
390,1778607440.7260559,2.002068,-2.0818288,0.44709927,1.5265511,-1.0575596,5.8117676
391,1778607440.736602,1.7905924,-1.8874272,0.190255,1.8625267,-1.4350741,4.82461
392,1778607440.747218,1.6886351,-1.803276,0.09903017,1.8576398,-1.4253002,4.2589493
393,1778607440.758427,1.6000934,-1.7298571,0.0024391667,1.7806709,-1.3471096,3.8557785
394,1778607440.782918,1.2566587,-1.3720312,-0.15878975,1.0574069,-0.27198756,3.054324
395,1778607440.795084,1.1200653,-1.2615371,-0.15635058,0.79106987,0.30955574,2.976133
396,1778607440.8188329,1.0195717,-1.0807948,-0.104152426,0.34025168,1.5202898,3.0592108
397,1778607440.830518,1.0261574,-1.0259135,-0.06683317,0.21074834,1.8990259,3.0958626
398,1778607440.8482308,1.1200653,-0.82858497,-0.021708583,-0.011606431,2.55876,3.0873106
399,1778607440.863764,1.2744646,-0.61223084,-0.07122366,-0.19486587,2.7713408,2.7745478
400,1778607440.874835,1.2744646,-0.61223084,-0.07122366,-0.19486587,2.7713408,2.7745478
401,1778607440.885369,1.4864283,-0.5822291,-0.25074634,-0.61025393,2.5331035,2.1355832
402,1778607440.898029,1.4842329,-0.52124995,-0.31806734,-1.007316,2.3840525,1.7385212
403,1778607440.909278,1.4239855,-0.42319545,-0.30196884,-1.4789037,2.282649,1.3622285
404,1778607440.919913,1.326175,-0.33904418,-0.17879093,-1.8845178,2.3083053,1.0665699
405,1778607440.931297,1.3251992,-0.2953831,0.0048783333,-2.122755,2.4207044,0.8588759
406,1778607440.942127,1.4508163,-0.28416294,0.18610841,-2.1471896,2.6027422,0.6572905
407,1778607440.952478,1.6727805,-0.30099317,0.22269592,-1.9675955,2.9081745,0.27244568
408,1778607440.963715,2.086707,-0.48978466,0.08902958,-1.8771875,3.3809838,-0.7843504
409,1778607440.974625,2.086707,-0.48978466,0.08902958,-1.8771875,3.3809838,-0.7843504
410,1778607440.985013,2.1854935,-0.6395495,0.11708001,-1.7880012,4.4072366,-2.1942263
411,1778607440.996514,2.0998785,-0.8578549,0.29806617,-1.5436553,4.9509063,-3.0017896
412,1778607441.0078971,2.0623155,-0.936884,0.395145,-1.2614357,5.046201,-3.4306166
413,1778607441.018461,1.993531,-1.0800631,0.6100356,-0.84238255,4.9276934,-3.8227918
414,1778607441.029258,1.9801155,-1.264464,0.8005345,-0.06780599,4.4671016,-4.3041534
415,1778607441.040649,1.9584069,-1.4349618,0.8951742,0.88758653,3.7120726,-4.7464194
416,1778607441.0510552,1.9388937,-1.5417973,0.8749291,2.854571,1.279609,-5.6504993
417,1778607441.0616739,1.9369422,-1.7483947,0.7093097,3.4226754,0.14462224,-6.087878
418,1778607441.0726678,1.9952384,-1.9549922,0.503444,3.4226754,0.14462224,-6.087878
419,1778607441.082914,2.0910976,-2.344527,0.23391607,3.9846709,-1.7319543,-7.053045
420,1778607441.0935428,2.0910976,-2.344527,0.23391607,3.9846709,-1.7319543,-7.053045
421,1778607441.1045382,2.3106227,-2.847971,0.14952092,4.0457573,-3.066083,-7.941242
422,1778607441.116477,2.4952674,-3.076277,0.17025384,3.956571,-3.527897,-8.387174
423,1778607441.127996,2.4952674,-3.076277,0.17025384,3.956571,-3.527897,-8.387174
424,1778607441.1388018,2.9113894,-3.648018,0.067321,3.4984226,-3.4924667,-9.605238
425,1778607441.1495512,3.1755512,-4.138534,-0.11927526,3.1600034,-2.8327327,-10.173342
426,1778607441.161983,3.2121387,-4.3270817,-0.21635409,2.8631232,-2.0715952,-10.515427
427,1778607441.1725702,3.2540925,-4.5890484,-0.2987979,2.4220788,-0.4637991,-10.87095
428,1778607441.18296,3.33678,-4.880041,-0.38099784,2.0494514,2.115272,-11.072535
429,1778607441.195471,3.2926311,-4.9041886,-0.3802661,2.0237951,2.9717045,-11.12507
430,1778607441.204013,3.1836004,-4.885895,-0.3392881,2.0237951,2.9717045,-11.12507
431,1778607441.2143989,3.0482266,-4.803939,-0.19635291,2.0616686,3.4176357,-11.165386
432,1778607441.225266,3.0482266,-4.803939,-0.19635291,2.4013095,3.2636979,-11.226473
433,1778607441.2377431,2.3455026,-4.534167,0.043661084,2.8496842,2.589303,-11.241134
434,1778607441.2463338,1.8183988,-4.3117146,0.10512808,3.3224936,1.6192498,-11.138509
435,1778607441.25693,1.4756958,-4.1439004,0.083907336,3.5570657,1.0169371,-11.010227
436,1778607441.267649,1.0578667,-3.8899832,0.0012195833,3.735438,0.28512114,-10.721899
437,1778607441.278233,0.72613996,-3.5845993,-0.08415125,3.735438,0.28512114,-10.721899
438,1778607441.301672,0.07000408,-2.6013713,-0.228306,3.0488262,-0.94149536,-8.873422
439,1778607441.304547,0.07000408,-2.6013713,-0.228306,3.0488262,-0.94149536,-8.873422
440,1778607441.317157,-0.006341833,-2.321843,-0.18196183,2.7470589,-0.9402736,-8.360295
441,1778607441.337044,-0.24489233,-1.8271798,-0.15854584,2.2791364,-0.753349,-7.4061246
442,1778607441.352431,-0.63979346,-1.1939721,-0.14659391,1.7831143,-0.37705627,-6.3529935
443,1778607441.369349,-0.8310241,-0.9217611,-0.14000817,1.5888593,-0.18280129,-5.8154325
444,1778607441.3854878,-1.0412803,-0.57881427,-0.16269243,1.206458,0.07864884,-4.7464194
445,1778607441.4017432,-1.1839715,-0.31855518,-0.14561825,1.0109812,0.19349141,-4.277275
446,1778607441.4182458,-1.2151929,-0.18684018,-0.09976192,0.3988947,0.6345358,-2.6438227
447,1778607441.422623,-1.2151929,-0.18684018,-0.09976192,0.3988947,0.6345358,-2.6438227
448,1778607441.4341571,-1.1805567,-0.050978586,-0.01097625,0.076358095,0.95585066,-1.3561198
449,1778607441.444538,-1.1537259,-0.029757833,0.011464084,-0.0006108648,1.0389283,-0.90652335
450,1778607441.4552891,-1.115187,-0.023172084,0.050734665,-0.09834923,1.162323,-0.16859868
451,1778607441.468553,-1.1025034,-0.052198168,0.05512517,-0.16798781,1.2380702,0.43737918
452,1778607441.479418,-1.0693307,-0.12122658,0.06073525,-0.2498437,1.2722787,1.0567961
453,1778607441.489812,-1.0439633,-0.21635409,0.09683492,-0.33047783,1.2539526,1.7055345
454,1778607441.501288,-0.93005425,-0.36197233,0.2697718,-0.2828304,1.0780237,3.081202
455,1778607441.511882,-0.81687695,-0.44661143,0.333678,-0.11911863,0.9766201,3.7433794
456,1778607441.52289,-0.81687695,-0.44661143,0.333678,-0.11911863,0.9766201,3.7433794
457,1778607441.5358531,-0.532714,-0.62662196,0.35855752,0.3830122,0.84100807,4.8991356
458,1778607441.54416,-0.38953492,-0.71760285,0.32977533,0.6994402,0.8483385,5.4538007
459,1778607441.55458,-0.251722,-0.81151074,0.27879676,0.8668171,0.9008728,5.733577
460,1778607441.56498,-0.114153,-0.9100531,0.21732976,1.0341941,0.9998329,6.0426745
461,1778607441.577364,-0.114153,-0.9100531,0.21732976,1.142928,1.0682498,6.278468
462,1778607441.587649,0.22269592,-1.0893319,0.09610317,1.2247839,1.0340414,6.4360714
463,1778607441.5986109,0.31050593,-1.1359199,0.0658575,1.2638792,0.9436334,6.475167
464,1778607441.611247,0.44270876,-1.229096,-0.005366167,1.3286309,0.72005683,6.4617276
465,1778607441.623413,0.49076036,-1.3134913,-0.076102,1.3579524,0.5184715,6.415302
466,1778607441.6344519,0.4422209,-1.6530234,-0.22415942,1.2956442,0.23014331,6.509375
467,1778607441.645752,0.4422209,-1.6530234,-0.22415942,1.2956442,0.23014331,6.509375
468,1778607441.657888,0.43075684,-2.11988,-0.28611428,1.1001675,0.055435978,7.0945835
469,1778607441.6669319,0.4873455,-2.3491614,-0.2180615,1.0830632,0.12140937,7.50875
470,1778607441.679768,0.5966202,-2.544051,-0.20757309,1.0830632,0.12140937,7.50875
471,1778607441.6901069,0.8756608,-2.780162,-0.4012429,1.3213005,0.74326974,8.49102
472,1778607441.700565,1.299588,-3.0782285,-0.8485861,0.74097896,1.1843141,8.71704
473,1778607441.7133372,1.299588,-3.0782285,-0.8485861,0.74097896,1.1843141,8.71704
474,1778607441.724928,1.3442248,-3.190918,-0.95859253,0.022601997,1.3993385,8.723149
475,1778607441.738869,1.3351998,-3.4797153,-0.82346267,-1.6181808,1.7792964,8.910073
476,1778607441.755018,1.3212966,-3.9148626,-0.40026724,-2.869232,2.04319,9.272927
477,1778607441.777594,1.3237357,-4.141217,-0.14586218,-3.15756,2.1482587,9.594242
478,1778607441.7904499,1.8323021,-4.6851516,0.04268542,-3.1771078,2.2032366,10.1354685
479,1778607441.80357,2.2430577,-4.9866323,-0.24781933,-3.5216355,1.875813,10.097595
480,1778607441.82056,2.3169644,-5.007365,-0.25538075,-3.9309149,1.6155846,9.977865
481,1778607441.836454,2.3042808,-4.747106,0.11732392,-4.314538,1.3150392,9.849584
482,1778607441.853719,2.3911152,-4.220002,0.41417053,-3.9602363,1.2173008,9.731076
483,1778607441.857861,2.3911152,-4.220002,0.41417053,-3.9602363,1.2173008,9.731076
484,1778607441.869623,2.523562,-3.7980263,0.43051293,-3.601048,1.351691,9.496504
485,1778607441.8809311,2.6825955,-3.345561,0.3434347,-3.3579237,1.5483896,9.183742
486,1778607441.892041,2.8069932,-2.8623621,0.18537667,-3.22109,2.0150902,8.17337
487,1778607441.902393,2.7755277,-1.853035,0.0746385,-3.758651,2.544099,6.3175635
488,1778607441.912842,2.7260127,-1.6208262,0.21586627,-3.9651232,2.684598,5.5723085
489,1778607441.925846,2.7260127,-1.6208262,0.21586627,-3.9651232,2.684598,5.5723085
490,1778607441.935934,2.5896633,-1.1166505,0.78955823,-3.8698285,2.8092144,3.437947
491,1778607441.9465752,2.455753,-0.9705444,0.9961557,-3.5472918,2.698037,2.6096144
492,1778607441.959998,2.0445094,-0.77175236,1.2276326,-2.561356,2.138485,1.1313215
493,1778607441.969296,1.7157098,-0.714188,1.2186077,-1.8124357,1.5312853,0.41416633
494,1778607441.97948,1.7157098,-0.714188,1.2186077,-1.8124357,1.5312853,0.41416633
495,1778607441.990002,1.2064118,-0.6685756,0.99298483,-0.52961975,0.17027856,-0.29810202
496,1778607442.000614,0.99444824,-0.588327,0.7515073,-0.26939136,-0.14370593,-0.37384924
497,1778607442.011337,0.9502994,-0.5427146,0.6329638,0.3817905,-0.9781472,-0.5082395
498,1778607442.022261,0.9502994,-0.5427146,0.6329638,0.6884446,-1.4509566,-0.57665634
499,1778607442.032898,0.9239564,-0.48368677,0.45295325,0.90224725,-1.8480186,-0.6401863
500,1778607442.043859,0.9239564,-0.48368677,0.45295325,1.0354158,-2.1864378,-0.7073814
501,1778607442.054556,1.0629889,-0.480028,0.30806676,1.1246021,-2.672686,-0.95417076
502,1778607442.065384,1.115187,-0.45807552,0.22562292,1.0891719,-2.7435465,-1.1484258
503,1778607442.075735,1.1705562,-0.4607586,0.12366576,1.0891719,-2.7435465,-1.1484258
504,1778607442.086727,1.1815324,-0.47832057,0.05683258,0.71043575,-2.5651739,-1.671326
505,1778607442.0971498,1.1637264,-0.48807728,0.04414892,0.4893027,-2.4075708,-1.8631376
506,1778607442.1080582,1.1420178,-0.50807846,0.06561358,0.023823727,-1.945757,-2.1673481
507,1778607442.118648,1.1105527,-0.5100298,0.07195542,-0.2131918,-1.4973823,-2.307847
508,1778607442.130978,1.1417739,-0.5353971,0.14025208,-0.6224712,-1.0600032,-2.4471242
509,1778607442.142432,1.2488533,-0.60930383,0.27733323,-0.89247346,-0.7179188,-2.642601
510,1778607442.161759,1.5486269,-0.81419384,0.62589014,-0.9572251,-0.26343542,-3.3854127
511,1778607442.192406,1.6052155,-1.3322729,0.7634592,-0.102014415,0.1311832,-5.238776
512,1778607442.213653,1.3312972,-1.7169294,0.97420317,0.82405657,-0.28542656,-6.021905
513,1778607442.2208169,1.2671471,-1.8749874,1.0417681,1.4740167,-0.62751085,-6.1966124
514,1778607442.238775,1.3864224,-2.2162268,0.9956678,2.7311764,-1.2298235,-6.5020447
515,1778607442.2554328,2.0135322,-3.2423842,0.40709692,3.8747153,-1.5853468,-7.323047
516,1778607442.272085,2.1828103,-3.7160707,0.15391143,3.8905978,-1.7991495,-8.01088
517,1778607442.2883708,2.1010983,-4.2178073,0.4944191,3.6584692,-2.6971207,-8.884418
518,1778607442.293677,2.1010983,-4.2178073,0.4944191,3.6584692,-2.6971207,-8.884418
519,1778607442.306911,1.8657186,-4.805646,0.99200904,3.8319547,-4.231613,-9.594242
520,1778607442.322752,1.6949768,-4.9351664,1.1773858,3.9858928,-4.407542,-9.594242
521,1778607442.327787,1.6949768,-4.9351664,1.1773858,3.9858928,-4.407542,-9.594242
522,1778607442.3399649,1.6630238,-5.0302935,1.2329987,4.3023205,-3.211469,-9.180076
523,1778607442.3503911,1.7430286,-4.9802904,1.0037171,4.3023205,-3.211469,-9.180076
524,1778607442.360775,1.7361989,-4.7632046,1.0549396,4.0530877,-1.00136,-8.440929
525,1778607442.3711429,1.7515656,-4.3802557,1.829863,3.9736755,-0.7166971,-8.279661
526,1778607442.384353,1.8925494,-4.3036656,2.1950061,4.48558,-0.56642437,-7.7005615
527,1778607442.391801,1.8925494,-4.3036656,2.1950061,4.48558,-0.56642437,-7.7005615
528,1778607442.402124,2.0918293,-4.2622,2.5567346,5.2332788,-0.7509055,-7.633366
529,1778607442.4129012,2.397945,-3.9853544,2.7240615,6.7384496,-0.7948878,-7.8166256
530,1778607442.423281,2.397945,-3.9853544,2.7240615,6.7384496,-0.7948878,-7.8166256
531,1778607442.434602,2.6767414,-3.5946,2.3537958,6.7592187,0.7994693,-8.39206
532,1778607442.4457731,2.60503,-3.4897156,2.326965,6.5600767,1.5496112,-8.7048235
533,1778607442.455921,2.3655038,-3.5689886,2.4018474,6.437904,2.6491678,-9.096998
534,1778607442.467167,2.0828044,-3.6575303,2.283304,6.575959,3.3565493,-9.122655
535,1778607442.4780219,1.829863,-3.6485054,2.0401192,6.575959,3.3565493,-9.122655
536,1778607442.48836,1.6679022,-3.509473,1.5905806,6.8508487,4.799412,-8.263779
537,1778607442.499681,1.6276559,-3.3989787,1.454475,6.826414,5.104844,-8.01088
538,1778607442.510229,1.6693656,-3.2328715,1.1864107,6.7885404,5.890416,-7.4415545
539,1778607442.5205388,1.6525356,-3.1389635,1.0607935,6.8435183,6.5220504,-7.1031356
540,1778607442.531546,1.6525356,-3.1389635,1.0607935,6.8435183,6.5220504,-7.1031356
541,1778607442.543474,1.3908129,-3.0389578,0.5658867,7.1025248,6.828705,-6.6938562
542,1778607442.554121,0.898833,-2.8443122,0.037563168,7.223476,6.756623,-6.447067
543,1778607442.564955,0.6951625,-2.6940596,-0.21781757,7.30411,6.2508264,-5.303528
544,1778607442.575775,0.535641,-2.507707,-0.44002566,7.188046,6.022363,-4.829497
545,1778607442.588856,0.42929336,-2.3367217,-0.5905222,6.9143786,5.7645783,-4.173428
546,1778607442.5970821,0.3100181,-2.086707,-0.74053097,6.4892163,5.581319,-3.5246897
547,1778607442.6079948,0.21854934,-1.7779086,-0.8207796,5.796496,5.395616,-2.7940955
548,1778607442.618944,0.17488825,-1.6030204,-0.8149256,5.158753,5.2306824,-2.2956297
549,1778607442.631077,0.029513916,-1.3427613,-0.45880726,4.0494227,4.8311768,-1.4355322
550,1778607442.642654,0.029513916,-1.3427613,-0.45880726,4.0494227,4.8311768,-1.4355322
551,1778607442.6582909,-0.12781233,-1.3127595,-0.033416584,3.8062985,4.332711,-0.68905544
552,1778607442.672002,-0.22684251,-1.2825139,-0.0131715005,3.8649414,4.2080946,-0.505796
553,1778607442.697697,-0.822487,-0.9637148,-0.46295384,3.803855,2.8764095,1.4526365
554,1778607442.7155662,-0.6393056,-0.90273565,-0.6617459,2.7079635,2.4072654,2.7733262
555,1778607442.728053,-0.515152,-0.85907453,-0.64564747,1.9150611,2.359618,3.243692
556,1778607442.7424,-0.50588316,-0.84126866,-0.5688137,1.3274091,2.3510659,3.555233
557,1778607442.7528691,-0.5290553,-0.84321994,-0.4300251,0.96699893,2.3156357,3.7971354
558,1778607442.763597,-0.6480866,-1.0629889,-0.20391434,0.2706131,2.137263,4.742754
559,1778607442.7751281,-0.67321,-1.2286083,-0.1829375,0.09346231,2.074955,5.3242974
560,1778607442.785413,-0.6017424,-1.4481333,-0.2441606,-0.082466744,2.096946,5.963262
561,1778607442.796073,-0.51563984,-1.6086304,-0.33440974,-0.2547306,2.1592543,6.4446235
562,1778607442.809897,-0.26830834,-1.8849881,-0.53466535,-0.7153227,2.232558,7.1837697
563,1778607442.820353,-0.14366692,-1.9940188,-0.61101127,-1.1062762,2.187354,7.530741
564,1778607442.830719,-0.14366692,-1.9940188,-0.61101127,-1.1062762,2.187354,7.530741
565,1778607442.8419032,0.22708642,-2.335502,-0.8156574,-2.0396774,1.8745914,8.005994
566,1778607442.853375,0.7637031,-2.9023645,-1.0971372,-3.3542585,1.2857176,8.161154
567,1778607442.8636842,0.7641909,-3.4426396,-1.0283527,-4.949837,0.5148063,8.499573
568,1778607442.8753622,0.7641909,-3.4426396,-1.0283527,-5.348121,-0.170584,9.053016
569,1778607442.886122,1.2310475,-4.224149,-0.3231896,-5.2369437,-0.5994111,9.459852
570,1778607442.8965561,1.2310475,-4.224149,-0.3231896,-5.2369437,-0.5994111,9.459852
571,1778607442.9070148,2.1262217,-4.573194,-0.48222327,-4.42205,-1.0746639,10.26375
572,1778607442.918219,2.4830718,-4.70686,-0.7193103,-4.2387905,-0.9231694,10.27108
573,1778607442.928631,2.752112,-4.99395,-1.0988446,-4.433046,-0.77534014,10.173342
574,1778607442.9389079,2.678693,-5.189571,-0.93249345,-4.6969395,-0.8901827,10.250311
575,1778607442.949527,2.663326,-5.3083587,-0.6188166,-4.6969395,-0.8901827,10.250311
576,1778607442.960394,2.6262507,-5.4020224,-0.04317325,-4.0274315,-1.471726,10.866063
577,1778607442.972425,2.8930957,-5.3929973,0.13634941,-1.9737041,-1.8260275,11.581996
578,1778607442.982976,2.8930957,-5.3929973,0.13634941,-1.9737041,-1.8260275,11.581996
579,1778607442.994784,3.714607,-5.0739546,-0.58296084,-0.77763087,-1.3678789,11.297333
580,1778607443.006335,3.9216921,-4.4570894,-0.89395463,-0.7654136,-0.6690496,10.396918
581,1778607443.0146308,3.9334004,-3.839736,-0.9634709,-1.0598503,-0.17180572,9.469625
582,1778607443.02512,3.753146,-3.173112,-0.9463967,-1.4764602,0.1800524,8.500794
583,1778607443.036184,3.5443532,-2.6184454,-0.930786,-2.0115776,0.40362892,7.549067
584,1778607443.047925,3.3062906,-2.1569552,-0.793217,-2.6590943,0.57955796,6.582679
585,1778607443.059212,2.9394398,-1.7105876,-0.42026842,-3.393354,0.79336065,5.4000444
586,1778607443.070265,2.6550329,-1.4249611,-0.009268833,-3.731773,0.9130901,4.517956
587,1778607443.082685,2.1137817,-1.0017658,0.6573554,-3.497201,1.1049017,2.9871287
588,1778607443.093098,2.1137817,-1.0017658,0.6573554,-3.497201,1.1049017,2.9871287
589,1778607443.104064,1.6557063,-0.734677,0.8715143,-2.6713116,1.0487021,2.0769403
590,1778607443.1146,1.4825256,-0.6329638,0.8634651,-2.0408993,0.75670874,1.6688826
591,1778607443.1255429,1.4825256,-0.6329638,0.8634651,-2.0408993,0.75670874,1.6688826
592,1778607443.1465878,1.4030087,-0.48661375,0.7219933,-1.1942407,-0.0044287695,1.1362085
593,1778607443.159371,1.3973986,-0.37343642,0.5822291,-0.6847794,-0.92439115,0.45570514
594,1778607443.183451,1.3630064,-0.25220984,0.50563926,-0.35613418,-1.9872959,-0.51068294
595,1778607443.1936939,1.3630064,-0.25220984,0.50563926,-0.35613418,-1.9872959,-0.51068294
596,1778607443.209543,1.3771535,-0.22733033,0.50539535,-0.21563527,-1.9872959,-1.0910045
597,1778607443.2265239,1.4276443,-0.23855051,0.47636923,-0.10567961,-1.421635,-1.7128649
598,1778607443.230619,1.469354,-0.28660208,0.48295498,-0.07147118,-1.1113157,-2.073275
599,1778607443.243989,1.469354,-0.28660208,0.48295498,-0.07147118,-1.1113157,-2.073275
600,1778607443.254462,1.5108198,-0.34001982,0.5224695,-0.021380268,-0.88896096,-2.4788892
601,1778607443.264807,1.5356994,-0.462466,0.6278415,0.22174391,-0.77289665,-3.2583528
602,1778607443.276779,1.4913065,-0.5897905,0.6566237,0.51495904,-0.78511393,-3.8386743
603,1778607443.288938,1.4013013,-0.70857793,0.6627216,0.7812961,-0.8009964,-4.250397
604,1778607443.299305,1.2903192,-0.8383416,0.65930676,1.0696242,-0.753349,-4.549721
605,1778607443.311363,1.2312914,-0.9685931,0.60808426,1.400713,-0.6421716,-4.783071
606,1778607443.323628,1.2344623,-1.07738,0.5566178,1.5033382,-0.5920807,-4.8624835
607,1778607443.3342888,1.2888557,-1.3012954,0.4927117,1.7024802,-0.42592546,-5.0616255
608,1778607443.344832,1.3049542,-1.3878858,0.4885651,1.8014402,-0.29764387,-5.1764684
609,1778607443.357843,1.4330105,-1.8147401,0.6329638,2.2962408,0.24602579,-5.496561
610,1778607443.369288,1.4725249,-1.9976776,0.58637565,2.656651,0.75915223,-5.6101823
611,1778607443.379471,1.4003257,-2.1464667,0.4978339,2.850906,1.1684316,-5.5759735
612,1778607443.391078,1.34081,-2.2557414,0.36343583,3.035387,1.8574871,-5.34018
613,1778607443.4017081,1.8169354,-2.6421053,-0.00951275,3.1013606,2.8079927,-4.9541135
614,1778607443.411919,1.8169354,-2.6421053,-0.00951275,3.0011787,3.9161015,-4.648681
615,1778607443.422594,2.6552768,-3.1279874,0.02561125,2.629773,5.459146,-4.851488
616,1778607443.433088,2.9570017,-3.4016619,0.24245316,2.5955644,5.5006847,-5.334071
617,1778607443.444115,2.9570017,-3.4016619,0.24245316,2.5955644,5.5006847,-5.334071
618,1778607443.454636,3.01481,-3.8975444,0.8717582,3.1245732,3.931984,-6.6120005
619,1778607443.4650948,2.8933394,-4.2317104,1.1800689,3.7867508,2.5550947,-7.1764393
620,1778607443.476398,2.6294217,-4.3748894,1.3222723,4.264447,1.9845469,-7.3755813
621,1778607443.487568,2.429166,-4.4822125,1.3422734,4.9620547,1.6717842,-7.498976
622,1778607443.497888,2.2493994,-4.5153856,1.2195834,5.5997972,1.8526002,-7.489202
623,1778607443.5092008,2.102074,-4.4795294,1.0027415,6.1190324,2.3180792,-7.303499
624,1778607443.5199099,2.06012,-4.1702433,0.5363728,6.6663675,3.121977,-6.5863442
625,1778607443.531106,2.06012,-4.1702433,0.5363728,6.6663675,3.121977,-6.5863442
626,1778607443.541457,2.107684,-4.030723,0.4885651,6.7518883,2.6809328,-6.4214106
627,1778607443.552012,2.0789018,-3.8133934,0.50002915,6.7689924,2.5331035,-6.432406
628,1778607443.5626738,2.0789018,-3.8133934,0.50002915,6.7689924,2.5331035,-6.432406
629,1778607443.573389,1.3400782,-3.3153155,0.5644232,7.1208506,0.066431545,-6.5521355
630,1778607443.5836911,1.0790873,-3.1370122,0.51271284,7.2564626,-0.7008146,-6.460506
631,1778607443.5950909,1.0790873,-3.1370122,0.51271284,7.2564626,-0.7008146,-6.460506
632,1778607443.605531,0.7410189,-2.7643075,0.28001633,7.341984,-1.8260275,-6.2454815
633,1778607443.617128,0.6549163,-2.649179,0.178547,7.278454,-2.1693335,-6.203943
634,1778607443.628874,0.47246656,-2.4572165,0.026099084,7.0218906,-2.8644977,-6.185617
635,1778607443.6373088,0.2912365,-2.2967196,-0.084883004,6.743336,-3.3678503,-6.1599603
636,1778607443.648754,0.11146992,-2.1474423,-0.20489,6.46356,-3.7148213,-6.1172
637,1778607443.660162,-0.07219934,-2.0015802,-0.33587328,5.994416,-4.0398016,-5.995027
638,1778607443.670614,-0.19806033,-1.8430344,-0.4334399,5.2613783,-4.1265445,-5.705477
639,1778607443.681461,-0.38563228,-1.6093621,-0.49246776,4.6285224,-3.9579456,-5.376832
640,1778607443.692899,-0.52442086,-1.3652016,-0.47758886,4.015214,-3.6366308,-4.982213
641,1778607443.712159,-0.58905876,-0.9846916,-0.45319718,2.973079,-2.7154467,-4.0671377
642,1778607443.726048,-0.5358849,-0.7566295,-0.4114874,2.100764,-1.5816816,-3.185049
643,1778607443.7432818,-0.46758825,-0.7483363,-0.430269,1.7342451,-0.9268346,-2.8283038
644,1778607443.747455,-0.46758825,-0.7483363,-0.430269,1.7342451,-0.9268346,-2.8283038
645,1778607443.760046,-0.3407516,-0.8773683,-0.6319881,0.9291253,0.62842715,-2.4373505
646,1778607443.770415,-0.40758476,-0.90566254,-0.67613703,0.5271763,1.0340414,-2.3163993
647,1778607443.781357,-0.60808426,-0.91907805,-0.59979105,-0.29871288,1.1549926,-1.9339979
648,1778607443.793772,-0.7773624,-0.9156632,-0.49637043,-0.66401,0.8825469,-1.6383393
649,1778607443.8045619,-0.9985949,-0.79858315,-0.10683551,-1.4850123,-0.3733911,-0.44348782
650,1778607443.815032,-0.9985949,-0.79858315,-0.10683551,-1.4850123,-0.3733911,-0.44348782
651,1778607443.8266299,-0.8315119,-0.93883526,0.15903367,-1.4349214,-1.0612248,0.74525505
652,1778607443.837643,-0.7378479,-1.0342066,0.15610667,-1.3261875,-1.1833978,1.2009602
653,1778607443.848042,-0.7378479,-1.0342066,0.15610667,-1.3261875,-1.1833978,1.2009602
654,1778607443.858824,-0.5905222,-1.1764101,0.115128666,-1.05252,-0.80466163,2.570519
655,1778607443.87403,-0.799315,-1.2339745,-0.14830133,-1.0378592,0.37186393,3.9803948
656,1778607443.884944,-0.8893202,-1.3012954,-0.3351415,-1.2895355,0.81413,4.901579
657,1778607443.895307,-0.8893202,-1.3012954,-0.3351415,-1.2895355,0.81413,4.901579
658,1778607443.90633,-0.6332077,-1.6461936,-0.58320475,-2.2327108,1.5373939,6.867342
659,1778607443.9174101,-0.38563228,-1.8574255,-0.6612581,-2.5699081,1.641241,7.303499
660,1778607443.928285,0.18342534,-2.3467224,-0.7617518,-3.7391033,1.8367177,8.326087
661,1778607443.938965,0.54637337,-2.6964986,-0.7227251,-4.580875,1.8159482,8.751248
662,1778607443.949287,0.54637337,-2.6964986,-0.7227251,-4.580875,1.8159482,8.751248
663,1778607443.9607198,0.7683375,-3.351659,-0.42734203,-6.00419,1.5850414,9.428087
664,1778607443.9715168,0.8800513,-3.621919,-0.28343117,-6.382926,1.4433208,9.808044
665,1778607443.981844,1.5030146,-4.182927,-0.046832,-6.848405,0.7518218,10.443344
666,1778607443.9927192,2.119148,-4.5322156,0.20440216,-7.020669,-0.14492767,10.67303
667,1778607444.003211,2.634544,-4.9337025,0.38855925,-6.5197597,-1.3312271,10.48977
668,1778607444.0152059,2.634544,-4.9337025,0.38855925,-6.5197597,-1.3312271,10.48977
669,1778607444.024339,2.5796626,-5.096151,0.29782224,-6.2106624,-1.5694643,10.484883
670,1778607444.036201,2.4233122,-5.7115526,-0.033416584,-6.089711,-1.7282891,11.324211
671,1778607444.047059,2.7382085,-6.0925508,-0.06951625,-6.2399836,-1.7918191,11.738378
672,1778607444.05836,3.0445678,-6.244023,0.007561417,-6.3926997,-1.7905974,11.946072
673,1778607444.074341,3.5326452,-6.0240097,0.33440974,-6.5625205,-1.4155264,11.737156
674,1778607444.082707,3.487033,-5.6239867,0.5741799,-6.4892163,-0.7643446,11.358419
675,1778607444.1027782,3.307998,-5.0856624,0.8612698,-6.2057753,0.29733843,10.830632
676,1778607444.133114,3.1987233,-3.3726358,1.2744646,-4.4806933,1.3541344,9.539265
677,1778607444.1428108,3.27824,-3.2418964,1.2332426,-4.3108726,1.3138174,9.329127
678,1778607444.15352,3.27824,-3.2418964,1.2332426,-3.3408196,0.9973895,7.150783
679,1778607444.164875,3.3131201,-1.9281613,1.0017658,-2.8557928,0.9289726,5.633395
680,1778607444.175688,2.4433134,-1.3842272,0.90273565,-1.8625267,1.1195624,2.950477
681,1778607444.1867251,1.923283,-1.2686106,0.690772,-1.5070034,1.2686135,2.1343615
682,1778607444.197168,1.5115516,-1.2459264,0.48636985,-1.3542873,1.4262166,1.6859868
683,1778607444.207895,1.1639704,-1.2086071,0.33709285,-1.3677262,1.6290237,1.5332706
684,1778607444.218648,0.9683492,-1.1483598,0.26343,-1.3677262,1.6290237,1.5332706
685,1778607444.234646,0.79077786,-1.0544518,0.20245083,-1.816101,2.4060438,1.8729115
686,1778607444.246621,0.7544343,-1.0081075,0.18025441,-1.816101,2.4060438,1.8729115
687,1778607444.2701929,0.6712587,-0.85541576,0.105372004,-2.7360632,3.294241,2.0390666
688,1778607444.2833002,0.74443364,-0.84346384,0.21976891,-3.4410014,3.104873,1.9963061
689,1778607444.300181,0.79785144,-0.8959059,0.3192869,-3.8331764,2.5196645,1.888794
690,1778607444.316642,0.74979985,-0.8102912,0.60784036,-4.242456,1.1965314,1.8814635
691,1778607444.3333278,1.0037171,-0.6568676,1.2376332,-4.0274315,-0.7826705,1.8374813
692,1778607444.337773,1.0037171,-0.6568676,1.2376332,-4.0274315,-0.7826705,1.8374813
693,1778607444.35009,1.0037171,-0.6568676,1.2376332,-4.0274315,-0.7826705,1.8374813
694,1778607444.361399,1.2742207,-0.6261341,1.5442364,-3.3774714,-1.498604,1.5308272
695,1778607444.374634,1.6779027,-0.60832816,1.8401074,-2.2033892,-1.7405065,0.83810645
696,1778607444.38345,1.7674202,-0.594181,1.9927992,0.07269291,-0.6666062,-0.4752528
697,1778607444.39377,1.7371745,-0.6522332,1.9359666,1.0561852,0.02367101,-0.9920444
698,1778607444.404473,1.7557122,-0.8493178,1.797178,1.99203,0.8666644,-1.463632
699,1778607444.414977,1.7557122,-0.8493178,1.797178,1.99203,0.8666644,-1.463632
700,1778607444.426377,1.8137645,-1.3293458,1.3683724,4.002997,2.8373141,-2.4287984
701,1778607444.437454,1.8835245,-1.5788726,1.2420237,4.6309657,3.3589928,-2.8246388
702,1778607444.448229,1.8835245,-1.5788726,1.2420237,4.6309657,3.3589928,-2.8246388
703,1778607444.458715,2.1776881,-2.5911267,0.56247187,6.238762,4.640587,-3.645641
704,1778607444.469341,2.1452472,-2.8413854,0.43953782,6.679806,4.9154763,-3.9144216
705,1778607444.47999,2.1115868,-3.2806792,0.34562993,7.43117,5.075523,-4.11845
706,1778607444.490698,2.1881764,-3.6972888,0.20757309,8.027374,5.009549,-4.152659
707,1778607444.500927,2.2764742,-3.9885256,0.08610259,8.5514965,4.8470592,-4.141663
708,1778607444.511329,2.4135556,-4.21927,-0.01683025,9.029192,4.575835,-4.179537
709,1778607444.521813,2.5750282,-4.6792974,-0.26343,9.332181,4.270403,-4.3017097
710,1778607444.532913,2.49356,-4.791499,-0.31879908,9.63517,2.4194827,-5.1166034
711,1778607444.5451462,2.49356,-4.791499,-0.31879908,9.63517,2.4194827,-5.1166034
712,1778607444.555834,2.1964695,-4.9805346,-0.310262,9.505667,1.2368485,-5.5820823
713,1778607444.567179,2.017191,-4.978827,-0.24367274,9.038966,-0.88407403,-6.278468
714,1778607444.579536,1.7247348,-4.873943,-0.112201676,8.644347,-2.3855796,-6.558244
715,1778607444.590286,1.5925319,-4.732715,0.04170975,8.214298,-3.757582,-6.778156
716,1778607444.600684,1.5478952,-4.5831943,0.28733385,7.7866936,-5.1381364,-7.2387476
717,1778607444.613249,1.5478952,-4.5831943,0.28733385,7.7866936,-5.1381364,-7.2387476
718,1778607444.622735,1.5098442,-4.5119705,0.3758756,7.6681857,-5.5889544,-7.5906057
719,1778607444.633224,1.3491031,-4.3480587,0.31562817,7.616873,-5.912713,-8.081741
720,1778607444.644207,1.3491031,-4.3480587,0.31562817,7.566782,-6.005564,-8.387174
721,1778607444.655977,0.910541,-4.033894,0.19342592,7.2124805,-5.98846,-9.138537
722,1778607444.66583,0.910541,-4.033894,0.19342592,7.2124805,-5.98846,-9.138537
723,1778607444.6767402,0.4875894,-3.7180219,0.009756667,6.6529284,-6.1314025,-9.237497
724,1778607444.687874,0.34758124,-3.5904536,-0.027318668,6.468447,-6.1851587,-9.171524
725,1778607444.707433,-0.15708233,-2.9491963,-0.19269417,5.421425,-6.3806353,-8.267444
726,1778607444.737437,-0.40880433,-2.0037754,-0.5427146,3.6755733,-5.835744,-6.3676543
727,1778607444.755869,-0.47051528,-1.6188749,-0.7605322,2.3231187,-4.4551897,-5.367058
728,1778607444.772552,-0.4522215,-1.4361813,-0.92810297,0.19120067,-2.416123,-4.3346963
729,1778607444.783348,-0.51320064,-1.276172,-0.81199855,-0.67500556,-1.692859,-4.0475903
730,1778607444.799339,-0.6329638,-1.2010458,-0.6363786,-1.3762784,-1.1430807,-3.8130178
731,1778607444.804692,-0.7429702,-1.138603,-0.4475871,-1.8649702,-0.753349,-3.4636033
732,1778607444.8185852,-0.8205357,-1.0912832,-0.27538192,-2.1752894,-0.5371029,-3.0750933
733,1778607444.8331652,-0.88810056,-1.0424999,-0.11293342,-2.3243406,-0.48456848,-2.651153
734,1778607444.8443441,-0.94054264,-1.010059,-0.016342416,-2.343888,-0.5102248,-2.3102906
735,1778607444.8547251,-1.0785995,-1.0561591,0.027318668,-2.1423028,-0.54687667,-0.90774506
736,1778607444.8651571,-1.0785995,-1.0561591,0.027318668,-2.1423028,-0.54687667,-0.90774506
737,1778607444.877683,-1.320321,-1.0551835,-0.11537258,-2.1203117,-0.44547313,-0.36285368
738,1778607444.8884811,-1.4325225,-1.051037,-0.16439983,-2.3231187,0.25213444,1.7763947
739,1778607444.900424,-1.4449624,-1.1032351,-0.19074284,-2.5051565,0.6235402,2.9101598
740,1778607444.912572,-1.3517863,-1.241048,-0.1975725,-2.7226243,0.95585066,4.0414815
741,1778607444.922942,-0.99030167,-1.6298512,-0.1624485,-2.9046621,1.1537708,4.863705
742,1778607444.9340649,-0.99030167,-1.6298512,-0.1624485,-3.1514513,1.3443607,5.8899584
743,1778607444.945858,-0.40929216,-2.265986,-0.07415067,-3.6621344,1.5935935,7.837395
744,1778607444.956958,-0.19147459,-2.5686865,-0.06219875,-3.8258462,1.7756312,8.602198
745,1778607444.968927,0.07097975,-2.8728504,-0.034880083,-3.9785624,2.011425,9.303471
746,1778607444.979003,0.3690459,-3.1477447,0.00073175,-4.1044006,2.2521057,9.867909
747,1778607444.989658,0.509298,-3.2760448,0.0160985,-4.1483827,2.373057,10.085378
748,1778607445.000242,0.8539522,-3.7036307,-0.039026666,-4.269334,2.6784894,10.569182
749,1778607445.0130901,1.147628,-4.0436506,-0.1595215,-4.5124583,2.7786713,10.857511
750,1778607445.022093,2.0715842,-4.595634,-0.37904653,-4.770243,2.7994406,10.897828
751,1778607445.0328178,2.27745,-4.726861,-0.374656,-5.574141,2.7139194,10.450675
752,1778607445.043835,2.4372153,-4.909555,-0.29952967,-6.2741923,2.3987134,10.107368
753,1778607445.05686,2.4372153,-4.909555,-0.29952967,-6.7189016,2.272875,9.991304
754,1778607445.066527,2.5040483,-4.972485,-0.32392135,-6.7189016,2.272875,9.991304
755,1778607445.090954,3.0721304,-5.4227552,-0.8739534,-9.144035,3.908771,9.00659
756,1778607445.103621,2.997004,-5.6103277,-0.9120045,-11.92347,5.92829,7.368251
757,1778607445.127572,2.499902,-6.000838,-0.4749058,-14.909377,8.236137,5.186242
758,1778607445.138199,2.411848,-6.0542555,-0.25391725,-15.726714,8.983835,4.2907143
759,1778607445.15433,2.0240204,-5.6681356,0.9198098,-16.203188,10.56231,0.9773837
760,1778607445.171197,1.75059,-5.2142067,1.4015452,-15.285669,11.148741,-0.5497783
761,1778607445.187995,1.0651841,-3.834858,1.6898546,-11.212423,11.873226,-3.0286677
762,1778607445.2027462,1.0412803,-3.1209137,0.948348,-7.881988,11.251366,-4.175872
763,1778607445.2108002,1.0412803,-3.1209137,0.948348,-7.881988,11.251366,-4.175872
764,1778607445.221049,1.1254315,-2.9265122,0.7217494,-6.980352,10.84453,-4.53506
765,1778607445.233237,1.4220343,-2.7289395,0.5253965,-5.7977176,9.870811,-5.2790933
766,1778607445.2439091,1.504722,-2.473315,0.67199045,-4.1606,6.667436,-6.9455323
767,1778607445.254357,1.504722,-2.473315,0.67199045,-4.1606,6.667436,-6.9455323
768,1778607445.2685142,1.1076256,-2.4081893,0.71174884,-3.4275622,4.6234827,-7.670018
769,1778607445.276002,0.78785086,-2.3213549,0.6734539,-2.4611742,0.9802852,-8.464143
770,1778607445.287199,0.57686293,-2.2708642,0.52466476,-2.290132,-0.27320927,-8.566768
771,1778607445.296503,0.5014927,-2.3055005,0.39002275,-2.4000878,-0.57741994,-8.587537
772,1778607445.306941,0.3514839,-2.3550155,0.28928518,-2.8289149,-0.5994111,-8.603419
773,1778607445.3176162,-0.0746385,-2.3696504,0.40831652,-3.4067929,-0.2707658,-8.488577
774,1778607445.328674,-0.4831989,-2.3137934,0.7488242,-3.7977464,0.31444263,-8.101289
775,1778607445.338856,-0.78467995,-2.1845179,1.1217728,-3.8050766,0.8129083,-7.6187057
776,1778607445.34921,-1.1778736,-1.8830367,1.6981478,-3.1282384,1.4372121,-6.487384
777,1778607445.359863,-1.2769037,-1.6300951,1.9171851,-2.105651,1.6314671,-5.4232574
778,1778607445.3701491,-1.2020214,-1.4464258,1.8888906,-0.9608903,1.5129594,-4.4483175
779,1778607445.380975,-1.0637206,-1.3510544,1.7040019,0.060475614,1.1122321,-3.6603017
780,1778607445.3918378,-0.99152124,-1.2956854,1.5364311,0.8631519,0.58322316,-3.0518804
781,1778607445.403797,-0.86102587,-1.2632444,1.2544634,1.5986332,-0.13026692,-2.43002
782,1778607445.414913,-0.7693132,-1.2581222,0.9285908,1.9627086,-0.66049755,-2.001193
783,1778607445.425714,-0.7417506,-1.1847032,0.71150494,2.1203117,-1.096655,-1.5821397
784,1778607445.437394,-0.6300368,-1.1039668,0.52490866,2.1154246,-1.5767947,-1.0018182
785,1778607445.448323,-0.54369026,-0.9817646,0.45002624,2.0531166,-1.7563889,-0.49724394
786,1778607445.4617338,-0.49344343,-0.93834746,0.4066091,2.0445645,-1.7869322,-0.21258095
787,1778607445.474187,-0.49344343,-0.93834746,0.4066091,2.0445645,-1.7869322,-0.21258095
788,1778607445.4909408,-0.7485803,-0.7898022,0.29196826,2.164294,-1.738063,0.6365211
789,1778607445.50477,-1.2186077,-0.6519892,0.20464608,2.619999,-1.5792382,2.344499
790,1778607445.527191,-1.3186135,-0.80687636,0.021464668,3.6034913,-1.6036727,4.5277295
791,1778607445.547553,-0.79492444,-1.2912949,-1.044939,4.034762,-1.4362959,6.758608
792,1778607445.564704,-0.3714851,-1.5274062,-1.7303449,3.3151631,-1.0209078,7.563728
793,1778607445.577726,0.28026026,-1.8908421,-2.2635467,-0.5381719,0.16539164,8.742697
794,1778607445.591276,0.42807376,-2.01402,-2.0067024,-1.7965534,0.50991935,9.079894
795,1778607445.613695,0.96737355,-2.639666,-0.92541987,-3.425119,0.90453804,9.71275
796,1778607445.6259332,1.5927758,-3.5970392,-0.4168536,-3.9724536,0.61132294,10.658369
797,1778607445.642922,2.8930957,-4.274152,-0.17391258,-4.560106,0.59421873,11.051765
798,1778607445.647531,2.8930957,-4.274152,-0.17391258,-4.560106,0.59421873,11.051765
799,1778607445.6589959,3.2060409,-4.33318,-0.050978586,-4.6920524,0.4977021,10.917376
800,1778607445.669882,3.2060409,-4.33318,-0.050978586,-4.6920524,0.4977021,10.917376
801,1778607445.6802392,3.457519,-4.0707254,0.49368733,-4.667618,-0.29764387,9.804379
802,1778607445.692805,3.1621358,-3.6609454,0.43539125,-4.182591,-0.6091849,9.023695
803,1778607445.7032,2.9643192,-3.5092292,0.36026493,-4.057975,-0.4393645,8.657176
804,1778607445.713842,2.9643192,-3.5092292,0.36026493,-4.057975,-0.4393645,8.657176
805,1778607445.7267761,2.598932,-3.1723802,0.4314886,-3.99811,0.39263335,7.9925547
806,1778607445.737128,2.4925845,-3.076277,0.5049075,-3.9639015,0.59177524,7.860608
807,1778607445.747741,2.3840415,-2.7869918,0.7100414,-3.735438,1.0511456,7.500198
808,1778607445.7596722,2.3264773,-2.5460021,0.8190721,-3.4092364,1.3358085,7.1397877
809,1778607445.770096,2.2259834,-2.3318434,0.84151256,-3.0195045,1.5300635,6.636435
810,1778607445.7808268,2.075487,-2.072804,0.7898022,-2.5576909,1.5068507,6.261364
811,1778607445.7915719,1.8174232,-1.7654688,0.72101766,-2.051895,1.058476,5.7128077
812,1778607445.802988,1.7118073,-1.5674084,0.7224812,-1.6890411,0.53313226,5.365836
813,1778607445.8135738,1.7118073,-1.5674084,0.7224812,-1.6890411,0.53313226,5.365836
814,1778607445.824064,1.5335041,-1.3069055,0.67955184,-1.0891719,-0.30008733,4.9370093
815,1778607445.8351848,1.5335041,-1.3069055,0.67955184,-1.0891719,-0.30008733,4.9370093
816,1778607445.845549,1.4764276,-1.0671355,0.5753994,-0.5357284,-1.006247,4.536282
817,1778607445.856315,1.4764276,-1.0671355,0.5753994,-0.5357284,-1.006247,4.536282
818,1778607445.8670561,1.4483773,-0.8834662,0.46514907,-0.49174616,-1.0636683,4.4751954
819,1778607445.879287,1.4039844,-0.81126684,0.38368094,-0.2254091,-1.1858412,3.8423395
820,1778607445.889567,1.3598354,-0.7827286,0.32879966,-0.21441354,-1.06489,3.6957319
821,1778607445.900087,1.3088568,-0.7671179,0.29148042,-0.23396121,-0.8474222,3.5662286
822,1778607445.910422,1.3386147,-0.7771185,0.33611718,-0.21930045,-0.8315397,3.565007
823,1778607445.923407,1.483989,-0.772728,0.36636284,-0.12767074,-0.9634865,3.565007
824,1778607445.9324841,1.7027822,-0.7385797,0.34611776,0.020158539,-1.2994621,3.4208426
825,1778607445.941631,1.9027939,-0.66686815,0.2883095,0.06780599,-1.4424045,3.2864525
826,1778607445.9524128,2.2769623,-0.51563984,0.065369666,-0.0006108648,-1.4680607,2.5521932
827,1778607445.962812,2.5499048,-0.34416643,-0.307335,-0.38056874,-0.9757038,1.7727296
828,1778607445.9739058,2.6482034,-0.2883095,-0.48197934,-1.2968659,0.06887501,0.6071996
829,1778607445.9975889,2.3567228,-0.62149966,0.13366634,-2.8606799,2.7786713,-1.5210533
830,1778607446.010284,2.1754928,-0.7693132,0.49588257,-2.9364269,3.7352855,-2.1722353
831,1778607446.0339682,2.0357285,-1.3271506,1.1507988,-1.1636974,4.8006334,-3.903426
832,1778607446.045815,2.057681,-1.6869277,1.0468904,0.091018856,4.7199993,-4.59859
833,1778607446.064018,1.8388878,-2.1028056,0.6685756,0.57971066,4.491536,-4.9345655
834,1778607446.0792232,1.7583953,-2.2452528,0.5751555,2.5039346,3.1940591,-5.426923
835,1778607446.097385,1.9157214,-2.5184398,0.5266161,3.8197374,1.7377576,-5.6175127
836,1778607446.1126559,2.2547657,-2.8604107,0.46368557,4.693274,1.0474803,-5.9571533
837,1778607446.130593,2.7055237,-3.577038,0.20659742,5.819709,0.55878854,-6.943089
838,1778607446.134412,2.7055237,-3.577038,0.20659742,6.2228794,0.44272426,-7.434224
839,1778607446.146837,2.7774792,-4.435137,-0.12025091,6.690802,0.21426082,-8.189253
840,1778607446.157241,2.9377325,-4.9873643,-0.34270293,6.8752832,-0.006872229,-8.693828
841,1778607446.168233,2.9377325,-4.9873643,-0.34270293,6.8752832,-0.006872229,-8.693828
