id,timestamp,acc_x,acc_y,acc_z,gyro_x,gyro_y,gyro_z
1,1778609093.6657548,0.7693132,-0.6973577,-0.024391668,0.9240857,-0.17944153,0.260992
2,1778609093.6761541,0.7693132,-0.6973577,-0.024391668,0.8312343,-0.2112065,0.14492767
3,1778609093.6875882,0.75809306,-0.74053097,-0.096347086,0.62720543,-0.24541493,-0.020005822
4,1778609093.698768,0.73077434,-0.7605322,-0.11293342,0.4818196,-0.26251915,-0.09575305
5,1778609093.709557,0.73077434,-0.7605322,-0.11293342,0.4818196,-0.26251915,-0.09575305
6,1778609093.7206888,0.67272216,-0.7695571,-0.114153,0.18493931,-0.2784016,-0.17027856
7,1778609093.731067,0.67272216,-0.7695571,-0.114153,0.18493931,-0.2784016,-0.17027856
8,1778609093.745336,0.5205182,-0.7773624,0.011951917,-0.37705627,-0.11957678,0.11682789
9,1778609093.763969,0.5324701,-0.7866313,0.052442085,-0.46135563,-0.030390523,0.25488332
10,1778609093.7808452,0.5978397,-0.8483422,0.09439575,-0.55298537,0.066126116,0.37827802
11,1778609093.796549,0.6036937,-0.84980565,0.105615914,-0.56520265,0.07467822,0.3990474
12,1778609093.812387,0.600035,-0.79736364,0.18708408,-0.54809844,-0.0035124724,0.5102248
13,1778609093.817593,0.600035,-0.79736364,0.18708408,-0.54809844,-0.0035124724,0.5102248
14,1778609093.829587,0.5944249,-0.7595565,0.22269592,-0.527329,-0.06704241,0.54443324
15,1778609093.840157,0.5944249,-0.7595565,0.22269592,-0.47845984,-0.19532402,0.6030763
16,1778609093.8506691,0.6012546,-0.7351648,0.24659975,-0.42470375,-0.31261006,0.66171926
17,1778609093.864105,0.6939429,-0.69418687,0.25928342,-0.274431,-0.39446592,0.75212723
18,1778609093.8754072,0.6939429,-0.69418687,0.25928342,-0.274431,-0.39446592,0.75212723
19,1778609093.8858151,0.7349209,-0.67906404,0.22415942,-0.12293654,-0.27351472,0.66049755
20,1778609093.8981278,0.7195542,-0.681991,0.21830542,-0.08994984,-0.23564109,0.636063
21,1778609093.908582,0.70394355,-0.6902842,0.1917185,-0.06062833,-0.20631959,0.6336195
22,1778609093.919065,0.6734539,-0.65320885,0.16903426,-0.045967575,-0.20143266,0.6861539
23,1778609093.9322429,0.781509,-0.52734786,0.07585809,-0.006872229,0.07589995,1.1943934
24,1778609093.942633,0.781509,-0.52734786,0.07585809,-0.006872229,0.07589995,1.1943934
25,1778609093.9531698,1.2815381,-0.34758124,-0.30343235,-0.14859286,1.7447826,1.3568834
26,1778609093.963826,1.3305655,-0.24733151,-0.39612067,-0.25977024,2.1259623,1.3116794
27,1778609093.974627,1.3305655,-0.24733151,-0.39612067,-0.25977024,2.1259623,1.3116794
28,1778609093.985524,2.1028056,0.354167,-0.863709,-1.3910918,2.646419,0.5383246
29,1778609093.9965398,2.3220866,0.42221975,-0.88029534,-2.1925464,2.5083635,0.07773254
30,1778609094.007479,2.6267385,0.35563052,-0.72638386,-3.2261295,2.3825254,-0.8202387
31,1778609094.018037,2.8257747,0.08732217,-0.4246589,-3.8993027,2.501033,-1.5117376
32,1778609094.029275,2.9055355,-0.10683551,-0.10878683,-4.2193956,2.8125741,-2.073733
33,1778609094.03988,2.8026025,-0.348313,0.4844185,-4.1961827,3.6140287,-2.932609
34,1778609094.049985,2.8533373,-1.0795752,0.9971314,-3.9164069,3.820501,-3.2930193
35,1778609094.060364,2.8533373,-1.0795752,0.9971314,-3.2493424,3.3892305,-3.692525
36,1778609094.070912,2.9194386,-1.3581281,1.135676,-2.640921,2.5303547,-3.9551966
37,1778609094.0815082,2.9043157,-1.4383767,1.3076372,-1.9995131,1.5456406,-4.1506734
38,1778609094.092591,2.9823692,-1.5281379,1.4805741,-1.2848014,0.685543,-4.265516
39,1778609094.1038332,3.4560554,-1.9564557,1.5913124,0.34254244,-0.08170316,-4.6430306
40,1778609094.115075,3.5963075,-2.1884203,1.4203267,1.0706933,-0.03161225,-4.938689
41,1778609094.1259599,3.5963075,-2.1884203,1.4203267,1.0706933,-0.03161225,-4.938689
42,1778609094.1384509,3.595332,-2.6711314,0.831268,1.8855869,0.9274455,-5.5593276
43,1778609094.1492639,3.57655,-2.8604107,0.6939429,1.9552255,1.2976295,-5.740144
44,1778609094.159818,3.3862948,-3.04408,0.5907662,2.0126467,1.8327471,-5.9759374
45,1778609094.178317,2.9572458,-3.008712,0.5373484,2.0945027,2.167501,-5.9844894
46,1778609094.19873,2.1442714,-2.1842737,0.32245782,2.2130103,2.8345654,-5.269778
47,1778609094.214216,2.0703647,-1.8727922,0.20269476,1.9784383,3.2499533,-5.075523
48,1778609094.236117,1.8037637,-1.6027765,0.21684194,1.7597487,3.7374234,-5.277108
49,1778609094.236298,1.8037637,-1.6027765,0.21684194,1.7597487,3.7374234,-5.277108
50,1778609094.247811,1.572287,-1.5527735,0.23562351,1.7096578,4.113716,-5.488467
51,1778609094.259087,1.4161801,-1.5413094,0.24903892,1.7414228,4.354397,-5.613084
52,1778609094.269917,1.2832457,-1.5422852,0.26708874,1.8452698,4.4851217,-5.670505
53,1778609094.281593,1.0905514,-1.6354613,0.28172377,2.024864,4.512,-5.6277447
54,1778609094.292075,0.9976192,-1.7083925,0.2783089,2.264323,4.4655743,-5.490911
55,1778609094.302541,0.97639847,-1.7991294,0.27294275,2.8715227,4.1381507,-5.035206
56,1778609094.312991,1.024694,-1.8462054,0.22415942,3.2869108,3.7765188,-4.7798643
57,1778609094.3241248,1.024694,-1.8462054,0.22415942,3.2869108,3.7765188,-4.7798643
58,1778609094.33477,1.1132356,-1.8701092,0.14683785,3.7572765,2.971399,-4.5477357
59,1778609094.349337,1.1903133,-1.8913299,0.09903017,3.9124362,2.5584545,-4.491536
60,1778609094.355411,1.2988563,-1.9008425,0.061467,4.143343,1.8241949,-4.5391836
61,1778609094.3659189,1.3632503,-1.8876711,0.03878275,4.228864,1.4246894,-4.6882343
62,1778609094.377325,1.3632503,-1.8876711,0.03878275,4.228864,1.4246894,-4.6882343
63,1778609094.387839,1.3720312,-1.8713286,0.042441502,4.332711,1.1485785,-4.8226247
64,1778609094.3979678,1.3793488,-1.8718164,0.02561125,4.4487753,0.7392991,-5.077966
65,1778609094.410184,1.3383707,-1.8952326,-0.06780884,4.4939795,0.52793986,-5.255117
66,1778609094.420747,1.308369,-1.8930372,-0.12537317,4.47321,-0.12324197,-5.7731304
67,1778609094.4319842,1.314223,-1.8913299,-0.15976542,4.379137,-0.47265664,-6.005259
68,1778609094.443537,1.2922705,-1.8857199,-0.19854817,4.2826204,-0.7695369,-6.193405
69,1778609094.4543989,1.1681169,-1.8418148,-0.19806033,3.971079,-1.6345215,-6.627119
70,1778609094.4656808,1.094942,-1.7393699,-0.11708001,3.7988153,-2.1671956,-6.849474
71,1778609094.4780989,1.094942,-1.7393699,-0.11708001,3.7035205,-2.5593708,-7.0351768
72,1778609094.4887419,0.9722519,-1.607167,-0.08854175,3.5960083,-2.936885,-7.2673054
73,1778609094.499532,0.8580988,-1.5437486,-0.05683258,3.4188573,-3.425577,-7.6680326
74,1778609094.512116,0.64467174,-1.3647138,0.08366342,3.3602145,-3.6002843,-8.146951
75,1778609094.521133,-0.12195834,-1.7147342,0.056588665,3.438405,-3.5917323,-8.673516
76,1778609094.532042,-0.892735,-2.151589,-0.06488183,3.5593565,-3.556302,-9.483523
77,1778609094.542485,-0.892735,-2.151589,-0.06488183,3.478722,-3.6503751,-10.085835
78,1778609094.560946,-4.791499,-2.587468,-0.43392777,2.5868597,-4.616763,-9.606917
79,1778609094.5639591,-4.791499,-2.587468,-0.43392777,1.7597487,-5.0675817,-8.111521
80,1778609094.5830321,-5.341287,-2.4864864,-0.44417223,1.0034981,-5.070025,-6.7150836
81,1778609094.59775,-5.8427796,-2.7386966,-0.1770835,-1.51693,-2.6791003,-2.9924738
82,1778609094.614104,-6.0408406,-3.1504276,1.773762,-1.6647593,0.46440995,0.5505419
83,1778609094.63104,-5.1676183,-3.2426283,2.186469,-0.4564687,0.060017463,2.2902849
84,1778609094.6464288,-4.516361,-3.2677517,1.8413268,2.2887576,-1.1922554,5.1063714
85,1778609094.6567628,-3.357757,-3.3262918,1.1083573,3.7047422,-1.1971422,6.562673
86,1778609094.66708,-2.5801506,-3.3475122,0.5956445,4.397463,-0.80496705,7.5229526
87,1778609094.6802182,-1.873524,-3.4243462,0.21391493,4.8409505,-0.3394881,8.491784
88,1778609094.690582,-1.253,-3.5258157,-0.047319833,5.1500483,0.0013744457,9.532698
89,1778609094.701301,-0.5136885,-3.7641222,-0.242941,5.534893,0.17363831,10.815514
90,1778609094.7121449,0.12415359,-3.8892512,-0.4109996,5.7706866,0.2921461,11.539999
91,1778609094.72259,1.0542079,-4.1717067,-0.7773624,5.8855295,0.5731439,12.469735
92,1778609094.733481,2.6967428,-4.3056173,-1.4942335,5.020545,1.0532836,12.671321
93,1778609094.744828,2.6967428,-4.3056173,-1.4942335,5.020545,1.0532836,12.671321
94,1778609094.75572,3.3599522,-3.766805,-1.4810619,2.9411612,1.1217004,11.452035
95,1778609094.766391,3.2004306,-3.461909,-1.0737212,2.0945027,0.911563,10.708001
96,1778609094.7777238,2.9165118,-3.3189743,-0.58881485,1.6265802,0.491288,10.133788
97,1778609094.790019,2.4281905,-3.1982355,0.0046344167,1.7023274,0.055130545,9.871117
98,1778609094.7981188,2.1696386,-3.0931072,0.18366925,2.0040946,-0.10613775,9.895552
99,1778609094.809489,2.0274353,-3.2509215,0.14415476,2.4707954,-0.058490302,10.09958
100,1778609094.82005,2.1018298,-3.4060524,-0.016586334,2.5514295,0.22617269,10.204649
101,1778609094.830422,2.450631,-3.4175165,0.022928167,2.0285292,0.8309288,9.884556
102,1778609094.8408341,2.450631,-3.4175165,0.022928167,2.0285292,0.8309288,9.884556
103,1778609094.851109,2.5977125,-3.3240964,0.10488417,1.8391612,1.0105231,9.541249
104,1778609094.8614872,2.6208844,-2.804798,0.33880025,1.6290237,1.0630574,8.072731
105,1778609094.872072,2.6208844,-2.804798,0.33880025,1.6290237,1.0630574,8.072731
106,1778609094.8827698,2.42941,-2.5772235,0.29465136,1.5606068,1.1107049,7.3323627
107,1778609094.893197,2.0354846,-2.294768,0.09878625,1.3504694,1.390481,6.8913183
108,1778609094.903896,1.7635175,-2.1403687,0.0031709166,0.5893318,2.60488,6.4600477
109,1778609094.914643,1.6586335,-2.1025617,0.04049017,0.018784093,3.5443902,6.350092
110,1778609094.926673,1.6586335,-2.1025617,0.04049017,0.018784093,3.5443902,6.350092
111,1778609094.936977,1.4232538,-1.9742615,0.26538134,-0.95126915,5.67753,6.386744
112,1778609094.947415,1.4232538,-1.9742615,0.26538134,-0.95126915,5.67753,6.386744
113,1778609094.9596648,1.7293692,-1.8364487,0.22854991,-1.6500984,6.585275,6.860775
114,1778609094.968447,2.1698828,-1.8784024,0.18123008,-2.171777,6.5376277,6.8241234
115,1778609094.9788742,2.1698828,-1.8784024,0.18123008,-2.171777,6.5376277,6.8241234
116,1778609094.989293,2.6184454,-2.0791457,0.2587956,-3.5596619,6.424007,5.723345
117,1778609095.000366,2.4752665,-2.3286724,0.3348976,-4.0666795,6.823512,5.3812604
118,1778609095.022342,2.247936,-2.7589414,0.89029586,-5.3189526,8.526604,6.340318
119,1778609095.044953,3.1970158,-2.6408858,1.3283702,-5.757553,8.272484,6.684846
120,1778609095.053133,5.4337316,-1.7035141,3.4314196,-4.2157307,1.191339,3.1711519
121,1778609095.065598,5.598131,-1.6969284,3.488984,-3.4387105,0.15164718,2.4442227
122,1778609095.081537,5.161521,-1.5652133,3.257995,-1.6513202,-1.5722132,0.9463823
123,1778609095.097582,4.861991,-1.1944599,2.4786813,-0.57986337,-2.2172863,0.59574586
124,1778609095.110048,5.7922893,-1.5030146,2.5199032,-1.200502,-0.32238388,0.3110829
125,1778609095.121058,6.044011,-1.659365,3.3845878,-0.8950696,0.8651372,-0.6039925
126,1778609095.132512,5.698625,-1.7266861,3.6516767,1.0621412,0.9750929,-2.3779438
127,1778609095.143832,4.6629553,-1.9764568,2.8396778,2.3388486,0.56337005,-3.6436558
128,1778609095.154546,3.9248633,-2.0810971,2.2035432,2.7921102,0.22739442,-4.232529
129,1778609095.1649432,2.8899248,-2.093293,1.3256872,2.5331035,0.01970039,-4.581944
130,1778609095.17808,2.5457582,-1.9964579,1.2978806,2.2252276,0.4497492,-4.6210394
131,1778609095.1858711,2.3484297,-1.8757192,1.2839774,2.1091633,0.79549867,-4.67113
132,1778609095.197736,2.2057383,-1.7874215,1.276172,2.0590725,0.9604322,-4.7138906
133,1778609095.208205,1.9771886,-1.60985,1.2493412,2.0211987,1.0703878,-4.8177376
134,1778609095.218475,1.8466932,-1.4864283,1.2683667,2.0089815,1.0435097,-4.9154763
135,1778609095.229613,1.6886351,-1.4181316,1.2825139,2.0529637,1.0105231,-5.0193233
136,1778609095.241009,1.6022886,-1.3976425,1.2820259,2.1568108,1.028849,-5.130501
137,1778609095.251481,1.5405777,-1.4105701,1.2608054,2.272875,1.0862703,-5.209913
138,1778609095.2627919,1.4537433,-1.5025266,1.1890938,2.5306602,1.2927426,-5.291769
139,1778609095.274019,1.6130209,-1.873768,0.9885943,2.9998043,1.7545564,-5.4640326
140,1778609095.284329,1.6722926,-2.1357343,0.84200037,3.1940591,2.080758,-5.644849
141,1778609095.295765,1.6722926,-2.1357343,0.84200037,3.1940591,2.080758,-5.644849
142,1778609095.3067122,1.6693656,-2.324282,0.72077376,3.5312567,2.7588181,-5.982046
143,1778609095.3198369,1.668146,-2.6133232,0.56393534,3.5715737,2.8137958,-6.0125895
144,1778609095.328691,1.5186251,-2.8913882,0.5102737,3.9600837,3.1167848,-6.0480194
145,1778609095.339324,1.3869102,-2.986028,0.4622221,4.260629,3.2585053,-5.9234033
146,1778609095.350029,1.3110521,-3.0048094,0.43319598,4.4793186,3.3024876,-5.7706866
147,1778609095.3611898,1.2847091,-3.0260303,0.41343874,4.8433943,3.2010841,-5.4872456
148,1778609095.371904,1.314223,-3.0316403,0.39416936,5.147605,3.0056074,-5.3174253
149,1778609095.382314,1.4052039,-3.0531049,0.36367974,5.4469285,2.718501,-5.2038045
150,1778609095.392714,1.4849646,-3.043836,0.29050475,5.7181525,2.4460554,-5.2123566
151,1778609095.4060428,1.4954531,-3.0835946,0.17122951,6.0394673,2.1369576,-5.2392344
152,1778609095.4169118,1.4954531,-3.0835946,0.17122951,6.0394673,2.1369576,-5.2392344
153,1778609095.4337332,1.3164183,-2.6940596,-0.043417167,6.4047647,1.6739222,-4.980228
154,1778609095.449613,1.3054421,-2.4445329,-0.15171617,6.3448997,1.6152792,-4.856833
155,1778609095.4634,1.8523031,-2.3198915,-1.0178642,5.003441,1.5444189,-5.0486445
156,1778609095.48173,1.8413268,-2.1391492,-1.2073874,3.6644251,1.5297581,-5.481137
157,1778609095.485733,1.665707,-1.8974278,-0.9059065,2.341292,1.5896229,-5.8623166
158,1778609095.497621,1.6081426,-1.7420528,-0.3175795,1.4995203,1.6910264,-6.1970706
159,1778609095.50826,1.4659392,-1.5330162,0.240014,1.3724605,1.8486296,-6.6161237
160,1778609095.520344,1.1410422,-1.2486094,0.5010049,1.8318307,1.8522947,-7.0180726
161,1778609095.530494,0.62662196,-1.042012,0.1565945,2.4732387,1.476002,-7.356492
162,1778609095.540982,0.3675824,-1.0464026,-0.19488941,2.544099,1.263421,-7.4469
163,1778609095.553944,0.104152426,-1.2298278,-0.49832174,2.3474007,1.182787,-7.4542303
164,1778609095.563377,-0.24074577,-1.3356878,-0.42831767,2.1897974,1.318399,-7.333279
165,1778609095.574413,-0.54100716,-1.2573905,-0.40929216,2.3058617,1.3770419,-7.301514
166,1778609095.5879009,-2.1413445,-0.8227309,-0.81199855,3.2783585,1.2878556,-7.9856825
167,1778609095.597173,-2.1413445,-0.8227309,-0.81199855,3.2783585,1.2878556,-7.9856825
168,1778609095.606891,-4.274152,-1.9162095,-1.4388645,4.4524407,0.7392991,-8.12496
169,1778609095.62192,-6.30671,-2.075243,-2.661131,5.4823585,-3.19467,-5.604532
170,1778609095.632231,-6.30671,-2.075243,-2.661131,5.4823585,-3.19467,-5.604532
171,1778609095.643604,-6.3411016,-1.937674,-3.114572,4.8495026,-4.890431,-3.7035205
172,1778609095.654627,-5.4956865,-1.4334983,-3.5855749,2.0505204,-3.35716,0.41859508
173,1778609095.6665401,-4.97029,-1.3715434,-3.4462984,0.69562227,-2.0425792,1.9017748
174,1778609095.676715,-3.9026668,-1.4337422,-2.865045,-1.3422227,0.035582874,4.1485353
175,1778609095.687583,-2.7879674,-1.627168,-2.1689072,-2.7117815,0.5523745,4.9585423
176,1778609095.6981199,-2.2330573,-1.7513216,-1.7949828,-3.1723735,0.6073523,5.270083
177,1778609095.7093272,-1.6718048,-1.9213316,-1.416668,-3.464367,0.34834564,5.4899945
178,1778609095.7195678,-1.352518,-1.9984094,-1.1642143,-3.5034623,-0.049938194,5.615833
179,1778609095.730122,-0.90517473,-2.1411006,-0.77175236,-3.1894777,-1.0786345,5.934704
180,1778609095.741072,-0.796144,-2.180615,-0.57710683,-2.789972,-1.717599,6.2926707
181,1778609095.753192,-0.27684543,-2.4591677,-0.51807904,-1.9445353,-2.5789185,7.3323627
182,1778609095.762741,-0.27684543,-2.4591677,-0.51807904,-1.9445353,-2.5789185,7.3323627
183,1778609095.7731898,0.020732917,-2.579419,-0.5392997,-1.620777,-2.6412265,7.7514157
184,1778609095.783898,0.4671004,-2.6982062,-0.5712528,-1.3715441,-2.6277876,7.985988
185,1778609095.8094132,1.4066675,-2.6935718,-0.48612595,-0.70692325,-3.8336346,8.175356
186,1778609095.822911,1.6613165,-2.7240615,-0.45441675,-0.27931792,-4.110967,7.9737706
187,1778609095.8369439,1.560091,-2.72211,-0.447831,-0.17791437,-3.7859871,7.934675
188,1778609095.849458,1.560091,-2.72211,-0.447831,-0.17791437,-3.7859871,7.934675
189,1778609095.864192,1.4322786,-2.9755394,-0.49466303,-0.6580541,-2.0816743,8.027527
190,1778609095.8769002,1.4883795,-3.1392076,-0.35806966,-0.6580541,-2.0816743,8.027527
191,1778609095.887338,1.5361872,-3.2065287,-0.27269882,-1.3593268,-1.3669627,8.296308
192,1778609095.898515,1.6757076,-3.3365364,0.039026666,-1.3593268,-1.3669627,8.296308
193,1778609095.910402,1.7493703,-3.3082418,0.193182,-1.5511384,-1.0102177,8.50278
194,1778609095.920703,1.8542545,-3.240433,0.2651374,-1.5047127,-0.93569213,8.490562
195,1778609095.931238,2.1213434,-2.9279757,0.333678,-1.3935353,-0.8342886,8.070288
196,1778609095.944242,2.1462228,-2.6628382,0.27050358,-1.386205,-0.6485857,7.6365733
197,1778609095.9524128,1.9706028,-2.3169644,-0.011951917,-1.4900519,-0.32971427,7.2957106
198,1778609095.963354,1.9706028,-2.3169644,-0.011951917,-1.9934045,0.5890264,6.802132
199,1778609095.9742222,1.8079103,-2.151101,-0.077077664,-2.2866197,1.0679444,6.6457505
200,1778609095.984803,1.4764276,-1.9859697,0.43563515,-3.8455465,3.2487316,6.1081896
201,1778609095.996342,1.4764276,-1.9859697,0.43563515,-3.8455465,3.2487316,6.1081896
202,1778609096.0077069,2.467949,-2.156711,0.8134621,-4.0520186,2.7038403,5.450899
203,1778609096.018208,2.6828396,-2.1796393,0.8288289,-4.0984445,2.316552,4.976868
204,1778609096.0293481,1.7566879,-2.2186658,1.2695863,-4.1876307,1.5016583,3.4216063
205,1778609096.040446,1.7566879,-2.2186658,1.2695863,-4.108218,1.6934699,3.3654068
206,1778609096.051043,1.4615487,-2.2674494,1.1708001,-4.082562,2.4020731,3.973828
207,1778609096.0615501,1.9301127,-2.4518502,0.7412628,-4.4698505,3.1888669,4.8620253
208,1778609096.072154,2.6013713,-2.5867364,0.45124584,-5.260309,3.6079202,5.2651963
209,1778609096.083023,4.0473094,-2.4155068,1.7632736,-7.823498,3.6873326,4.1583095
210,1778609096.093465,4.0473094,-2.4155068,1.7632736,-7.823498,3.6873326,4.1583095
211,1778609096.103969,4.1304846,-2.0742674,4.070969,-7.086795,1.6934699,2.1668901
212,1778609096.114308,3.7868063,-1.914502,4.7834496,-7.086795,1.6934699,2.1668901
213,1778609096.125321,3.3292189,-1.7703472,4.7141776,-3.6244135,-1.3461933,1.0343468
214,1778609096.1367931,3.0299327,-1.5035024,4.2958603,-2.7166684,-1.8996367,1.213941
215,1778609096.159766,3.1221335,-1.3469079,4.113167,-2.2707372,-1.672395,1.5095996
216,1778609096.1735291,5.019805,-0.75248295,5.3000655,-0.64339334,-1.107956,1.5242603
217,1778609096.185096,5.5164194,-0.8688312,5.36324,0.8654427,-0.7231112,0.36850417
218,1778609096.1988952,4.984681,-0.95395815,4.733935,2.36817,-0.04016436,-0.9790635
219,1778609096.210155,4.1936593,-1.179581,3.7721713,3.3504405,0.6892082,-1.7841833
220,1778609096.220824,3.735096,-1.3769096,3.1450617,3.7291768,1.2780819,-2.0602942
221,1778609096.2311099,3.2928748,-1.6605847,2.3840415,3.9661922,2.1284056,-2.2313364
222,1778609096.2415318,3.0099318,-1.7744938,2.0115807,4.012618,2.56945,-2.2997532
223,1778609096.252099,2.7591853,-1.750346,1.7635175,4.0517135,2.6806273,-2.341292
224,1778609096.2636611,2.5447826,-1.6193627,1.5476513,4.0981393,2.5303547,-2.4194827
225,1778609096.274095,2.1852493,-1.2308036,1.2061679,4.0346093,1.7117958,-2.7994406
226,1778609096.284459,2.1852493,-1.2308036,1.2061679,4.0346093,1.7117958,-2.7994406
227,1778609096.294754,1.9171851,-0.9683492,1.0254257,3.7633853,1.4124721,-3.3150105
228,1778609096.305433,1.7369306,-1.0044488,0.98103285,3.583791,1.457676,-3.692525
229,1778609096.315786,1.6474131,-1.0490856,0.95834863,3.5398088,1.5285364,-3.8098109
230,1778609096.328614,1.428376,-1.1871424,0.9244442,3.4994917,1.787543,-3.9796314
231,1778609096.33671,1.3247114,-1.3730069,0.898833,3.5984516,2.0416627,-4.027279
232,1778609096.347048,1.3247114,-1.3730069,0.898833,3.5984516,2.0416627,-4.027279
233,1778609096.358015,1.320077,-1.6779027,0.80394936,3.7609417,2.1308491,-4.0260572
234,1778609096.3685062,1.3495909,-1.7869337,0.7612639,4.131126,1.9317071,-4.0150614
235,1778609096.3787851,1.4086188,-1.9303565,0.68491805,4.4243407,1.6091706,-4.0407176
236,1778609096.389813,1.4552069,-1.9888965,0.6697952,4.6027136,1.3672681,-4.0688176
237,1778609096.4001122,1.5464318,-2.1852493,0.62076795,4.6027136,1.3672681,-4.0688176
238,1778609096.410481,1.5605788,-2.350869,0.503444,5.2209086,1.1070397,-4.2044296
239,1778609096.421797,1.5605788,-2.350869,0.503444,5.417607,1.1974477,-4.2251987
240,1778609096.432262,1.5291137,-2.3928225,0.34782517,5.6411834,1.4466805,-4.2740684
241,1778609096.4428558,1.4842329,-2.3937984,0.19976775,5.6717267,1.6348269,-4.293616
242,1778609096.4531982,1.4566704,-2.371358,0.08268775,5.5959797,1.6861395,-4.302168
243,1778609096.463378,1.4405719,-2.3303797,0.011708,5.385842,1.6824744,-4.297281
244,1778609096.474272,1.5871658,-2.338917,-0.06610142,5.0107713,1.7289001,-4.324159
245,1778609096.484907,1.5871658,-2.338917,-0.06610142,5.0107713,1.7289001,-4.324159
246,1778609096.4977548,1.6781467,-2.330136,-0.070248,4.795747,1.8620685,-4.4451103
247,1778609096.506769,1.7637614,-2.309159,0.06219875,4.541627,1.8974987,-4.8580546
248,1778609096.51725,1.8596207,-2.3467224,0.14366692,4.5489573,1.7142392,-5.029097
249,1778609096.528249,2.0408506,-2.3869686,0.10707942,4.6027136,1.124144,-5.352855
250,1778609096.546435,2.1811028,-2.0859754,-0.35563052,4.5074186,0.7845031,-5.566658
251,1778609096.562811,2.4706318,-1.9847499,-0.45246542,3.3382232,1.1669044,-6.199514
252,1778609096.580126,2.7882116,-2.0379238,-0.23952618,2.3302965,3.2218535,-7.562964
253,1778609096.596071,2.5420995,-2.1232946,-0.054637335,2.440252,3.468643,-8.430392
254,1778609096.6119812,1.59863,-2.0852437,0.12805626,2.6736023,3.1668758,-8.678403
255,1778609096.6176262,1.59863,-2.0852437,0.12805626,2.6736023,3.1668758,-8.678403
256,1778609096.629888,-0.090737,-1.9827987,-0.0039026667,3.6900814,3.731315,-8.953292
257,1778609096.6408188,-2.7123535,-2.1120746,-1.2569027,4.7566514,3.6885543,-8.790802
258,1778609096.651145,-2.7123535,-2.1120746,-1.2569027,5.0303187,2.4032948,-8.129847
259,1778609096.662221,-3.2504337,-2.2786694,-1.943772,4.825068,0.3178024,-6.947212
260,1778609096.673314,-3.8304672,-1.6879033,-3.1372564,2.3474007,1.0190752,-5.3833985
261,1778609096.684421,-4.850039,-1.6408274,-3.0272498,1.4005603,1.8767294,-4.9936666
262,1778609096.6958258,-6.158408,-1.6178993,-2.315257,1.4005603,1.8767294,-4.9936666
263,1778609096.7069,-6.472085,-1.6000934,-2.075243,0.99250257,1.3293945,-1.8183917
264,1778609096.717379,-6.230851,-1.6069231,-2.0715842,1.3101523,0.066126116,-0.56611896
265,1778609096.728867,-5.43861,-1.6639994,-2.2223246,1.7011057,-1.7689117,1.2615885
266,1778609096.7394712,-4.680517,-1.7344915,-2.4072137,1.6375757,-2.4726279,2.5358524
267,1778609096.750077,-3.8051002,-1.7801039,-2.5177078,0.51358455,-2.134209,4.240165
268,1778609096.761353,-3.0043216,-1.8086421,-2.4074576,0.51358455,-2.134209,4.240165
269,1778609096.771965,-2.1152453,-1.8684016,-1.7732742,-0.43325585,-1.6027565,4.917003
270,1778609096.782836,-1.946211,-1.9488941,-1.563018,-0.5346594,-1.7628031,5.2688613
271,1778609096.793352,-1.946211,-1.9488941,-1.563018,-0.5346594,-1.7628031,5.2688613
272,1778609096.8040252,-1.4644758,-2.2881823,-1.1715318,-0.3037525,-2.6021311,6.2841187
273,1778609096.815049,-1.4644758,-2.2881823,-1.1715318,-0.3037525,-2.6021311,6.2841187
274,1778609096.8260548,-0.8361463,-2.6152744,-0.96786135,0.2423606,-3.5905104,7.858928
275,1778609096.836382,-0.20976834,-2.8350434,-0.8971255,0.51602805,-3.9533641,8.51011
276,1778609096.846741,0.23342825,-3.0016387,-0.89175934,0.7628174,-4.2539096,9.011019
277,1778609096.8573399,0.92541987,-3.2367742,-0.8534644,0.9790635,-4.5666723,9.320117
278,1778609096.870634,1.2361697,-3.3219013,-0.78565556,1.162323,-4.858666,9.478942
279,1778609096.879174,1.6266803,-3.3121443,-0.6378421,1.5679371,-5.2850494,9.759939
280,1778609096.889576,1.8596207,-3.2540925,-0.62418276,1.862374,-5.269167,9.916321
281,1778609096.8999832,2.1306121,-3.1916494,-0.7805334,2.1177154,-4.8611093,9.996955
282,1778609096.911058,2.3567228,-3.22531,-1.0846975,1.8965824,-3.864178,9.907768
283,1778609096.921431,2.5008776,-3.251653,-1.2337306,1.4127775,-3.0932665,9.741613
284,1778609096.9324212,2.5894194,-3.1823807,-1.2188516,0.17883067,-1.6210824,9.295682
285,1778609096.942985,2.3362339,-3.0013945,-0.5693015,-1.9091052,0.54260063,8.605405
286,1778609096.955235,2.186713,-2.9765153,-0.11098208,-2.6348126,1.2328779,8.326851
287,1778609096.9643068,2.186713,-2.9765153,-0.11098208,-2.6348126,1.2328779,8.326851
288,1778609096.978761,1.9079163,-2.8467515,0.6802836,-2.9878924,1.8498513,8.082504
289,1778609096.995664,1.7998612,-2.7657712,0.87639266,-2.4784312,1.643379,7.8662586
290,1778609097.000135,1.7635175,-2.7162561,0.8500496,-2.4784312,1.643379,7.8662586
291,1778609097.012245,1.7635175,-2.7162561,0.8500496,-2.1778858,1.2780819,7.696438
292,1778609097.023125,1.7522974,-2.5516121,0.75345856,-1.5340341,0.42653632,7.34458
293,1778609097.0338671,1.7722986,-2.4684367,0.7383357,-1.2701406,0.090560704,7.1698728
294,1778609097.045662,1.9574313,-2.122319,0.47368616,-1.2701406,0.090560704,7.1698728
295,1778609097.056928,2.1815906,-2.1584187,0.036587503,-0.6983712,-0.2197586,6.4258394
296,1778609097.067753,2.24257,-2.1245143,-0.26611307,-0.6983712,-0.2197586,6.4258394
297,1778609097.080174,2.0830483,-1.867182,-0.4024625,-1.7136284,1.1314743,5.766105
298,1778609097.090498,2.0532904,-1.8154716,-0.3644115,-1.7136284,1.1314743,5.766105
299,1778609097.100957,1.6788785,-1.7720546,0.018781584,-3.2175775,2.4484987,5.0697193
300,1778609097.111883,1.6788785,-1.7720546,0.018781584,-3.2175775,2.4484987,5.0697193
301,1778609097.1230779,1.8125448,-2.2137878,0.37050945,-4.050797,3.1375542,5.7380056
302,1778609097.1337159,2.3962374,-2.4128237,0.33099493,-4.442972,3.319592,6.224254
303,1778609097.14583,4.0790186,-2.371114,0.869319,-4.442972,3.319592,6.224254
304,1778609097.157186,4.716373,-1.9984094,1.3710556,-5.8858347,3.4063346,5.522981
305,1778609097.167488,4.716373,-1.9984094,1.3710556,-5.8858347,3.4063346,5.522981
306,1778609097.178786,4.642466,-1.4178876,2.3718457,-5.3055134,3.2047493,3.2664466
307,1778609097.189499,4.3756213,-1.2144611,2.6155186,-4.8229303,2.397186,2.709338
308,1778609097.2005508,4.3497663,-0.85492796,3.047495,-3.8809767,0.031917684,2.2426374
309,1778609097.212054,5.073711,-0.8451712,3.1604283,-2.903593,-2.291812,1.7026329
310,1778609097.223258,5.2195725,-0.57564336,3.067496,-2.4930918,-2.9637632,1.200502
311,1778609097.233851,5.5847163,-0.4931995,2.8028467,-2.505309,-2.2331688,0.24999641
312,1778609097.244173,6.0127897,-0.82809705,3.208236,-2.831511,-0.39080074,-0.5526799
313,1778609097.255306,6.0632806,-0.960056,3.7419257,-2.3855796,1.6946917,-1.3895646
314,1778609097.265894,5.6252065,-1.2303157,3.734852,-1.7490586,2.859,-2.1226025
315,1778609097.277101,4.458553,-1.4239855,3.1950645,-0.6531672,4.0404124,-2.987587
316,1778609097.287787,3.7102163,-1.4922822,2.6499107,0.032223117,4.1576986,-3.2062764
317,1778609097.298183,3.3828804,-1.5210644,2.2957437,0.51602805,3.884031,-3.2527022
318,1778609097.3094678,3.067496,-1.4327666,1.8101057,0.8483385,3.5566075,-3.3101234
319,1778609097.3205209,3.0452998,-1.4320347,1.5996056,1.021824,3.2450664,-3.4139705
320,1778609097.3306391,3.0287135,-1.4444746,1.3369073,1.1745403,2.6525276,-3.7523897
321,1778609097.341682,2.9430985,-1.4352057,1.1656778,1.2185225,2.397186,-4.1274605
322,1778609097.35259,2.1386614,-1.2993441,0.8617576,1.0352631,2.6451972,-4.6210394
323,1778609097.363116,2.1386614,-1.2993441,0.8617576,1.0352631,2.6451972,-4.6210394
324,1778609097.374045,1.6049716,-1.2076315,0.857611,0.7029526,3.6457937,-4.429228
325,1778609097.3847392,1.6049716,-1.2076315,0.857611,0.7029526,3.6457937,-4.429228
326,1778609097.395413,1.4398401,-1.2642201,1.0266452,1.0071633,4.564534,-3.9820747
327,1778609097.4064572,1.4915504,-1.3208088,1.030304,1.2832742,4.661051,-3.8647888
328,1778609097.417019,1.4915504,-1.3208088,1.030304,1.2832742,4.661051,-3.8647888
329,1778609097.427948,1.7371745,-1.6491206,0.8007784,2.0859506,4.386162,-3.8244717
330,1778609097.438526,1.7691276,-1.8379121,0.7097975,2.4194827,4.0843945,-3.85868
331,1778609097.449474,1.6869277,-2.1847615,0.57588726,2.806771,3.8009534,-3.7694938
332,1778609097.4598641,1.6300951,-2.2472043,0.573692,2.964374,3.7557495,-3.6619816
333,1778609097.470582,1.6383883,-2.254034,0.69004023,3.4823873,3.8547094,-3.2832456
334,1778609097.481517,1.7603467,-2.2328131,0.75321466,4.1103563,4.1027207,-3.0437865
335,1778609097.4927979,2.2484238,-2.4845352,0.28757775,5.5251193,4.657386,-3.1085382
336,1778609097.503382,2.329404,-2.683571,-0.023172084,5.815891,4.8088803,-3.3333364
337,1778609097.515913,2.329404,-2.683571,-0.023172084,5.815891,4.8088803,-3.3333364
338,1778609097.525135,2.251107,-2.789675,-0.18049833,5.9258466,4.890736,-3.5165958
339,1778609097.535451,1.8237649,-2.8762655,-0.24196534,6.0529065,4.7587895,-3.326006
340,1778609097.546672,1.6422908,-2.7684543,-0.22684251,6.0968885,4.4851217,-2.9924738
341,1778609097.556986,1.9430403,-2.800895,-0.4051456,6.0480194,4.5828605,-2.7359107
342,1778609097.567269,1.9430403,-2.800895,-0.4051456,6.0480194,4.5828605,-2.7359107
343,1778609097.577565,2.575516,-2.7972362,-0.6249145,5.5862055,5.8998847,-2.9936955
344,1778609097.587831,2.5801506,-2.7904067,-0.7480924,5.344303,6.3934636,-3.190394
345,1778609097.598063,2.5330746,-2.707719,-0.93859136,4.8311768,6.650027,-3.3516624
346,1778609097.609092,2.6384468,-2.6343002,-1.0422559,4.2227554,6.381246,-3.4970481
347,1778609097.619334,2.6384468,-2.6343002,-1.0422559,4.2227554,6.381246,-3.4970481
348,1778609097.6302888,2.353308,-2.195494,-0.8973694,3.6974118,6.1576695,-3.9332056
349,1778609097.6408849,1.5498465,-1.6525356,-0.94249403,3.6351037,6.074592,-4.0370526
350,1778609097.653541,1.2251934,-1.3691043,-1.1064061,3.4652832,5.5480266,-3.8867798
351,1778609097.6645162,1.2251934,-1.3691043,-1.1064061,3.4652832,5.5480266,-3.8867798
352,1778609097.6845021,0.4012429,-0.9485919,-1.1405544,3.5947864,5.28902,-4.9826713
353,1778609097.69805,-0.41002396,-0.9237125,-1.3266628,4.33882,4.223672,-4.8959284
354,1778609097.714999,-0.9581047,-1.0871366,-2.2440333,4.9790063,3.0642505,-4.6760173
355,1778609097.730598,-2.376968,-0.9110288,-3.4445913,4.2227554,0.11499529,-4.1726646
356,1778609097.747359,-3.0884728,-0.532714,-3.746316,2.62229,-1.3327543,-3.5361435
357,1778609097.763653,-3.8904707,-0.37197292,-3.7807086,1.3077087,-0.62292933,-3.001026
358,1778609097.768429,-4.5792913,-0.30928633,-3.5287426,0.08720095,0.6562215,-2.001651
359,1778609097.780423,-4.882968,-0.33733675,-2.9611483,-0.84253526,1.5285364,-0.43539387
360,1778609097.791062,-4.923946,-0.18903543,-2.1998844,-0.8315397,1.3403901,0.229227
361,1778609097.8017569,-4.2634196,-0.061710916,-1.4149606,0.16172644,-0.39202246,1.6818634
362,1778609097.813961,-3.8219302,-0.0039026667,-1.3278824,0.7982476,-1.2765547,2.0728168
363,1778609097.8245,-2.5594175,0.08512692,-2.6821077,2.9839218,-4.275901,2.3269367
364,1778609097.8350132,-2.5594175,0.08512692,-2.6821077,2.9839218,-4.275901,2.3269367
365,1778609097.846638,-2.5623448,-0.05585692,-3.3701966,1.7353141,-4.00712,2.5981605
366,1778609097.856373,-2.4623387,-0.21781757,-3.2355547,0.6687442,-3.64671,3.0013313
367,1778609097.867129,-2.4623387,-0.21781757,-3.2355547,0.6687442,-3.64671,3.0013313
368,1778609097.878028,-2.078414,-0.7415067,-2.280621,-0.979369,-3.2789695,4.01048
369,1778609097.89151,-2.0264597,-0.8776122,-2.0067024,-1.1736239,-3.3266168,4.3342385
370,1778609097.902001,-1.0078636,-1.6525356,-1.071282,-1.0538945,-4.0511026,6.471043
371,1778609097.912482,-1.0078636,-1.6525356,-1.071282,-0.77656186,-4.510473,7.1026773
372,1778609097.925815,-0.10073759,-1.9191364,-0.933713,-0.77656186,-4.510473,7.1026773
373,1778609097.936233,0.8846858,-2.1530523,-0.869319,-0.23533566,-5.694329,7.5779305
374,1778609097.9468548,0.8846858,-2.1530523,-0.869319,-0.23533566,-5.694329,7.5779305
375,1778609097.9589849,1.7620541,-2.3464782,-0.84151256,0.35475972,-6.8916235,7.284715
376,1778609097.96953,2.204275,-2.4567287,-0.94127446,0.6101012,-6.7254686,6.7202764
377,1778609097.979989,2.286231,-2.5460021,-1.0720137,0.6015491,-6.0388565,6.296336
378,1778609097.993196,2.2203734,-2.543807,-1.3017833,0.20570871,-4.6436415,5.893165
379,1778609098.002819,1.7437602,-2.2537901,-1.4374009,-1.5108213,-2.467741,5.59262
380,1778609098.011501,1.7437602,-2.2537901,-1.4374009,-1.5108213,-2.467741,5.59262
381,1778609098.0222552,1.6671704,-2.3633087,-1.1842154,-2.221868,-1.6992731,5.619498
382,1778609098.03262,1.5598471,-2.4877062,-0.5068588,-2.948797,-1.2753329,5.6659236
383,1778609098.0433369,1.4300835,-2.5062437,-0.12854409,-3.4778059,-0.5862775,5.840631
384,1778609098.055244,1.4300835,-2.5062437,-0.12854409,-3.4778059,-0.5862775,5.840631
385,1778609098.066394,1.3683724,-2.508439,0.137569,-3.355633,-0.5581777,6.028777
386,1778609098.0833411,1.3634942,-2.5701501,0.23903833,-2.8376195,-0.88315773,6.3048882
387,1778609098.099596,1.4054478,-2.648935,0.12976366,-2.3660321,-1.2765547,6.632312
388,1778609098.113215,1.5286257,-2.742599,-0.0307335,-2.3025022,-1.4353795,6.8045754
389,1778609098.128701,1.7286373,-2.6686924,-0.29489526,-2.8473935,-1.3095413,7.011048
390,1778609098.139366,1.8347412,-2.6682045,-0.24318492,-3.178482,-1.0346522,7.0086045
391,1778609098.150007,1.9423084,-2.6296656,-0.026830835,-3.6952739,-0.24663666,6.8766575
392,1778609098.162431,1.9793837,-2.300622,0.57271636,-3.9493935,0.45463613,6.785028
393,1778609098.17348,2.2350085,-2.1235385,0.59149796,-4.01048,1.0129665,6.471043
394,1778609098.183908,2.2350085,-2.1235385,0.59149796,-4.01048,1.0129665,6.471043
395,1778609098.195328,2.7884552,-1.9476746,0.3966085,-4.7887216,1.4026983,4.9988594
396,1778609098.2062411,2.3511128,-1.9998728,0.7185785,-5.549859,2.3409865,4.0129232
397,1778609098.216697,2.3511128,-1.9998728,0.7185785,-5.549859,2.3409865,4.0129232
398,1778609098.230401,1.791324,-1.9525529,1.6398518,-5.9420342,3.2719445,4.267043
399,1778609098.237582,2.4508746,-2.013776,1.9427962,-5.6427107,2.8883214,4.697092
400,1778609098.248066,3.7128994,-1.9079163,1.9320639,-5.243205,1.864512,4.345234
401,1778609098.25848,3.925839,-1.7991294,1.891086,-5.1650143,1.3648247,3.8773115
402,1778609098.269863,4.504653,-1.6215581,1.8620598,-5.2871876,0.09911281,2.0422738
403,1778609098.27997,4.2100015,-1.6291195,1.9559679,-5.522981,-0.018173227,1.0746639
404,1778609098.2905338,3.9331565,-1.730101,2.1313438,-5.7465577,0.055130545,0.6421716
405,1778609098.3036249,3.6897275,-1.7144903,2.9043157,-5.8833914,-0.3639227,0.40882125
406,1778609098.3117251,3.9709635,-1.7171735,3.123353,-5.7844315,-0.958905,0.23533566
407,1778609098.322588,4.190732,-1.6327783,3.4462984,-5.768549,-1.8996367,-0.2753473
408,1778609098.3329148,4.365133,-1.6115575,4.0204782,-5.8455176,-2.5825837,-0.7701478
409,1778609098.3438919,4.286348,-1.8723043,5.730822,-5.1063714,0.56703526,-2.2582145
410,1778609098.354455,2.8045537,-1.9120629,6.330613,-3.7160432,3.771632,-2.7102542
411,1778609098.365979,1.7525413,-2.0074341,6.2337785,-1.6647593,5.6115565,-2.105498
412,1778609098.375572,1.7332718,-2.0801213,5.8325353,0.5319105,5.4001975,-1.1158972
413,1778609098.385988,1.7332718,-2.0801213,5.8325353,2.1140504,4.2969756,-0.63209236
414,1778609098.396759,2.5091708,-2.2406185,4.2024403,4.73466,1.254869,-0.5062542
415,1778609098.4074519,2.5342941,-2.242326,3.7380228,5.0633054,0.8174898,-0.5575668
416,1778609098.419929,2.5308795,-2.1667118,2.2323253,6.155532,-0.41523534,-0.9167553
417,1778609098.428828,2.625763,-2.0328016,1.4610609,5.7670217,0.38744098,-1.0291544
418,1778609098.441092,2.6884496,-1.9101114,1.0905514,5.1610436,1.4931062,-1.1330014
419,1778609098.4521542,2.561125,-1.6671704,0.90371126,3.9979572,3.5529423,-1.351691
420,1778609098.4634671,1.9469428,-1.3505666,1.2415359,2.8250968,5.74106,-1.5361722
421,1778609098.485028,1.6493646,-1.2561709,1.4361813,2.7579017,6.0648184,-1.5569416
422,1778609098.496164,1.4013013,-1.3169061,1.6147283,3.3406668,5.165625,-1.4530946
423,1778609098.509961,1.390325,-1.3588598,1.648389,3.7181811,4.619512,-1.4384339
424,1778609098.520925,1.3351998,-1.5066732,1.5710672,3.7181811,4.619512,-1.4384339
425,1778609098.533084,1.3534936,-1.66839,1.399106,4.9851146,3.3550222,-1.4897465
426,1778609098.548352,1.3534936,-1.66839,1.399106,4.9851146,3.3550222,-1.4897465
427,1778609098.56771,1.3051981,-2.2972074,0.77224016,5.6961613,3.2597272,-1.5373939
428,1778609098.5826502,1.2947097,-2.5011215,0.61198694,6.0712323,3.9707737,-0.9240857
429,1778609098.5972,1.4417914,-2.5930781,0.5702772,6.362004,3.7239845,-0.4818196
430,1778609098.604911,1.452036,-2.6191773,0.5458855,6.504946,3.4576473,-0.34865108
431,1778609098.6151419,1.5232596,-2.6464958,0.55905706,6.7114186,2.9567382,-0.17760894
432,1778609098.6265018,1.6825373,-2.7006454,0.52686,7.016851,2.501033,-0.10919208
433,1778609098.637009,1.8101057,-2.730647,0.44026962,7.1903367,2.4875941,-0.15683953
434,1778609098.6473138,1.8659626,-2.722354,0.33148277,7.3992524,2.66841,-0.31077746
435,1778609098.6581252,1.8591329,-2.6757658,0.22537899,7.4835515,2.7844744,-0.43050694
436,1778609098.668812,1.8532789,-2.6303973,0.128788,7.470113,2.6561928,-0.5526799
437,1778609098.6792462,1.8484006,-2.6089327,0.08366342,7.388257,2.2652392,-0.69440055
438,1778609098.689624,1.8137645,-2.5889316,0.080492504,7.313731,1.8608469,-0.8153518
439,1778609098.699919,1.7952268,-2.5764918,0.13220283,7.241649,0.9140064,-1.1232276
440,1778609098.71087,1.8066907,-2.6069813,0.19440159,7.2856317,0.3996583,-1.3211478
441,1778609098.721992,1.8559619,-2.693084,0.6512575,7.949031,-1.0749693,-2.115272
442,1778609098.7330859,1.8559619,-2.693084,0.6512575,7.949031,-1.0749693,-2.115272
443,1778609098.7445881,1.7847383,-2.7506483,0.76004434,8.526909,-2.09267,-2.612516
444,1778609098.755321,1.7344915,-2.889437,0.9832281,9.885472,-5.495187,-3.6546512
445,1778609098.766352,1.8459613,-2.9952967,1.147628,10.855525,-7.8274684,-4.4890924
446,1778609098.778678,1.756444,-3.120426,0.7390675,11.762049,-10.255045,-5.9380636
447,1778609098.789422,1.2688545,-3.1540864,0.21854934,12.005173,-12.46271,-7.919709
448,1778609098.799708,0.3851444,-3.2453113,-0.09854234,11.456616,-14.62395,-10.452354
449,1778609098.812649,-0.48612595,-3.1377442,-0.014147166,11.132858,-15.09676,-11.29657
450,1778609098.82085,-2.435508,-2.872119,-1.291051,9.773073,-15.36554,-12.634363
451,1778609098.832127,-4.417575,-2.572345,-3.1960402,6.3766646,-14.429695,-11.8439045
452,1778609098.842805,-4.5819745,-1.6020447,-3.445079,-4.2426085,-5.4793043,-4.128682
453,1778609098.855103,-3.6021614,-2.2111046,-2.227447,-7.758746,-0.12202024,-2.1238241
454,1778609098.866741,-3.5487435,-2.8147984,-0.6776005,-9.756274,4.0171995,-1.2515092
455,1778609098.88958,-4.3319597,-2.3435514,1.6644872,-9.227265,5.5626874,-0.7628174
456,1778609098.9068449,-3.9670606,-1.7201004,3.3384876,-3.6048658,-1.1140647,-0.71150476
457,1778609098.9182851,-3.9055939,-1.4771594,2.9789543,-3.6048658,-1.1140647,-0.71150476
458,1778609098.932414,-4.1292653,-1.3688604,2.27745,2.1812453,-4.663189,-0.61254466
459,1778609098.947894,-4.1980495,-1.2334865,1.2559268,4.2276425,-3.9912376,0.69714946
460,1778609098.964308,-3.4265413,-1.4147167,-0.23757485,4.3461504,-2.205069,2.5700607
461,1778609098.968891,-3.4265413,-1.4147167,-0.23757485,4.3461504,-2.205069,2.5700607
462,1778609098.981432,-2.842117,-1.5093564,-0.9246881,3.1439683,-0.95646155,3.5169013
463,1778609098.9917219,-2.5742967,-1.5557005,-1.0973811,2.1042764,-0.17455462,3.9799368
464,1778609099.0024152,-2.1520767,-1.717905,-0.36221626,0.4085158,0.77839446,4.68854
465,1778609099.014708,-1.6191188,-1.9193802,0.9085896,-0.10461059,0.123547405,5.8284135
466,1778609099.025975,-1.2508047,-2.0623155,1.5064293,1.0242676,-0.9259183,6.309775
467,1778609099.036662,-1.2508047,-2.0623155,1.5064293,1.0242676,-0.9259183,6.309775
468,1778609099.047106,-0.29294392,-2.5011215,1.3617868,4.4475536,-3.104262,7.046478
469,1778609099.057445,0.08585867,-2.705036,1.0078636,5.2343473,-3.4634507,7.131999
470,1778609099.067672,0.6558919,-2.9640756,0.44978234,7.0864897,-3.998568,7.199194
471,1778609099.0789702,1.1305537,-3.1338413,0.024635585,8.10419,-3.9289296,7.0489216
472,1778609099.0892448,1.5025266,-3.2277493,-0.35733792,8.497587,-3.768883,6.877879
473,1778609099.099572,1.7422968,-3.1801856,-0.7473607,8.76759,-3.348608,6.657968
474,1778609099.11021,1.8562059,-3.0633495,-1.121285,8.717499,-2.7817254,6.549234
475,1778609099.1212952,2.0330455,-2.6440568,-2.043778,7.5617423,-0.95279634,6.4893694
476,1778609099.132504,2.0535345,-2.382578,-2.332575,6.402321,0.1443168,6.528465
477,1778609099.141969,1.888159,-2.0037754,-2.0571933,4.491536,1.5664101,6.6775155
478,1778609099.152559,1.888159,-2.0037754,-2.0571933,2.0236423,3.1497715,7.0403695
479,1778609099.164568,1.7871774,-2.0484123,-1.4066675,-1.0416771,5.0654435,7.714764
480,1778609099.175012,1.6579015,-2.2967196,-0.29489526,-2.0068436,5.8925543,7.9114623
481,1778609099.18677,1.6579015,-2.2967196,-0.29489526,-2.0068436,5.8925543,7.9114623
482,1778609099.198061,1.3886176,-2.4933162,0.49344343,-2.8302891,7.143605,8.146034
483,1778609099.209012,1.2630005,-2.5564907,0.7244325,-2.895041,7.4429293,8.2755375
484,1778609099.2213,1.1295781,-2.5760038,0.9356643,-2.6714644,7.7459183,8.561422
485,1778609099.231646,1.2017775,-2.640154,0.91444355,-2.3489277,7.340304,8.804546
486,1778609099.242888,1.7279058,-2.6655214,0.8832222,-1.5719078,5.3256717,8.667713
487,1778609099.268029,2.1157334,-2.5184398,0.5241769,-0.6250674,2.7905831,7.9200144
488,1778609099.270998,2.1157334,-2.5184398,0.5241769,-0.6250674,2.7905831,7.9200144
489,1778609099.2812438,2.0506074,-2.4350202,0.17562,-0.39171705,2.1565053,7.5351696
490,1778609099.298574,1.6320465,-1.9791399,-0.2941635,-1.0038035,2.4656029,7.448427
491,1778609099.3145542,1.6096061,-1.8598647,-0.34953257,-1.512043,2.9176428,7.5583825
492,1778609099.331738,2.064023,-1.8005928,-0.35489875,-2.998888,4.068512,7.6035867
493,1778609099.348496,2.69284,-2.4047747,0.025367333,-6.265793,5.541918,5.893165
494,1778609099.364575,2.353308,-2.6377149,1.209095,-7.3690147,5.326894,5.315287
495,1778609099.380148,2.4652658,-2.5923464,1.8801097,-7.1564336,4.8223195,5.474112
496,1778609099.385204,2.4652658,-2.5923464,1.8801097,-7.1564336,4.8223195,5.474112
497,1778609099.39692,2.7523556,-2.2328131,2.1240265,-6.6103206,4.3018627,5.563298
498,1778609099.408389,4.2102456,-2.0135322,2.1115868,-6.124072,3.69955,5.2676396
499,1778609099.418875,4.510507,-1.7698594,2.250863,-5.6952453,1.6030619,3.0685265
500,1778609099.431087,4.4534307,-1.6732683,2.537465,-5.0709414,-0.8965968,0.32574365
501,1778609099.4418051,4.1439004,-1.7332718,2.8230915,-5.0709414,-0.8965968,0.32574365
502,1778609099.452727,3.6977768,-1.6400958,3.0626178,-4.6494446,-1.2533418,-0.24113888
503,1778609099.4652429,3.2131143,-1.6710732,3.475081,-3.4362671,-2.1818564,-0.48304132
504,1778609099.47618,3.3775141,-1.5152103,3.7482674,-2.6225953,-2.4567454,-0.44516772
505,1778609099.486927,3.6741168,-1.4849646,3.8546152,-1.9042182,-2.079231,-0.6846267
506,1778609099.497928,3.8519323,-1.6266803,3.8494928,-0.96715164,-1.1763729,-1.3077087
507,1778609099.5102751,3.8014414,-1.7598588,3.811442,-0.5835286,-0.7658717,-1.5789328
508,1778609099.521077,3.4741054,-1.8971838,3.7136314,0.5148063,0.30802858,-2.1751368
509,1778609099.5322611,3.1135962,-2.0062146,3.482886,1.7915137,1.2646428,-2.5526512
510,1778609099.5438678,2.8516297,-2.1823225,3.0487144,2.4842343,1.5786273,-2.661385
511,1778609099.554492,2.6245432,-2.3335507,2.4491673,3.366323,1.7447826,-2.7505715
512,1778609099.5657432,2.4725833,-2.4657538,1.7808355,4.090809,1.476002,-2.7933319
513,1778609099.577228,2.426971,-2.4345324,1.5142347,4.2826204,1.236543,-2.8104362
514,1778609099.587903,2.426971,-2.4345324,1.5142347,4.4047933,1.0471749,-2.8568618
515,1778609099.598179,2.4725833,-2.2647662,1.2332426,4.575835,0.75395983,-3.0853252
516,1778609099.611603,2.4455085,-2.1918352,1.1254315,4.6344786,0.6110175,-3.3064582
517,1778609099.619654,2.3398926,-2.0886586,0.96517825,4.6381435,0.51816607,-3.6399906
518,1778609099.630166,2.0981712,-1.9691392,0.75809306,4.4878707,0.5829177,-3.9894052
519,1778609099.640797,1.9091357,-1.9240146,0.6712587,4.2716246,0.88957185,-4.1103563
520,1778609099.651967,1.5757017,-1.7203442,0.6188166,4.0321655,1.3990331,-4.0468264
521,1778609099.6632771,1.4132532,-1.5317967,0.61759704,3.7719374,2.6794057,-3.7377288
522,1778609099.6738062,1.4176437,-1.51643,0.5978397,3.732842,3.269501,-3.6570947
523,1778609099.6844559,1.4176437,-1.51643,0.5978397,3.732842,3.269501,-3.6570947
524,1778609099.695429,1.4613048,-1.5739943,0.620524,3.9185448,4.006204,-3.6729772
525,1778609099.717271,1.5069171,-1.770835,0.5495443,4.4475536,4.041634,-3.9246535
526,1778609099.731616,1.5171617,-1.8549863,0.5112493,4.595383,3.920683,-4.0101748
527,1778609099.749342,1.3681285,-2.2440333,0.33001924,5.2270174,2.8015785,-4.3314896
528,1778609099.7634869,1.2122658,-2.3633087,0.3114816,5.630188,1.6812526,-4.2887287
529,1778609099.781847,1.185435,-2.3969693,0.304408,5.837882,1.0984876,-4.2508554
530,1778609099.784163,1.1788493,-2.4216046,0.2763576,6.028472,0.53038335,-4.24719
531,1778609099.7961931,1.1900694,-2.4135556,0.23830658,6.208066,-0.08170316,-4.315607
532,1778609099.807541,1.2015336,-2.3701384,0.18269359,6.208066,-0.08170316,-4.315607
533,1778609099.818398,1.2015336,-2.3701384,0.18269359,6.208066,-0.08170316,-4.315607
534,1778609099.829859,1.182508,-2.247936,0.00024391667,6.267931,-1.0138829,-4.8812675
535,1778609099.840299,1.1376274,-2.154516,-0.07341892,6.1347623,-1.2557852,-5.075523
536,1778609099.8507788,1.0761603,-2.0764627,-0.16318026,5.92829,-1.4671445,-5.2160215
537,1778609099.863422,1.1542137,-1.9679198,-0.348313,5.2929907,-1.6577343,-5.395616
538,1778609099.874539,1.1929965,-1.9093797,-0.47588143,4.838507,-1.6699516,-5.5373363
539,1778609099.885119,1.1990943,-1.8557181,-0.5693015,4.302168,-1.5783218,-5.6497355
540,1778609099.897444,1.2142172,-1.7805917,-0.6039377,3.7157378,-1.4671445,-5.716931
541,1778609099.907934,1.1790932,-1.6893668,-0.6012546,3.2881324,-1.3376411,-5.7499175
542,1778609099.918321,1.0781116,-1.4330105,-0.5300309,2.5184429,-1.1287254,-5.7658
543,1778609099.9306939,1.0315237,-1.3308094,-0.5102737,2.2838707,-1.0786345,-5.774352
544,1778609099.939805,0.97761804,-1.1420178,-0.4961265,1.5667155,-0.809854,-5.8171124
545,1778609099.95029,0.9468845,-1.0912832,-0.44612357,1.2307398,-0.7243329,-5.9038553
546,1778609099.961087,1.1251876,-1.0498173,-0.109762505,0.67363113,-0.9625702,-6.176301
547,1778609099.972022,1.1251876,-1.0498173,-0.109762505,0.67363113,-0.9625702,-6.176301
548,1778609099.9829388,1.4813058,-1.5422852,0.38733968,0.52580184,-1.0004438,-6.4597425
549,1778609099.99354,1.5817996,-1.6786345,0.73004264,1.0364848,0.3996583,-7.87084
550,1778609100.004301,1.5817996,-1.6786345,0.73004264,1.0364848,0.3996583,-7.87084
551,1778609100.015192,0.016342416,-2.195494,0.22879384,2.8141012,1.7863213,-10.8995075
552,1778609100.025598,-2.0923173,-2.5445387,-0.5324701,3.1989462,0.4754055,-12.1151285
553,1778609100.036073,-4.141949,-3.026518,-1.2859286,2.7224717,-2.4824018,-12.315492
554,1778609100.0466769,-5.1178594,-3.4702024,-1.3432492,1.4335469,-5.673559,-11.785261
555,1778609100.058518,-5.1178594,-3.4702024,-1.3432492,1.4335469,-5.673559,-11.785261
556,1778609100.070737,-7.326281,-3.7007039,1.2183638,0.16416991,-6.262433,-9.58004
557,1778609100.0820081,-7.9902225,-3.249214,1.9445038,0.77747816,-3.4292421,-6.8042703
558,1778609100.093795,-7.9902225,-2.839434,2.0557299,2.2447753,0.024587307,-1.2417353
559,1778609100.104575,-7.9902225,-2.920902,1.2664154,2.979035,0.9152281,2.402684
560,1778609100.115077,-6.8801575,-3.2350667,0.10854292,3.3150105,1.3318379,6.264571
561,1778609100.12676,-4.2802496,-3.4587383,-0.7544343,2.7065892,2.383747,9.037897
562,1778609100.1496031,-0.3178234,-2.9694414,-0.8059007,2.4048219,0.033139415,7.682999
563,1778609100.149819,-0.3178234,-2.9694414,-0.8059007,2.4048219,0.033139415,7.682999
564,1778609100.169384,-0.44002566,-2.6630821,-0.4812476,3.37121,-2.134209,6.664077
565,1778609100.18123,-0.5144203,-2.6738145,-0.50881016,3.8000371,-2.4885104,6.6738505
566,1778609100.198673,-0.14830133,-3.0199323,-0.93883526,4.1066914,-1.7383684,8.076396
567,1778609100.213846,0.7354088,-3.296046,-1.0856731,3.503157,-0.5496256,9.458172
568,1778609100.2248452,1.1342125,-3.3214133,-1.1644582,3.0474517,-0.07925971,9.996955
569,1778609100.2374148,1.557408,-3.3267794,-1.2122658,2.5001168,0.3752237,10.383021
570,1778609100.2477288,2.0027997,-3.3182425,-1.2156807,1.8819216,0.78694654,10.522299
571,1778609100.258424,2.0027997,-3.3182425,-1.2156807,1.8819216,0.78694654,10.522299
572,1778609100.271828,2.4564848,-3.1779904,-0.883954,0.7799216,1.0984876,10.075146
573,1778609100.2809322,2.4013596,-3.0933514,-0.6934551,0.4317287,1.1571306,9.780708
574,1778609100.2916942,2.4013596,-3.0933514,-0.6934551,0.117744185,1.2243258,9.563241
575,1778609100.3049788,2.0340211,-2.9611483,-0.23903833,-0.041080657,1.2695297,9.496046
576,1778609100.323303,1.7957146,-3.015298,0.07097975,-0.43447757,1.5285364,9.482607
577,1778609100.335487,1.8993791,-3.052617,0.316116,-0.48334676,1.8266385,9.45695
578,1778609100.346127,2.0415826,-2.9906623,0.52149385,-0.22800528,1.5163192,9.200387
579,1778609100.356699,2.0415826,-2.9906623,0.52149385,0.085979216,1.028849,8.974367
580,1778609100.36716,2.2086654,-2.7413795,0.620524,0.7053961,0.009926553,8.450245
581,1778609100.37754,2.207202,-2.6274705,0.5441781,0.949742,-0.38347036,8.196125
582,1778609100.3880908,2.1359782,-2.408921,0.36928985,1.550833,-1.3486367,7.3641276
583,1778609100.400127,1.9976776,-2.2537901,0.254649,1.8049527,-1.8495458,6.879101
584,1778609100.4103198,1.9976776,-2.2537901,0.254649,1.8049527,-1.8495458,6.879101
585,1778609100.420929,1.9098675,-2.1232946,-0.019513333,2.2313364,-2.345568,6.0910854
586,1778609100.431566,1.6935134,-1.8596207,-0.21123183,2.4243696,-1.9607233,5.8968306
587,1778609100.443593,2.013776,-1.9986532,-1.0664037,1.9100214,-0.15867212,6.1081896
588,1778609100.454253,2.013776,-1.9986532,-1.0664037,1.9100214,-0.15867212,6.1081896
589,1778609100.4655092,2.5513685,-2.6216164,-1.6913183,-0.73990995,2.818683,6.011673
590,1778609100.4773939,2.4016037,-2.7504044,-1.3422734,-2.1290164,4.3091927,6.005564
591,1778609100.488647,1.9498698,-2.5930781,-0.06683317,-3.486358,6.2981687,6.6200943
592,1778609100.500256,1.993531,-2.2289107,0.6522332,-3.4716973,7.241344,7.5925913
593,1778609100.520737,4.281957,-2.5413678,-0.11390909,-3.5779877,8.075785,8.215673
594,1778609100.531014,4.9766316,-2.4469721,-0.37953433,-4.6555533,8.229723,7.1735377
595,1778609100.54763,4.8983345,-2.4650218,1.1954355,-7.138108,8.263931,3.5559967
596,1778609100.564693,4.0726767,-2.0003607,3.0772529,-6.467378,8.248049,2.8913758
597,1778609100.588625,4.5939264,-0.94566494,4.03926,-4.4735155,6.8650513,1.9824089
598,1778609100.606978,4.901262,-0.5693015,4.505141,-3.6574001,4.5816383,1.3581051
599,1778609100.618747,5.494711,-0.5783264,5.9647384,-0.68126696,-0.9601267,-0.59544045
600,1778609100.632339,5.396656,-0.75272685,5.8859534,0.43417215,-1.4121666,-1.2954915
601,1778609100.642743,4.277567,-1.2715377,4.365133,3.692525,0.6073523,-3.5764606
602,1778609100.653395,3.3140957,-1.5371628,3.1018882,3.692525,0.6073523,-3.5764606
603,1778609100.666044,2.1418324,-1.6288756,1.8854759,3.032791,3.485747,-2.9228354
604,1778609100.677396,2.0381677,-1.5644815,1.8644991,2.8861833,3.802175,-2.694372
605,1778609100.687902,2.1328075,-1.4308152,2.039875,2.924057,3.7630796,-2.3620615
606,1778609100.698112,2.192323,-1.3520302,2.1028056,3.326006,3.0740242,-2.490343
607,1778609100.708499,2.192323,-1.3317851,2.0447536,3.326006,3.0740242,-2.490343
608,1778609100.71923,2.157443,-1.3486153,1.8423026,4.3608108,1.4356849,-3.2600327
609,1778609100.731192,2.0823166,-1.3642259,1.6542429,4.555066,1.1803435,-3.4738352
610,1778609100.739881,1.8593767,-1.3861785,1.2851969,4.8604984,1.0398445,-3.891667
611,1778609100.750311,1.6622921,-1.4549628,0.90054035,4.848281,1.5297581,-4.079813
612,1778609100.762422,1.6622921,-1.4549628,0.90054035,4.848281,1.5297581,-4.079813
613,1778609100.772942,1.5139908,-1.5674084,0.5395436,4.3730283,2.835787,-3.9771879
614,1778609100.7899032,1.6937574,-1.8864515,0.43319598,3.9038842,3.807062,-3.98574
615,1778609100.802953,1.7096119,-2.0508513,0.43295208,3.7694938,4.091725,-4.088365
616,1778609100.813341,1.5639937,-2.371114,0.53100663,3.8623452,4.4386964,-4.116465
617,1778609100.824563,1.5639937,-2.371114,0.53100663,4.050492,4.5462084,-3.9967356
618,1778609100.834762,1.4878917,-2.4535577,0.60515726,4.639365,4.7490153,-3.592343
619,1778609100.8460631,1.3769096,-2.5538075,0.58296084,4.9472413,4.7355766,-3.3565493
620,1778609100.856819,1.428376,-2.5403922,0.49807784,5.295434,4.5449867,-3.0743296
621,1778609100.8677042,1.5086247,-2.4864864,0.4431966,5.6143055,4.015978,-2.8776312
622,1778609100.878124,1.6086304,-2.4496553,0.37880257,5.811004,3.4490952,-2.8580835
623,1778609100.888868,1.6488768,-2.4298978,0.3261166,5.958833,2.840674,-2.915505
624,1778609100.89942,1.6471694,-2.4179459,0.28904125,6.05535,2.3385432,-2.9802566
625,1778609100.9104462,1.6437545,-2.3937984,0.27904066,6.123767,1.9695808,-3.0205736
626,1778609100.938947,2.0352407,-2.315257,0.06488183,6.066345,2.1137447,-3.1427467
627,1778609100.956695,2.274035,-2.2654982,-0.023172084,5.881864,2.3739731,-3.4860525
628,1778609100.968768,2.4779494,-2.1418324,-0.12830016,5.3565207,2.5926628,-4.6650214
629,1778609100.9837818,2.2603757,-2.0135322,-0.06317442,4.8690505,2.157727,-5.9087424
630,1778609100.994726,2.1113427,-1.8991352,0.06390616,4.7236648,1.8315253,-6.3473434
631,1778609101.0052311,2.1113427,-1.8991352,0.06390616,4.7236648,1.8315253,-6.3473434
632,1778609101.01555,2.0669498,-1.7952268,0.39587677,4.992445,1.5065453,-7.1500196
633,1778609101.026767,2.0164592,-1.8691335,0.377583,5.2758865,1.457676,-7.5165386
634,1778609101.037737,1.7813233,-2.1137817,0.245868,5.7987866,1.1998911,-8.220255
635,1778609101.048096,1.4132532,-2.3689187,0.11317733,6.3681126,0.9616539,-8.934966
636,1778609101.0585759,0.5963763,-2.7206466,-0.254649,7.0229597,0.70509064,-9.802395
637,1778609101.069404,0.31123766,-2.7996757,-0.36319193,7.314953,0.5560397,-10.239774
638,1778609101.080071,-2.0679255,-3.3001924,-1.255683,7.8293014,-0.22220206,-10.843308
639,1778609101.091151,-4.561242,-3.430444,-2.6160064,7.2257667,-1.658956,-9.916016
640,1778609101.1017752,-5.8330235,-2.9987116,-3.1670141,5.6607313,-2.4799583,-8.265459
641,1778609101.1120992,-6.6094103,-2.689913,-2.617226,4.0737047,-2.3785548,-6.3998775
642,1778609101.122441,-6.885524,-2.5855167,-2.3303797,3.041343,-1.3816234,-4.230086
643,1778609101.132662,-6.874791,-2.3076956,-1.8769387,2.2203407,0.061239194,1.1259766
644,1778609101.14456,-4.756619,-1.9918234,-1.7630297,2.2203407,0.061239194,1.1259766
645,1778609101.1536388,-4.756619,-1.9918234,-1.7630297,2.083507,-0.33215773,2.886489
646,1778609101.164184,-3.8111982,-1.9191364,-1.8369365,1.8025092,-0.7805325,4.159531
647,1778609101.1748328,-1.7676642,-1.7496144,-1.8232771,1.252731,-0.5826123,4.4564114
648,1778609101.1852338,-1.2983685,-1.7169294,-1.6613165,0.7371611,-0.64736396,4.231613
649,1778609101.1962938,-1.3647138,-1.6922939,-1.4022769,0.3755291,-0.9259183,4.1448703
650,1778609101.206964,-1.4266686,-1.6740001,-1.1466522,0.17516547,-1.1494948,4.296365
651,1778609101.220313,-1.4835012,-1.7186369,-0.7341892,0.1678351,-1.2777764,4.766731
652,1778609101.229175,-1.4835012,-1.7186369,-0.7341892,0.1678351,-1.2777764,4.766731
653,1778609101.239823,-1.2983685,-1.8093739,-0.42295152,0.4329504,-1.5648829,5.800314
654,1778609101.250797,-0.910541,-1.93743,-0.3324584,0.7053961,-1.8642066,6.6371984
655,1778609101.261464,-0.077809416,-2.192811,-0.4173414,0.8471167,-1.9656101,7.108786
656,1778609101.271996,-0.077809416,-2.192811,-0.4173414,0.95951587,-1.903302,7.651234
657,1778609101.2825348,0.24733151,-2.2884264,-0.45709983,0.9644028,-1.7237077,7.981101
658,1778609101.293517,1.0054245,-2.397945,-0.5066149,0.72616553,-0.7683152,9.01224
659,1778609101.3049831,1.0054245,-2.397945,-0.5066149,0.72616553,-0.7683152,9.01224
660,1778609101.321507,1.5591153,-2.3464782,-0.5834487,0.2545779,0.23594652,9.521702
661,1778609101.331933,1.8432784,-2.310135,-0.45173368,-0.48334676,0.09544762,9.461837
662,1778609101.34834,2.0188982,-2.329404,-0.4158779,-0.8278745,-0.7035635,9.228487
663,1778609101.36362,2.209885,-2.3191597,-0.25220984,-1.1589632,-1.4842488,8.837534
664,1778609101.381799,2.0737796,-2.3372095,0.35563052,-1.7234023,-1.360854,7.4398746
665,1778609101.385195,2.0737796,-2.3372095,0.35563052,-1.7234023,-1.360854,7.4398746
666,1778609101.3977559,1.7344915,-2.2452528,0.6166213,-1.5682425,-0.71333736,7.190642
667,1778609101.408352,1.4047161,-2.2281787,0.75711733,-1.2469277,-0.1989892,7.2236285
668,1778609101.419032,1.2830018,-2.3750167,0.6807714,-0.9109521,0.008704823,7.5327263
669,1778609101.430799,1.3539814,-2.5194154,0.5427146,-0.74357516,0.01847866,7.8430457
670,1778609101.4412968,1.5918002,-2.476486,0.3731925,-0.6885973,0.0050396346,8.225447
671,1778609101.45209,1.9064527,-2.3472102,0.2748941,-0.7496838,0.27382013,8.29142
672,1778609101.464614,2.1535401,-2.1957378,0.19245026,-0.8791871,0.59757847,8.061735
673,1778609101.475136,2.1010983,-2.142564,0.22952558,-1.160185,1.0141883,7.502183
674,1778609101.485609,1.7586391,-1.8659626,0.4114874,-1.2945752,1.2597558,7.100234
675,1778609101.496611,1.5183812,-1.5932636,0.5232013,-1.2408191,1.476002,7.0660257
676,1778609101.507926,1.4793546,-1.4266686,0.5456416,-1.1296417,1.8266385,7.178425
677,1778609101.5184388,1.8625476,-1.3803245,0.34489816,-1.1223114,2.1503968,7.259059
678,1778609101.531441,2.3189158,-1.4947214,0.084883004,-1.3300053,2.1956007,7.08313
679,1778609101.5417368,3.0516415,-1.8825489,-0.28733385,-3.1760387,1.8327471,5.257866
680,1778609101.5519848,3.0506659,-2.0669498,-0.16122891,-3.1760387,1.8327471,5.257866
681,1778609101.56257,1.6232654,-1.93743,0.94273794,-3.938398,2.8663301,4.9536552
682,1778609101.5732648,1.6232654,-1.93743,0.94273794,-3.938398,2.8663301,4.9536552
683,1778609101.583767,1.9576751,-2.1601262,0.99274087,-3.3629634,3.9438958,6.897427
684,1778609101.594094,2.7752838,-2.280621,0.74662894,-3.5242317,3.8962483,7.3238106
685,1778609101.6049101,4.261468,-2.1093915,0.7022361,-3.5242317,3.8962483,7.3238106
686,1778609101.615766,5.043953,-1.8127887,0.93249345,-4.3146906,1.8437426,5.094154
687,1778609101.6275818,5.043953,-1.8127887,0.93249345,-4.3146906,1.8437426,5.094154
688,1778609101.6382248,4.2490287,-1.3822758,1.5737504,-4.231613,0.04291325,2.9060364
689,1778609101.649558,3.8468099,-1.3269067,1.765225,-4.076453,-0.37491825,3.2493424
690,1778609101.6607082,4.3070803,-1.2890996,1.919868,-4.076453,-0.37491825,3.2493424
691,1778609101.671641,5.2322564,-0.807852,2.3864808,-4.100888,0.28970262,3.933511
692,1778609101.682071,6.193776,-0.3322145,2.9538307,-4.1790786,1.1803435,4.1436486
693,1778609101.6939971,7.853629,0.03292875,4.0204782,-4.1790786,1.1803435,4.1436486
694,1778609101.704538,7.7560625,-0.17440042,4.1848783,-1.7942625,0.73807734,-1.6962187
695,1778609101.715828,6.174751,-1.1234802,3.8504686,-0.6055197,1.5334233,-4.2911725
696,1778609101.728488,6.174751,-1.1234802,3.8504686,-0.6055197,1.5334233,-4.2911725
697,1778609101.737826,3.3619034,-1.9667002,3.2801917,1.4628685,2.9237516,-5.046201
698,1778609101.747542,2.4718516,-2.0340211,2.7028406,2.319301,2.9481862,-4.297281
699,1778609101.766219,2.8006513,-1.8218136,2.048656,3.4322965,1.7325653,-3.258811
700,1778609101.782145,3.0011508,-1.7369306,1.9020622,4.158004,0.17730351,-3.891667
701,1778609101.797638,2.9772468,-1.5764334,1.6464374,4.4988666,-0.44577858,-4.454884
702,1778609101.813716,2.5767357,-1.659365,1.2686106,5.0889616,-0.96867883,-5.676614
703,1778609101.836193,2.013776,-1.8188866,0.72467643,5.0303187,-0.5740602,-6.2153964
704,1778609101.849053,1.9127945,-1.8515716,0.60515726,4.9790063,-0.49953467,-6.2508264
705,1778609101.863243,1.8988913,-2.2820845,0.28147984,4.5440702,-0.047494736,-6.41576
706,1778609101.873564,1.8988913,-2.2820845,0.28147984,4.1555605,0.31291547,-6.5758066
707,1778609101.884017,1.9366984,-2.6655214,0.2239155,3.6436558,0.8810197,-6.864135
708,1778609101.8958862,1.9010866,-2.7225978,0.2329404,3.5495825,1.0349576,-6.93866
709,1778609101.906081,1.8183988,-2.8448,0.26343,3.5214827,1.1791217,-6.9508777
710,1778609101.916671,1.7986416,-2.9296832,0.283919,3.6045604,1.223104,-6.8824606
711,1778609101.929003,1.8062029,-2.971881,0.29270002,3.7255116,1.2340996,-6.8116
712,1778609101.9399412,1.8859637,-2.9967601,0.25586858,3.9832964,1.1155918,-6.7700615
713,1778609101.955026,1.8774267,-2.9255364,0.045124583,4.2129817,0.5572614,-7.03029
714,1778609101.972522,1.7869337,-2.868216,-0.047319833,4.1775517,0.17730351,-7.209884
715,1778609101.9832,1.6898546,-2.8126032,-0.113421254,4.0663743,-0.27595815,-7.328392
716,1778609101.9941912,1.6081426,-2.7208905,-0.2222081,3.6680903,-1.1482731,-7.4395695
717,1778609102.0052931,1.6081426,-2.7208905,-0.2222081,3.6680903,-1.1482731,-7.4395695
718,1778609102.015836,1.572043,-2.6308851,-0.23025733,3.2820237,-1.7004949,-7.5666294
719,1778609102.027194,1.572043,-2.6308851,-0.23025733,3.2820237,-1.7004949,-7.5666294
720,1778609102.037694,1.449109,-2.5381968,-0.17781526,2.6467245,-2.6045747,-7.6997976
721,1778609102.055239,1.2681228,-2.3728213,-0.04268542,2.3486223,-3.3449428,-7.584955
722,1778609102.0733,1.1268951,-2.1469545,0.006829667,2.2814271,-3.7493353,-7.477443
723,1778609102.085841,0.73004264,-1.69205,-0.20440216,1.9430082,-4.758484,-7.409026
724,1778609102.09668,0.5558861,-1.4952092,-0.21830542,1.5410591,-4.9014263,-7.3894787
725,1778609102.1074839,0.46783215,-1.519357,-0.6193044,1.0340414,-4.697397,-7.4346824
726,1778609102.11795,0.15391143,-1.7232714,-1.3064177,-0.0129808765,-3.6662576,-7.8231926
727,1778609102.128381,-0.32879966,-1.8327899,-1.919868,-1.4350741,-2.6510005,-8.250798
728,1778609102.138737,-1.4125215,-2.4857547,-2.0001166,-5.478999,-0.8342886,-9.196417
729,1778609102.150375,-3.8180277,-3.7809525,0.81663305,-6.065429,-0.5532908,-9.274608
730,1778609102.1606221,-3.8180277,-3.7809525,0.81663305,-7.7257595,0.59635675,-8.960623
731,1778609102.171068,-5.354459,-3.005541,2.547222,-6.797245,-0.048716467,-7.5434165
732,1778609102.181812,-5.8037534,-2.5891755,3.6509447,-6.797245,-0.048716467,-7.5434165
733,1778609102.193198,-5.565447,-2.698694,3.7550972,-1.61589,-3.100597,-3.7365072
734,1778609102.203799,-5.119079,-2.8213842,2.4728272,0.6174316,-2.2356124,-1.2735003
735,1778609102.2145002,-4.744911,-2.8206525,2.154272,1.3822343,-0.34559676,0.25243986
736,1778609102.225513,-4.744911,-2.8206525,2.154272,1.3822343,-0.34559676,0.25243986
737,1778609102.2365708,-4.000965,-2.8382144,2.01402,2.8141012,1.4210242,2.7875288
738,1778609102.2471528,-3.5289865,-2.9104137,1.8837684,3.637547,1.5554144,3.771021
739,1778609102.2574651,-2.9548066,-3.07335,1.5369189,4.767647,1.5774056,5.1112585
740,1778609102.268112,-2.2503753,-3.2665322,1.0349385,5.687609,1.5712969,6.400183
741,1778609102.279477,-2.2503753,-3.2665322,1.0349385,5.687609,1.5712969,6.400183
742,1778609102.290266,-0.5746677,-3.556793,-0.17879093,6.5354896,1.7716606,8.340289
743,1778609102.3009548,-0.31831124,-3.5980148,-0.38855925,6.496394,1.9146029,8.749569
744,1778609102.314764,0.22196417,-3.699972,-0.84346384,6.0186977,2.301891,9.469168
745,1778609102.322075,0.6815032,-3.829004,-1.1559211,5.286882,2.2591307,10.193653
746,1778609102.332447,1.2715377,-3.9255948,-1.1588482,3.9967356,1.8559599,10.992664
747,1778609102.343152,1.3571523,-3.901935,-1.0234743,3.5361435,1.6763656,11.287101
748,1778609102.3535008,1.3571523,-3.901935,-1.0234743,3.5361435,1.6763656,11.287101
749,1778609102.372163,1.9488941,-4.1270704,-0.6807714,2.6992588,1.5664101,12.241272
750,1778609102.3909261,2.716012,-4.2456136,-0.9612756,1.0780237,2.2322526,12.369554
751,1778609102.398595,3.0731063,-4.1636577,-0.92810297,-0.18402301,2.722166,11.976157
752,1778609102.412228,2.9243171,-3.5592322,0.09781059,-1.4631739,3.207193,11.283436
753,1778609102.4241788,2.9243171,-3.5592322,0.09781059,-2.5321872,3.6702282,10.423339
754,1778609102.434674,2.622592,-3.2279932,0.7034557,-2.8192937,3.874257,10.007951
755,1778609102.4470432,2.622592,-3.2279932,0.7034557,-2.9390233,4.004982,9.409303
756,1778609102.457973,2.424044,-2.9021206,1.2503169,-2.9023712,3.9732172,9.153961
757,1778609102.468878,2.2435455,-2.8445563,1.3254431,-1.6195552,3.3220353,7.63413
758,1778609102.4796748,2.2435455,-2.8445563,1.3254431,-1.6195552,3.3220353,7.63413
759,1778609102.491987,1.6613165,-2.646008,0.95615333,-0.6067414,3.2633924,7.371458
760,1778609102.500724,1.5674084,-2.6033225,0.81077904,-0.28542656,3.667785,7.781959
761,1778609102.511898,1.5410655,-2.4403863,0.5136885,-0.28542656,3.667785,7.781959
762,1778609102.521868,1.8971838,-2.3176963,0.40490165,-0.4027126,3.6018114,7.8845844
763,1778609102.532475,2.218178,-2.2172024,0.30562758,-0.59452415,3.3574655,7.6817775
764,1778609102.542819,2.569906,-2.1676874,0.25416118,-1.1003202,2.7600398,6.825345
765,1778609102.553353,2.3118422,-2.1708584,0.6229632,-1.7905974,2.5364633,5.425243
766,1778609102.563607,2.1059763,-2.356479,0.6524771,-1.8687881,2.7905831,5.343387
767,1778609102.5739992,2.1059763,-2.356479,0.6524771,-1.8687881,2.7905831,5.343387
768,1778609102.5843341,1.8549863,-2.5018532,0.55417866,-2.0838125,3.3220353,5.5975065
769,1778609102.5949461,1.9808472,-2.7760155,0.32221392,-2.7056727,4.1625853,6.323214
770,1778609102.6052952,2.997736,-2.795285,0.33343408,-4.3427906,5.0287914,6.9890566
771,1778609102.615741,3.9358397,-2.6791809,0.8500496,-5.334835,4.498561,6.4380565
772,1778609102.627033,3.9358397,-2.6791809,0.8500496,-5.334835,4.498561,6.4380565
773,1778609102.6380448,4.6673455,-1.8318143,2.5779555,-5.0025244,2.1186318,4.235278
774,1778609102.649077,4.6378317,-1.6932696,2.8923638,-4.2523823,1.2133301,3.5095708
775,1778609102.659335,4.367328,-1.8662064,2.6150308,-3.0196574,-0.15622866,2.6592472
776,1778609102.6697001,4.1578035,-1.873524,2.321111,-2.8559456,-0.7707586,2.4307837
777,1778609102.681004,4.142437,-1.7391258,2.3628209,-2.8559456,-0.7707586,2.4307837
778,1778609102.692,4.501482,-1.440084,2.8372388,-3.0990698,-1.2973241,2.7936373
779,1778609102.702497,5.9118085,-1.5935075,3.2472627,-2.1106906,-1.844659,1.9518657
780,1778609102.713135,6.1903615,-1.6022886,3.4404447,-1.2603668,-1.9216279,0.54809844
781,1778609102.72434,6.185239,-1.6083865,3.3855636,-0.05818487,-1.2924372,-1.3028219
782,1778609102.7346601,5.5671544,-1.8296189,2.9228535,1.3663518,-0.06826414,-3.542252
783,1778609102.7453911,5.5671544,-1.8296189,2.9228535,1.3663518,-0.06826414,-3.542252
784,1778609102.756207,4.934678,-2.052559,2.4369714,1.7817398,0.3593412,-4.2594075
785,1778609102.766619,3.3933687,-2.464534,1.5147225,2.4817908,1.3098468,-5.676614
786,1778609102.777241,3.3933687,-2.464534,1.5147225,2.4817908,1.3098468,-5.676614
787,1778609102.7876961,1.916941,-2.5138054,0.90151596,2.607629,1.3513856,-5.3919506
788,1778609102.79878,1.7630297,-2.4201412,0.83882946,2.6149595,1.0764965,-5.11584
789,1778609102.809259,1.7059531,-2.1657362,0.8102912,2.7212498,0.33735007,-4.8409505
790,1778609102.819726,1.7457116,-2.048656,0.79370487,2.8678575,-0.15256348,-4.933802
791,1778609102.832155,1.771323,-2.0135322,0.75345856,3.019352,-0.57772535,-5.217243
792,1778609102.840325,1.7337596,-1.9996288,0.6785762,3.1329727,-0.8978185,-5.602088
793,1778609102.850902,1.5113076,-2.037192,0.51222503,3.1708465,-1.030987,-5.8048954
794,1778609102.861315,1.5113076,-2.037192,0.51222503,3.2160504,-1.2680025,-6.3815517
795,1778609102.871653,1.3942276,-2.119148,0.45319718,3.20872,-1.2704461,-6.664993
796,1778609102.8821702,1.3942276,-2.119148,0.45319718,3.20872,-1.2704461,-6.664993
797,1778609102.892939,1.097625,-2.2218368,0.37246075,3.1500769,-0.7536544,-6.8397
798,1778609102.903489,1.0995764,-2.3618453,0.25269768,3.1647377,0.06368265,-6.782279
799,1778609102.921868,1.1395786,-2.443557,0.16196068,3.1671813,0.5377137,-6.765175
800,1778609102.94091,1.1551894,-2.4857547,0.037807085,3.158629,1.3831506,-6.7089753
801,1778609102.949158,1.1566528,-2.4903893,-0.011708,3.1598508,1.6494876,-6.673545
802,1778609102.962582,1.1595799,-2.4799008,-0.10464026,3.2013896,2.4252858,-6.4682946
803,1778609102.974999,1.1776297,-2.440874,-0.14561825,3.2013896,2.4252858,-6.4682946
804,1778609102.98547,1.229096,-2.4218485,-0.18635234,3.2441502,2.8223479,-6.2410526
805,1778609102.9960551,1.3032467,-2.4162385,-0.21537842,3.249037,2.8846562,-6.1921835
806,1778609103.00825,1.4105701,-2.3776996,-0.23952618,3.253924,2.8602216,-6.221505
807,1778609103.016748,1.4620365,-2.35404,-0.24562408,3.2685847,2.7527094,-6.325352
808,1778609103.0292711,1.4610609,-2.3203793,-0.25684425,3.2869108,2.5670066,-6.4780684
809,1778609103.037678,1.4308152,-2.310135,-0.2680644,3.2905757,2.2823436,-6.655219
810,1778609103.048213,1.3783731,-2.3057442,-0.27050358,3.2685847,1.9023856,-6.8360353
811,1778609103.058775,1.3605672,-2.309159,-0.2502585,3.217272,1.3917027,-7.003412
812,1778609103.070046,1.3739827,-2.3418438,-0.23318435,3.136638,0.6110175,-7.2453146
813,1778609103.08098,1.366909,-2.3176963,-0.228306,3.0340126,-0.09392046,-7.4847736
814,1778609103.0914419,1.3471518,-2.1723218,-0.25635642,2.8507533,-0.8953751,-7.810975
815,1778609103.1020422,1.2486094,-1.8649869,-0.14220342,2.3205225,-1.9827144,-9.033927
816,1778609103.112534,0.9839599,-1.7052215,0.025123417,2.296088,-1.9827144,-9.979546
817,1778609103.123901,0.48685768,-1.8727922,0.08171208,2.5709772,-1.6785038,-10.846973
818,1778609103.134478,-0.2619665,-2.2230566,-0.17805916,2.8141012,-1.6210824,-11.2941265
819,1778609103.145045,-0.2619665,-2.2230566,-0.17805916,2.8141012,-1.6210824,-11.2941265
820,1778609103.156105,-2.1769562,-1.8403512,-0.9239564,2.04319,-2.6290092,-9.922124
821,1778609103.166244,-2.368187,-1.7440042,-1.2895874,1.5202898,-2.7731733,-9.278273
822,1778609103.17814,-2.4335566,-1.6339977,-1.5356994,-0.662941,-2.0682354,-7.6997976
823,1778609103.1885881,-2.6355195,-1.6113136,-1.2039727,-2.4356706,-0.33215773,-7.114589
824,1778609103.1988978,-3.0467632,-1.8484006,-0.7651666,-3.1039567,0.78939,-6.9911947
825,1778609103.210156,-3.8280284,-2.1113427,0.11390909,-3.2554512,1.5309799,-6.6112366
826,1778609103.220829,-4.6571007,-2.0276792,1.2364136,-2.0825908,0.7197514,-5.274665
827,1778609103.231515,-4.794426,-1.8588889,1.6298512,-0.36361727,-0.82329303,-3.7450593
828,1778609103.242712,-4.6556377,-1.8301067,1.5186251,1.3773474,-2.2246168,-2.1177154
829,1778609103.25306,-3.7243638,-1.645218,0.44051352,3.257589,-2.6534438,0.80710506
830,1778609103.2640362,-3.3097055,-1.5435047,0.039026666,3.439627,-1.7994549,2.1143558
831,1778609103.274851,-2.8928516,-1.4425232,-0.16049717,3.3186755,-0.74632406,3.386176
832,1778609103.287589,-2.4452646,-1.3959352,-0.24806325,3.0975425,0.17363831,4.62501
833,1778609103.2966762,-2.4452646,-1.3959352,-0.24806325,3.0975425,0.17363831,4.62501
834,1778609103.307478,-1.3600793,-1.4510603,-0.36075276,2.62962,1.0349576,6.736159
835,1778609103.318335,-0.80687636,-1.5032585,-0.45148978,2.2802055,1.074053,7.6072516
836,1778609103.332253,0.19830425,-1.571799,-0.62735367,1.614363,1.1681262,8.2755375
837,1778609103.346893,0.465393,-1.5622863,-0.6427204,1.2710569,1.2524256,8.35495
838,1778609103.36331,0.7102853,-1.5386264,-0.5488125,0.34254244,1.3257293,8.352507
839,1778609103.3813162,0.83882946,-1.5622863,-0.22245201,0.34254244,1.3257293,8.352507
840,1778609103.395818,0.9239564,-1.6183871,-0.07000408,0.2008218,0.8712459,8.490562
841,1778609103.4070468,1.0107907,-1.7144903,0.037075333,0.42562005,0.47662723,8.723912
842,1778609103.417284,1.1778736,-1.7949828,-0.061467,0.5086976,0.3923279,8.901063
843,1778609103.4304068,1.3608111,-1.8574255,-0.22196417,0.42684177,0.41920596,9.0330105
844,1778609103.441031,1.5742382,-1.9513334,-0.41368267,0.114079,0.5731439,9.094097
845,1778609103.451526,1.7266861,-2.022801,-0.54661727,-0.29031348,0.7564033,9.079436
846,1778609103.464022,1.7659566,-2.034265,-0.515152,-2.0190609,1.3721551,8.76423
847,1778609103.474874,1.6232654,-2.0415826,-0.32099435,-2.7264423,1.6226096,8.727578
848,1778609103.485163,1.5693599,-2.0659742,-0.14098383,-3.1601562,1.7142392,8.749569
849,1778609103.4966972,1.5693599,-2.0659742,-0.14098383,-3.1601562,1.7142392,8.749569
850,1778609103.5077581,1.4976484,-2.102074,0.46295384,-3.6696174,1.476002,8.908394
851,1778609103.51923,1.6737561,-2.2572048,0.4378304,-3.6989388,1.3110685,8.905951
852,1778609103.530026,1.8979156,-2.327453,0.41295093,-3.8589854,1.2426517,8.639613
853,1778609103.540502,1.9971898,-2.227935,0.5200303,-4.0752316,1.2670863,8.109383
854,1778609103.553322,1.7888849,-1.914258,1.0061563,-4.1986265,1.4136938,7.423992
855,1778609103.563463,1.5125273,-1.7466872,1.2283643,-3.6745043,2.1467316,6.1057463
856,1778609103.574116,1.212022,-1.6366808,1.3154426,-3.1845908,2.3715298,5.8137527
857,1778609103.587161,1.121285,-1.6676582,1.2749524,-2.8107417,2.3703082,5.7123494
858,1778609103.59532,1.121285,-1.6676582,1.2749524,-2.8107417,2.3703082,5.7123494
859,1778609103.606409,1.2766598,-2.0425582,0.75004375,-2.8107417,2.3703082,5.7123494
860,1778609103.616639,1.291051,-2.0701208,0.56271577,-2.330602,2.0526583,5.702575
861,1778609103.62766,1.3722751,-2.002068,0.3758756,-2.7020075,2.221257,6.0006776
862,1778609103.638591,1.7013187,-2.0115807,0.23318435,-3.2627816,2.7123923,6.390409
863,1778609103.6501372,2.225252,-2.051827,0.16513158,-3.7795732,3.1986406,6.568782
