id,timestamp,acc_x,acc_y,acc_z,gyro_x,gyro_y,gyro_z
1,1778609063.5964942,0.66028243,-0.76272744,0.14756958,0.1678351,-0.057268575,0.052076224
2,1778609063.607423,0.65881896,-0.76321524,0.14244732,0.17272201,-0.08659008,0.039858926
3,1778609063.6189928,0.6510136,-0.7641909,0.12683667,0.17150028,-0.20998476,-0.007788526
4,1778609063.636051,0.6288172,-0.77565503,0.11708001,0.1434005,-0.26740605,-0.0029016077
5,1778609063.675793,0.63125634,-0.7829725,0.16635117,0.16294818,-0.2600757,-0.007788526
6,1778609063.693037,0.6251584,-0.78175294,0.16854642,0.16294818,-0.2600757,-0.007788526
7,1778609063.703495,0.6224753,-0.78175294,0.1565945,0.27656904,-0.31749696,0.022754714
8,1778609063.7155478,0.6224753,-0.78175294,0.1565945,0.27656904,-0.31749696,0.022754714
9,1778609063.7268438,0.6495501,-0.7780942,0.13537374,0.308334,-0.31749696,0.048411034
10,1778609063.7371929,0.66686815,-0.7829725,0.128788,0.31077746,-0.30039275,0.047189303
11,1778609063.7483351,0.6712587,-0.7778503,0.11439692,0.31566438,-0.25030184,0.020311253
12,1778609063.75957,0.6554041,-0.77224016,0.09829842,0.30711228,-0.19410229,0.0056504994
13,1778609063.770159,0.64003736,-0.7676058,0.0863465,0.28512114,-0.14889829,-0.0004581486
14,1778609063.782469,0.63052464,-0.76321524,0.08512692,0.26068655,-0.12812889,-0.004123337
15,1778609063.793547,0.6005229,-0.75980043,0.07854117,0.2008218,-0.14034618,0.027641632
16,1778609063.8042629,0.60759646,-0.7602883,0.079516836,0.18738277,-0.14767656,0.043524116
17,1778609063.815519,0.6261341,-0.76882535,0.07122366,0.18738277,-0.14767656,0.043524116
18,1778609063.8248682,0.6561358,-0.7778503,0.06829667,0.09697478,-0.06459895,0.11804962
19,1778609063.8353379,0.6561358,-0.7778503,0.06829667,0.09697478,-0.06459895,0.11804962
20,1778609063.846406,0.69906515,-0.8005345,0.05927175,0.07864884,0.20906848,0.12660173
21,1778609063.8575099,0.6968699,-0.7866313,0.05390558,0.09453133,0.3092503,0.12538
22,1778609063.8688362,0.7449215,-0.7315061,-0.019269416,0.116522454,0.36178467,0.11194097
23,1778609063.879791,0.7449215,-0.7315061,-0.019269416,0.08842268,0.30314165,0.08384119
24,1778609063.890713,0.80760807,-0.6607703,-0.14415476,-0.14492767,0.062460925,0.08628465
25,1778609063.902078,0.8666359,-0.6358908,-0.2239155,-0.14492767,0.062460925,0.08628465
26,1778609063.912374,0.8666359,-0.6358908,-0.2239155,-0.32330018,0.061239194,0.13515383
27,1778609063.9227672,0.9568851,-0.61808485,-0.31367683,-0.56275916,0.38255405,0.19013166
28,1778609063.933527,0.9568851,-0.61808485,-0.31367683,-0.56275916,0.38255405,0.19013166
29,1778609063.9441202,1.3003198,-0.4290494,-0.485882,-1.4668391,1.4442371,-0.3327686
30,1778609063.95451,1.2895874,-0.27172315,-0.42758593,-1.964083,1.5627449,-0.72494376
31,1778609063.9659362,1.3030028,-0.18464492,-0.3144086,-2.424675,1.5945098,-1.0059416
32,1778609063.97667,1.3798366,-0.19440159,-0.17098558,-2.8290675,1.4503458,-1.2246312
33,1778609063.987417,1.3978864,-0.21293926,0.005854,-3.2187994,1.0801617,-1.383456
34,1778609063.9979782,1.3930081,-0.09854234,0.26318607,-3.409389,0.834594,-1.2820524
35,1778609064.0153239,1.8042516,0.24781933,0.88127095,-3.2896595,0.82115495,-0.9082032
36,1778609064.0306702,2.1411006,0.33587328,1.1388469,-2.8681629,0.7930552,-0.72860897
37,1778609064.048298,4.1704874,-0.10707942,1.2337306,-1.846797,0.16142102,-1.6339105
38,1778609064.063951,4.721495,-0.98956996,0.9634709,-1.7075198,0.46196648,-4.2887287
39,1778609064.075163,4.293909,-1.3944715,1.0703063,-1.6867504,1.4234676,-5.3516335
40,1778609064.0854661,3.9377909,-1.6896108,1.2561709,-1.5010475,2.229809,-5.789013
41,1778609064.09685,3.550939,-2.2520826,1.4391084,-0.7496838,3.2328491,-5.973494
42,1778609064.10758,3.4731297,-2.425995,1.4569143,-0.11438443,3.4747515,-5.896525
43,1778609064.119047,3.5604515,-2.788943,1.2788551,0.9766201,3.246288,-5.7535825
44,1778609064.130595,3.7341204,-2.9545627,1.0700624,1.7096578,2.777144,-5.846434
45,1778609064.141515,3.8902268,-3.1014004,0.8971255,2.287536,2.3153303,-6.09811
46,1778609064.1532679,4.0202346,-3.2399452,0.78175294,2.7505715,2.0599887,-6.452412
47,1778609064.1637702,3.8802264,-3.5350845,0.77492326,3.7756026,2.1528401,-7.363822
48,1778609064.175049,3.2355547,-3.34239,0.725896,4.5623965,2.4032948,-7.613055
49,1778609064.1874921,2.8579717,-3.1882348,0.6329638,5.0144362,2.5046983,-7.576403
50,1778609064.197929,2.365016,-2.8640695,0.31392074,5.5776534,2.6525276,-7.283188
51,1778609064.2085261,2.1703706,-2.5684426,-0.005366167,5.7010484,2.7429357,-7.033955
52,1778609064.221588,2.0842679,-2.112806,-0.5195425,5.178148,3.3244789,-6.392547
53,1778609064.232758,2.0842679,-2.112806,-0.5195425,5.178148,3.3244789,-6.392547
54,1778609064.243715,2.110611,-2.0064585,-0.5871074,4.82629,3.5847073,-6.35223
55,1778609064.254137,2.0476804,-1.9549922,-0.47246656,4.321716,3.8828092,-6.474403
56,1778609064.264711,1.9130385,-1.9793837,-0.39612067,3.9588618,3.6066983,-6.9117823
57,1778609064.276021,1.664975,-1.99036,-0.35172784,3.9161015,3.1351109,-7.0999284
58,1778609064.287433,1.4969167,-1.9927992,-0.32221392,3.9038842,2.6024368,-7.224545
59,1778609064.297802,1.3354439,-1.9776764,-0.29221216,3.9209883,2.0941973,-7.2990704
60,1778609064.308413,1.1866546,-1.9425524,-0.26538134,3.9576402,1.5187626,-7.310066
61,1778609064.318954,1.0461587,-1.8940128,-0.24855109,3.9771879,1.2072215,-7.2783012
62,1778609064.3301692,0.90102816,-1.8347412,-0.2519659,3.9796314,0.848033,-7.1830063
63,1778609064.341053,0.6968699,-1.6774149,-0.3031884,3.8489063,0.3336849,-6.7981615
64,1778609064.3527942,0.6968699,-1.6774149,-0.3031884,3.6913033,0.077121675,-6.574585
65,1778609064.363033,0.76906925,-1.5522857,-0.35758185,3.4347398,-0.32849252,-6.357117
66,1778609064.374115,0.81687695,-1.5154543,-0.37929043,3.4347398,-0.32849252,-6.357117
67,1778609064.384405,0.81687695,-1.5154543,-0.37929043,3.2136068,-0.7316633,-6.2386093
68,1778609064.394876,0.8502936,-1.4791107,-0.4375865,3.0132432,-1.0994039,-6.181188
69,1778609064.405306,0.8598063,-1.4000818,-0.48246717,2.5709772,-1.7212642,-6.153088
70,1778609064.416609,0.8063885,-1.2927583,-0.39221802,1.8929173,-2.395659,-6.1653056
71,1778609064.427315,0.77467936,-1.2569027,-0.26391783,1.5398374,-2.5728097,-6.09811
72,1778609064.4389389,0.66296554,-1.2068996,-0.17196125,1.2771655,-2.476293,-5.878199
73,1778609064.450502,0.66296554,-1.2068996,-0.17196125,1.2771655,-2.476293,-5.878199
74,1778609064.470471,0.43636695,-1.0290844,-0.20025559,0.9986112,-2.4885104,-5.44815
75,1778609064.481215,0.3890471,-1.0012779,-0.18757193,0.81046486,-2.4714062,-5.445707
76,1778609064.498285,0.14098383,-1.1898255,-0.08244383,0.6394227,-2.467741,-5.6509576
77,1778609064.515276,-0.75882477,-1.3703239,0.29513916,0.683405,-2.2356124,-5.8305516
78,1778609064.531693,-1.115431,-1.3195891,0.480028,0.83856463,-2.0987787,-5.7645783
79,1778609064.536203,-1.115431,-1.3195891,0.480028,0.83856463,-2.0987787,-5.7645783
80,1778609064.54828,-2.9460256,-1.7825431,0.21098791,1.8330525,-1.8165592,-4.870272
81,1778609064.559555,-3.7641222,-1.8340095,-0.16805859,1.1195624,-2.6876523,-2.2301147
82,1778609064.569967,-4.2163434,-1.7391258,-0.46807608,1.1195624,-2.6876523,-2.2301147
83,1778609064.5813398,-4.2514677,-1.7069288,-0.6939429,0.2215912,-2.1183264,-0.71150476
84,1778609064.5931551,-4.190976,-1.7508337,-0.8478543,-0.8523091,-0.71333736,0.6385064
85,1778609064.60383,-4.1919518,-1.5886292,-0.73077434,-2.1461208,0.72586006,1.8529056
86,1778609064.614401,-3.79949,-1.6005812,0.13708118,-4.6628838,2.5718935,3.7404778
87,1778609064.627093,-3.4906917,-1.5478952,0.9476163,-4.8571386,2.650084,4.044688
88,1778609064.637824,-3.2684834,-1.416668,1.6696097,-4.1974044,2.2029312,4.1387615
89,1778609064.6482592,-3.1023762,-1.229096,2.0330455,-2.8608325,1.3318379,4.1851873
90,1778609064.66089,-3.0301769,-1.1451888,2.0589006,-1.2481495,0.25793764,4.2878127
91,1778609064.671369,-2.5545394,-1.0983567,1.226657,0.25702137,-0.72921985,4.4881763
92,1778609064.6821241,-2.5545394,-1.0983567,1.226657,1.4201078,-1.392619,4.789943
93,1778609064.694742,-1.9218196,-1.3115399,0.57247245,2.7273586,-1.7591379,5.7465577
94,1778609064.7029681,-1.9218196,-1.3115399,0.57247245,3.0132432,-1.6442952,6.1680546
95,1778609064.713999,-0.9327374,-1.6639994,0.3261166,3.4640615,-1.2142465,6.979283
96,1778609064.724725,-0.6493062,-1.7603467,0.3000175,3.6082256,-1.0444261,7.204081
97,1778609064.735195,-0.6493062,-1.7603467,0.3000175,3.6082256,-1.0444261,7.204081
98,1778609064.746506,0.64003736,-2.1386614,0.09976192,4.325381,-0.4091267,7.8809195
99,1778609064.757571,1.0200596,-2.2398868,-0.058296088,4.440223,-0.30527967,7.935897
100,1778609064.768623,1.4308152,-2.335014,-0.32294568,4.595383,0.01725693,7.9566665
101,1778609064.7795641,1.6905864,-2.3723335,-0.5656428,4.441445,0.19685118,7.827163
102,1778609064.790206,1.8320581,-2.2964754,-0.72540814,4.0602655,0.3336849,7.576709
103,1778609064.80108,1.7974219,-2.057437,-0.734677,3.6803076,0.41065386,7.3653493
104,1778609064.81251,1.5988739,-1.7791283,-0.5939371,2.4158175,0.8174898,6.909644
105,1778609064.8229492,1.5408216,-1.7035141,-0.50881016,1.8183917,1.1412481,6.816793
106,1778609064.833684,1.5408216,-1.7035141,-0.50881016,1.8183917,1.1412481,6.816793
107,1778609064.844512,1.539602,-1.6810737,-0.2695279,1.247844,1.670257,6.748376
108,1778609064.867342,1.560091,-1.7510778,-0.057320416,-0.32696536,3.0239334,6.361088
109,1778609064.8898718,1.460817,-1.776933,0.12927583,-1.1760675,3.2951574,5.9860168
110,1778609064.907179,1.25861,-1.720832,0.24220926,-1.6720896,3.2255187,5.7563314
111,1778609064.919272,1.1686047,-1.7574197,0.21342708,-2.0434954,3.246288,5.8394094
112,1778609064.934336,1.2571466,-1.8901103,0.21123183,-2.32938,3.400226,5.9139347
113,1778609064.9501061,1.2522682,-1.9103554,0.29294392,-2.538296,3.532173,5.9432564
114,1778609064.965651,1.2327548,-1.744736,0.47075918,-3.2407904,3.9634435,5.9725776
115,1778609064.981809,1.226657,-1.7093681,0.51881075,-3.549888,3.748419,5.872396
116,1778609064.9921632,1.3832514,-1.8420587,0.41856104,-3.7502515,3.63602,5.971356
117,1778609065.002718,1.3832514,-1.8420587,0.41856104,-3.7502515,3.63602,5.971356
118,1778609065.0153978,1.8603525,-2.0935369,0.6412569,-4.4160943,3.1143413,5.931039
119,1778609065.025708,1.9571873,-2.1269534,0.83980507,-4.5223846,2.9188647,5.808866
120,1778609065.0365188,2.0013363,-2.0071905,1.7169294,-4.0984445,1.4149156,5.3409433
121,1778609065.048291,2.0147517,-1.8510835,2.2084215,-3.1845908,0.41309732,5.425243
122,1778609065.0586839,2.2645223,-1.8259602,2.210373,-2.3257148,-0.075594515,5.630493
123,1778609065.068961,3.0623739,-1.8515716,1.6908302,-1.200502,-0.3346012,5.641489
124,1778609065.082334,3.4045887,-1.7642492,1.1812885,-0.9940297,-0.18799363,5.207775
125,1778609065.09131,3.4394689,-1.7888849,1.0454268,-1.7588325,0.14187334,4.611571
126,1778609065.1017668,3.4394689,-1.7888849,1.0454268,-1.7588325,0.14187334,4.611571
127,1778609065.114816,3.5324013,-1.5517979,1.5259427,-2.280511,0.56459177,4.605462
128,1778609065.122538,3.5324013,-1.5517979,1.5259427,-2.280511,0.56459177,4.605462
129,1778609065.1342342,3.7653418,-1.4500846,1.5378946,-2.3880231,0.88590664,4.6213446
130,1778609065.143521,3.7653418,-1.4500846,1.5378946,-2.5566218,1.4527892,4.52605
131,1778609065.153994,4.6351485,-0.8478543,1.9149898,-2.5810564,1.507767,4.317134
132,1778609065.165337,5.486662,-0.20245083,2.7123535,-1.7466152,-0.31627524,2.6445863
133,1778609065.176461,5.669355,0.20440216,3.1345732,-0.79366606,-1.5025747,1.9848524
134,1778609065.1868658,5.9301023,0.37172902,3.1850638,0.37675086,-2.4078763,1.29091
135,1778609065.1980429,6.1081614,0.32440916,3.0226152,1.5312853,-3.0651667,0.35384342
136,1778609065.2084649,6.0681586,0.23952618,2.6713755,2.264323,-3.2545347,-0.4329504
137,1778609065.218931,5.7557015,-0.0078053335,1.7225395,2.7603452,-2.6448917,-1.75364
138,1778609065.2294369,5.4488544,-0.22440335,1.167873,2.6198463,-2.196517,-2.5416555
139,1778609065.239949,4.6312456,-0.56344754,0.70467526,1.4372121,-0.34070984,-3.6338818
140,1778609065.250201,3.9448643,-0.8217553,0.7217494,0.6052143,0.9812015,-4.122574
141,1778609065.261305,3.0233471,-1.0717698,1.179825,-0.09605849,2.5596762,-4.40968
142,1778609065.2846022,2.7784548,-1.0342066,1.3486153,0.085979216,2.6781838,-4.46588
143,1778609065.298493,2.5574663,-0.9471284,1.2715377,0.92164224,2.3214388,-4.865385
144,1778609065.314463,2.2513509,-1.0717698,0.875173,1.5483896,1.8706207,-5.6143055
145,1778609065.332396,2.101586,-1.1186019,0.7946805,1.6852232,1.8522947,-5.869647
146,1778609065.34904,1.5010632,-1.4766715,0.6034498,2.0273075,2.0673192,-5.99182
147,1778609065.364158,1.4635,-1.8554741,0.62442666,2.6039639,1.8180863,-5.960055
148,1778609065.381731,1.4534994,-2.1267095,0.5397876,3.2759151,1.2059997,-5.9356203
149,1778609065.385979,1.4534994,-2.1267095,0.5397876,3.2759151,1.2059997,-5.9356203
150,1778609065.397323,1.4127654,-2.1776881,0.4846624,3.5947864,0.92011505,-5.916073
151,1778609065.4079711,1.3676407,-2.2052505,0.42831767,3.8159196,0.7478512,-5.896525
152,1778609065.41847,1.2722694,-2.2396429,0.3275801,4.107913,0.53038335,-5.823221
153,1778609065.4302652,1.2188516,-2.2620833,0.245868,4.2630725,0.40332347,-5.693718
154,1778609065.441358,1.1844593,-2.2574487,0.14756958,4.3412633,0.33735007,-5.517789
155,1778609065.4516811,1.173483,-2.227935,0.06097917,4.332711,0.32391104,-5.3308644
156,1778609065.464957,1.1742148,-2.1154892,-0.073175006,4.082257,0.29458955,-5.0364275
157,1778609065.472574,1.2115341,-2.0596323,-0.10707942,3.8073676,0.2102902,-4.9411325
158,1778609065.487072,1.2115341,-2.0596323,-0.10707942,3.8073676,0.2102902,-4.9411325
159,1778609065.4987671,1.3166622,-1.9410888,-0.16805859,3.339445,0.01970039,-4.948463
160,1778609065.509065,1.3595915,-1.8962082,-0.20708527,2.9607089,-0.06093376,-5.0339837
161,1778609065.519382,1.4220343,-1.8788902,-0.25806385,2.62962,-0.06704241,-5.1268353
162,1778609065.530041,1.4342301,-1.8710848,-0.28440684,2.5367687,-0.06704241,-5.1622653
163,1778609065.5405061,1.384715,-1.808886,-0.31977475,1.9601123,-0.057268575,-5.4237156
164,1778609065.551706,1.3103204,-1.7379062,-0.245868,1.5105159,-0.07315106,-5.653401
165,1778609065.562602,1.0417681,-1.4393523,-0.06829667,1.0425935,-0.09025527,-5.9612765
166,1778609065.573316,0.94127446,-1.2771477,0.018293751,0.90575975,-0.09880738,-6.085893
167,1778609065.5846632,0.90419906,-1.1876303,0.0863465,0.8300125,-0.09025527,-6.2459397
168,1778609065.5952709,0.9022478,-1.1544576,0.112689495,0.79336065,0.023365578,-6.4682946
169,1778609065.605979,0.88858837,-1.188362,0.10732334,0.7884737,0.22006404,-6.6833186
170,1778609065.61702,0.7768746,-1.3234918,0.11878742,0.7970258,0.64156073,-7.125585
171,1778609065.644438,0.5439342,-1.4117897,0.16000934,0.85689056,0.9005674,-7.4969907
172,1778609065.6508439,-0.13537374,-1.2708058,0.20976834,1.090241,0.9604322,-7.912379
173,1778609065.665807,-0.7461411,-1.0568908,0.27660152,1.3064871,0.6513346,-7.8781705
174,1778609065.681503,-2.601859,-1.1100647,-0.41904885,1.6607887,0.9628756,-8.507361
175,1778609065.6919029,-4.0795064,-1.2112902,-0.6675999,1.356578,0.717308,-8.090752
176,1778609065.702912,-4.0795064,-1.2112902,-0.6675999,1.356578,0.717308,-8.090752
177,1778609065.715321,-5.233964,-0.99420434,-0.32977533,0.457385,-1.6210824,-4.757873
178,1778609065.725837,-4.8988223,-0.9463967,0.24172144,0.39752024,-2.5667012,-3.051117
179,1778609065.736609,-4.410745,-1.0793313,0.6712587,0.8214604,-2.5960226,-1.7499748
180,1778609065.747346,-4.0668225,-1.2129976,0.787363,1.3504694,-2.0266967,-1.0315979
181,1778609065.757846,-3.9599874,-1.3373951,0.72101766,2.314414,-0.8171843,-0.098196514
182,1778609065.768182,-3.980964,-1.525211,0.39465716,2.8935137,-0.434783,0.74724036
183,1778609065.781457,-3.9780369,-1.5698477,0.19342592,3.2441502,-0.60216,1.8345797
184,1778609065.790724,-3.0399334,-1.8227892,-0.31123766,3.393201,-0.8196278,2.719112
185,1778609065.80118,-3.0399334,-1.8227892,-0.31123766,3.4628396,-0.8941533,4.099666
186,1778609065.813269,-1.964017,-2.0149956,-0.55100775,3.1708465,-0.14156792,5.869952
187,1778609065.823728,-1.964017,-2.0149956,-0.55100775,3.1708465,-0.14156792,5.869952
188,1778609065.8341,-1.7308327,-2.0489001,-0.56735015,3.08166,0.09544762,6.2523537
189,1778609065.8447092,-0.73101825,-2.2594001,-0.6173531,2.7921102,0.88957185,8.08617
190,1778609065.855684,-0.73101825,-2.2594001,-0.6173531,2.7921102,0.88957185,8.08617
191,1778609065.867863,0.29148042,-2.473315,-0.83297545,2.4194827,1.0178534,9.240705
192,1778609065.877748,0.56661844,-2.5138054,-0.8866371,2.2362232,0.9457714,9.387312
193,1778609065.88869,1.2766598,-2.5594175,-0.95468986,1.5325071,0.48884454,9.44962
194,1778609065.8994591,1.6164358,-2.5311232,-0.8724899,1.0193806,-0.051159926,9.191835
195,1778609065.910298,1.8476688,-2.2640345,-0.37538776,0.41951138,-0.7841977,8.648166
196,1778609065.920876,1.8476688,-2.2640345,-0.37538776,0.41951138,-0.7841977,8.648166
197,1778609065.9319959,1.8110813,-1.8993791,-0.18635234,0.40973756,-0.9515746,8.38305
198,1778609065.94305,1.8110813,-1.8993791,-0.18635234,0.42073312,-0.6913462,8.094722
199,1778609065.953971,1.8188866,-1.8901103,-0.21854934,0.33643377,-0.48976085,7.957888
200,1778609065.964639,1.5708233,-1.8525472,-0.43514732,-1.0074687,1.1229222,7.4313226
201,1778609065.9750762,1.4830134,-1.8598647,-0.3597771,-1.7343978,1.877951,7.376345
202,1778609065.985754,1.3937398,-1.911087,-0.17659567,-2.4100142,2.5621195,7.371458
203,1778609065.996651,1.4393523,-2.054754,0.039026666,-2.9768968,2.9665122,7.307928
204,1778609066.0076249,1.4527677,-2.0593886,0.23903833,-3.2884378,2.9775076,7.200416
205,1778609066.018635,1.5276501,-2.0737796,0.5617401,-3.4130542,2.8211262,6.946296
206,1778609066.0329201,1.3864224,-1.9208438,0.7354088,-2.957349,2.1015275,6.4661565
207,1778609066.048185,1.2525121,-1.8291311,0.64003736,-2.6702425,1.7374521,6.36964
208,1778609066.06394,1.1725074,-1.8413268,0.18196183,-2.6592472,1.7105742,6.4576044
209,1778609066.0813482,1.475452,-1.9588948,0.28465074,-2.925584,1.9475896,6.4832606
210,1778609066.0981069,1.5256988,-1.9396253,0.54539764,-3.566992,2.2359178,6.1045246
211,1778609066.101998,1.5256988,-1.9396253,0.54539764,-3.566992,2.2359178,6.1045246
212,1778609066.1143959,1.6603407,-1.9825547,0.8339511,-3.2371252,1.8596251,5.696467
213,1778609066.124831,1.6154602,-1.905721,0.83078015,-3.1173956,1.8852814,5.668367
214,1778609066.135628,1.5708233,-1.8271798,0.7188224,-2.917032,2.2664611,5.849183
215,1778609066.1501281,1.9998728,-2.0354846,0.47612533,-3.1149523,2.7747006,6.102081
216,1778609066.1607192,1.9998728,-2.0354846,0.47612533,-3.1149523,2.7747006,6.102081
217,1778609066.1720178,2.8289456,-2.1828103,0.7022361,-4.099666,3.0556984,5.560855
218,1778609066.182315,3.1238408,-2.0557299,1.7186369,-4.0080366,1.3660463,4.5908017
219,1778609066.1933281,3.2645807,-1.9274296,2.1237824,-3.3495243,0.12721258,4.494285
220,1778609066.2046552,3.2645807,-1.9274296,2.1237824,-3.3495243,0.12721258,4.494285
221,1778609066.215596,4.0114536,-1.5049659,2.0793896,-1.7234023,-1.0822997,4.5309367
222,1778609066.22654,4.0114536,-1.5049659,2.0793896,-1.7234023,-1.0822997,4.5309367
223,1778609066.237529,4.7727175,-1.0073758,1.2537317,-1.9078834,0.20906848,3.7197084
224,1778609066.247843,4.90053,-0.6836984,1.3522741,-2.853502,1.2402083,3.1491606
225,1778609066.258213,4.90053,-0.6836984,1.3522741,-2.853502,1.2402083,3.1491606
226,1778609066.2686028,5.31592,-0.327824,2.6747901,-3.486358,1.3953679,2.411236
227,1778609066.2798898,5.514468,-0.26343,3.07335,-3.0648613,0.80771595,2.0825908
228,1778609066.290177,6.2532916,-0.24342884,3.8160763,-0.69348425,-1.1873684,-0.1763872
229,1778609066.303504,6.2532916,-0.24342884,3.8160763,-0.69348425,-1.1873684,-0.1763872
230,1778609066.311316,5.1824975,-0.74053097,2.727964,0.93752474,-1.2643374,-2.7530148
231,1778609066.324094,5.1824975,-0.74053097,2.727964,0.93752474,-1.2643374,-2.7530148
232,1778609066.335617,3.7128994,-1.1949477,1.8330337,0.95462894,1.5725187,-4.1237955
233,1778609066.346705,2.9311466,-1.3373951,1.5664328,0.88865554,2.7026186,-4.1702213
234,1778609066.358679,2.602103,-1.346664,1.4786229,0.88865554,2.7026186,-4.1702213
235,1778609066.370136,2.4640462,-1.2927583,1.4815499,1.0633628,3.2682793,-4.033387
236,1778609066.380969,2.3806267,-1.2132416,1.4915504,1.2942698,3.0092726,-4.1189084
237,1778609066.3933692,2.046217,-1.0415242,1.2493412,2.1238241,1.7814344,-4.6882343
238,1778609066.4043672,2.046217,-1.0415242,1.2493412,2.1238241,1.7814344,-4.6882343
239,1778609066.4192908,1.5425291,-1.0046928,1.0112785,2.6479461,1.2438734,-5.046201
240,1778609066.4332092,1.3308094,-1.0790873,0.8510253,3.1329727,1.127809,-5.0046625
241,1778609066.449363,1.3722751,-1.1629947,0.80346155,3.1793985,1.0997093,-5.002219
242,1778609066.4596531,1.3722751,-1.1629947,0.80346155,3.1793985,1.0997093,-5.002219
243,1778609066.4700348,1.6703414,-1.7371745,0.55417866,3.5361435,0.5206095,-5.295434
244,1778609066.482111,1.6137527,-1.996214,0.412707,3.6864161,0.2848157,-5.479915
245,1778609066.493155,1.6137527,-1.996214,0.412707,3.6864161,0.2848157,-5.479915
246,1778609066.503955,1.5296015,-2.0220692,0.34026375,3.741394,0.3666716,-5.4835806
247,1778609066.514836,1.443255,-2.1006105,0.16342416,3.791485,0.72463834,-5.435933
248,1778609066.526853,1.443255,-2.1006105,0.16342416,3.7450593,0.81138116,-5.4432635
249,1778609066.537638,1.4339862,-2.113538,0.13610551,3.7450593,0.81138116,-5.4432635
250,1778609066.5485299,1.3927642,-2.1525645,0.115128666,3.5960083,0.75395983,-5.5275626
251,1778609066.5611641,1.3754461,-2.15476,0.10512808,3.5960083,0.75395983,-5.5275626
252,1778609066.571479,1.2959293,-2.148174,0.1348859,3.560578,0.39721483,-5.675392
253,1778609066.5824142,1.2508047,-2.1032934,0.14269125,3.6314385,0.110108376,-5.685166
254,1778609066.5950541,1.2595856,-2.075243,0.124885336,3.6998553,-0.13668099,-5.6729484
255,1778609066.605901,1.2834896,-1.9964579,0.042197585,3.7316203,-0.36147922,-5.6924963
256,1778609066.6173189,1.3259311,-1.9523091,-0.052442085,3.6815293,-0.55695593,-5.7731304
257,1778609066.62884,1.3832514,-1.9510894,-0.12415359,3.5825691,-0.7072287,-5.881864
258,1778609066.6367629,1.4252051,-1.940845,-0.251722,3.280802,-0.9515746,-6.159197
259,1778609066.647298,1.3569084,-1.8974278,-0.31416467,2.9436047,-1.1201733,-6.3827734
260,1778609066.658528,1.2171441,-1.7876652,-0.30074924,2.5685337,-1.2802199,-6.5415983
261,1778609066.670012,1.0632328,-1.6527793,-0.25074634,2.242332,-1.4341577,-6.583137
262,1778609066.681289,0.9849355,-1.5044781,-0.23172083,1.5935935,-1.5380048,-6.493951
263,1778609066.69209,1.0746968,-1.1334808,-0.44392833,1.2270746,-1.2032509,-6.655219
264,1778609066.704271,1.0746968,-1.1334808,-0.44392833,1.2270746,-1.2032509,-6.655219
265,1778609066.713485,0.9081018,-1.0912832,-0.7034557,0.25824308,0.20051636,-7.643598
266,1778609066.724341,0.9081018,-1.0912832,-0.7034557,0.25824308,0.20051636,-7.643598
267,1778609066.735313,-0.39880377,-1.2449507,-0.8505375,-0.9598213,1.1131483,-8.646638
268,1778609066.756363,-1.244219,-1.1547015,-0.755166,-1.6574289,0.9763146,-8.482926
269,1778609066.778477,-2.432337,-0.79370487,-0.45368502,-2.8254023,0.9763146,-7.4982123
270,1778609066.7863832,-3.7126558,-1.5500904,0.10781116,-3.861429,2.2359178,-7.825636
271,1778609066.801086,-5.829365,-2.066706,1.6120453,-2.0789256,1.4564544,-6.1689706
272,1778609066.815988,-6.1598716,-1.9527969,2.2957437,0.012675445,-0.43111783,-4.414567
273,1778609066.83182,-5.489345,-2.1811028,1.6583894,5.1573787,-3.9753554,-0.72860897
274,1778609066.844497,-5.489345,-2.1811028,1.6583894,5.1573787,-3.9753554,-0.72860897
275,1778609066.8529458,-4.0904827,-2.5238059,-0.37660733,6.944769,-3.8079784,2.144899
276,1778609066.870323,-3.4753249,-2.5662472,-1.091771,6.4499683,-2.3394594,3.3715155
277,1778609066.881367,-3.0509098,-2.570638,-1.3603233,5.7450304,-1.1409427,4.2939215
278,1778609066.892572,-1.6881473,-2.7196708,-1.1939721,3.4188573,1.124144,7.303041
279,1778609066.902881,-1.1873864,-2.80992,-1.003961,3.0266824,1.1119266,8.070288
280,1778609066.913213,-1.1873864,-2.80992,-1.003961,3.0266824,1.1119266,8.070288
281,1778609066.924345,0.19415767,-2.9274879,-0.6488183,2.7322454,0.3593412,9.348216
282,1778609066.934898,0.86541635,-2.9255364,-0.515152,2.924057,-0.3480402,9.659758
283,1778609066.947509,1.2730011,-2.9416351,-0.49954134,3.1354163,-0.90270543,9.720844
284,1778609066.9582112,1.5513101,-2.953343,-0.5441781,3.2710283,-1.2631156,9.659758
285,1778609066.9686558,1.674732,-2.8760214,-0.5836926,3.2649195,-1.2948806,9.51315
286,1778609066.9819891,1.7022943,-2.7621124,-0.5841804,2.743241,-0.6082686,9.130749
287,1778609066.993322,1.7354671,-2.496731,-0.54051936,2.4365869,-0.27473643,9.039119
288,1778609067.003979,1.6969284,-2.4369714,-0.50563926,1.9454516,0.24205516,8.986585
289,1778609067.014742,1.6647313,-2.4335566,-0.40465775,1.3907864,0.79061174,8.986585
290,1778609067.0249941,1.6647313,-2.4335566,-0.40465775,1.3907864,0.79061174,8.986585
291,1778609067.036913,1.5991178,-2.5423434,-0.044880666,0.48792824,1.7142392,9.039119
292,1778609067.048903,1.6032643,-2.6235676,0.14610608,0.29000807,2.0917537,9.087988
293,1778609067.059846,1.6542429,-2.6862543,0.27416235,0.2545779,2.4570508,9.108757
294,1778609067.071008,1.7537609,-2.6535695,0.3322145,0.30100363,2.6268713,9.051336
295,1778609067.083425,1.8657186,-2.470144,0.24123359,0.39385507,2.8932083,8.521106
296,1778609067.094145,1.8710848,-2.3818464,0.124641426,0.2753473,2.8199046,8.170469
297,1778609067.108248,1.8337655,-2.306476,0.0,0.0029016077,2.849226,7.8088374
298,1778609067.11878,1.7691276,-2.3337948,-0.1387886,-0.44425142,2.9567382,7.492409
299,1778609067.13218,1.6066791,-2.2657418,-0.045856334,-0.85597426,3.0813546,7.2871585
300,1778609067.148061,1.5144786,-2.025484,0.12366576,-2.0373867,3.3440266,6.8045754
301,1778609067.163998,1.4442306,-1.5749699,0.2309891,-2.862054,4.1528115,6.2499104
302,1778609067.182209,1.5871658,-1.9071845,0.33733675,-3.7881253,5.003135,5.5266466
303,1778609067.197265,1.820838,-2.3430636,0.462466,-4.021476,4.570643,5.3995867
304,1778609067.207746,2.0984151,-2.6208844,0.52222556,-4.3757772,3.563938,5.325061
305,1778609067.2180648,2.1642728,-2.5167322,0.8951742,-4.7655087,2.3385432,5.355604
306,1778609067.2309818,2.5984442,-2.285499,1.3969108,-4.6628838,2.329991,5.6207194
307,1778609067.24179,2.8082125,-2.180615,1.5374067,-4.466185,3.0495896,5.563298
308,1778609067.251947,2.8082125,-2.180615,1.5374067,-4.466185,3.0495896,5.563298
309,1778609067.26416,3.3665378,-2.0347528,1.8252286,-4.044688,3.653124,5.1686797
310,1778609067.2750459,3.3665378,-2.0347528,1.8252286,-4.044688,3.653124,5.1686797
311,1778609067.285901,4.949557,-1.9445038,2.412092,-3.3702936,1.2011129,3.7551384
312,1778609067.29757,4.948581,-1.7257104,2.5928342,-2.759429,0.08811724,2.5163047
313,1778609067.3088992,4.112191,-1.4042283,2.5616128,-2.0972514,-0.5459604,1.6806418
314,1778609067.3193212,4.112191,-1.4042283,2.5616128,-1.4766129,-0.5911644,1.4888302
315,1778609067.3302069,4.1612186,-1.37569,2.4286783,-1.1333069,-0.34559676,1.5926772
316,1778609067.341318,4.622709,-1.2905631,2.3335507,-0.811992,0.12232567,1.7368413
317,1778609067.3530061,5.7388716,-1.1086012,2.5650277,-0.30130905,0.14065161,0.87307847
318,1778609067.364675,5.94864,-1.1044546,2.5686865,0.23136504,0.25671592,-0.8471167
319,1778609067.374885,5.7374077,-1.2132416,2.48795,0.23136504,0.25671592,-0.8471167
320,1778609067.387949,4.9490695,-1.5539931,2.2120802,1.0010546,0.75884676,-3.352884
321,1778609067.3992572,4.194147,-1.9047453,1.9508456,1.4909682,1.0459533,-4.440223
322,1778609067.409683,2.8079689,-2.3472102,1.5766774,1.7841833,1.1717913,-4.7419906
323,1778609067.421281,2.8079689,-2.3472102,1.5766774,2.296088,1.268308,-4.69923
324,1778609067.4315038,2.2464726,-2.1298804,1.1822641,2.9069529,0.8834632,-4.116465
325,1778609067.442761,2.227935,-1.8635232,0.96688575,2.996139,0.59757847,-4.0236135
326,1778609067.4545228,2.230618,-1.6605847,0.8639529,2.9582653,0.38744098,-4.160447
327,1778609067.4658291,2.171834,-1.504722,0.81760865,2.8678575,0.3349066,-4.4768753
328,1778609067.477115,2.171834,-1.504722,0.81760865,2.8678575,0.3349066,-4.4768753
329,1778609067.488811,1.917429,-1.3739827,0.7358966,2.7151413,0.7063124,-5.168374
330,1778609067.500072,1.691562,-1.3822758,0.64759874,2.6467245,1.254869,-5.5862055
331,1778609067.510459,1.428132,-1.6637557,0.50539535,2.6186247,2.2689044,-5.9172945
332,1778609067.523436,1.428132,-1.6637557,0.50539535,2.6186247,2.2689044,-5.9172945
333,1778609067.5347111,1.3866663,-2.1218312,0.38685185,2.7762277,2.9518514,-5.7902346
334,1778609067.545963,1.3571523,-2.1713462,0.36831418,2.9069529,3.1803148,-5.5923142
335,1778609067.557812,1.3927642,-2.1881764,0.35026434,3.0804384,3.3574655,-5.416385
336,1778609067.569024,1.4208146,-2.1823225,0.33611718,3.3003497,3.5138469,-5.3064294
337,1778609067.57977,1.4674027,-2.3264773,0.32855576,3.5617998,3.5566075,-5.277108
338,1778609067.592962,1.4659392,-2.3925786,0.33148277,3.8696756,3.5480554,-5.2575603
339,1778609067.601069,1.4659392,-2.3925786,0.33148277,4.215425,3.3953393,-5.2477865
340,1778609067.6189508,1.4091066,-2.4808764,0.27391842,5.0217667,2.5755587,-5.2734427
341,1778609067.635666,1.3783731,-2.5633204,0.14122775,5.538558,1.507767,-5.4237156
342,1778609067.6473951,1.3134913,-2.5596616,0.079516836,5.606975,1.2389865,-5.4738064
343,1778609067.665487,1.14153,-2.5008776,-0.053173836,5.67417,0.10399973,-5.57521
344,1778609067.669548,1.14153,-2.5008776,-0.053173836,5.67417,0.10399973,-5.57521
345,1778609067.6804218,1.1015277,-2.4472158,-0.12025091,5.581319,-0.32360563,-5.562993
346,1778609067.691097,1.0815265,-2.3589182,-0.20489,5.346747,-0.7634283,-5.538558
347,1778609067.7037382,1.0707942,-2.201592,-0.286846,4.7273297,-1.3229804,-5.5507755
348,1778609067.714192,1.0734773,-2.113538,-0.28294334,4.357146,-1.5722132,-5.580097
349,1778609067.72482,1.0734773,-2.113538,-0.28294334,4.357146,-1.5722132,-5.580097
350,1778609067.73712,1.0351824,-1.9259661,-0.27123535,3.575239,-2.0853395,-5.67417
351,1778609067.7473369,1.0278649,-1.8637673,-0.24855109,3.3883142,-2.2001822,-5.688831
352,1778609067.7582479,0.9888382,-1.653999,-0.22245201,2.873966,-2.5459316,-5.7499175
353,1778609067.771659,0.9642026,-1.4483773,-0.23464784,2.5245514,-2.5960226,-5.8085604
354,1778609067.78077,0.96225125,-1.1376274,-0.29587093,1.7548618,-2.4921756,-6.2239485
355,1778609067.791848,0.96225125,-1.1376274,-0.29587093,1.7548618,-2.4921756,-6.2239485
356,1778609067.802309,0.90127206,-1.1071378,-0.37660733,1.234405,-2.4323108,-6.57825
357,1778609067.813716,0.5358849,-0.8951742,-0.27904066,0.07009673,-2.0083706,-7.0999284
358,1778609067.8246138,0.35563052,-0.9446892,-0.20928052,-0.40515608,-1.7970115,-7.1512413
359,1778609067.835027,0.14439867,-0.9200537,-0.13098325,-0.79244435,-1.3168718,-7.0999284
360,1778609067.845325,0.014147166,-0.86834335,-0.15781409,-1.1100941,-0.48487392,-7.108481
361,1778609067.855864,-0.32148215,-0.84126866,-0.4161218,-1.7209588,0.8761328,-7.5605206
362,1778609067.867706,-0.98688686,-0.85663533,-0.48515025,-2.3868015,1.9573635,-8.341206
363,1778609067.8772879,-0.98688686,-0.85663533,-0.48515025,-2.3868015,1.9573635,-8.341206
364,1778609067.88814,-2.906511,-1.6371686,0.4241711,-2.7716463,2.257909,-9.730312
365,1778609067.898431,-3.522157,-1.7786404,0.7680936,-2.2682936,1.3257293,-9.484745
366,1778609067.908863,-5.072491,-1.7032701,1.9988972,-0.6030763,-1.2350159,-7.961248
367,1778609067.920297,-5.401291,-1.4922822,2.3659918,1.351691,-3.068832,-6.348565
368,1778609067.9305909,-5.329823,-1.5261866,1.8398634,3.1671813,-3.7065747,-4.911811
369,1778609067.940714,-5.206645,-1.6896108,0.72101766,3.9784095,-3.0908232,-3.6314385
370,1778609067.95151,-5.163228,-1.720832,-0.072443254,3.8195848,-2.0975568,-2.6406157
371,1778609067.961959,-4.897603,-1.718393,-0.8963937,1.1867576,1.1656827,0.8193224
372,1778609067.9744709,-4.5448995,-1.755956,-1.0646962,1.1867576,1.1656827,0.8193224
373,1778609067.984876,-3.781928,-1.9037697,-0.49515083,-0.961043,2.4656029,2.6482515
374,1778609067.9955359,-3.4653242,-1.9735298,-0.16122891,-1.3141229,2.3373213,3.4399323
375,1778609068.010203,-2.821872,-2.0503635,0.4012429,-1.2603668,1.7985387,4.1925178
376,1778609068.017938,-2.5501487,-2.0732918,0.56393534,-0.95126915,1.422246,4.5627017
377,1778609068.032537,-1.8149838,-2.0910976,0.7390675,0.534354,0.45707956,5.662258
378,1778609068.05231,-1.5671645,-2.1664677,0.690772,1.3125957,0.12599087,6.246245
379,1778609068.06392,-0.7158954,-2.537709,0.4166097,2.8006623,-0.39202246,7.7001033
380,1778609068.082731,0.20489,-2.9150481,-0.027562585,3.9356492,-0.5007564,9.251699
381,1778609068.0859299,0.20489,-2.9150481,-0.027562585,3.9356492,-0.5007564,9.251699
382,1778609068.0977302,0.47685713,-2.97993,-0.15732625,4.1042476,-0.4714349,9.54858
383,1778609068.108236,1.2983685,-2.921634,-0.57710683,4.215425,-0.2771799,9.910212
384,1778609068.1196108,1.7666885,-2.7060115,-0.79175353,3.9771879,-0.10491603,9.615775
385,1778609068.130032,2.0128005,-2.4311175,-0.8993208,3.5593565,0.10033454,8.9731455
386,1778609068.14132,2.0469487,-2.2264712,-0.886881,3.0669994,0.30802858,8.218117
387,1778609068.153363,1.9452354,-2.110367,-0.7885826,2.7139194,0.41065386,7.718429
388,1778609068.162654,1.4983801,-1.8479128,-0.50856626,2.255771,0.44486228,7.2199636
389,1778609068.173998,1.4983801,-1.8479128,-0.50856626,1.9723296,0.42897978,7.0709124
390,1778609068.1846,1.2778794,-1.7835187,-0.45270932,1.6559017,0.45952302,7.0342607
391,1778609068.1962721,1.2495852,-1.8164474,-0.42612243,0.88621205,0.911563,6.970731
392,1778609068.207191,1.0310358,-1.8837684,-0.33758068,0.11530073,1.8364122,6.942631
393,1778609068.2177,0.8829783,-1.9684076,-0.21659799,-0.39660397,2.4961462,7.0977907
394,1778609068.228662,0.77931374,-2.0401192,-0.08268775,-0.7289144,2.9176428,7.312815
395,1778609068.239093,0.6680878,-2.107684,0.1302515,-1.1137592,3.3684611,7.82472
396,1778609068.249291,0.64320827,-2.1503694,0.30416408,-1.2127193,3.4576473,8.163138
397,1778609068.260204,0.76150787,-2.3055005,0.5441781,-1.1699587,3.3574655,8.649387
398,1778609068.27152,0.92663944,-2.4547775,0.6188166,-1.0270164,3.102124,8.927941
399,1778609068.28192,1.159336,-2.614055,0.6217436,-0.82665277,2.8101306,9.04645
400,1778609068.292525,1.4742323,-2.7155242,0.54612947,-0.649502,2.60488,8.942602
401,1778609068.30311,1.6276559,-2.3835537,0.47929627,-0.37216938,2.6647449,7.9505577
402,1778609068.3135,1.4449624,-2.21891,0.4251468,-0.24633121,2.8247914,7.496074
403,1778609068.3245509,1.4449624,-2.21891,0.4251468,-0.24633121,2.8247914,7.496074
404,1778609068.3348758,1.3598354,-2.3481858,0.027318668,-0.5261073,2.804022,7.0660257
405,1778609068.346176,1.4425232,-2.415263,-0.12854409,-0.8962914,2.8309002,6.9866133
406,1778609068.3587961,1.6335099,-2.4816082,-0.32026258,-1.815032,3.0776894,6.7288284
407,1778609068.369241,1.6113136,-2.444289,-0.39148626,-2.772868,3.684889,6.3855224
408,1778609068.380146,1.6113136,-2.444289,-0.39148626,-3.7734644,4.4655743,6.078868
409,1778609068.3919559,1.3866663,-2.4957554,0.35733792,-4.489398,4.783224,5.935926
410,1778609068.403956,2.1440275,-2.9479768,1.4247172,-4.258491,2.090532,6.01656
411,1778609068.414338,2.7494287,-2.866021,1.6322904,-3.2982116,-0.2771799,5.601172
412,1778609068.426242,2.7494287,-2.866021,1.6322904,-3.2982116,-0.2771799,5.601172
413,1778609068.437623,3.1828685,-2.745038,1.1676291,-1.8272493,-1.7884593,4.408764
414,1778609068.4479191,3.1950645,-2.8879733,0.9095652,-1.6305509,-1.6320779,4.1583095
415,1778609068.460115,2.4289222,-2.8933394,0.20537783,-1.8406883,-0.4140136,4.17297
416,1778609068.4733162,2.4289222,-2.8933394,0.20537783,-2.5040874,0.4754055,4.9328856
417,1778609068.482002,2.4289222,-2.8933394,0.20537783,-3.3030987,1.2218822,5.590176
418,1778609068.50586,4.5734377,-2.7818696,1.3222723,-3.901746,3.1057892,4.0398016
419,1778609068.515467,4.162682,-2.547222,1.3281263,-3.7245953,3.405113,3.2664466
420,1778609068.532098,3.5389872,-2.1913474,1.6598529,-3.2872162,1.7142392,3.2359035
421,1778609068.54789,3.933888,-1.967188,1.8023003,-2.9903357,0.4754055,3.7832384
422,1778609068.565325,5.6888685,-1.1573846,4.920775,-7.588926,8.405652,1.9433136
423,1778609068.5688598,5.6888685,-1.1573846,4.920775,-7.588926,8.405652,1.9433136
424,1778609068.5809531,5.5915456,-2.1386614,5.3125052,-4.6958704,3.7606363,-0.021227552
425,1778609068.5924091,5.3164077,-2.1581745,5.687161,-2.5431828,1.539532,-1.8684826
426,1778609068.6033652,2.9228535,-2.3898954,3.6053324,3.8464627,-0.39813113,-4.9008155
427,1778609068.614471,1.861572,-2.4006279,2.136954,5.037649,-0.17088942,-5.092627
428,1778609068.624845,1.861572,-2.4006279,2.136954,5.037649,-0.17088942,-5.092627
429,1778609068.635256,1.0849414,-1.9354787,0.30977416,4.575835,0.25305074,-3.945423
430,1778609068.649368,1.1744589,-1.668146,0.10903075,3.9234319,0.4424188,-3.4762788
431,1778609068.660641,1.6300951,-1.3049542,0.22342768,2.900844,0.7063124,-3.0633342
432,1778609068.671247,1.9308443,-1.1764101,0.42758593,2.4011567,0.9604322,-3.1879506
433,1778609068.682687,2.280377,-1.1861668,0.9110288,2.3522875,1.548084,-4.2190905
434,1778609068.694002,2.280377,-1.1861668,0.9110288,2.3522875,1.548084,-4.2190905
435,1778609068.70449,2.280377,-1.1861668,0.9110288,2.3522875,1.548084,-4.2190905
436,1778609068.7152681,1.9876769,-1.9171851,0.8239506,3.4005315,2.0868669,-5.837882
437,1778609068.726531,1.7749816,-2.3403804,0.66930735,3.773159,2.176053,-6.2056227
438,1778609068.737818,1.5678964,-2.582102,0.54490983,4.1299043,2.2408047,-6.3852167
439,1778609068.748245,1.4242294,-2.7064993,0.44734317,4.382802,2.2786784,-6.4047647
440,1778609068.758949,1.246902,-2.821872,0.2983101,4.821403,2.333656,-6.1921835
441,1778609068.769509,1.1944599,-2.854069,0.2502585,4.946019,2.3397648,-6.0712323
442,1778609068.7800498,1.1322612,-2.8906565,0.13195892,5.2575603,2.3006694,-5.679057
443,1778609068.790717,1.162019,-2.8835828,0.11976309,5.445707,2.1516185,-5.462811
444,1778609068.801114,1.3908129,-2.9499283,0.043417167,5.784126,1.548084,-5.354077
445,1778609068.811789,1.3908129,-2.9499283,0.043417167,5.784126,1.548084,-5.354077
446,1778609068.822411,1.510332,-2.9879792,-0.11634825,5.878199,0.9347758,-5.6277447
447,1778609068.833002,1.4954531,-2.9894428,-0.17610784,5.8354387,0.7796162,-5.7535825
448,1778609068.8455958,1.4954531,-2.9894428,-0.17610784,5.742587,0.62689996,-5.909964
449,1778609068.853534,1.4588655,-3.0111513,-0.26708874,5.5788755,0.4827359,-6.092002
450,1778609068.8638551,1.4588655,-3.0111513,-0.26708874,5.5788755,0.4827359,-6.092002
451,1778609068.875066,1.454475,-3.0109074,-0.27660152,5.5019064,0.42409286,-6.159197
452,1778609068.8853161,1.4554508,-2.9645634,-0.33953202,5.041314,-0.058490302,-6.5525937
453,1778609068.896395,1.4205706,-2.9367568,-0.35758185,5.041314,-0.058490302,-6.5525937
454,1778609068.907198,1.2627566,-2.8313847,-0.38538834,4.4487753,-0.80863225,-6.9569864
455,1778609068.917566,1.1661656,-2.7208905,-0.3770952,4.2044296,-1.1751511,-7.0473943
456,1778609068.928122,1.039085,-2.5769796,-0.301481,3.8806713,-1.6980513,-7.1585717
457,1778609068.9385622,0.8863932,-2.3757484,-0.24830718,3.6082256,-2.206291,-7.207441
458,1778609068.948842,0.78565556,-2.1674435,-0.21001224,3.3858707,-2.554484,-7.229432
459,1778609068.959498,0.73638445,-1.887915,-0.11537258,3.0474517,-3.1396923,-7.292962
460,1778609068.972435,0.83980507,-1.5749699,-0.1348859,2.4830127,-3.6088364,-7.8317447
461,1778609068.983385,0.8485861,-1.5159422,-0.17903483,2.1531456,-3.4866633,-8.405957
462,1778609069.0001369,0.5846682,-1.5181373,-0.25977126,1.812283,-3.1531312,-9.052253
463,1778609069.015567,-0.5558861,-1.5232596,-0.40148684,0.8251256,-2.7560692,-9.900133
464,1778609069.030287,-1.37008,-1.4398401,-0.5614962,-0.8462004,-1.93018,-9.427323
465,1778609069.04791,-2.8211403,-1.2912949,-1.0315237,-1.8138102,-1.6039782,-9.0156
466,1778609069.05183,-3.424102,-1.4017891,-0.41514617,-3.2884378,-1.0407609,-8.179937
467,1778609069.0640671,-3.424102,-1.4017891,-0.41514617,-3.2884378,-1.0407609,-8.179937
468,1778609069.075378,-4.6690526,-1.4181316,1.0973811,-3.3519678,0.06734784,-6.5171638
469,1778609069.0857751,-5.2886014,-1.3398343,1.7637614,-2.3367105,0.14920372,-5.2661123
470,1778609069.0980392,-5.558373,-1.2659276,2.054754,-1.187063,-0.076816246,-4.166556
471,1778609069.108788,-5.521298,-1.3315411,1.9737737,0.92286396,-0.9515746,-2.3205225
472,1778609069.11995,-5.389095,-1.3878858,1.7927874,1.7023274,-1.257007,-1.6302453
473,1778609069.1301482,-4.8334527,-1.5974102,0.8620015,3.3724318,-1.5111268,0.41370818
474,1778609069.140574,-4.45465,-1.750346,0.21464668,3.8061457,-1.1543818,1.1968368
475,1778609069.1538198,-4.0529194,-1.8810853,-0.32904357,3.7291768,-0.54718214,2.1839943
476,1778609069.161358,-3.5204494,-2.0335333,-0.73662835,3.0792167,0.33124143,3.3079855
477,1778609069.172499,-3.4221509,-2.0730476,-0.7834603,2.7188065,0.6867647,3.7221518
478,1778609069.182701,-3.020908,-2.2435455,-0.66711205,1.6473496,1.5224278,4.97809
479,1778609069.1935549,-2.813335,-2.364772,-0.52710396,1.2686135,1.6458224,5.6378236
480,1778609069.204065,-1.9257221,-2.7667468,0.100005835,1.3028219,0.47174034,7.6683383
481,1778609069.215158,-1.6776589,-2.8623621,0.18757193,1.5557199,-0.07925971,8.287755
482,1778609069.2259572,-0.9666417,-3.178234,0.25416118,2.652833,-0.868497,9.333555
483,1778609069.236862,-0.42831767,-3.4045887,0.15537491,3.5324783,-1.2508984,10.165553
484,1778609069.247073,-0.42831767,-3.4045887,0.15537491,3.5324783,-1.2508984,10.165553
485,1778609069.257321,0.9178584,-3.8453465,-0.550276,4.8055205,-1.1384993,11.559546
486,1778609069.267753,1.3322729,-3.9129114,-0.77760637,4.871494,-0.9967786,11.724481
487,1778609069.27832,2.3801389,-3.7685125,-1.2820259,4.871494,-0.9967786,11.724481
488,1778609069.2892191,2.7343059,-3.5048387,-1.4593534,3.6570947,-0.19776747,10.957234
489,1778609069.3004632,2.792114,-3.2721422,-1.5217961,2.915505,0.09789108,10.440443
490,1778609069.3117619,2.470876,-2.760405,-1.3927642,0.45005462,1.1168135,9.249256
491,1778609069.322986,2.1257339,-2.6189332,-0.91663885,0.45005462,1.1168135,9.249256
492,1778609069.333961,1.946455,-2.6730828,-0.50563926,-2.063043,1.8412992,8.401376
493,1778609069.344624,1.8044956,-2.7260127,-0.00024391667,-2.063043,1.8412992,8.401376
494,1778609069.356809,1.6591213,-2.686742,0.39880377,-2.8034112,2.1736095,7.998205
495,1778609069.367687,1.6088743,-2.6618626,0.56686234,-2.7325509,2.3128867,7.900467
496,1778609069.378978,1.6335099,-2.7057676,0.61832875,-2.5224135,2.628093,7.6732254
497,1778609069.4050539,1.3503227,-2.4659975,0.47124702,-2.4613268,2.7905831,7.208968
498,1778609069.415327,1.3503227,-2.4659975,0.47124702,-2.5651739,2.7747006,7.0000525
499,1778609069.43203,1.2137294,-2.35965,0.5205182,-2.893819,2.3226607,6.600547
500,1778609069.44863,1.1627508,-2.2679372,0.56759405,-2.893819,2.3226607,6.600547
501,1778609069.4647539,1.1383591,-2.0876827,0.6149139,-2.6800165,2.6451972,6.2401366
502,1778609069.469267,1.1383591,-2.0876827,0.6149139,-2.6800165,2.6451972,6.2401366
503,1778609069.4816902,0.9202976,-1.8710848,0.44978234,-2.5028658,2.8748825,6.111855
504,1778609069.4940438,0.9202976,-1.8710848,0.44978234,-2.5028658,2.8748825,6.111855
505,1778609069.504558,1.2454386,-1.8981595,0.33343408,-2.5700607,2.4020731,6.3855224
506,1778609069.5149162,1.8808415,-2.0969517,0.10756725,-2.8803802,2.01845,6.196154
507,1778609069.528314,2.2086654,-2.2442772,0.036343586,-3.2444556,1.9084942,5.806422
508,1778609069.536983,2.5020971,-2.476486,0.12903193,-3.839438,1.8046473,5.095376
509,1778609069.54821,2.3967252,-2.5425873,0.37807086,-4.3831077,1.7203479,4.3965464
510,1778609069.558482,1.9754812,-2.4406302,0.7778503,-4.679988,1.9011639,4.1534224
511,1778609069.5693262,1.8215698,-2.4394107,1.1068939,-4.631119,1.9634721,4.350121
512,1778609069.580317,2.1110988,-2.3662357,1.3947154,-4.452746,1.7508912,4.8156
513,1778609069.590797,2.798456,-2.2840357,1.6383883,-4.2707086,1.2402083,4.936551
514,1778609069.60125,3.9209604,-1.9074285,2.3106227,-3.6415176,-0.2930624,3.4081674
515,1778609069.61159,3.9209604,-1.9074285,2.3106227,-3.6415176,-0.2930624,3.4081674
516,1778609069.622375,3.50679,-1.5035024,2.4806325,-1.945757,-0.31627524,1.6977459
517,1778609069.633954,3.021396,-1.3161743,2.0325575,-1.5071561,0.21639885,1.4570652
518,1778609069.643413,3.021396,-1.3161743,2.0325575,-1.5071561,0.21639885,1.4570652
519,1778609069.6541371,2.8113835,-1.0083514,1.6474131,-1.5560253,0.8223767,1.5596905
520,1778609069.664685,2.8113835,-1.0083514,1.6474131,-1.9262093,1.100931,1.8406883
521,1778609069.675125,3.0650568,-0.7019922,2.1203678,-2.26585,0.18463388,2.280511
522,1778609069.686327,5.0883455,-0.67662483,3.1416466,-1.2823579,-1.1556034,0.7863357
523,1778609069.698373,5.0883455,-0.67662483,3.1416466,-1.2823579,-1.1556034,0.7863357
524,1778609069.70941,4.8075976,-1.1410422,2.7172318,0.22647811,-0.7157808,-2.3889394
525,1778609069.721327,4.423185,-1.3764218,2.476486,1.0560325,1.0813833,-4.022392
526,1778609069.7316742,2.2815967,-2.0593886,1.5478952,1.0560325,1.0813833,-4.022392
527,1778609069.742798,2.2815967,-2.0593886,1.5478952,1.1782055,1.8486296,-3.6900814
528,1778609069.753984,2.406238,-2.1891522,1.5113076,1.3309216,2.3141086,-3.0254605
529,1778609069.7769442,2.6882055,-2.2603757,1.5052098,1.9002476,2.5303547,-2.3742788
530,1778609069.783565,3.111645,-2.4489233,1.4325225,2.8727443,1.9573635,-2.8324273
531,1778609069.798372,3.1535985,-2.5718572,1.2208029,2.8727443,1.9573635,-2.8324273
532,1778609069.814275,2.8967545,-2.5886877,0.95371425,3.9576402,0.6378955,-4.071261
533,1778609069.821574,2.7477212,-2.584541,0.8268775,4.1470084,0.23228133,-4.5428486
534,1778609069.831899,2.301354,-2.5091708,0.46344167,4.1470084,0.23228133,-4.5428486
535,1778609069.8450189,1.8757192,-2.312574,0.22513509,3.8513498,0.2762636,-4.4976444
536,1778609069.855808,1.5291137,-1.8396196,0.23147692,3.1195338,0.6342304,-3.9784095
537,1778609069.86621,1.5242352,-1.7344915,0.27733323,2.9680393,0.76129025,-3.8537931
538,1778609069.878721,1.6027765,-1.4747202,0.44856274,2.671159,1.1754565,-3.6522079
539,1778609069.8872461,1.6500962,-1.3295897,0.58515614,2.6418374,1.3807071,-3.6632035
540,1778609069.897834,1.6500962,-1.3295897,0.58515614,2.6418374,1.3807071,-3.6632035
541,1778609069.908771,1.7276617,-1.1627508,0.69174767,2.7151413,1.5004367,-3.7658286
542,1778609069.919622,1.7198564,-1.1539698,0.6749174,2.9594872,1.5835142,-4.2129817
543,1778609069.931009,1.5530174,-1.3098326,0.41392657,3.090212,1.8803945,-4.7480993
544,1778609069.941474,1.5530174,-1.3098326,0.41392657,3.090212,1.8803945,-4.7480993
545,1778609069.951894,1.5149664,-1.3913007,0.33001924,3.0230172,2.0563235,-4.8580546
546,1778609069.963222,1.5010632,-1.5442364,0.23147692,2.869079,2.3226607,-4.9765625
547,1778609069.974079,1.4066675,-1.7581513,0.20171909,2.4915648,2.998277,-5.1182833
548,1778609069.984332,1.326175,-1.8493762,0.27245492,2.4121523,3.4600909,-5.1573787
549,1778609069.9956539,1.326175,-1.8493762,0.27245492,2.4121523,3.4600909,-5.1573787
550,1778609070.00663,1.1744589,-2.027923,0.36343583,2.698037,4.047743,-5.092627
551,1778609070.019422,1.1461644,-2.0789018,0.36392367,2.9032876,4.1699157,-4.997332
552,1778609070.0298188,1.0298162,-2.2645223,0.14293517,3.2698064,4.249328,-4.726108
553,1778609070.0407832,1.0298162,-2.2645223,0.14293517,3.4836092,4.325075,-4.401128
554,1778609070.0536,1.0929906,-2.2837918,-0.112201676,3.5556912,4.995805,-3.4994917
555,1778609070.0646179,1.0929906,-2.2837918,-0.112201676,3.5556912,4.995805,-3.4994917
556,1778609070.075087,1.1786054,-2.2737913,-0.18391317,3.511709,5.471058,-3.1488552
557,1778609070.0868201,1.4332544,-2.2406185,-0.23050125,3.37121,6.9371333,-2.354731
558,1778609070.0973299,1.4332544,-2.2406185,-0.23050125,3.37121,6.9371333,-2.354731
559,1778609070.108366,1.5596032,-2.1618333,-0.14708175,3.4811656,7.025098,-2.147037
560,1778609070.118943,1.6005812,-2.1579309,-0.13610551,3.5593565,6.7599826,-2.0798419
561,1778609070.129554,1.6769271,-2.1569552,-0.13854466,3.7071857,6.106357,-2.0260859
562,1778609070.1399648,1.7052215,-2.1464667,-0.12781233,3.850128,5.491827,-2.0505204
563,1778609070.150224,1.4276443,-1.8849881,-0.054393414,4.3204937,4.29331,-2.1311545
564,1778609070.1613162,1.4276443,-1.8849881,-0.054393414,4.3204937,4.29331,-2.1311545
565,1778609070.185049,0.91883403,-0.8707825,-0.4788084,4.931359,2.6439755,-2.535547
566,1778609070.187974,0.91883403,-0.8707825,-0.4788084,4.931359,2.6439755,-2.535547
567,1778609070.198272,0.9315177,-0.7556538,-0.5873514,5.046201,2.5999932,-2.9228354
568,1778609070.217194,0.251722,-0.5944249,-1.0959176,5.6607313,3.6604545,-4.168999
569,1778609070.231145,-0.93981093,-0.52759176,-2.0425582,6.1701922,4.209011,-4.166556
570,1778609070.248152,-2.14915,-0.3148964,-4.220978,5.3381944,2.2359178,-2.733467
571,1778609070.263835,-2.121587,0.7215055,-4.964924,3.0767732,0.50961393,-1.6473496
572,1778609070.274515,-2.1967134,1.1125039,-4.136583,-0.05818487,1.4051417,-0.98517215
573,1778609070.2851388,-2.30672,1.3039784,-3.3526347,-0.48334676,1.5517492,-0.7469349
574,1778609070.297319,-2.30672,1.3039784,-3.3526347,-0.48334676,1.5517492,-0.7469349
575,1778609070.307661,-2.2642784,1.2547073,-3.1096935,-0.043524116,-0.1574504,-0.29122978
576,1778609070.318371,-2.166224,1.2308036,-3.1567695,0.09697478,-1.2472332,-0.09575305
577,1778609070.330637,-1.8469372,1.1520184,-3.2709227,-0.3978257,-2.7914994,-0.043218683
578,1778609070.3415968,-1.7340037,1.0120102,-3.4038572,-0.3978257,-2.7914994,-0.043218683
579,1778609070.352118,-1.8403512,0.34636167,-3.676068,-1.8724532,-2.489732,0.19379686
580,1778609070.3639622,-1.8581573,0.06829667,-3.5070338,-2.6604688,-2.345568,0.42836893
581,1778609070.374332,-1.7993734,-0.33831242,-2.853581,-3.712378,-2.310138,0.9524909
582,1778609070.384785,-1.6659509,-0.573692,-2.127929,-4.03858,-2.8440337,1.6048945
583,1778609070.399861,-1.3881298,-0.76297134,-1.4398401,-3.670839,-3.792096,2.19499
584,1778609070.410898,-0.8561475,-1.0551835,-0.96761745,-2.9292493,-5.106677,2.7692027
585,1778609070.421397,-0.5490564,-1.2422676,-0.8705386,-2.0825908,-6.508001,3.328755
586,1778609070.431803,0.21830542,-1.7886409,-1.0359142,-0.75945765,-8.803631,4.606684
587,1778609070.442284,0.763947,-2.0623155,-1.2186077,-0.48579022,-9.492686,5.2639747
588,1778609070.452595,1.2259251,-2.2196417,-1.2947097,-0.423482,-9.711375,5.8540697
589,1778609070.463291,1.2259251,-2.2196417,-1.2947097,-0.423482,-9.711375,5.8540697
590,1778609070.474255,2.2235444,-2.3669674,-1.3017833,-0.71058846,-8.569058,6.4783735
591,1778609070.484915,2.6452763,-2.2001283,-1.2490973,-1.2298235,-7.215382,6.174163
592,1778609070.4954271,2.6452763,-2.2001283,-1.2490973,-1.2298235,-7.215382,6.174163
593,1778609070.505833,2.485267,-2.0364604,-1.0644523,-2.3318236,-5.1433287,5.226101
594,1778609070.51602,2.198421,-2.0849998,-0.88834447,-3.0563092,-4.1476192,4.7703958
595,1778609070.5269399,1.870597,-2.1464667,-0.62808543,-3.6818347,-3.335169,4.4686284
596,1778609070.537826,1.5266744,-2.1789076,-0.31367683,-4.10211,-2.7548475,4.3562293
597,1778609070.5491781,1.2630005,-2.2052505,-0.017805915,-4.254826,-2.3260205,4.4649634
598,1778609070.56104,1.1417739,-2.2354963,0.19854817,-4.1167703,-1.9045236,4.7398524
599,1778609070.571753,1.14153,-2.3762362,0.35026434,-3.5731008,-1.5184572,5.1405797
600,1778609070.582026,1.1637264,-2.4238,0.33831242,-3.3116508,-1.4866922,5.3104
601,1778609070.595083,1.3608111,-2.5357578,0.17171735,-3.3116508,-1.4866922,5.3104
602,1778609070.6031659,1.3608111,-2.5357578,0.17171735,-2.9243624,-1.7310381,5.6170545
603,1778609070.614,1.6149722,-2.344283,0.091224834,-2.8034112,-1.9717188,5.7526665
604,1778609070.624817,1.7693716,-2.1618333,0.12781233,-2.6067128,-2.8183775,5.959139
605,1778609070.636597,1.943528,-1.9710906,0.20537783,-2.5334089,-3.0615015,5.9237084
606,1778609070.647564,2.0681696,-1.7281495,0.2695279,-2.4405575,-2.960098,5.7099056
607,1778609070.6583428,2.2342765,-1.5620424,0.32221392,-2.3501496,-2.5728097,5.293296
608,1778609070.669358,2.230862,-1.4452063,0.35367918,-2.2963934,-2.205069,4.8314824
609,1778609070.6809118,1.9223074,-1.4047161,0.31831124,-2.2597415,-1.6491822,4.1961827
610,1778609070.691639,1.6471694,-1.5288696,0.27879676,-2.297615,-1.3620757,4.091114
611,1778609070.702668,1.2649518,-1.5342358,0.280992,-2.3721406,-1.4866922,4.516276
612,1778609070.7214909,1.6454618,-1.4810619,0.50002915,-2.1094687,-1.555109,5.939591
613,1778609070.742265,3.4438596,-1.2949536,0.424415,-1.6439898,-1.4231622,5.5999503
614,1778609070.749734,3.8099782,-1.4522799,0.33611718,-1.6256639,-1.7652465,4.737409
615,1778609070.765065,3.2440917,-1.2878801,0.26099083,-1.9274311,-3.109149,3.4570365
616,1778609070.782648,3.1426222,-0.8032176,0.7134563,-2.5260785,-4.3235483,3.8895288
617,1778609070.787909,3.1426222,-0.8032176,0.7134563,-2.5883868,-3.4915504,4.139983
618,1778609070.80253,4.3539124,-1.1171383,0.7802894,-2.858389,-0.35659233,2.3721406
619,1778609070.817481,4.3539124,-1.1171383,0.7802894,-2.858389,-0.35659233,2.3721406
620,1778609070.827936,3.4665437,-1.1747028,1.2032409,-3.545001,-1.7444772,0.7154754
621,1778609070.83912,2.9538307,-0.8559036,1.7091241,-3.6097527,-2.8721335,0.64339334
622,1778609070.8493419,2.9060233,-0.5712528,2.1445153,-3.23346,-3.2239916,1.1479677
623,1778609070.8606179,3.5070338,-0.45148978,2.300866,-2.515083,-2.7597344,1.6488768
624,1778609070.8711839,4.370987,-0.40319425,2.206958,-1.8077016,-1.9179627,1.543808
625,1778609070.881554,4.9344344,-0.39173016,2.052559,-1.2945752,-0.9515746,0.7814488
626,1778609070.891904,4.6175866,-0.4978339,1.8227892,-1.0990984,-0.5178606,0.2658789
627,1778609070.9023669,4.6175866,-0.4978339,1.8227892,-0.46746427,0.82726365,-1.4640901
628,1778609070.912683,4.1380463,-0.6690634,1.6522915,-0.100945406,1.4686717,-2.0847287
629,1778609070.9237602,3.6153326,-1.0329871,1.3612989,0.50014555,2.01845,-2.5343254
630,1778609070.934123,3.6153326,-1.0329871,1.3612989,0.50014555,2.01845,-2.5343254
631,1778609070.9461398,3.430932,-1.2349502,0.9488358,1.0914626,2.1247404,-2.724915
632,1778609070.9571,3.469471,-1.3225162,0.7093097,1.1659882,2.2090397,-2.9301655
633,1778609070.967956,3.4582505,-1.4327666,0.5107615,1.0768019,2.3360996,-3.2563674
634,1778609070.980026,3.3092175,-1.5498465,0.37197292,0.768926,2.4020731,-3.7377288
635,1778609070.990885,2.7399158,-1.6722926,0.40978,0.4732675,2.4875941,-4.048048
636,1778609071.0034869,2.3462346,-1.6471694,0.5110054,0.022449281,2.880991,-4.1189084
637,1778609071.014362,2.3462346,-1.6471694,0.5110054,0.022449281,2.880991,-4.1189084
638,1778609071.024959,1.7864457,-1.4500846,0.96590996,0.15806127,3.5065165,-3.3956447
639,1778609071.037109,1.7237592,-1.3517863,1.176654,0.5380192,3.667785,-2.9704826
640,1778609071.0483341,1.7766889,-1.217876,1.3078811,1.0743585,3.658011,-2.6784894
641,1778609071.0565271,1.8376681,-1.0886002,1.3449565,1.8416046,3.4112217,-2.5233297
642,1778609071.067699,1.8764509,-1.0176203,1.2786112,2.2753186,3.205971,-2.5221078
643,1778609071.083254,1.8349851,-0.8712703,0.96981263,2.9594872,3.0312638,-2.5868597
644,1778609071.098114,1.7827871,-0.7944366,0.80833983,3.2160504,3.3428047,-2.6174028
645,1778609071.115173,1.7952268,-0.76614225,0.708334,3.3785403,4.0171995,-2.6516113
646,1778609071.130373,2.0481682,-1.0042049,0.62686586,3.5165958,4.425257,-2.8128796
647,1778609071.148194,2.1376858,-1.475208,0.34294683,3.8464627,5.0373435,-3.520261
648,1778609071.154274,2.002312,-1.6530234,0.24220926,3.9344273,5.1191998,-3.727955
649,1778609071.164588,2.002312,-1.6530234,0.24220926,3.9344273,5.1191998,-3.727955
650,1778609071.17506,1.6044838,-2.0335333,0.10927467,4.1958776,5.094765,-3.8318021
651,1778609071.187695,1.5261866,-2.0759747,0.120494835,4.2594075,5.0593348,-3.7377288
652,1778609071.1979232,1.4386206,-2.2106168,0.2180615,4.6124873,4.945714,-3.3137887
653,1778609071.208391,1.4793546,-2.2933044,0.27025968,4.9619017,4.7587895,-3.0291257
654,1778609071.221751,1.5547248,-2.3437953,0.32977533,5.376068,4.416705,-2.8055491
655,1778609071.230602,1.9076723,-2.5652716,0.3100181,6.369334,3.1595454,-2.8104362
656,1778609071.241484,1.9076723,-2.5652716,0.3100181,6.369334,3.1595454,-2.8104362
657,1778609071.252052,2.052071,-2.6947916,0.14903308,6.759066,2.326326,-3.1158686
658,1778609071.2634869,2.0425582,-2.8396778,0.024391668,6.970425,1.3403901,-3.4445138
659,1778609071.273632,1.7461994,-2.909438,0.19245026,7.197667,-0.7866411,-3.5764606
660,1778609071.2841332,1.8344973,-2.9077308,0.32879966,7.4334607,-1.6235259,-3.4652832
661,1778609071.2950459,2.4020915,-2.8972423,0.17537609,7.9600263,-2.1574216,-3.650986
662,1778609071.305696,2.7569902,-2.684059,-0.45270932,8.106634,-1.0163263,-4.563618
663,1778609071.316215,2.7569902,-2.684059,-0.45270932,8.106634,-1.0163263,-4.563618
664,1778609071.3269691,2.4901452,-2.227691,-1.4854525,6.996082,0.62201303,-6.3241305
665,1778609071.337578,2.2976952,-2.1906157,-1.6169236,5.8305516,1.0325142,-6.7932744
666,1778609071.348331,2.2976952,-2.1906157,-1.6169236,5.8305516,1.0325142,-6.7932744
667,1778609071.3588061,1.7401015,-2.0854876,-0.96981263,4.0419397,0.46563166,-7.9942346
668,1778609071.369199,1.0346946,-1.914502,-0.56393534,4.1958776,0.33735007,-8.507361
669,1778609071.379631,0.22708642,-1.966944,-0.6639412,4.7920814,0.20906848,-9.157321
670,1778609071.3916569,0.22708642,-1.966944,-0.6639412,5.1170616,0.17363831,-9.441984
671,1778609071.4037929,-3.4028814,-2.4496553,-2.482828,5.4689198,-1.6601777,-8.376636
672,1778609071.4141288,-3.4028814,-2.4496553,-2.482828,5.4689198,-1.6601777,-8.376636
673,1778609071.424843,-3.992672,-2.11988,-3.2533605,4.5196357,-3.078606,-6.8934565
674,1778609071.436851,-4.098044,-1.6403396,-3.4780078,2.051742,-3.5575237,-5.196474
675,1778609071.4461,-4.4619675,-1.6215581,-3.0977416,-0.29153523,-2.206291,-3.900219
676,1778609071.458516,-4.795158,-1.545456,-2.651618,-1.543808,-1.6332997,-2.8678575
677,1778609071.470022,-4.9051642,-1.5217961,-2.0074341,-2.4149013,-1.5905392,-1.7487532
678,1778609071.481499,-4.6727114,-1.58058,-1.0307918,-2.808298,-1.9472842,-0.398742
679,1778609071.503923,-4.084141,-1.5557005,0.08000467,-1.6781982,-2.6827655,1.3800962
680,1778609071.522913,-3.476788,-1.5832632,0.21781757,-0.24877468,-3.063945,2.3550365
681,1778609071.540451,-3.0689597,-1.7376624,0.10024975,0.7188351,-3.2093308,3.6134179
682,1778609071.553252,-2.4345324,-2.0074341,0.29172435,1.4323252,-2.910007,5.3079567
683,1778609071.566648,-2.4345324,-2.0074341,0.29172435,1.4323252,-2.910007,5.3079567
684,1778609071.5819352,-1.51643,-2.3674552,0.3407516,2.5331035,-2.4872887,7.2615023
685,1778609071.598681,-0.2470876,-2.8489466,-0.1185435,3.6192212,-2.015701,9.142966
686,1778609071.602653,0.4563681,-3.0506659,-0.46149033,3.8562367,-1.6271911,9.827134
687,1778609071.614578,0.4563681,-3.0506659,-0.46149033,3.8562367,-1.6271911,9.827134
688,1778609071.625407,1.8335215,-3.2233589,-1.0878685,3.8085892,-1.1824815,10.251075
689,1778609071.6359959,2.139393,-3.1667702,-1.2066557,3.0083563,-0.38957903,10.205871
690,1778609071.648402,2.3206232,-2.9045599,-1.1273829,2.1103852,0.20784675,9.865008
691,1778609071.65869,2.432337,-2.6938157,-0.9510311,1.1818706,0.62934345,9.426407
692,1778609071.6696079,2.4594119,-2.5264888,-0.7634592,0.48426306,0.8016073,8.960928
693,1778609071.684869,2.2874506,-2.455509,-0.46270993,-0.3904953,0.6562215,8.2755375
694,1778609071.697797,2.1213434,-2.5362456,-0.28635818,-0.9989166,0.4338667,7.904132
695,1778609071.70562,2.0191422,-2.5338063,0.047075916,-1.3642138,0.51327914,7.7892895
696,1778609071.7199528,2.0191422,-2.5338063,0.047075916,-1.3642138,0.51327914,7.7892895
697,1778609071.730381,1.8698652,-2.5308795,0.30635932,-1.3837614,0.9457714,7.7049904
698,1778609071.741245,1.8374243,-2.5489292,0.35343525,-1.3092359,1.1998911,7.718429
699,1778609071.751452,1.8857199,-2.502585,0.36075276,-1.1943934,1.4100286,7.617026
700,1778609071.762347,1.9718224,-2.385261,0.36246017,-1.1430807,1.3929244,7.441097
701,1778609071.773443,1.8952326,-2.3440392,0.24903892,-1.038012,1.1998911,6.9267483
702,1778609071.783849,1.8186426,-2.2991586,0.1390325,-1.096655,1.2121085,6.8216796
703,1778609071.794843,1.6205823,-2.1589065,-0.024391668,-1.3959787,1.4955497,6.782584
704,1778609071.805755,1.4688662,-2.0084097,-0.07561417,-1.783267,1.968359,6.8595533
705,1778609071.815934,1.4688662,-2.0084097,-0.07561417,-1.783267,1.968359,6.8595533
706,1778609071.826408,1.6118014,-1.7398577,0.25781992,-2.4613268,3.1595454,7.199194
707,1778609071.837239,1.999385,-1.7040019,0.26904008,-2.5810564,3.3770132,7.024487
708,1778609071.849768,2.602347,-1.6720488,0.030245667,-2.8987062,3.4710865,6.4160657
709,1778609071.8583858,2.7494287,-1.7818112,-0.33416584,-3.7478082,3.453982,5.3372784
710,1778609071.870067,2.4752665,-1.8523031,-0.30953026,-4.631119,3.6567893,4.804604
711,1778609071.8806531,2.2106168,-1.8593767,-0.17244908,-5.3690434,4.143038,4.8168216
712,1778609071.891266,2.0952442,-1.8493762,0.009268833,-5.6512628,4.493674,4.951212
713,1778609071.902442,2.4955115,-1.9625535,0.5302748,-6.141176,5.116756,5.2419834
714,1778609071.9138649,3.0060291,-1.9476746,0.910297,-6.155837,4.706255,5.1515756
715,1778609071.924462,3.7289982,-1.8676698,1.2066557,-6.026334,3.3000443,4.7569566
716,1778609071.93578,4.534167,-1.6442424,1.6381443,-5.6402674,0.16630794,3.4423757
717,1778609071.947094,4.297324,-1.0988446,2.1408565,-4.9389944,-2.2637122,2.2536328
718,1778609071.957833,4.159267,-0.7449215,2.3933105,-4.2022915,-2.8232644,1.9848524
719,1778609071.9696782,4.340009,-0.5819852,2.2118363,-3.4264932,-2.60824,1.7771584
720,1778609071.984936,4.4219656,-0.5251526,1.8447418,-3.2261295,-2.4872887,1.3910918
721,1778609071.9976692,5.0283422,-0.27294275,2.5167322,-3.8198903,-3.1873398,1.0783291
722,1778609072.014482,5.886441,-0.26611307,3.1284752,-3.3165376,-2.9576545,0.540768
723,1778609072.0305338,5.4954424,-0.6041816,2.7301593,-2.0581563,-1.2484549,-2.4842343
724,1778609072.04795,3.7031431,-1.3539814,2.4703882,-1.6146684,0.925002,-3.7206247
725,1778609072.050955,3.3711722,-1.5657011,2.411848,-1.1137592,1.9536983,-3.6094472
726,1778609072.064655,3.3711722,-1.5657011,2.411848,-1.1137592,1.9536983,-3.6094472
727,1778609072.082397,3.0657887,-1.6898546,2.052559,-0.07040217,3.1314456,-3.2771368
728,1778609072.086019,3.038714,-1.6883912,1.920356,0.45127636,3.2756097,-3.0926557
729,1778609072.09778,3.0933514,-1.6366808,1.7832749,0.9802852,3.2426229,-3.0291257
730,1778609072.108775,3.1245725,-1.5564322,1.6693656,1.6571234,2.9787295,-3.2282677
731,1778609072.119266,3.1245725,-1.5564322,1.6693656,1.6571234,2.9787295,-3.2282677
732,1778609072.1320782,2.8616304,-1.4656953,1.3334924,2.1739151,2.6586363,-3.5043786
733,1778609072.143435,2.24818,-1.1512867,1.0573788,3.1793985,2.6085453,-3.9832964
734,1778609072.155396,2.1325634,-1.0951859,0.94078666,3.3333364,2.8418956,-4.0199485
735,1778609072.1656141,2.0291429,-1.0559152,0.76150787,3.4775004,3.2120798,-4.0773697
736,1778609072.176933,2.0152395,-1.0834779,0.6836984,3.5410304,3.4258823,-4.1848817
737,1778609072.18817,2.058169,-1.1668974,0.62418276,3.592343,3.5236208,-4.3351545
738,1778609072.1985111,2.1028056,-1.3532497,0.50539535,3.6888597,3.6030333,-4.7163343
739,1778609072.208909,2.0715842,-1.5539931,0.415634,3.786598,3.63602,-5.0510883
740,1778609072.219332,1.9806033,-1.797178,0.2983101,3.9429793,3.8510442,-5.3284206
741,1778609072.236467,1.712051,-2.1401248,0.09585925,4.1018043,4.25788,-5.2734427
742,1778609072.240086,1.712051,-2.1401248,0.09585925,4.1018043,4.25788,-5.2734427
743,1778609072.250505,1.5825313,-2.1569552,0.011951917,4.200764,4.596299,-4.8323984
744,1778609072.26085,1.6913183,-2.1535401,-0.022196416,4.252077,4.6231775,-4.613709
745,1778609072.2715,2.0501196,-2.2547657,-0.13342242,4.330268,4.494896,-4.460993
746,1778609072.283242,2.0501196,-2.2547657,-0.13342242,4.4035716,4.113716,-4.491536
747,1778609072.294158,1.9837743,-2.2398868,-0.43539125,4.2190905,3.8412704,-4.7138906
748,1778609072.3051698,1.911331,-2.172566,-0.54637337,3.908771,4.2481065,-4.6418085
749,1778609072.3165922,1.800349,-2.0915854,-0.6905281,3.6179993,4.9615965,-4.3779154
750,1778609072.3273559,1.7647372,-2.043778,-0.74321413,3.1781766,5.8510156,-4.018727
751,1778609072.3379579,1.7998612,-1.8996232,-0.78467995,2.701702,6.4386673,-3.7707155
752,1778609072.349337,1.905721,-1.8203502,-0.7161393,2.1665847,7.056863,-3.5275915
753,1778609072.36182,1.9732858,-1.8366925,-0.6032059,1.8538219,7.192475,-3.5312567
754,1778609072.3723588,1.7752255,-1.8405952,-0.30196884,1.6925536,6.6426964,-3.6326602
755,1778609072.383133,1.7752255,-1.8405952,-0.30196884,1.6925536,6.6426964,-3.6326602
756,1778609072.395831,1.6503402,-1.8325459,-0.1887915,2.1103852,5.665313,-3.2197156
757,1778609072.4057322,1.3783731,-1.638632,0.12805626,2.4036002,5.3904233,-2.9362743
758,1778609072.41606,1.3783731,-1.638632,0.12805626,2.4036002,5.3904233,-2.9362743
759,1778609072.439952,1.5159422,-1.1366518,0.03439225,3.5263696,4.8174324,-2.7517931
760,1778609072.456667,1.3627625,-1.0939662,0.23806266,3.9600837,4.2884235,-3.0779948
761,1778609072.468513,1.1105527,-1.0266452,0.4388061,4.709004,3.5199556,-3.3834274
762,1778609072.4820921,0.5749116,-0.9722519,0.36197233,5.9490595,2.6842926,-3.6741989
763,1778609072.4982111,-0.2651374,-1.2464142,-0.49124816,8.098082,2.718501,-4.1127996
764,1778609072.51103,-0.8929789,-1.4735006,-1.466671,8.826233,2.6122105,-4.342485
765,1778609072.519418,-1.6076548,-1.5593593,-2.5703938,8.872658,1.846186,-4.4451103
766,1778609072.531853,-2.6152744,-1.2954415,-3.2538483,8.332654,0.7466295,-4.329046
767,1778609072.5447428,-4.229271,-0.86834335,-4.7905235,5.676614,0.76129025,-2.096946
768,1778609072.552885,-4.229271,-0.86834335,-4.7905235,4.399906,1.7215697,-1.0230458
769,1778609072.564307,-4.2609806,-0.6415009,-4.774669,4.399906,1.7215697,-1.0230458
770,1778609072.573886,-4.106337,-0.57686293,-4.3485465,1.8110614,3.1803148,1.7600541
771,1778609072.584405,-4.106337,-0.57686293,-4.3485465,1.8110614,3.1803148,1.7600541
772,1778609072.595098,-2.5516121,-0.8332194,-4.0141363,0.75915223,1.7264566,3.843103
773,1778609072.605888,-2.5516121,-0.8332194,-4.0141363,0.5233584,1.1436915,4.067901
774,1778609072.61648,-2.1257339,-0.8998086,-4.033894,0.5233584,1.1436915,4.067901
775,1778609072.627201,-0.8705386,-1.0900636,-3.9470596,-1.3984222,-1.4378229,4.1167703
776,1778609072.6378171,-0.64101297,-1.185679,-3.508985,-2.4234533,-1.7273729,4.1326528
777,1778609072.6483588,-0.47710103,-1.366909,-2.8882172,-3.6256351,-1.8251113,4.385551
778,1778609072.658808,-0.47710103,-1.366909,-2.8882172,-3.6256351,-1.8251113,4.385551
779,1778609072.669091,-0.0017074167,-1.8357168,-1.9632852,-5.122254,-1.9240713,5.1955576
780,1778609072.680609,0.3275801,-2.0771945,-1.5605788,-5.681806,-2.1048872,5.6036153
781,1778609072.691054,0.3275801,-2.0771945,-1.5605788,-6.026334,-2.2160647,5.884613
782,1778609072.703087,1.0137177,-2.4989262,-0.9181023,-6.53213,-2.3394594,6.237693
783,1778609072.7141492,1.5771652,-2.6028347,-0.33148277,-7.0929036,-2.4714062,6.204706
784,1778609072.724555,1.7591269,-2.5891755,-0.09488358,-7.1564336,-2.440863,6.025112
785,1778609072.734965,1.8379121,-2.5281963,0.27611366,-7.1564336,-2.440863,6.025112
786,1778609072.745932,1.8030319,-2.3835537,0.71248055,-6.3806353,-2.3700027,5.294518
787,1778609072.7561631,1.7452238,-2.3015976,0.807852,-5.780766,-2.3919938,5.086824
788,1778609072.767893,1.6674144,-2.1691508,0.772728,-4.7300787,-2.801273,4.8265953
789,1778609072.7838778,1.659365,-2.1471984,0.6071086,-4.169305,-3.1885614,4.675101
790,1778609072.798997,1.4705737,-2.2215931,-0.03390442,-3.1674867,-4.279566,4.3146906
791,1778609072.815259,0.8961498,-2.5135612,-0.45978296,-3.1772604,-4.5837765,4.6470013
792,1778609072.831004,0.7834603,-2.537465,-0.50856626,-3.3311985,-4.853779,5.135693
793,1778609072.848617,1.6866837,-2.54649,-0.7705327,-4.4148726,-5.7993975,6.644529
794,1778609072.8638048,2.9294393,-2.6094205,-0.6217436,-6.6567464,-4.2233663,5.907826
795,1778609072.874879,2.927244,-2.7674785,0.08829784,-7.646347,-1.9766057,4.7276354
796,1778609072.8853881,1.9952384,-2.5386846,1.4869161,-7.646347,-1.9766057,4.7276354
797,1778609072.897826,0.77638674,-2.0184104,2.3867245,-6.2804537,1.5749621,3.5706573
798,1778609072.908193,0.20513393,-1.8688896,2.5662472,-4.425868,1.345277,3.906633
799,1778609072.918723,-0.12317792,-1.7371745,1.999385,-2.605491,-0.06582068,4.8021607
800,1778609072.9309561,0.24025792,-1.8049834,0.924932,-1.1418589,-1.9497277,5.5999503
801,1778609072.9416478,0.79175353,-2.0271914,0.3949011,-0.7447969,-2.7365215,6.193711
802,1778609072.952258,2.20086,-2.3323312,-0.27391842,-0.82420933,-3.2508698,6.708059
803,1778609072.964573,3.3977592,-1.7466872,0.097322755,-1.5047127,-2.951546,5.1027064
804,1778609072.975233,3.2350667,-1.648145,0.10878683,-1.774715,-2.4726279,4.539489
805,1778609072.985756,3.2350667,-1.648145,0.10878683,-1.774715,-2.4726279,4.539489
806,1778609072.997356,2.7208905,-1.6847324,-0.11025034,-3.129613,-0.82573646,4.1974044
807,1778609073.008728,2.7406478,-1.7788843,-0.062686585,-3.8540986,-0.25396705,4.273152
808,1778609073.019128,2.9633436,-1.9549922,0.86590415,-4.882795,0.3092503,4.4454155
809,1778609073.0297441,3.427517,-2.2228124,1.5052098,-4.8632474,-0.091477,4.422203
810,1778609073.040192,3.8126614,-2.1711023,1.8488884,-4.544376,-0.47632182,4.226726
811,1778609073.050508,3.9143746,-1.7413212,2.0725598,-3.8259988,-0.9503529,3.9664977
812,1778609073.060852,4.1168256,-1.4008135,1.9471868,-3.4362671,-0.8342886,3.879755
813,1778609073.071977,4.2904944,-1.0671355,1.8759631,-3.4362671,-0.8342886,3.879755
814,1778609073.0831308,5.075662,-0.3217261,2.3803828,-3.5401142,0.34590217,3.598757
815,1778609073.0925288,5.904491,-0.1653755,2.9596848,-3.527897,0.4497492,2.5163047
816,1778609073.103046,6.2447543,-0.22733033,3.3675134,-3.211469,0.34468046,1.3055707
817,1778609073.1143801,5.967665,-0.33123884,3.6575303,-2.6739078,0.62567824,-0.010231985
818,1778609073.12483,5.329823,-0.5353971,3.8043683,-1.9017748,1.3843724,-1.0425935
819,1778609073.135378,5.329823,-0.5353971,3.8043683,-1.9017748,1.3843724,-1.0425935
820,1778609073.146614,4.0414553,-0.9849355,3.488496,0.29122978,3.102124,-2.0529637
821,1778609073.1568818,3.7446086,-1.1444571,3.1545742,1.1366667,3.314705,-2.2350016
822,1778609073.167635,3.3843436,-1.3576401,2.5460021,2.3583963,2.8932083,-2.5159993
823,1778609073.178675,3.1892104,-1.4581338,2.072804,3.0950992,2.1467316,-2.733467
824,1778609073.190128,3.1892104,-1.4581338,2.072804,3.6387687,1.4039199,-2.9704826
825,1778609073.2006662,2.8138227,-1.4173998,1.2686106,4.0663743,0.6244565,-3.2795804
826,1778609073.211375,2.614055,-1.3612989,1.0542079,4.1958776,0.31902415,-3.4322965
827,1778609073.221886,2.3306239,-1.2156807,0.8317558,4.1958776,0.10399973,-3.574017
828,1778609073.232864,2.2242763,-1.1134796,0.7893143,4.1018043,0.07956514,-3.692525
829,1778609073.243615,2.1311,-0.99518,0.80443716,4.029722,0.062460925,-3.8208065
830,1778609073.2584279,1.9449916,-0.8959059,0.9478602,3.9784095,-0.3675879,-4.5074186
831,1778609073.2661629,1.8337655,-0.90127206,0.9532263,4.022392,-0.3969094,-4.7102256
832,1778609073.281539,1.7027822,-0.89175934,0.8127304,4.0663743,-0.18432845,-4.933802
833,1778609073.2981608,1.6879033,-1.1125039,0.35636225,3.7035205,0.8639155,-5.142718
834,1778609073.313579,1.9532847,-1.5274062,0.19293809,2.9936955,1.941481,-5.2392344
835,1778609073.324208,2.0249963,-1.7288814,0.23001343,2.7224717,2.438725,-5.3430815
836,1778609073.334335,2.0249963,-1.7288814,0.23001343,2.7224717,2.438725,-5.3430815
837,1778609073.347326,1.964261,-2.004751,0.33855635,2.6357288,3.31837,-5.5788755
838,1778609073.3578,1.9149898,-2.1001227,0.3434347,2.7224717,3.463756,-5.648514
839,1778609073.367979,1.7596148,-2.23013,0.32416525,2.8776312,3.527286,-5.693718
840,1778609073.380822,1.5820435,-2.2381794,0.2953831,3.0572255,3.5040731,-5.6314096
841,1778609073.391659,1.4905748,-2.239155,0.2941635,3.2441502,3.3892305,-5.44815
842,1778609073.401783,1.5159422,-2.279889,0.23367217,3.4347398,3.2438447,-5.228239
843,1778609073.413545,1.5378946,-2.2464726,0.19976775,3.5361435,3.1852016,-5.0889616
844,1778609073.42518,1.6054595,-2.2520826,0.19635291,3.8745625,3.3880088,-4.6613564
845,1778609073.435325,1.6054595,-2.2520826,0.19635291,3.8745625,3.3880088,-4.6613564
846,1778609073.447482,2.020118,-2.2969632,0.16927817,4.324159,3.238958,-4.558731
847,1778609073.458448,2.0910976,-2.2884264,0.1636681,4.4451103,2.8956518,-4.7138906
848,1778609073.469224,2.1374419,-2.277206,0.047319833,4.7554297,2.0245585,-5.1989174
849,1778609073.479632,2.0332894,-2.2976952,-0.072443254,4.789638,1.1424699,-5.6509576
850,1778609073.4907331,1.7488825,-2.2711082,-0.21586627,4.668687,0.2689332,-6.037024
851,1778609073.502818,1.7488825,-2.2711082,-0.21586627,4.50131,-0.31627524,-6.254492
852,1778609073.513955,1.4330105,-2.1508572,-0.08512692,4.0517135,-1.7334815,-6.5672545
853,1778609073.524277,1.3276384,-1.9715784,-0.0036587503,3.9661922,-2.165974,-6.7725053
854,1778609073.537673,1.2412919,-1.7844943,0.05366167,3.9661922,-2.165974,-6.7725053
855,1778609073.5490298,1.0810387,-1.607167,0.01975725,3.9771879,-2.7352998,-7.7865405
856,1778609073.558412,0.8512692,-1.5644815,-0.09317617,3.9234319,-3.0175192,-8.296001
857,1778609073.571167,0.22854991,-1.5432608,-0.33880025,3.5324783,-3.4365726,-9.004605
858,1778609073.5824661,-0.28928518,-1.5835071,-0.6100356,3.027904,-3.3644905,-9.39678
