id,timestamp,acc_x,acc_y,acc_z,gyro_x,gyro_y,gyro_z
1,1778609123.765696,0.6193044,-0.55954486,0.34294683,-0.5077813,-0.8061888,0.25243986
2,1778609123.781232,0.6171092,-0.55905706,0.36075276,-0.43447757,-0.80496705,0.19868377
3,1778609123.786915,0.6095478,-0.5575935,0.37538776,-0.34284785,-0.7817542,0.13881902
4,1778609123.797292,0.600279,-0.5617401,0.38392484,-0.23900084,-0.75487614,0.08628465
5,1778609123.808576,0.5936932,-0.5841804,0.38124177,-0.1583667,-0.7365502,0.05818487
6,1778609123.819511,0.6102795,-0.6288172,0.3583136,-0.056963142,-0.7145591,0.03619374
7,1778609123.829741,0.6424765,-0.6741857,0.33416584,0.045662142,-0.6522509,0.03008509
8,1778609123.840121,0.6607703,-0.7002848,0.30660325,0.10797035,-0.5459604,0.011759147
9,1778609123.8505988,0.6649168,-0.7000409,0.28879735,0.1556178,-0.42012227,-0.021227552
10,1778609123.861103,0.6612581,-0.70418745,0.2778211,0.18127412,-0.31749696,-0.0481056
11,1778609123.871649,0.6427204,-0.7183346,0.25684425,0.21426082,-0.13423753,-0.09453133
12,1778609123.8819451,0.5966202,-0.7283352,0.23391607,0.23625195,0.009926553,-0.11285727
13,1778609123.8934011,0.5966202,-0.7283352,0.23391607,0.25335616,0.1357647,-0.10797035
14,1778609123.903875,0.5880831,-0.74028707,0.22733033,0.27046037,0.22861615,-0.092087865
15,1778609123.915148,0.60515726,-0.79175353,0.2329404,0.3291034,0.25793764,-0.034666575
16,1778609123.9275572,0.6154018,-0.8090716,0.24928285,0.37675086,0.21151192,0.00320704
17,1778609123.935827,0.6154018,-0.8090716,0.24928285,0.37675086,0.21151192,0.00320704
18,1778609123.946688,0.6195483,-0.7968757,0.26879618,0.5563451,0.11133011,0.06551525
19,1778609123.957418,0.6195483,-0.7968757,0.26879618,0.5563451,0.11133011,0.06551525
20,1778609123.967653,0.60832816,-0.7705327,0.23684308,0.7163917,-0.016951498,0.07773254
21,1778609123.979108,0.60857207,-0.7685814,0.21708584,0.7701478,-0.07192933,0.07773254
22,1778609123.989552,0.6188166,-0.79516834,0.16732684,0.7921389,-0.12568542,0.08261946
23,1778609124.0003042,0.63711035,-0.8222431,0.1331785,0.77747816,-0.20021093,0.0923933
24,1778609124.010924,0.6607703,-0.84102464,0.11927526,0.77747816,-0.20021093,0.0923933
25,1778609124.0213811,0.6863815,-0.8468787,0.10024975,0.67485285,-0.23808455,0.16936226
26,1778609124.031952,0.7102853,-0.83639026,0.093907915,0.64186615,-0.115911596,0.20479241
27,1778609124.042943,0.95127505,-0.714188,-0.007073583,0.64430964,0.70997757,0.016646065
28,1778609124.054715,0.95127505,-0.714188,-0.007073583,0.64430964,0.70997757,0.016646065
29,1778609124.063756,0.8641968,-0.51417637,-0.2397701,0.64430964,1.5028801,-0.1678351
30,1778609124.077848,0.87444127,-0.47612533,-0.41782925,0.49525863,1.7728823,-0.06887501
31,1778609124.09838,0.98030114,-0.3670946,-0.9046869,-0.23411393,2.077093,0.23533566
32,1778609124.1132202,1.0439633,-0.4124631,-1.1376274,-0.7509055,2.366643,0.3733911
33,1778609124.1317482,1.8230332,-0.44002566,-0.8607819,-2.6922338,3.0288203,0.28542656
34,1778609124.155408,2.889193,-0.83956116,1.0224986,-2.9475753,1.3745985,-0.5367974
35,1778609124.167691,3.9226677,-1.2986124,1.5520418,-0.97203857,-1.1556034,-1.5215114
36,1778609124.1803572,4.2658587,-1.4144728,1.2717816,-0.056963142,-2.0010402,-2.3376267
37,1778609124.190654,4.35001,-1.5537492,0.94103056,0.32421649,-2.4506369,-3.258811
38,1778609124.2014,4.136095,-1.7657129,0.45002624,0.16172644,-2.3846633,-4.0321655
39,1778609124.2124631,3.892422,-1.8557181,0.254649,-0.23044874,-1.9570581,-4.3718066
40,1778609124.2234712,3.4267852,-1.8664504,0.44392833,-1.7905974,0.7063124,-4.636922
41,1778609124.236351,3.4267852,-1.8664504,0.44392833,-1.7905974,0.7063124,-4.636922
42,1778609124.247211,3.2594583,-1.7483947,1.1654338,-2.1387904,2.2334743,-4.9912233
43,1778609124.258398,3.111889,-1.7042459,1.5271623,-1.8052582,2.4729333,-5.350412
44,1778609124.269056,2.8160179,-1.6520475,1.7847383,-0.9683734,2.3422084,-5.8391037
45,1778609124.2793999,2.5655155,-1.6447302,1.7898606,0.06276636,1.9170464,-6.2471614
46,1778609124.2907982,2.31794,-1.6652191,1.6425349,0.6638573,1.6458224,-6.4377513
47,1778609124.3027651,2.0767064,-1.6932696,1.410814,1.3541344,1.3819288,-6.6368933
48,1778609124.311457,1.8627917,-1.727418,1.1400665,1.8697044,1.2597558,-6.7725053
49,1778609124.3226528,1.6639994,-1.7635175,0.81175464,2.264323,1.2829688,-6.877574
50,1778609124.333174,1.5757017,-1.8242527,0.5746677,2.4011567,1.3636029,-6.9520993
51,1778609124.343694,1.5503343,-1.9274296,0.36319193,2.4109306,1.4527892,-7.040064
52,1778609124.354441,1.5503343,-1.9274296,0.36319193,2.3962698,1.4686717,-7.063277
53,1778609124.365343,1.5388703,-2.3315995,0.19196242,2.1726933,1.5590796,-7.2636404
54,1778609124.3749492,1.4969167,-2.4489233,0.190255,2.1726933,1.5590796,-7.2636404
55,1778609124.385419,1.4422792,-2.5038047,0.22269592,2.1580327,1.6555963,-7.1732326
56,1778609124.3960478,1.3817879,-2.5313673,0.24928285,2.2545493,1.6861395,-7.068164
57,1778609124.406471,1.372519,-2.5333185,0.25586858,2.3510659,1.6384921,-6.9777555
58,1778609124.418627,1.4647197,-2.529172,0.25001457,2.5379903,1.3599377,-6.894678
59,1778609124.429489,1.5371628,-2.535026,0.23220867,2.6882632,0.95676696,-6.909339
60,1778609124.4397252,1.6322904,-2.5094147,0.18488884,2.6882632,0.95676696,-6.909339
61,1778609124.450656,1.75059,-2.4842913,0.14098383,2.905731,0.014813471,-7.19278
62,1778609124.461527,1.7871774,-2.4518502,0.09488358,2.905731,0.014813471,-7.19278
63,1778609124.4732869,1.7103437,-2.4140434,0.047807667,2.9130614,-0.93324864,-7.8867226
64,1778609124.4846148,1.5152103,-2.397945,-0.023903834,2.6601634,-1.8483241,-8.303332
65,1778609124.495629,1.5152103,-2.397945,-0.023903834,2.6601634,-1.8483241,-8.303332
66,1778609124.508128,1.4817938,-2.3862367,-0.0482955,2.5098906,-2.1134393,-8.324101
67,1778609124.519434,1.4234977,-2.230618,-0.11878742,2.2362232,-2.4714062,-8.28745
68,1778609124.529779,1.3947154,-2.0842679,-0.26269826,1.8477132,-2.7890558,-8.250798
69,1778609124.5479648,1.2783673,-1.7315645,-0.4658808,1.2160791,-2.8049383,-8.107856
70,1778609124.56418,1.4013013,-1.6252168,-0.75297076,0.09453133,-2.2258384,-7.834188
71,1778609124.581625,1.3839831,-1.8276677,-0.7410189,-0.44547313,-2.0059273,-7.7975364
72,1778609124.597457,1.3627625,-2.0369482,-0.43953782,-2.059378,-1.2899936,-7.8464055
73,1778609124.614888,0.89175934,-2.3877003,0.28318727,-2.25852,-0.6082686,-9.573931
74,1778609124.630757,0.56247187,-2.5977125,0.42051232,-2.1497858,-0.51175195,-10.314299
75,1778609124.641345,-0.88151485,-3.8807144,0.52612823,-1.873675,-0.85627973,-12.651467
76,1778609124.651606,-2.5596616,-4.7234464,0.72077376,-1.7710497,-1.6601777,-13.426044
77,1778609124.663011,-2.5596616,-4.7234464,0.72077376,-1.7710497,-1.6601777,-13.426044
78,1778609124.673742,-5.824974,-4.776864,2.6267385,-1.0416771,-5.1311116,-11.4175205
79,1778609124.6851661,-6.9838223,-4.2626877,2.616982,1.2319615,-4.8110185,-5.548332
80,1778609124.6965492,-6.8391795,-3.9921844,2.3284285,1.7279837,-2.6070182,-2.5184429
81,1778609124.707008,-6.8391795,-3.9921844,2.3284285,1.7279837,-2.6070182,-2.5184429
82,1778609124.7187462,-5.234696,-3.8170521,1.6422908,2.3107488,1.3061817,3.250564
83,1778609124.7290409,-4.6956396,-3.8565667,1.5147225,2.4109306,1.8412992,4.429533
84,1778609124.739539,-3.3421464,-3.9538891,1.2973927,2.7505715,2.4558291,6.7459326
85,1778609124.7515242,-2.1576867,-4.0353575,1.0798191,3.3822055,2.6085453,8.22789
86,1778609124.76298,-1.5466757,-4.022674,0.9122484,3.8525715,2.582889,8.847307
87,1778609124.7731042,-0.7149198,-3.9651093,0.4846624,4.6528044,2.4216206,9.588897
88,1778609124.783675,-0.368802,-3.8807144,0.02268425,5.340638,2.4081817,11.249228
89,1778609124.794784,0.04610025,-3.919741,-0.38612008,5.340638,2.4081817,11.249228
90,1778609124.805677,0.54149497,-3.9626703,-0.7863874,5.3027644,2.6476407,11.880862
91,1778609124.816035,1.3186135,-4.0738964,-1.3986181,4.1335692,3.4466517,13.257751
92,1778609124.826934,1.5154543,-4.2119527,-1.3310533,3.0059128,3.731315,14.059206
93,1778609124.8377442,1.6798542,-4.3768406,-1.2134855,2.2936444,3.7924013,14.543011
94,1778609124.849934,2.122319,-4.576853,-1.0481099,1.0340414,3.9817693,15.153875
95,1778609124.8591192,2.5599053,-4.625148,-0.96444654,0.19593488,4.226115,15.205188
96,1778609124.8694432,3.252385,-4.4861155,-0.7871191,-1.3874266,4.932275,14.418394
97,1778609124.879789,3.6365535,-4.0617003,-0.44734317,-2.6360343,5.434406,13.015848
98,1778609124.890178,3.5245957,-3.6807024,-0.0019513334,-3.5731008,5.5345874,11.393392
99,1778609124.900699,3.2043333,-3.3965397,0.35782576,-4.108218,5.0739956,9.900438
100,1778609124.9121559,2.9694414,-3.257507,0.5744238,-4.108218,5.0739956,9.900438
101,1778609124.923381,2.681132,-3.111889,0.68467414,-4.2707086,2.8822126,7.9420056
102,1778609124.933933,2.2328131,-2.9467573,0.60198635,-4.0080366,-0.5080868,6.743489
103,1778609124.944669,2.0654864,-2.822116,0.605889,-3.8540986,-2.002262,6.4698215
104,1778609124.95771,2.0654864,-2.822116,0.605889,-3.8540986,-2.002262,6.4698215
105,1778609124.966163,1.9888965,-2.704792,0.7954123,-3.3067636,-3.6088364,6.174163
106,1778609124.9773839,1.9159654,-2.6484473,0.85883063,-2.9732316,-3.6662576,6.103303
107,1778609124.991393,1.4922822,-2.3977008,0.92688334,-2.2340853,-3.1372488,6.1314025
108,1778609125.002827,1.4922822,-2.3977008,0.92688334,-1.7478368,-2.350455,6.3342094
109,1778609125.015965,1.4744763,-2.2576928,0.69101596,-1.2493712,0.009926553,6.959735
110,1778609125.03519,1.7940072,-2.3145254,0.61247474,-1.4228568,2.3690863,7.11856
111,1778609125.047261,2.1240265,-2.5508807,0.48612595,-1.7844887,3.2450664,6.860775
112,1778609125.065541,2.2994025,-2.6789367,0.415634,-2.1363468,3.5504987,6.580999
113,1778609125.079885,2.1196358,-2.664058,0.6680878,-3.0685265,3.721541,6.147285
114,1778609125.090548,2.2223246,-2.6199088,0.92541987,-3.4753625,3.6751153,6.513804
115,1778609125.102868,3.0223715,-2.479657,1.0651841,-3.8443248,3.9988735,6.6481943
116,1778609125.113694,3.5841117,-2.5047803,1.089088,-4.0850053,4.299419,6.282897
117,1778609125.1241128,4.0504804,-2.493804,1.2344623,-4.656775,4.2163415,5.150354
118,1778609125.1369731,3.9953551,-1.8649869,2.2450092,-5.078272,1.6274965,3.5462227
119,1778609125.147351,3.8955932,-1.5591153,2.7006454,-4.764287,0.41920596,3.0282094
120,1778609125.158108,3.8955932,-1.5591153,2.7006454,-4.764287,0.41920596,3.0282094
121,1778609125.1708858,4.065115,-1.1264071,3.3272674,-3.4655886,-0.7353285,2.8889322
122,1778609125.1813009,5.558617,-0.6324759,4.145364,-2.0899212,-2.1134393,2.759429
123,1778609125.191592,5.558617,-0.6324759,4.145364,-0.9854776,-3.1348054,1.9482005
124,1778609125.2052941,6.870401,-0.5578374,4.7193,-0.9854776,-3.1348054,1.9482005
125,1778609125.2140841,6.870401,-0.5578374,4.7193,-0.9854776,-3.1348054,1.9482005
126,1778609125.2243881,6.130602,-1.1232363,3.9073012,2.029751,-2.779282,-2.9973607
127,1778609125.235012,4.52563,-1.6439984,2.9584653,3.258811,0.20295982,-4.893485
128,1778609125.24628,3.9907207,-1.7932754,2.6206408,3.4286313,1.1033745,-4.933802
129,1778609125.25715,3.9907207,-1.7932754,2.6206408,3.4286313,1.1033745,-4.933802
130,1778609125.267741,3.0413969,-2.3157449,1.60985,3.732842,2.9164212,-4.048048
131,1778609125.278749,3.0687156,-2.3530643,1.603996,3.845241,2.0331106,-4.017505
132,1778609125.289414,2.9872475,-2.2781816,1.6686338,4.0810347,0.8993457,-4.221534
133,1778609125.299816,2.8582156,-2.2035432,1.6725366,4.3815804,-0.14401138,-4.537962
134,1778609125.31025,2.5345383,-2.1098793,1.4427671,4.654026,-0.8269582,-4.910589
135,1778609125.32081,2.5345383,-2.1098793,1.4427671,4.838507,-1.0529782,-5.272221
136,1778609125.332094,2.3889198,-2.0891464,1.2786112,4.8861547,-0.9552398,-5.5067935
137,1778609125.341425,2.102074,-2.1518328,0.90078425,4.8372855,-0.54473865,-5.7230396
138,1778609125.351767,2.102074,-2.1518328,0.90078425,4.6638,0.13820815,-5.8452125
139,1778609125.3629582,2.1145136,-2.2386672,0.80663246,4.5074186,0.69409513,-5.947838
140,1778609125.374499,2.1684194,-2.3628209,0.7473607,4.40235,1.1852304,-6.0968885
141,1778609125.3848472,2.2147634,-2.4933162,0.69272333,4.3730283,1.5089887,-6.2606006
142,1778609125.3954911,2.2259834,-3.0145662,0.46929568,4.4182324,2.0880885,-6.8555827
143,1778609125.4085948,2.1420763,-3.2301884,0.36050883,4.47321,2.1723878,-7.0327334
144,1778609125.420705,1.9842621,-3.3709285,0.26904008,4.531853,2.2493567,-7.057168
145,1778609125.431007,1.8554741,-3.4143455,0.22903776,4.5721703,2.3189955,-6.970425
146,1778609125.441817,1.6996113,-3.4109306,0.23903833,4.704117,2.3238823,-6.6747665
147,1778609125.4536471,1.6659509,-3.375563,0.23342825,4.812851,2.2823436,-6.5037246
148,1778609125.4629009,1.7035141,-3.377758,0.19415767,4.812851,2.2823436,-6.5037246
149,1778609125.475923,1.7627857,-3.3526347,0.11708001,5.064527,1.7924299,-6.2410526
150,1778609125.484668,1.7749816,-3.2714105,0.010488417,5.0865183,1.1070397,-6.329017
151,1778609125.5003352,1.7271739,-3.2026258,-0.01243975,5.007106,0.56214833,-6.4047647
152,1778609125.517693,1.653755,-2.9713929,0.15317966,4.9557934,-0.95646155,-6.556259
153,1778609125.530438,1.653755,-2.9713929,0.15317966,5.035206,-1.4989095,-6.6747665
154,1778609125.546782,1.5810679,-2.7404037,0.067077085,5.1060658,-2.530049,-7.003412
155,1778609125.5633469,1.2622688,-2.3857489,-0.280992,4.017505,-5.209302,-7.9795737
156,1778609125.581774,1.1686047,-2.2240322,-0.20220692,3.6656468,-5.851932,-8.187268
157,1778609125.5970612,0.65930676,-1.8403512,-0.23196477,2.7285802,-6.9282756,-9.388228
158,1778609125.60807,0.10195717,-1.6808298,-0.08854175,2.3131921,-7.0590005,-9.881806
159,1778609125.619215,-0.04756375,-2.0849998,-0.56369144,1.7304271,-7.184839,-10.256878
160,1778609125.6305122,-0.5173473,-2.338185,-0.8334633,0.8581123,-7.0089097,-10.602627
161,1778609125.640987,-1.5332602,-2.6557648,-1.0124981,-1.168737,-6.054739,-10.464572
162,1778609125.652931,-2.2520826,-3.1248164,-1.0776238,-3.1308348,-3.845852,-9.730312
163,1778609125.663106,-4.8722353,-3.4145894,0.67174655,-6.6274247,0.7270818,-8.236137
164,1778609125.674232,-4.8722353,-3.4145894,0.67174655,-6.6274247,0.7270818,-8.236137
165,1778609125.687135,-6.7569795,-3.4470303,2.5772235,-5.705019,2.8211262,-4.899594
166,1778609125.697601,-7.017238,-2.9809055,3.173112,-3.1552694,2.5034766,-1.65468
167,1778609125.707995,-7.017238,-2.9809055,3.173112,-3.1552694,2.5034766,-1.65468
168,1778609125.721041,-7.017238,-2.9809055,3.173112,-3.1552694,2.5034766,-1.65468
169,1778609125.7299662,-4.435137,-3.0460315,1.6654631,2.309527,-0.6351467,3.9054112
170,1778609125.7399611,-3.3719041,-3.0228593,0.88029534,3.5679085,-1.4879138,5.184562
171,1778609125.750488,-3.0318844,-2.9835887,0.61467,3.8611236,-1.7151556,5.5938416
172,1778609125.760993,-3.0318844,-2.9835887,0.61467,3.8611236,-1.7151556,5.5938416
173,1778609125.771723,-1.5339919,-2.856752,-0.29221216,4.215425,-1.9094106,6.554121
174,1778609125.7820532,-1.1317734,-2.930415,-0.4300251,3.7975936,-0.9980003,7.3653493
175,1778609125.792641,-0.6429643,-3.0111513,-0.42026842,3.064556,0.091782436,8.084949
176,1778609125.803383,-0.34001982,-3.1143281,-0.35026434,2.590525,0.568257,8.659161
177,1778609125.81471,0.4119753,-3.2767766,-0.15903367,2.0370812,0.7979421,9.5791235
178,1778609125.825162,0.4119753,-3.2767766,-0.15903367,2.0370812,0.7979421,9.5791235
179,1778609125.835785,1.1632386,-3.4394689,-0.1885476,1.8147266,0.20662501,10.023833
180,1778609125.846664,1.4935018,-3.5777698,-0.1741565,1.8550436,-0.5374083,10.170441
181,1778609125.8572109,1.6339977,-3.623626,-0.20074342,1.9112432,-0.850171,10.299944
182,1778609125.86882,1.7808355,-3.634602,-0.2239155,1.9197953,-0.7817542,10.358586
183,1778609125.879274,1.7808355,-3.634602,-0.2239155,1.9197953,-0.7817542,10.358586
184,1778609125.891487,2.0913415,-3.509473,-0.16879034,1.4848596,0.5218312,10.171662
185,1778609125.9035652,2.2954998,-3.436054,-0.12390967,0.56245375,1.9329289,9.674418
186,1778609125.914282,2.2954998,-3.436054,-0.12390967,0.56245375,1.9329289,9.674418
187,1778609125.924884,2.2389112,-3.3855636,-0.07927292,-0.25732678,2.8370087,9.25903
188,1778609125.9358552,2.0381677,-3.351659,0.0219525,-1.7172936,3.0996807,8.861968
189,1778609125.947059,1.9681636,-3.3772702,0.131715,-2.2866197,3.0874634,8.843642
190,1778609125.969999,2.113538,-3.3775141,0.4875894,-3.116174,3.2023058,8.907172
191,1778609125.980479,2.113538,-3.3775141,0.4875894,-3.116174,3.2023058,8.907172
192,1778609125.998272,2.4445329,-2.9650512,0.7807773,-3.4216063,3.6909976,7.6646733
193,1778609126.0130591,2.1906157,-2.6645458,0.655648,-3.441154,3.739867,7.207746
194,1778609126.036569,2.3881881,-2.35404,0.5778386,-3.6525133,3.1399977,6.9768395
195,1778609126.03678,2.3881881,-2.35404,0.5778386,-3.6525133,3.1399977,6.9768395
196,1778609126.0471418,3.2936068,-2.3450148,0.70760226,-4.050797,2.763705,5.3727083
197,1778609126.057738,3.2936068,-2.3450148,0.70760226,-4.050797,2.763705,5.3727083
198,1778609126.068418,2.8823633,-2.3459904,1.1812885,-4.4991717,4.4386964,3.9811585
199,1778609126.080193,2.8823633,-2.3459904,1.1812885,-4.4991717,4.4386964,3.9811585
200,1778609126.090785,3.5572808,-2.1328075,1.2412919,-4.5517063,4.931053,4.0984445
201,1778609126.101312,3.7926602,-2.0913415,1.2276326,-5.0196285,4.615847,3.766134
202,1778609126.113971,3.4194677,-0.7010165,1.3961791,-5.7160144,3.264614,2.90848
203,1778609126.124872,3.3740993,-0.2080609,1.7291253,-5.7160144,3.264614,2.90848
204,1778609126.135545,3.9431567,0.22757424,2.7391844,-5.9383693,-1.7322598,2.546848
205,1778609126.146904,4.5241666,0.47027132,4.110484,-5.2334313,-6.2441072,2.767981
206,1778609126.157342,4.5241666,0.47027132,4.110484,-5.2334313,-6.2441072,2.767981
207,1778609126.167833,4.5241666,0.47027132,4.110484,-5.2334313,-6.2441072,2.767981
208,1778609126.181365,7.9916854,0.27904066,4.191708,-0.43814278,-6.3626146,-1.2747221
209,1778609126.1919339,7.95705,-0.050246835,2.5484414,-1.362992,-0.42134398,-4.0016227
210,1778609126.202568,5.435927,-0.7683375,2.291841,-3.1760387,4.741685,-5.0278754
211,1778609126.214699,2.078414,-1.8547423,4.1439004,-3.3348637,9.904715,-3.9417577
212,1778609126.225984,2.1435397,-1.9718224,4.905652,-1.5242603,8.24927,-2.8751879
213,1778609126.2363698,2.6328366,-2.0330455,5.1002975,1.7597487,4.263989,-2.3339617
214,1778609126.247794,2.8674843,-2.121587,4.334643,4.2777333,1.1229222,-2.423148
215,1778609126.258902,2.7560143,-2.0725598,3.316047,6.0382457,-1.0383174,-2.6516113
216,1778609126.269272,2.7125974,-1.9549922,2.1059763,6.7725053,-1.8373286,-2.8348708
217,1778609126.279833,2.7365012,-1.7952268,1.291051,6.5904675,-1.6406301,-2.987587
218,1778609126.290705,2.7172318,-1.4942335,0.47197875,5.3516335,-0.29917103,-3.2099416
219,1778609126.3010051,2.6216164,-1.2454386,0.2748941,4.096917,1.263421,-3.4347398
220,1778609126.311265,2.488438,-1.1103088,0.31123766,3.2478154,2.4032948,-3.5239263
221,1778609126.321654,2.3086712,-1.0373776,0.43856218,2.178802,3.843714,-3.7169595
222,1778609126.3325398,2.092561,-1.0481099,0.65808713,1.3394737,4.564534,-3.8476846
223,1778609126.3453948,1.9754812,-1.150311,0.7824847,1.3394737,4.564534,-3.8476846
224,1778609126.3538501,2.0206058,-1.5800922,1.0324993,1.2710569,4.5107784,-3.8525715
225,1778609126.365112,2.1884203,-1.8632795,1.179581,1.6571234,3.9952083,-3.8403542
226,1778609126.375947,2.1884203,-1.8632795,1.179581,1.6571234,3.9952083,-3.8403542
227,1778609126.3861902,2.291841,-2.0806093,1.2798308,2.242332,4.1564765,-3.9075494
228,1778609126.397147,2.4220924,-2.3957496,1.2393407,3.1916158,4.3776097,-4.061487
229,1778609126.407732,2.3959935,-2.771625,0.9476163,4.639365,4.386162,-4.3901324
230,1778609126.4181461,2.300622,-2.950416,0.7388236,5.2074695,4.1882415,-4.5074186
231,1778609126.4286988,2.1564674,-3.1065228,0.5368606,5.5422235,3.9548912,-4.545292
232,1778609126.4394329,2.0084097,-3.1670141,0.4161218,5.9747157,3.485747,-4.4487753
233,1778609126.449952,1.9327956,-3.202138,0.307335,6.1970706,3.1937537,-4.332711
234,1778609126.460751,2.0191422,-3.1718924,0.25708818,6.519607,2.6610796,-4.1775517
235,1778609126.471348,2.2369597,-3.1711607,0.20879267,6.6882057,2.2408047,-4.230086
236,1778609126.4815202,2.2369597,-3.1711607,0.20879267,6.6882057,2.2408047,-4.230086
237,1778609126.492416,2.4428256,-3.2872648,0.060247418,7.1194763,0.28603745,-5.4848022
238,1778609126.505501,2.4250195,-3.3184862,0.16122891,7.283188,-1.0737475,-6.0651236
239,1778609126.516709,2.4250195,-3.3184862,0.16122891,7.283188,-1.0737475,-6.0651236
240,1778609126.53181,2.65235,-3.476788,0.12122658,7.9478087,-2.3675592,-7.0522814
241,1778609126.547721,2.3901396,-3.5365477,-0.28708994,8.314328,-3.4231336,-8.209259
242,1778609126.562557,1.5066732,-3.4348345,-0.58661956,7.6997976,-5.8177233,-9.499406
243,1778609126.5804548,1.5066732,-3.4348345,-0.58661956,7.2770796,-7.030901,-10.006423
244,1778609126.584108,1.2542195,-3.3580008,-0.74345803,6.2410526,-9.063859,-11.914764
245,1778609126.596149,0.7544343,-3.8214426,-1.0620133,5.3785114,-8.992998,-12.916583
246,1778609126.607593,-0.9824963,-3.928034,-1.4944775,2.7456844,-7.861677,-13.248894
247,1778609126.617745,-2.3057442,-3.553866,-1.4561826,0.5148063,-7.07977,-11.975851
248,1778609126.629389,-3.2070165,-3.056032,-1.0103029,-0.9683734,-6.4273663,-10.453576
249,1778609126.640595,-3.6080155,-2.759673,-0.7829725,-2.9280276,-4.7963576,-7.5238686
250,1778609126.651364,-3.8331504,-2.8045537,-0.9463967,-5.8345222,-1.8434372,-3.7120726
251,1778609126.664002,-3.2121387,-3.4323952,-0.81053513,-7.6048083,-0.22586726,-2.2716534
252,1778609126.674459,-3.2121387,-3.4323952,-0.81053513,-7.6048083,-0.22586726,-2.2716534
253,1778609126.6847732,-3.0721304,-4.282689,1.085917,-9.571793,0.7185297,-1.6998839
254,1778609126.6962712,-3.1601844,-4.364645,1.8030319,-10.240079,0.35201082,-1.396895
255,1778609126.706435,-3.7499747,-4.2385397,3.9512062,-8.054405,-0.9625702,-0.87155133
256,1778609126.7190359,-4.004136,-4.010234,4.7290564,-5.156462,-1.8507676,-0.26313
257,1778609126.729663,-4.2339053,-3.6565547,5.265429,-1.61589,-2.1928518,0.50045097
258,1778609126.740949,-4.0738964,-3.5863068,4.885895,2.8593054,-1.7371467,1.634216
259,1778609126.752775,-3.7816842,-3.6265533,4.2351255,4.441445,-1.3742931,2.1119123
260,1778609126.7633102,-2.2442772,-3.7721713,1.8171792,9.259947,0.18463388,3.9799368
261,1778609126.774244,-2.2442772,-3.7721713,1.8171792,9.259947,0.18463388,3.9799368
262,1778609126.786637,-0.930786,-3.960231,0.030977417,10.911725,1.670257,5.8247485
263,1778609126.7969332,-0.930786,-3.960231,0.030977417,10.911725,1.670257,5.8247485
264,1778609126.8074691,0.12830016,-3.9168139,-1.1349442,10.352173,2.122297,7.1857553
265,1778609126.8202372,0.5753994,-3.7226562,-1.3776414,9.445649,1.9524765,8.087392
266,1778609126.830626,0.886881,-3.720705,-1.5005754,8.878767,1.7838778,8.639613
267,1778609126.841783,1.3034906,-3.6043568,-1.5783848,7.8402967,1.8474078,9.439846
268,1778609126.8538299,1.6257046,-3.2233589,-1.3325168,6.1347623,2.9115343,10.500307
269,1778609126.8642719,1.5417973,-3.160916,-1.0707942,5.3015428,3.2841618,11.0097685
270,1778609126.874601,1.5417973,-3.160916,-1.0707942,5.3015428,3.2841618,11.0097685
271,1778609126.887892,1.1249437,-3.6304557,-0.4990535,3.8880017,2.8064656,12.43064
272,1778609126.8954089,1.1249437,-3.6304557,-0.4990535,3.8880017,2.8064656,12.43064
273,1778609126.906143,1.6242411,-4.345619,0.18220575,3.195281,1.8278601,14.066536
274,1778609126.9171042,2.2864747,-4.5212393,0.4795402,3.3198974,1.6274965,14.0433235
275,1778609126.927878,2.7645516,-4.4209895,0.6200362,3.3198974,1.6274965,14.0433235
276,1778609126.938215,3.0655446,-4.0175514,0.5332019,3.9442012,2.7380486,11.983487
277,1778609126.9494631,3.0318844,-3.8636398,0.46929568,3.9503098,3.2352927,11.337193
278,1778609126.960234,2.6821077,-3.4972773,0.3773391,3.6656468,4.4008226,9.910212
279,1778609126.974902,2.4238,-3.305071,0.3000175,3.2759151,5.044674,9.083101
280,1778609126.9812632,2.2594001,-3.1335976,0.21611017,2.7786713,5.398976,8.424589
281,1778609127.002798,1.9837743,-2.9245608,0.12927583,0.9741766,5.76916,6.8045754
282,1778609127.015724,1.75059,-2.7933338,0.07488242,0.9741766,5.76916,6.8045754
283,1778609127.03132,1.284953,-2.6130793,-0.007073583,-0.2035707,6.5425143,6.2890058
284,1778609127.047596,0.7217494,-2.4738028,0.13073933,-0.9647082,7.7654657,7.0623603
285,1778609127.0643961,1.5800922,-2.3498933,0.16927817,-2.551735,7.539446,7.851598
286,1778609127.071009,1.5800922,-2.3498933,0.16927817,-2.551735,7.539446,7.851598
287,1778609127.0812569,1.9940188,-2.2450092,0.25269768,-3.3531895,6.730661,7.1796465
288,1778609127.0946932,2.5306354,-2.3379414,0.44709927,-4.0288057,5.644543,6.060542
289,1778609127.101831,2.3530643,-2.5069757,1.320077,-4.362338,3.1937537,4.0459104
290,1778609127.119972,1.5957029,-2.6025908,1.5886292,-3.7307038,2.763705,3.978715
291,1778609127.122666,1.5957029,-2.6025908,1.5886292,-3.7307038,2.763705,3.978715
292,1778609127.133023,1.2766598,-2.7277203,1.551554,-3.378846,3.0728025,4.3879943
293,1778609127.1443598,1.3688604,-2.9260244,1.4561826,-3.1601562,3.5370598,5.248092
294,1778609127.15489,3.1904302,-3.462641,1.4466697,-3.3983934,2.8956518,5.6866927
295,1778609127.1651719,3.7653418,-3.3067782,1.7113194,-3.3568547,1.5224278,5.117367
296,1778609127.1759858,3.7653418,-3.3067782,1.7113194,-3.3568547,1.5224278,5.117367
297,1778609127.18692,4.33879,-2.8089445,1.920112,-2.3855796,-1.0908518,3.6916087
298,1778609127.1973279,4.33879,-2.8089445,1.920112,-2.3855796,-1.0908518,3.6916087
299,1778609127.207763,3.9714513,-2.3486736,1.6591213,-1.8553491,-0.84528416,3.2456772
300,1778609127.218557,4.442698,-2.3342826,1.7815673,-1.9518657,-0.4262309,3.328755
301,1778609127.23068,4.442698,-2.3342826,1.7815673,-1.9518657,-0.4262309,3.328755
302,1778609127.241178,5.648134,-2.1271973,2.3881881,-1.5877903,-0.7377719,2.4637704
303,1778609127.251682,6.1023073,-2.1420763,2.4635584,-1.2530364,-1.1629338,1.6818634
304,1778609127.264245,6.348907,-1.9771886,2.4757543,-0.3159698,-1.9497277,-1.053589
305,1778609127.2752519,5.559105,-2.2435455,2.0808532,0.35598144,-1.5648829,-3.615556
306,1778609127.285565,4.633929,-2.482828,1.829863,0.5710059,-0.8330668,-4.754208
307,1778609127.298144,3.9975502,-2.6455202,1.6832689,0.5710059,-0.8330668,-4.754208
308,1778609127.309288,2.97432,-2.7650394,1.475452,0.89354247,0.82359844,-5.5458884
309,1778609127.319464,2.532343,-2.7169878,1.3591037,1.058476,1.3489422,-5.4237156
310,1778609127.331734,2.3313556,-2.6308851,1.3049542,1.1806489,1.6177226,-5.2429
311,1778609127.34045,2.2133,-2.456241,1.2825139,1.3468041,1.7594433,-4.9912233
312,1778609127.3518322,2.3962374,-2.1842737,1.3595915,1.4970769,1.7264566,-4.8690505
313,1778609127.362653,2.3962374,-2.1842737,1.3595915,2.373057,1.3794854,-5.4090548
314,1778609127.373207,2.5128295,-2.3135495,1.3339802,2.373057,1.3794854,-5.4090548
315,1778609127.383521,2.3920908,-2.525757,1.1588482,3.3919795,1.4369067,-6.410873
316,1778609127.394182,2.3920908,-2.525757,1.1588482,3.3919795,1.4369067,-6.410873
317,1778609127.406004,2.201348,-2.8733385,0.7349209,4.188547,1.9671373,-7.279523
318,1778609127.41486,2.1940305,-3.0394456,0.61125517,4.3143854,2.11741,-7.6020594
319,1778609127.4334998,2.1525645,-3.6455784,0.2970905,4.6479173,2.5914412,-8.156725
320,1778609127.448075,1.9791399,-4.1434126,0.12317792,5.0681925,2.8785477,-8.816459
321,1778609127.463283,1.7662007,-4.358791,0.050002918,5.7279263,2.5071418,-9.181756
322,1778609127.473842,1.4527677,-4.592219,-0.070735835,5.9698286,2.0367758,-9.138995
323,1778609127.484624,1.399594,-4.5939264,-0.081956,6.0651236,1.7386739,-9.062026
324,1778609127.496934,1.167873,-4.5209956,-0.12805626,6.0651236,1.7386739,-9.062026
325,1778609127.507465,1.0329871,-4.354888,-0.23781876,6.1567535,-0.16355905,-8.370527
326,1778609127.518116,0.9749349,-4.267566,-0.29489526,5.9576116,-0.92469656,-8.063873
327,1778609127.5306659,0.88029534,-4.072189,-0.3758756,5.63874,-1.6565126,-7.745002
328,1778609127.541375,0.8644407,-3.9051058,-0.42051232,5.238013,-2.3357942,-7.4395695
329,1778609127.552543,0.9439575,-3.785343,-0.46807608,4.884933,-2.8599162,-7.2660837
330,1778609127.563156,1.1868985,-3.5516708,-0.52198166,4.0773697,-3.9203775,-7.247758
331,1778609127.5737212,1.226413,-3.521669,-0.5241769,3.804924,-4.244136,-7.31984
332,1778609127.5840158,1.483989,-3.24897,-0.6005229,2.9655957,-5.1750937,-7.77921
333,1778609127.5947552,1.5481391,-3.1255481,-0.6776005,2.494008,-5.572156,-8.134733
334,1778609127.606107,1.5149664,-2.9823692,-0.76589835,0.83978635,-6.52877,-9.181756
335,1778609127.61657,1.25861,-2.8706553,-0.6951625,0.13607013,-6.7975507,-9.468863
336,1778609127.627402,0.69882125,-2.584785,-0.43197644,-1.1223114,-6.975923,-9.823164
337,1778609127.64106,0.58515614,-2.2876945,-0.2736745,-1.6513202,-6.9685926,-9.730312
338,1778609127.651668,0.6817471,-2.4950237,-0.6158896,-2.1058037,-6.8109894,-9.815833
339,1778609127.662416,0.11122601,-2.5477097,-0.9288347,-3.5779877,-6.036413,-10.18724
340,1778609127.674381,-0.24733151,-2.5560029,-0.83029234,-4.3061385,-5.7138762,-10.21656
341,1778609127.6848042,-0.9239564,-3.0870094,-0.37099725,-6.886431,-4.561785,-9.641126
342,1778609127.695609,-1.4342301,-3.511912,0.42612243,-7.6158037,-3.822639,-9.292933
343,1778609127.708192,-3.7163146,-2.7060115,2.3286724,-7.6035867,-2.5178318,-6.4634075
344,1778609127.718584,-4.0029163,-2.5506365,3.4072719,-6.816793,-2.5508187,-5.049866
345,1778609127.729747,-4.0036483,-2.6235676,3.989257,-5.9811296,-2.3736677,-4.315607
346,1778609127.742199,-4.164877,-2.5391726,4.736618,-3.9616108,-1.9497277,-3.3919795
347,1778609127.7532248,-4.5000186,-2.4257512,4.601488,-0.46624255,-2.31869,-1.6730059
348,1778609127.7636049,-4.5000186,-2.4257512,4.601488,-0.46624255,-2.31869,-1.6730059
349,1778609127.776412,-4.4744077,-2.35404,4.3946466,0.9155336,-2.7267478,-1.067028
350,1778609127.784153,-3.4004424,-2.347454,2.6055179,3.1427467,-2.9136722,0.6336195
351,1778609127.795615,-3.4004424,-2.347454,2.6055179,3.999179,-2.5178318,1.5242603
352,1778609127.806314,-2.5411239,-2.2786694,1.3454443,3.994292,-1.6577343,2.8021894
353,1778609127.817145,-2.2352524,-2.2764742,1.1478719,3.8000371,-1.3889538,3.025766
354,1778609127.828544,-1.8957204,-2.3303797,1.0581106,3.3296711,-0.6070469,3.4289367
355,1778609127.8389409,-1.774006,-2.3842854,1.091771,3.2074983,-0.29184064,3.5694356
356,1778609127.849914,-1.5544809,-2.646008,1.2805625,3.3541057,0.5535962,4.209622
357,1778609127.865452,-1.0915271,-3.0428605,1.2073874,4.556288,1.4588978,5.7990923
358,1778609127.88481,-0.58588785,-3.2382376,0.7837042,5.5019064,1.7802126,6.7874713
359,1778609127.896618,-0.18342534,-3.3816605,0.41636577,6.0993323,1.7960951,7.4569793
360,1778609127.9129689,1.4447185,-3.5865507,-1.0554274,6.6772103,0.7185297,8.19246
361,1778609127.930172,1.7137585,-3.53045,-1.3522741,6.35223,0.4167625,8.054405
362,1778609127.94629,1.7827871,-3.3065343,-1.4498407,5.916073,0.35567603,7.883363
363,1778609127.956943,1.6435106,-2.7923582,-0.92785907,4.6198177,1.2927426,7.4801917
364,1778609127.9678059,1.6435106,-2.7923582,-0.92785907,4.3864675,1.7631085,7.487522
365,1778609127.981055,1.2356819,-2.8143106,-0.8378538,3.6741989,3.0129378,7.764855
366,1778609127.9917219,1.1717757,-2.9235852,-0.86566025,3.0694427,3.6543458,8.0654
367,1778609128.002178,1.1320173,-3.2911675,-0.66662425,0.6394227,4.4997826,9.351882
368,1778609128.014397,1.1320173,-3.2911675,-0.66662425,0.6394227,4.4997826,9.351882
369,1778609128.0251389,1.5313089,-3.3899536,-0.23757485,-0.90606517,4.3519535,9.791704
370,1778609128.0364008,1.8244967,-3.4433715,-0.0017074167,-1.4008657,4.290867,9.507041
371,1778609128.0466628,1.8244967,-3.4433715,-0.0017074167,-1.4008657,4.290867,9.507041
372,1778609128.057142,1.8535228,-3.3555615,0.4158779,-1.7649411,4.2798715,8.743461
373,1778609128.067822,1.8201061,-3.3967836,0.45709983,-1.7612759,4.1564765,8.511332
374,1778609128.0800378,1.823521,-3.69363,0.38977882,-1.769828,3.875479,8.34762
375,1778609128.090583,1.6727805,-3.6253333,0.36953375,-1.810145,3.7972882,8.60174
376,1778609128.101274,1.6727805,-3.6253333,0.36953375,-1.810145,3.7972882,8.60174
377,1778609128.112746,2.1447592,-3.3392193,0.29343176,-1.9653047,3.8290532,9.232152
378,1778609128.124052,3.1296947,-2.6638138,-0.09610317,-2.8302891,4.564534,7.6329083
379,1778609128.134689,3.1296947,-2.6638138,-0.09610317,-2.8302891,4.564534,7.6329083
380,1778609128.145966,2.9172432,-2.7169878,-0.21952501,-3.8259988,4.786889,6.0471034
381,1778609128.1579661,1.6259485,-3.3660502,0.85322046,-5.590176,3.030042,5.207775
382,1778609128.16664,1.6464374,-3.5655742,1.469354,-5.56452,2.2249222,5.615833
383,1778609128.177931,2.2225688,-3.460446,2.1908596,-4.7398524,0.6659953,6.522356
384,1778609128.18885,3.1775024,-3.476788,2.1489058,-3.417941,0.17486005,6.566338
385,1778609128.2008052,3.1775024,-3.476788,2.1489058,-3.417941,0.17486005,6.566338
386,1778609128.211297,3.9087646,-3.310681,1.589605,-2.568839,-1.0517564,5.21144
387,1778609128.2224052,3.9365711,-3.2599463,1.5647255,-2.5749478,-2.5960226,4.353786
388,1778609128.23354,3.0684717,-2.6057618,2.1259778,-2.2010984,-5.4829698,3.5755444
389,1778609128.244142,3.0684717,-2.6057618,2.1259778,-2.2010984,-5.4829698,3.5755444
390,1778609128.2545202,3.161648,-1.9418206,2.2820845,-1.67942,-4.0779805,4.0666795
391,1778609128.265596,3.2877529,-1.7805917,2.3657477,-1.6256639,-2.729191,4.2084002
392,1778609128.276761,3.7307053,-1.2449507,2.98554,-1.4362959,-0.87216216,4.313469
393,1778609128.287976,4.094873,-0.73345745,3.676068,-0.8901827,-0.6815724,4.2841473
394,1778609128.29885,4.094873,-0.73345745,3.676068,-0.8901827,-0.6815724,4.2841473
395,1778609128.314032,4.72491,-0.16415593,4.2253685,1.7169882,-2.6473353,2.9854488
396,1778609128.330656,5.415194,0.31514034,2.675522,3.709629,-3.7762134,0.099723674
397,1778609128.3482082,4.4534307,-0.40221858,0.70882183,2.5465426,-0.48609564,-2.359618
398,1778609128.363998,3.68241,-1.0505491,0.45295325,1.1122321,2.6794057,-2.996139
399,1778609128.379593,2.98554,-1.6086304,1.0793313,0.15073088,5.2267118,-3.0975425
400,1778609128.385935,2.9791982,-1.6730244,1.167873,0.23991714,5.0434523,-3.0779948
401,1778609128.397546,2.9791982,-1.6730244,1.167873,0.23991714,5.0434523,-3.0779948
402,1778609128.408861,3.2928748,-2.1293924,1.6398518,1.6473496,0.8993457,-3.642434
403,1778609128.420034,3.1855516,-2.2386672,1.3295897,2.1323762,-0.7279981,-4.1408997
404,1778609128.430263,3.1855516,-2.2386672,1.3295897,2.3131921,-1.776242,-4.5978265
405,1778609128.441411,3.1133523,-2.2133,1.2061679,2.2692099,-2.0596833,-4.946019
406,1778609128.4517848,3.0506659,-2.2323253,1.121041,2.0945027,-1.6259693,-5.249008
407,1778609128.463604,2.8013828,-2.2225688,1.1237241,1.8574871,-0.69623315,-5.479915
408,1778609128.473723,2.587712,-2.2269592,1.2369014,1.5349505,1.5163192,-5.688831
409,1778609128.4842,2.4245317,-2.262571,1.3015394,1.6155846,2.4863725,-5.751139
410,1778609128.4952278,2.4245317,-2.262571,1.3015394,1.6155846,2.4863725,-5.751139
411,1778609128.50608,2.2720838,-2.3284285,1.3298336,2.0383031,3.0813546,-5.819556
412,1778609128.516384,2.121587,-2.4111164,1.3369073,2.0383031,3.0813546,-5.819556
413,1778609128.526898,1.764981,-2.4847791,1.2886118,2.7957754,3.0874634,-5.6815004
414,1778609128.537481,1.6191188,-2.4738028,1.2610493,3.2746933,3.1192284,-5.4786935
415,1778609128.548841,1.6191188,-2.4738028,1.2610493,3.2746933,3.1192284,-5.4786935
416,1778609128.559486,1.6379005,-2.5677106,1.1376274,4.260629,3.1986406,-5.1573787
417,1778609128.57054,1.8191304,-2.7967484,0.91468745,4.260629,3.1986406,-5.1573787
418,1778609128.581219,1.9981654,-3.0582273,0.71150494,5.08774,3.1033459,-5.2709994
419,1778609128.5922298,2.0886586,-3.2326276,0.62686586,5.4005027,2.953073,-5.449372
420,1778609128.606287,2.1184163,-3.5172782,0.4961265,5.990598,2.5218024,-5.8134475
421,1778609128.616778,2.0993907,-3.6758242,0.424415,6.326574,2.1381795,-5.9893765
422,1778609128.627996,2.052071,-3.8451023,0.33611718,6.7175274,1.5016583,-6.162862
423,1778609128.640018,2.0210936,-3.9012032,0.29440743,6.858026,1.2157736,-6.2300572
424,1778609128.651173,1.9137702,-3.978525,0.100005835,7.1585717,0.2432769,-6.4890637
425,1778609128.6684,1.730101,-3.8807144,-0.09537142,7.040064,-1.1397209,-6.926443
426,1778609128.6810398,1.5547248,-3.6858249,-0.18927933,6.6124587,-2.4200935,-7.31984
427,1778609128.697487,1.5210644,-3.6448467,-0.22367159,6.4096513,-2.8684683,-7.4542303
428,1778609128.714571,1.34642,-3.1945767,-0.06366225,5.102401,-4.9906125,-8.133512
429,1778609128.731097,1.2037288,-2.9862719,-0.07049192,4.3547025,-5.41944,-8.849445
430,1778609128.735436,1.0056685,-2.631617,0.064394,4.3547025,-5.41944,-8.849445
431,1778609128.746619,0.8759048,-2.4311175,-0.2151345,3.9894052,-5.5538297,-9.360128
432,1778609128.7580428,0.7219933,-2.4857547,-0.6297928,3.3296711,-5.566047,-9.969771
433,1778609128.768637,0.27538192,-2.6399102,-0.9593243,2.2618794,-5.4426527,-10.645388
434,1778609128.780124,-0.77248406,-2.7291837,-1.018352,0.5893318,-5.4206614,-10.804213
435,1778609128.7905269,-1.2510486,-2.8452878,-0.7705327,-0.8462004,-5.6540117,-10.118822
436,1778609128.801116,-1.870353,-2.7094264,-0.22367159,-1.9567527,-5.52573,-9.047365
437,1778609128.812792,-2.2662296,-2.520391,0.27708933,-2.5627306,-4.9099784,-7.8989396
438,1778609128.824142,-2.5072193,-2.464778,0.45807552,-2.5627306,-4.9099784,-7.8989396
439,1778609128.834582,-3.020664,-2.2794013,0.50881016,-2.8290675,-4.2270317,-7.042507
440,1778609128.846986,-3.40093,-2.3698943,0.7195542,-4.001928,-2.1354306,-4.3766932
441,1778609128.856679,-3.4909356,-2.3969693,1.0746968,-4.318356,-1.6540691,-3.565465
442,1778609128.867222,-3.5980148,-2.362577,1.7147342,-4.3293514,-1.0297652,-2.734689
443,1778609128.877889,-3.928034,-2.3418438,2.7452822,-2.9707882,-0.5056433,-1.4885248
444,1778609128.8883379,-4.0295033,-2.333063,3.0928636,-1.7930409,-0.6388118,-0.9314161
445,1778609128.898628,-3.9646218,-2.4045305,3.2087238,-0.38927358,-0.7707586,-0.31199917
446,1778609128.908946,-3.8448584,-2.4008718,3.1123767,1.0816888,-0.71211565,0.3110829
447,1778609128.9195242,-3.6221626,-2.4696562,2.804798,2.4573562,-0.4054615,0.90606517
448,1778609128.930431,-3.3397071,-2.5574663,2.2594001,3.6632035,-0.004734202,1.439961
449,1778609128.9413388,-3.1518912,-2.6343002,1.9123067,4.6662436,0.14798199,1.9763002
450,1778609128.951906,-2.8674843,-2.734062,1.4144728,5.4725847,0.090560704,2.5248568
451,1778609128.963213,-2.5557587,-2.7904067,0.9376157,6.063902,0.0050396346,3.0318747
452,1778609128.975549,-1.9984094,-2.9682221,0.11122601,6.6772103,-0.8428407,4.2804823
453,1778609128.986231,-1.7635175,-2.9955406,-0.09317617,6.7077537,-1.1763729,4.7655087
454,1778609128.996955,-1.3530058,-3.1035957,-0.31367683,6.682097,-1.3901756,5.442347
455,1778609129.009959,-0.9481041,-3.2455552,-0.3675824,6.6173453,-1.2789981,6.4148436
456,1778609129.020322,-0.64028126,-3.3531227,-0.362948,6.623454,-1.035874,7.053808
457,1778609129.030622,0.039270584,-3.5609396,-0.40758476,6.691871,-0.08659008,8.252325
458,1778609129.043327,0.6905281,-3.7119238,-0.4622221,6.7065315,0.7637337,8.826538
459,1778609129.0543602,1.7547365,-3.7199733,-0.8015102,6.574585,2.3214388,9.2761345
460,1778609129.063379,1.7547365,-3.7199733,-0.8015102,6.574585,2.3214388,9.2761345
461,1778609129.084609,2.3823342,-3.1687214,-1.3505666,4.1995425,3.0544765,9.017128
462,1778609129.097986,2.3135495,-2.9896867,-1.1976309,2.842201,3.125337,8.953598
463,1778609129.114357,2.2320817,-2.9091942,-0.90102816,1.8073962,3.418552,8.960928
464,1778609129.129601,2.2001283,-2.9196827,-0.10951859,0.08231403,4.5413213,8.8497505
465,1778609129.149066,2.2035432,-3.182137,0.5614962,-0.70570153,5.6176653,8.409928
466,1778609129.150592,2.2035432,-3.182137,0.5614962,-0.70570153,5.6176653,8.409928
467,1778609129.1643672,2.0318258,-3.3175106,0.8383416,-0.7790053,5.7703815,8.202234
468,1778609129.1801112,1.648389,-3.4538603,0.80443716,-0.6690496,5.32445,8.304859
469,1778609129.1849868,1.5766774,-3.4697146,0.7290669,-0.6849321,5.1106477,8.5467615
470,1778609129.1964018,1.5766774,-3.4697146,0.7290669,-0.6849321,5.1106477,8.5467615
471,1778609129.207479,1.8515716,-3.6665554,0.32904357,-1.4081961,5.2010555,9.338443
472,1778609129.2179189,1.8515716,-3.6665554,0.32904357,-1.4081961,5.2010555,9.338443
473,1778609129.230022,2.5506365,-3.5058143,0.29270002,-3.0599744,6.575501,8.842421
474,1778609129.2408168,2.6960108,-3.3797092,0.30660325,-3.7135997,6.9456854,8.299973
475,1778609129.2514281,2.546246,-3.0218837,0.8241945,-4.5541496,7.1387186,7.555939
476,1778609129.264181,2.546246,-3.0218837,0.8241945,-5.230988,6.990889,6.98417
477,1778609129.274576,2.6069813,-3.04408,1.0637206,-5.78321,6.5021973,6.444165
478,1778609129.285441,2.7011333,-3.1567695,1.3027589,-6.2401366,5.8375764,5.827192
479,1778609129.297445,2.6733267,-3.1784782,1.4266686,-6.4233956,5.546805,5.514429
480,1778609129.307872,2.6472278,-3.2067723,1.7527853,-7.053808,5.0752172,4.809491
481,1778609129.318749,2.8821194,-3.228481,1.9591386,-7.3922276,4.3776097,4.535824
482,1778609129.329589,3.0953026,-3.0916438,2.4981947,-7.447205,2.939634,4.1204357
483,1778609129.340991,3.3099494,-3.0221274,2.9087064,-7.2334027,1.539532,3.789347
484,1778609129.351546,3.509473,-2.7533314,3.5553296,-6.6310897,-0.27595815,3.3971717
485,1778609129.362008,3.7014356,-2.4179459,3.8007095,-5.4301295,-1.5880957,2.9707882
486,1778609129.373131,3.858274,-1.9918234,3.1016445,-4.160753,-1.1091777,2.2817326
487,1778609129.3833542,3.858274,-1.9918234,3.1016445,-4.160753,-1.1091777,2.2817326
488,1778609129.393635,3.685581,-1.1246997,3.2604342,-4.6812096,-0.7353285,1.9152138
489,1778609129.4042501,4.245126,-1.0244501,3.957548,-4.6812096,-0.7353285,1.9152138
490,1778609129.4155679,4.245126,-1.0244501,3.957548,-4.7545133,-1.5697697,1.7466152
491,1778609129.426899,5.889856,-0.98005724,6.067427,-2.750877,-3.2081091,0.36361727
492,1778609129.43732,5.983276,-1.044939,6.056695,-0.11194097,-1.6064217,-1.4653119
493,1778609129.448697,5.3447022,-1.2169002,5.0741982,1.42866,0.09544762,-2.7982187
494,1778609129.4607098,4.2895184,-1.4827695,3.89291,2.1311545,1.6482658,-3.5715737
495,1778609129.4713001,3.343122,-1.7315645,3.0540807,2.2985315,2.6623015,-3.7291768
496,1778609129.4826329,2.6277142,-1.9391375,2.5791748,2.4036002,3.8595965,-3.479944
497,1778609129.4954739,2.4835596,-2.039875,2.502829,2.5184429,4.0953903,-3.235598
498,1778609129.522065,2.4057503,-2.1603699,2.285499,3.9881835,2.6989534,-3.1561856
499,1778609129.5442402,2.2915971,-2.0386555,1.6600969,4.9325805,1.6067271,-3.6179993
500,1778609129.552279,2.1123183,-1.9396253,1.1747028,5.0364275,1.7264566,-4.139678
501,1778609129.566402,2.1123183,-1.9396253,1.1747028,5.0364275,1.7264566,-4.139678
502,1778609129.5809531,1.8383999,-2.0179226,0.7356527,4.5746136,2.7979133,-4.4390016
503,1778609129.5994308,1.7174172,-2.2035432,0.6617459,4.249634,3.9023569,-4.3669195
504,1778609129.613984,1.6698536,-2.3020854,0.6651608,4.278955,4.362949,-4.228864
505,1778609129.624419,1.6796101,-2.5655155,0.60223025,4.7700906,4.8125453,-3.8354673
506,1778609129.635039,1.6796101,-2.5655155,0.60223025,4.7700906,4.8125453,-3.8354673
507,1778609129.647159,1.6118014,-2.7125974,0.50978583,5.2905474,4.552317,-3.4322965
508,1778609129.657792,1.66278,-2.781138,0.46953958,5.593536,4.2749844,-3.1708465
509,1778609129.668682,1.66278,-2.781138,0.46953958,5.593536,4.2749844,-3.1708465
510,1778609129.6821508,1.8452296,-2.9140723,0.35782576,6.12621,3.7129889,-2.8861833
511,1778609129.692946,1.9276733,-2.9382203,0.33123884,6.285035,3.4845254,-2.9045093
512,1778609129.703525,1.9581629,-2.952855,0.17025384,6.6539974,2.718501,-3.3870926
513,1778609129.7141252,1.9581629,-2.952855,0.17025384,6.6539974,2.718501,-3.3870926
514,1778609129.7246132,1.9020622,-2.9435863,0.10756725,6.6222324,1.864512,-3.8195848
515,1778609129.734962,1.8166914,-2.9230974,0.027806502,6.6222324,1.864512,-3.8195848
516,1778609129.749026,1.7035141,-2.8677282,-0.031709168,6.412095,0.74052083,-4.1592255
517,1778609129.75969,1.6354613,-2.757234,-0.015854584,6.285035,-0.03649917,-4.3632545
518,1778609129.77029,1.5403337,-2.6152744,0.0600035,6.1860747,-0.8513928,-4.5917177
519,1778609129.783045,1.4452063,-2.466973,0.13195892,6.149423,-1.586874,-4.8458376
520,1778609129.794313,1.3893493,-2.2152512,0.19806033,6.216618,-2.412763,-5.5910926
521,1778609129.8048651,1.390081,-2.1881764,0.187328,6.2373877,-2.4946191,-5.858651
522,1778609129.817636,1.2991002,-2.0757308,0.029513916,6.2092876,-2.4518585,-6.843365
523,1778609129.8285599,1.0590862,-2.0835361,-0.08439517,6.1103277,-2.3541203,-7.599616
524,1778609129.839749,0.7319939,-2.057437,-0.155131,6.01992,-2.310138,-8.121295
525,1778609129.85093,-0.03609967,-2.0513391,-0.28367507,5.8256645,-2.4103198,-8.73216
526,1778609129.861284,-0.37221682,-1.9413328,-0.29904184,5.63874,-2.6180136,-8.804241
527,1778609129.87165,-0.9766424,-1.9086479,-0.41880494,5.2221303,-3.1079273,-8.715055
528,1778609129.885779,-1.6720488,-1.7059531,-0.6319881,3.931984,-2.9894195,-8.452383
529,1778609129.894484,-2.0103612,-1.7093681,-0.85517186,3.931984,-2.9894195,-8.452383
530,1778609129.905084,-2.2489116,-2.0123127,-0.834195,2.019977,-1.6406301,-8.98017
531,1778609129.918168,-2.2489116,-2.0123127,-0.834195,2.019977,-1.6406301,-8.98017
532,1778609129.9259222,-4.268054,-2.8740702,0.46612477,1.7621921,-0.82207125,-8.38641
533,1778609129.93809,-5.2400618,-2.9250486,0.6739418,2.6259549,-1.9155192,-7.06572
534,1778609129.947217,-5.6047173,-2.9279757,0.61808485,3.3565493,-3.045619,-5.2184653
535,1778609129.966366,-5.5103216,-2.8550446,0.4066091,3.8965538,-3.186118,-3.2160504
536,1778609129.980629,-4.736618,-2.7835772,-0.3773391,3.6766424,-0.6546943,0.8791871
537,1778609129.9965389,-3.5106926,-2.6823516,-0.28050417,2.892292,1.6079488,4.599354
538,1778609130.021305,-2.944562,-2.6747901,-0.24123359,2.7908885,1.8816162,6.083755
539,1778609130.024627,-2.944562,-2.6747901,-0.24123359,2.7908885,1.8816162,6.083755
540,1778609130.038826,-1.8869393,-2.707475,-0.32197002,2.7640104,1.7569999,7.230959
541,1778609130.049095,-0.71248055,-2.800895,-0.5893027,2.6503897,1.074053,8.565087
542,1778609130.06377,0.7458972,-2.9374886,-0.94176227,2.0089815,0.5584831,9.784374
543,1778609130.074356,1.1286024,-2.886022,-0.8122425,0.66263556,1.6788092,10.529629
544,1778609130.085123,1.2559268,-2.868948,-0.7419945,0.3327686,1.9255985,10.60782
545,1778609130.0965052,1.4849646,-2.8299212,-0.48344287,-0.45158178,2.3385432,10.673793
546,1778609130.107672,1.557408,-2.8021147,-0.16879034,-1.024573,2.3910775,10.62981
547,1778609130.117949,1.557408,-2.8021147,-0.16879034,-1.024573,2.3910775,10.62981
548,1778609130.1311202,1.5488708,-2.8357751,0.2987979,-1.2884666,1.8755076,10.49542
549,1778609130.141609,1.5378946,-2.8496785,0.37563166,-1.1809543,1.5627449,10.461212
550,1778609130.1521862,1.6118014,-2.8850465,0.37343642,-0.90484345,1.074053,10.416008
551,1778609130.163616,1.9184046,-2.891632,0.19269417,-0.8168789,0.9653191,10.207092
552,1778609130.174556,2.0489001,-2.7238173,-0.10878683,-0.929278,1.1607958,9.775822
553,1778609130.185268,2.0489001,-2.7238173,-0.10878683,-1.1675153,1.390481,9.465503
554,1778609130.1984131,2.0796335,-2.6952794,-0.27538192,-2.7032294,1.7826562,8.743461
555,1778609130.206524,2.0796335,-2.6952794,-0.27538192,-2.7032294,1.7826562,8.743461
556,1778609130.2170088,2.1171968,-2.7145486,-0.26562527,-3.3421938,1.7936517,8.412372
557,1778609130.228967,2.1171968,-2.7145486,-0.26562527,-3.3421938,1.7936517,8.412372
558,1778609130.23964,1.9591386,-3.0779843,0.38246134,-5.7465577,2.1296272,7.178425
559,1778609130.250036,1.7674202,-3.0192006,0.71467584,-5.899274,2.1467316,7.1576552
560,1778609130.263009,1.7835187,-2.827238,1.0546957,-5.808866,1.9756894,7.305485
561,1778609130.271233,2.122563,-2.596249,1.1927526,-5.5339766,1.7569999,7.303041
562,1778609130.281986,2.886266,-2.6216164,0.79858315,-5.288409,1.8278601,6.8265667
563,1778609130.2923179,2.886266,-2.6216164,0.79858315,-5.333613,2.430173,5.857735
564,1778609130.302783,1.627412,-2.7508922,1.1725074,-5.751445,3.5602727,4.8864603
565,1778609130.313389,1.627412,-2.7508922,1.1725074,-5.9493647,4.0489645,4.9096727
566,1778609130.323971,1.9825547,-2.9109015,1.8715726,-5.5266466,3.0202682,6.088642
567,1778609130.335815,1.9825547,-2.9109015,1.8715726,-5.5266466,3.0202682,6.088642
568,1778609130.3470771,3.9985259,-2.760649,2.227691,-4.1961827,0.48029244,5.768549
569,1778609130.3577821,4.25537,-2.376724,2.1462228,-3.3629634,-0.48731738,4.472294
570,1778609130.370058,3.8090026,-2.0340211,1.7935193,-2.862054,-1.0322088,3.450928
571,1778609130.379261,2.9740758,-1.7757133,1.3486153,-2.7007859,-1.8409938,2.4820964
572,1778609130.389956,2.3977008,-1.4542311,1.238121,-3.1418302,-2.2502732,2.7349944
573,1778609130.400358,2.4198973,-1.1559211,1.416424,-3.6659522,-2.1488695,3.422828
574,1778609130.410748,3.1216457,-1.1361638,1.7171735,-4.032471,-1.6113086,3.8150032
575,1778609130.4218528,4.144144,-0.59198576,2.5825899,-4.309804,-0.4176788,2.9866707
576,1778609130.4327848,4.144144,-0.59198576,2.5825899,-4.309804,-0.4176788,2.9866707
577,1778609130.44356,4.6122203,0.24220926,3.6933863,-3.5303402,-1.4818052,2.0410519
578,1778609130.467874,5.1851807,0.42953727,3.4028814,-1.4546218,-2.489732,-0.23136504
579,1778609130.47073,5.1851807,0.42953727,3.4028814,-1.4546218,-2.489732,-0.23136504
580,1778609130.480522,4.460992,0.23172083,2.6118598,-1.1113157,-1.5050181,-1.8733696
581,1778609130.497545,2.303549,-0.5168594,2.0220692,-1.1455241,2.628093,-3.3198974
582,1778609130.513432,1.943528,-0.65296495,2.016947,-0.9280563,3.842492,-3.2514806
583,1778609130.5242,1.2429993,-0.8378538,1.9901162,-0.229227,4.7160287,-2.729802
584,1778609130.534741,1.2737329,-0.9320055,1.9340153,0.46349365,4.325075,-2.1959062
585,1778609130.54623,1.996214,-1.0781116,1.6837567,1.971108,2.226144,-1.8819216
586,1778609130.557052,2.2808647,-1.1490915,1.454719,2.612516,1.1119266,-2.209345
587,1778609130.567582,2.4123359,-1.2088511,1.1820202,3.01813,0.2591594,-2.6418374
588,1778609130.580288,2.4047747,-1.2871484,0.90395516,3.1757333,0.10033454,-3.0535603
589,1778609130.5911949,2.3655038,-1.3605672,0.75321466,2.9289439,1.2768601,-3.3809838
590,1778609130.601609,2.2554975,-1.480818,0.54515374,2.9289439,1.2768601,-3.3809838
591,1778609130.613371,2.2694006,-1.5830191,0.52856743,2.6186247,1.8730642,-3.321119
592,1778609130.6240242,2.3206232,-1.7061971,0.5907662,2.3009748,2.1784966,-3.2465935
593,1778609130.634496,2.4547775,-1.8652308,0.6876011,1.9246823,2.3373213,-3.2209373
594,1778609130.647104,2.379895,-1.9754812,1.0734773,1.5654937,2.7209444,-3.3162322
595,1778609130.655945,2.2635467,-2.0315819,1.3554449,1.6949971,3.129002,-3.304015
596,1778609130.666379,2.2635467,-2.0315819,1.3554449,1.6949971,3.129002,-3.304015
597,1778609130.677176,1.9564557,-2.2840357,1.6310707,2.6235116,4.2016807,-2.946048
598,1778609130.688267,1.9564557,-2.2840357,1.6310707,3.0486734,4.4729047,-2.6968153
599,1778609130.698405,1.5786287,-2.239155,1.5154543,3.6949682,4.5694213,-2.1897974
600,1778609130.708713,1.3771535,-2.139637,1.2973927,4.067596,4.4044876,-1.7340924
601,1778609130.7192461,1.3771535,-2.139637,1.2973927,4.067596,4.4044876,-1.7340924
602,1778609130.7301571,1.2595856,-1.8379121,0.9315177,4.2740684,4.058738,-0.845895
603,1778609130.7419279,1.3110521,-1.4964287,0.93005425,4.203208,4.113716,-0.57467103
604,1778609130.7528949,1.3742266,-1.4510603,0.96761745,4.089587,4.846754,0.06429352
605,1778609130.76328,1.5420412,-1.361055,1.0898197,4.2447467,5.4869404,0.32330018
606,1778609130.775788,1.78547,-1.3930081,1.1115283,4.5196357,5.881559,0.38683012
607,1778609130.786239,1.9123067,-1.4461819,1.0978689,4.793303,6.0098405,0.33796093
608,1778609130.796761,2.03768,-1.5847266,1.0283527,5.367516,5.8339114,0.10461059
609,1778609130.809348,2.081341,-1.7566879,0.91639495,5.873312,5.424632,-0.19226968
610,1778609130.8197918,2.081341,-1.7566879,0.91639495,5.873312,5.424632,-0.19226968
611,1778609130.83043,2.1218312,-2.1176846,0.55100775,6.8482523,4.4301443,-0.65164
612,1778609130.842582,2.1062205,-2.2262275,0.43563515,7.0877113,4.143038,-0.80313444
613,1778609130.852942,2.0742674,-2.420873,0.23318435,7.499434,3.2817183,-1.1110103
614,1778609130.8635142,2.1789076,-2.458192,0.26269826,7.499434,3.2817183,-1.1110103
615,1778609130.874084,2.297451,-2.4899013,0.32440916,7.952696,1.6714787,-1.6204716
616,1778609130.885087,2.297451,-2.4899013,0.32440916,7.952696,1.6714787,-1.6204716
617,1778609130.895791,2.500146,-2.5664914,0.49759,8.793245,0.19318599,-2.6418374
618,1778609130.9062269,2.488438,-2.5664914,0.4795402,9.0815735,-0.06093376,-2.986365
619,1778609130.917602,2.3315995,-2.6213725,-0.0073175007,9.702212,-0.5410735,-4.0517135
620,1778609130.932893,2.1437836,-2.614055,-0.4444162,9.620357,-0.7939715,-4.6919
621,1778609130.949065,1.9915797,-2.5277085,-0.61174303,9.327142,-1.0957386,-5.0596404
622,1778609130.962909,1.893769,-2.3040369,-0.163912,8.217812,-4.1231847,-7.076716
623,1778609130.981908,1.5983859,-2.4245317,0.12781233,8.50614,-5.232515,-8.156725
624,1778609130.996973,0.052198168,-3.091156,0.08976133,9.903798,-7.906881,-10.646609
625,1778609131.0129962,-2.4725833,-3.681678,-0.17391258,10.211674,-9.835992,-11.485938
626,1778609131.0187619,-2.4725833,-3.681678,-0.17391258,9.906241,-12.099856,-11.650871
627,1778609131.030346,-3.193357,-3.5865507,-0.14756958,8.883654,-13.840821,-11.305121
628,1778609131.040787,-3.193357,-3.5865507,-0.14756958,8.883654,-13.840821,-11.305121
629,1778609131.052765,-4.408062,-3.0882292,-2.0032876,5.168374,-10.900119,-9.214743
630,1778609131.062935,-4.990535,-2.5928342,-2.15476,-1.937205,-3.1421356,-3.8782277
631,1778609131.0742872,-4.856137,-2.692352,-1.0971372,-1.937205,-3.1421356,-3.8782277
632,1778609131.086803,-4.856137,-2.692352,-1.0971372,-4.457633,-0.46043932,-1.59115
633,1778609131.097218,-3.8909588,-3.461909,1.10665,-6.0043426,-0.4176788,1.0294598
634,1778609131.10766,-3.5802088,-3.568013,1.7198564,-5.2542005,-1.491579,1.6513202
635,1778609131.1207051,-3.355074,-3.5489876,2.330136,-4.2707086,-2.0804527,2.0251694
636,1778609131.131071,-3.2979972,-3.43581,2.578687,-3.0734134,-2.4262023,2.402684
637,1778609131.141564,-3.246775,-3.2797036,2.53527,-1.0270164,-2.635118,3.193143
638,1778609131.1550121,-3.0511537,-3.1979914,2.1323197,0.94241166,-2.0401356,4.5431542
639,1778609131.165215,-2.5189276,-3.1111572,1.5532614,2.5306602,-0.7475458,6.5101385
640,1778609131.175925,-1.7508337,-3.1070106,1.2398285,3.3370016,-0.34926194,7.614582
641,1778609131.189076,-1.7508337,-3.1070106,1.2398285,3.3370016,-0.34926194,7.614582
642,1778609131.200161,-0.28318727,-3.2933629,0.4961265,5.134166,0.17608178,9.317673
643,1778609131.2107341,0.38807142,-3.4141018,0.07634591,5.7584696,0.25793764,9.784374
644,1778609131.222181,0.9817646,-3.5184982,-0.50978583,6.1775227,0.28970262,10.12768
645,1778609131.232668,1.4713054,-3.5543535,-0.8344389,6.338791,0.28603745,10.385465
646,1778609131.243274,1.9545043,-3.6309433,-1.2466581,6.2825913,0.22250749,10.52352
647,1778609131.256361,2.4013596,-3.515815,-1.6222898,5.8317733,0.030695954,10.58705
648,1778609131.2638211,2.5469778,-3.0204203,-1.747175,4.555066,-0.6693551,10.202206
649,1778609131.274714,2.382822,-2.860167,-1.7037579,3.8110325,-0.82207125,10.050711
650,1778609131.285123,2.382822,-2.860167,-1.7037579,3.8110325,-0.82207125,10.050711
651,1778609131.296275,2.2091534,-2.7708933,-1.4117897,2.1177154,-0.32849252,9.999398
652,1778609131.321843,2.0379238,-2.8396778,-0.8380977,0.45249808,1.5920663,10.059263
653,1778609131.3445199,2.0662181,-3.0096877,-0.4346595,-1.0453423,3.621359,10.100801
654,1778609131.3548281,1.8666942,-3.1360366,0.050002918,-1.7637193,4.2920885,9.994512
655,1778609131.365074,1.8340095,-3.169941,0.1390325,-3.0379832,5.1240864,9.833243
656,1778609131.3759239,1.8469372,-3.1723802,0.21879324,-3.5816529,5.3977537,9.678083
657,1778609131.386435,1.8469372,-3.1723802,0.21879324,-3.5816529,5.3977537,9.678083
658,1778609131.3973289,1.8852319,-3.1577451,0.41636577,-3.9298458,5.6201086,9.471611
659,1778609131.4083352,1.7376624,-3.06774,0.82614577,-4.336682,6.03794,8.89129
660,1778609131.4191449,1.6166797,-2.8001635,1.1056743,-4.2291694,5.858346,8.550427
661,1778609131.4298089,1.8869393,-2.734062,1.1898255,-4.0263624,5.320785,8.292642
662,1778609131.440744,2.1593943,-2.6101522,1.2076315,-3.8919723,4.764898,7.9432273
663,1778609131.451392,2.6101522,-2.4298978,1.3122716,-3.7135997,3.708102,6.92064
664,1778609131.461739,2.5538075,-2.3725774,1.4937457,-3.2811074,2.7160575,4.9878635
665,1778609131.4724228,2.052559,-2.2745228,1.4952092,-2.9109235,2.537685,4.394103
666,1778609131.4833941,2.052559,-2.2745228,1.4952092,-2.9109235,2.537685,4.394103
667,1778609131.494771,1.5125273,-2.1584187,1.1754345,-2.578613,2.683071,4.628675
668,1778609131.505495,2.1452472,-2.3486736,0.5936932,-3.2896595,2.7392704,5.4680033
669,1778609131.5167859,2.1452472,-2.3486736,0.5936932,-3.2896595,2.7392704,5.4680033
670,1778609131.528213,3.942181,-2.5189276,1.2344623,-5.312844,1.2218822,4.0055933
671,1778609131.5388749,3.942181,-2.5189276,1.2344623,-5.312844,1.2218822,4.0055933
672,1778609131.550165,3.6919227,-2.3362339,2.5530758,-5.543751,-0.5337431,2.464992
673,1778609131.56214,3.5133758,-2.142808,2.7757716,-5.0880456,-0.87094045,2.3648102
674,1778609131.572715,3.9697437,-1.8098617,2.4816082,-4.995194,-1.2936589,2.6604688
675,1778609131.584553,3.9697437,-1.8098617,2.4816082,-4.995194,-1.2936589,2.6604688
676,1778609131.5980952,4.6675897,-1.5866779,3.5297182,-5.857735,-1.9546145,2.6849034
677,1778609131.608887,4.905896,-1.4549628,4.177317,-5.6121674,-1.9216279,2.687347
678,1778609131.620517,5.3164077,-1.5613106,3.8799825,-5.2102184,-1.7285947,2.3110542
679,1778609131.637813,5.8735137,-1.5478952,4.025601,-5.185784,-0.62903804,1.3251184
680,1778609131.64816,5.889124,-1.5881414,4.8317456,-4.3916597,1.8400774,-0.057879437
681,1778609131.66485,4.6888103,-1.6330221,5.745701,-1.4204134,5.4930487,-1.9014693
682,1778609131.680139,2.7445502,-2.2376916,3.6626527,3.7303984,6.431337,-3.2453718
683,1778609131.6986089,1.9808472,-2.3459904,1.946699,5.346747,4.081951,-3.0767732
684,1778609131.70105,1.9808472,-2.3459904,1.946699,5.346747,4.081951,-3.0767732
685,1778609131.714689,1.8871833,-2.14915,1.3193452,5.6546226,1.7960951,-3.1097598
686,1778609131.7315269,1.873768,-2.1001227,1.2744646,5.7364783,1.1424699,-3.3089018
687,1778609131.7351942,1.873768,-2.1001227,1.2744646,5.7364783,1.1424699,-3.3089018
688,1778609131.747315,1.6588773,-2.0740235,1.1288464,6.2190614,0.003817905,-4.103026
689,1778609131.758084,1.5303332,-2.0864632,1.0142055,6.390104,0.09544762,-4.2508554
690,1778609131.768651,1.4864283,-2.165492,0.77199626,6.524494,0.52916163,-4.4585495
691,1778609131.780032,1.5088686,-2.329892,0.39685243,6.475625,1.0374011,-4.6442523
692,1778609131.790473,1.4825256,-2.4230683,0.21415883,6.157975,1.4882193,-4.795747
693,1778609131.8012428,1.4878917,-2.5003898,0.14171559,5.9026337,1.7191262,-4.876381
694,1778609131.813678,1.4466697,-2.6455202,0.16879034,5.5336714,1.9903501,-4.96068
695,1778609131.8240252,1.3817879,-2.7877238,0.24757542,5.40539,2.162614,-4.9069242
696,1778609131.834472,1.3071494,-2.9411473,0.3612406,5.4420414,2.257909,-4.7419906
697,1778609131.848002,1.2600735,-3.1192064,0.59954715,6.051685,2.1784966,-4.2129817
698,1778609131.855264,1.296661,-3.0833507,0.61808485,6.265487,2.0111196,-4.1091347
699,1778609131.8656561,1.5622863,-3.0487144,0.5071027,6.7444053,1.3794854,-4.088365
700,1778609131.876555,1.7481508,-3.0279815,0.35611832,6.975312,0.7967204,-4.3754716
701,1778609131.887286,1.8593767,-3.0106635,0.12342183,7.0009685,-0.09636392,-4.9961104
702,1778609131.897933,1.8593767,-3.0106635,0.12342183,6.8152657,-0.8428407,-5.5568843
703,1778609131.910233,1.7603467,-2.953343,-0.04853942,6.597798,-1.4011711,-5.962498
704,1778609131.920535,1.5988739,-2.8933394,0.0512225,6.1653056,-2.3443463,-6.632006
705,1778609131.932718,1.5615546,-2.8869977,0.15415533,5.985711,-2.8403685,-6.996082
706,1778609131.944143,1.5615546,-2.8869977,0.15415533,5.985711,-2.8403685,-6.996082
707,1778609131.954821,1.5142347,-2.827238,0.041953668,5.7034917,-3.5844018,-7.6301594
708,1778609131.966075,1.3869102,-2.6635702,-0.048783336,5.4786935,-3.903273,-7.911157
709,1778609131.977131,1.1810445,-2.0967076,-0.37050945,4.192212,-5.188533,-8.793245
710,1778609131.988221,1.1749467,-2.0801213,-0.48222327,3.6448774,-5.476861,-9.196417
711,1778609131.999549,0.95859253,-2.1420763,-0.7458972,2.88374,-5.29238,-9.894024
712,1778609132.011654,0.63076854,-2.2550097,-0.97761804,2.2765403,-4.7597055,-10.394934
713,1778609132.022249,-1.2647079,-2.204275,-1.4603292,0.27290383,-3.1152577,-11.682636
714,1778609132.033649,-1.2647079,-2.204275,-1.4603292,0.27290383,-3.1152577,-11.682636
715,1778609132.045391,-3.0301769,-3.6372852,-1.5803361,-4.231613,-3.6638143,-10.685705
716,1778609132.055974,-3.2975094,-3.58899,-1.3066616,-4.231613,-3.6638143,-10.685705
717,1778609132.0677178,-3.7275345,-3.9119358,0.16318026,-7.0476995,-1.2643374,-8.799355
718,1778609132.092651,-6.0023017,-3.6138694,3.0079803,-5.055059,-1.1824815,-5.9124074
719,1778609132.099164,-6.4452543,-3.1535985,3.418492,-2.515083,-2.3797765,-3.3748753
720,1778609132.113971,-5.47471,-2.7704055,1.835229,1.8672609,-2.0132575,3.1344998
721,1778609132.130933,-4.399281,-2.76943,1.0968933,2.62229,-0.7841977,5.740449
722,1778609132.136698,-4.399281,-2.76943,1.0968933,2.62229,-0.7841977,5.740449
723,1778609132.147725,-1.7749816,-2.6686924,0.22635466,3.1891723,0.5120574,9.500933
724,1778609132.161102,0.58613175,-2.5345383,-0.52124995,3.2795804,0.7234166,9.988402
725,1778609132.171658,0.58613175,-2.5345383,-0.52124995,3.4506223,0.9421062,10.301166
726,1778609132.1820748,1.3605672,-2.3491614,-0.9437136,3.448179,0.7344122,9.946864
727,1778609132.195004,1.6603407,-2.043046,-1.3064177,3.448179,0.7344122,9.946864
728,1778609132.206109,1.6305829,-1.9625535,-1.3898371,3.104873,0.4497492,9.382425
729,1778609132.216507,1.3332485,-2.2315936,-1.3303216,1.3089305,0.22250749,9.641432
730,1778609132.2288158,1.2251934,-2.2472043,-1.2186077,1.1378883,0.2102902,9.761161
731,1778609132.2394052,1.3783731,-2.31794,-0.8959059,0.3413207,0.29581127,10.424561
732,1778609132.249847,1.6752198,-2.3618453,-0.72784734,-0.23655738,0.5584831,10.528407
733,1778609132.2632918,1.6752198,-2.3618453,-0.72784734,-0.23655738,0.5584831,10.528407
734,1778609132.271391,1.99597,-2.2767181,-0.40416992,-1.0502293,1.132696,9.843017
735,1778609132.282481,2.0237765,-2.2615952,-0.3029445,-1.1980586,1.1974477,9.595006
736,1778609132.293468,1.741565,-2.2757425,0.040246252,-1.4900519,1.2670863,8.500336
737,1778609132.303939,1.741565,-2.2757425,0.040246252,-1.4900519,1.2670863,8.500336
738,1778609132.315267,1.4486212,-2.4179459,0.014635001,-1.6855286,0.997084,8.2437725
739,1778609132.3259678,1.3993499,-2.4494112,-0.022440333,-1.8272493,0.73807734,8.251103
740,1778609132.336767,1.3993499,-2.4494112,-0.022440333,-1.8272493,0.73807734,8.251103
741,1778609132.347245,1.2525121,-2.5650277,-0.042441502,-2.3244932,0.05146536,8.41115
742,1778609132.357853,1.3032467,-2.5862484,0.009268833,-2.3244932,0.05146536,8.41115
743,1778609132.368232,1.3834953,-2.5842972,0.17586392,-2.8754933,0.053908817,8.4551325
744,1778609132.378717,1.510332,-2.6979623,0.24659975,-3.0049965,0.38988444,8.372054
745,1778609132.389505,1.5108198,-2.7406478,0.26830834,-3.138165,0.87002414,8.282868
746,1778609132.39984,1.5505784,-2.6247873,0.3595332,-3.3397505,1.254869,8.274316
747,1778609132.4108968,1.6718048,-2.5003898,0.4973461,-3.481471,1.2670863,8.2718725
748,1778609132.421341,2.2550097,-2.3928225,0.57222855,-3.6427393,0.9824233,8.055627
749,1778609132.431851,2.9118774,-2.3233063,0.8666359,-3.8333292,0.88590664,7.311593
750,1778609132.443062,2.9118774,-2.3233063,0.8666359,-3.9298458,0.9457714,6.445387
751,1778609132.467554,1.8366925,-2.2347646,1.0615253,-3.4790277,1.8596251,5.393478
752,1778609132.4708211,1.8366925,-2.2347646,1.0615253,-3.4790277,1.8596251,5.393478
753,1778609132.480784,1.9166973,-2.2733035,0.983472,-3.5743225,1.7899865,5.6659236
754,1778609132.497153,3.886812,-2.4172142,1.3620307,-4.3916597,-0.85505795,5.095376
755,1778609132.513265,4.7385693,-2.2701325,2.0352407,-3.9726064,-3.1262531,3.0453136
756,1778609132.530669,4.4780664,-1.9498698,1.9542603,-3.4387105,-2.6143486,2.709338
757,1778609132.5338292,4.4780664,-1.9498698,1.9542603,-3.4387105,-2.6143486,2.709338
758,1778609132.546877,4.6229525,-1.9315761,1.7420528,-3.978715,-0.51541716,2.791194
759,1778609132.557905,5.0312696,-1.8183988,1.5120394,-3.978715,-0.51541716,2.791194
760,1778609132.5685482,5.6561837,-1.671317,2.1989088,-5.2468705,0.66233015,2.1791074
761,1778609132.580402,5.840341,-1.7432724,2.4686806,-5.537642,0.983645,1.4790564
762,1778609132.591247,5.5461774,-2.0620716,2.9689536,-5.455786,1.968359,-0.57589275
763,1778609132.601752,4.9744368,-2.3235502,3.2643366,-4.7826133,2.984838,-1.9307909
764,1778609132.614107,4.347815,-2.4552653,3.4060524,-3.9298458,3.8767006,-2.7078109
765,1778609132.624423,3.205553,-2.608445,3.460446,-2.0153956,5.0458956,-3.2661412
766,1778609132.635221,2.130856,-2.5225863,2.894803,-0.19501857,5.252368,-3.1293075
767,1778609132.646106,2.0874388,-2.4867306,2.2633028,3.0388997,4.0709558,-2.2203407
768,1778609132.6568298,2.0874388,-2.4867306,2.2633028,3.0388997,4.0709558,-2.2203407
769,1778609132.667326,2.4313614,-2.4172142,1.1517745,4.5306315,2.469268,-2.0089815
770,1778609132.6779509,2.4920967,-2.347454,0.8585867,4.677239,2.2420266,-2.1959062
771,1778609132.6882849,2.4691684,-2.247692,0.6749174,4.766425,2.2200353,-2.5184429
772,1778609132.698536,2.373553,-2.2203734,0.5712528,4.8201814,2.5572326,-2.937496
773,1778609132.70888,2.2315936,-2.2028115,0.55320305,4.8922634,2.857778,-3.1476336
774,1778609132.719481,2.1154892,-2.2347646,0.5517395,5.0547533,3.2352927,-3.3944228
775,1778609132.729901,2.0471926,-2.3189158,0.51320064,5.3614073,3.6140287,-3.655873
776,1778609132.7431831,2.0508513,-2.4247756,0.39002275,5.624079,3.8510442,-3.8733408
777,1778609132.7537951,2.0476804,-2.473315,0.31660384,5.6863875,3.9011352,-3.931984
778,1778609132.764224,2.118904,-2.971149,0.12951976,6.307026,4.051408,-4.5428486
779,1778609132.777409,2.118904,-2.971149,0.12951976,6.307026,4.051408,-4.5428486
780,1778609132.788221,2.3550155,-3.4545918,0.07366284,7.0864897,4.4655743,-4.9912233
781,1778609132.800468,2.4752665,-3.577038,-0.07927292,7.4798865,4.8479757,-5.303986
782,1778609132.8110652,2.5413678,-3.7353396,-0.36319193,7.643598,5.0190177,-5.5788755
783,1778609132.821648,2.4255073,-3.9263265,-0.53442144,7.671698,4.7258024,-5.936842
784,1778609132.832939,1.8825489,-4.1519494,-0.49954134,7.622829,4.227337,-6.023585
785,1778609132.845185,1.8825489,-4.1519494,-0.49954134,7.477443,2.9384122,-5.812226
786,1778609132.855835,1.7083925,-3.9765737,-0.2824555,7.4969907,2.0929754,-5.4957976
787,1778609132.866395,2.1235385,-3.8938856,-0.10707942,7.9331484,1.4161372,-5.4835806
788,1778609132.8803709,2.210129,-3.9029107,-0.14147167,8.077312,1.3428335,-5.633853
789,1778609132.887365,2.4103847,-3.899008,-0.39294976,8.332654,0.8101594,-6.329017
790,1778609132.8986392,2.490633,-3.89291,-0.6190605,8.281342,0.07834341,-6.93866
791,1778609132.909309,2.5425873,-3.8921783,-0.6807714,8.077312,-0.8856012,-7.572738
792,1778609132.9201741,2.508195,-3.8251014,-0.7002848,7.753554,-2.1549783,-8.430392
793,1778609132.931776,2.3667235,-3.7009475,-0.7607761,7.577625,-2.6681046,-8.800576
794,1778609132.946412,1.4961848,-3.390198,-0.7744354,6.2508264,-4.4078474,-10.532989
795,1778609132.963907,1.0073758,-3.1840882,-0.54612947,5.136609,-5.5012956,-11.758384
796,1778609132.981217,0.00073175,-2.7445502,-0.37343642,4.754208,-6.0791736,-12.066259
797,1778609132.9970078,-0.98981386,-3.4560554,-1.4630122,2.0285292,-6.6753774,-12.966674
798,1778609133.007327,-0.98981386,-3.4560554,-1.4630122,2.0285292,-6.6753774,-12.966674
799,1778609133.0175092,-2.4145312,-3.9955988,-1.2361697,-2.9439101,-6.0388565,-11.747388
800,1778609133.030263,-2.6618626,-4.0712132,-0.82712144,-2.9439101,-6.0388565,-11.747388
801,1778609133.040801,-3.6904593,-3.7946117,0.87834394,-6.155837,-3.614945,-9.660674
802,1778609133.0509849,-4.2461014,-3.8592498,2.4420936,-6.1265154,-2.3919938,-8.305776
803,1778609133.062965,-4.610025,-3.776318,3.4875205,-2.5456262,-0.7939715,-5.2416778
804,1778609133.074274,-4.680273,-3.749731,3.7104602,-2.5456262,-0.7939715,-5.2416778
805,1778609133.084713,-4.0470653,-3.6719217,2.6940596,1.0315979,-0.42134398,-2.083507
806,1778609133.097193,-3.4770322,-3.536304,1.7403455,1.8745914,1.223104,-0.23503022
807,1778609133.105872,-3.4770322,-3.536304,1.7403455,1.758527,2.9542947,0.75823593
808,1778609133.117853,-1.99036,-3.2879968,0.080492504,0.83856463,6.114909,2.0715952
809,1778609133.128323,-1.8927934,-3.1472569,0.56003267,0.35231626,7.1081753,3.1406085
810,1778609133.139075,-1.4334983,-3.3343408,1.2088511,0.6039925,6.2749557,4.475959
811,1778609133.1517801,-0.8759048,-3.427517,1.3649577,1.3235912,5.1900597,5.3507175
812,1778609133.160018,-0.034636166,-3.5348403,1.1581163,1.3235912,5.1900597,5.3507175
813,1778609133.170531,0.6524771,-3.5194738,0.6612581,3.6937466,2.9359689,6.7178326
814,1778609133.180942,0.9317616,-3.4170287,0.32221392,4.0004005,2.6977315,6.877879
815,1778609133.191802,0.97639847,-3.0018826,-0.5468612,4.004066,1.3807071,8.361059
816,1778609133.2022872,0.97639847,-3.0018826,-0.5468612,4.004066,1.3807071,8.361059
817,1778609133.2128031,1.200558,-2.9109015,-0.6805275,4.004066,1.3807071,8.361059
818,1778609133.223497,2.2401307,-2.7511363,-0.5839365,2.8189883,1.254869,10.15578
819,1778609133.233793,2.8521175,-2.6174698,-0.28782168,1.5422808,1.7887648,10.866826
820,1778609133.2446148,2.997736,-2.5242937,-0.0078053335,1.1293362,2.1064146,10.915695
821,1778609133.2554188,2.997736,-2.5242937,-0.0078053335,1.1293362,2.1064146,10.915695
822,1778609133.266173,3.1045713,-2.4430692,0.056588665,0.5148063,2.4313946,11.072077
823,1778609133.276963,3.3411708,-2.3686748,-0.0512225,0.15806127,2.587776,11.002439
824,1778609133.2904692,3.2323837,-2.3020854,-0.32367742,-0.7496838,2.8663301,10.803296
825,1778609133.299973,3.1072545,-2.346966,-0.4578316,-2.0532691,3.0288203,10.68601
826,1778609133.3179252,2.985784,-2.4298978,-0.41343874,-2.893819,3.0508115,10.66402
827,1778609133.330851,3.06213,-2.7474775,-0.20879267,-4.213287,2.9323037,10.697006
828,1778609133.3468459,3.2148218,-3.3421464,0.5095419,-5.3641562,2.2774565,10.837504
829,1778609133.357365,3.535572,-3.1101816,1.3217845,-4.982977,2.0294454,11.438596
830,1778609133.368223,4.1495104,-2.8835828,1.0939662,-4.605462,1.9610287,11.232123
831,1778609133.3802738,4.452455,-2.5942976,0.69296724,-4.6091275,1.9646939,10.689675
832,1778609133.390829,4.687103,-2.2967196,-0.098054506,-5.3983645,2.1394012,9.325004
833,1778609133.401794,4.236101,-2.2357402,-0.18927933,-6.9805045,2.5718935,7.737977
834,1778609133.4150112,3.099937,-2.215495,1.7525413,-8.15703,1.8425208,7.18209
835,1778609133.4255319,3.1335976,-2.002312,2.5038047,-8.15703,1.8425208,7.18209
836,1778609133.4358459,3.8390045,-1.8186426,3.0918877,-6.5150256,0.549931,7.530283
837,1778609133.44663,4.7056403,-1.4420353,3.246287,-4.5871363,-0.22708899,6.7923584
838,1778609133.457303,4.7056403,-1.4420353,3.246287,-4.5871363,-0.22708899,6.7923584
839,1778609133.468367,4.6968594,-1.2093389,2.5842972,-3.3128724,-0.6827941,5.9102693
840,1778609133.481622,3.939498,-0.89468634,1.454719,-3.0062182,-1.352302,4.974425
841,1778609133.4918752,3.845834,-0.70857793,1.6296073,-3.5828745,-2.0645702,5.0611672
842,1778609133.50267,4.227076,-0.5746677,2.1164649,-3.7539167,-2.387107,5.0892673
843,1778609133.513858,4.49514,-0.089517415,2.5020971,-3.3922849,-1.6601777,4.3867726
844,1778609133.526203,4.49514,-0.089517415,2.5020971,-3.3922849,-1.6601777,4.3867726
845,1778609133.53695,5.252745,0.07415067,2.529172,-3.422828,-0.6901245,3.139387
846,1778609133.547693,5.1905465,0.310262,2.7894309,-3.496132,-0.30894485,1.6733114
847,1778609133.5596,4.8275986,0.45368502,3.0896926,-3.496132,-0.30894485,1.6733114
848,1778609133.57071,4.5214834,0.40465775,3.52923,-3.242012,0.35323256,0.1424842
849,1778609133.583288,4.2121973,-0.057564333,4.356352,-2.8327327,0.9347758,-0.24480405
850,1778609133.593109,4.2121973,-0.057564333,4.356352,-1.6647593,1.7362304,-0.9448551
851,1778609133.603918,3.7155826,-0.7241886,4.3158617,-0.37583455,2.0734277,-1.4530946
852,1778609133.615051,3.456299,-1.0907953,3.9638898,2.4830127,2.0208933,-2.224006
853,1778609133.626889,3.2965336,-1.3483714,3.6133814,3.4530659,1.747226,-2.3571744
854,1778609133.637481,3.1270118,-1.6000934,2.9950528,4.730995,1.0410663,-2.4805691
855,1778609133.648643,2.9845643,-1.5752138,2.5360017,5.4786935,0.50106186,-2.5844162
856,1778609133.6615748,2.9430985,-1.5171617,2.0515833,5.950281,0.16508621,-2.743241
857,1778609133.672298,2.950904,-1.4552069,1.6037521,6.092002,0.056352276,-3.0352345
858,1778609133.682951,2.806749,-1.3678846,0.9815207,5.5067935,0.7160862,-3.8977754
859,1778609133.695123,2.7228417,-1.37008,0.7649227,5.0584188,1.3819288,-4.24719
860,1778609133.706236,2.7228417,-1.37008,0.7649227,5.0584188,1.3819288,-4.24719
861,1778609133.717574,2.4633143,-1.4598414,0.4446601,4.090809,3.070359,-4.7871947
862,1778609133.737056,2.262815,-1.7647372,0.2778211,3.749946,3.7117672,-4.876381
863,1778609133.7473989,2.280377,-1.929137,0.28611428,3.0743296,5.099652,-4.8812675
