id,timestamp,acc_x,acc_y,acc_z,gyro_x,gyro_y,gyro_z
1,1778608795.162098,0.6488183,-0.766874,0.16805859,0.4566214,-0.5404626,-0.013133593
2,1778608795.212477,0.65052575,-0.7651666,0.18610841,0.56169015,-0.52824533,-0.010690134
3,1778608795.262895,0.6193044,-0.77150846,0.13415417,0.61055934,-0.45371982,-0.042455103
4,1778608795.314154,0.6480866,-0.77150846,0.12512925,0.6362157,-0.48304132,0.09682207
5,1778608795.3644319,0.6488183,-0.73979926,0.05585692,0.56291187,-0.21792601,0.12125666
6,1778608795.4205172,0.6512575,-0.71784675,0.047075916,0.13286309,0.4980075,0.24465135
7,1778608795.471731,0.8185843,-0.7271156,-0.054637335,-0.038179047,0.41859508,0.4914407
8,1778608795.5222971,0.91371185,-0.3849005,-0.6327199,-0.32284203,2.8107417,0.21532984
9,1778608795.573778,1.6313148,0.16098501,-0.5334458,-2.6966627,-0.29489496,-1.1004729
10,1778608795.6243489,3.2487261,-0.35221568,0.066345334,-1.2110394,-1.8501567,-1.7993022
11,1778608795.675276,3.6175282,-1.4800863,1.1071378,0.042455103,-5.5507755,-4.8475175
12,1778608795.7265532,4.370255,-2.8201644,0.55613,-2.2678354,0.9940297,-6.2842712
13,1778608795.784547,2.2584245,-1.5678964,0.88078314,0.42852163,2.3916883,-5.793136
14,1778608795.835456,2.2062263,-1.6300951,0.3422151,1.361923,1.7209588,-7.4449143
15,1778608795.885775,2.0145078,-2.420873,0.19147459,2.3270893,0.19379686,-8.62144
16,1778608795.937823,1.6886351,-2.6904008,0.184401,1.9336925,-1.8183917,-8.945198
17,1778608795.988563,1.4354496,-2.4281905,0.026586918,1.8506149,-1.1439971,-8.377094
18,1778608796.038666,1.2888557,-2.279889,-0.31733558,0.87445295,-3.5459173,-7.584192
19,1778608796.089298,-0.9732275,-2.4728272,-0.4549046,-1.1597267,-0.30344707,-8.075327
20,1778608796.1418188,-5.075662,-2.789919,0.7944366,-0.5378664,-3.227046,-3.7980518
21,1778608796.19254,-3.6767998,-2.3164766,-0.35806966,-0.8713986,-1.42866,3.2073455
22,1778608796.2534559,-2.0101173,-1.8313264,1.6176554,1.2519673,-0.90698147,6.3325295
23,1778608796.2929862,-0.32367742,-2.01402,0.36855808,3.7259698,-0.59421873,8.122363
24,1778608796.34419,1.411058,-2.5601494,-0.77199626,2.0741913,1.9567527,9.105856
25,1778608796.394911,2.7435746,-2.2208612,-0.41392657,3.2323909,-1.5691589,8.060056
26,1778608796.446316,2.6882055,-1.5335041,0.21123183,1.7809763,1.3080142,6.051532
27,1778608796.497034,1.5581397,-1.3051981,0.158058,2.6056437,1.1858412,4.328893
28,1778608796.54802,1.4813058,-1.0807948,-0.15683842,0.8316924,3.2090254,5.648361
29,1778608796.598248,2.148662,-1.0615253,-0.84395164,1.9031492,0.12049308,6.009993
30,1778608796.655495,3.2584827,-0.38709575,0.32270175,-3.0912812,3.4802494,5.2256427
31,1778608796.7059462,3.820711,-0.32977533,0.5927175,-2.677115,3.2151341,3.5677557
32,1778608796.756317,6.668926,0.9156632,-0.3324584,1.348484,-2.6687155,1.6765184
33,1778608796.806675,4.9822416,-0.16439983,-0.19123067,-0.8799507,-0.035888307,-3.1065528
34,1778608796.856896,3.0013945,-0.31660384,0.75345856,2.1780384,-0.70661783,-4.8939433
35,1778608796.907255,1.7747377,-0.2719671,-0.25074634,1.556178,-0.6027708,-6.201194
36,1778608796.9590368,2.1528087,-1.5152103,-0.24684367,-0.11148282,-0.7298307,-7.117491
37,1778608797.0113769,1.6261925,-1.5313089,0.16732684,-0.49388418,-0.09575305,-6.737533
38,1778608797.0618691,1.5815557,-1.4791107,0.0248795,-0.13836087,-0.696844,-6.027708
39,1778608797.113714,1.966944,-1.6966844,0.25220984,0.1499673,-1.3370303,-5.9715085
40,1778608797.164377,1.4947214,-1.4186194,0.031221334,0.26480988,-2.6320636,-6.70699
41,1778608797.21621,0.2883095,-1.0822582,-0.083907336,-1.3564253,-0.8666644,-6.873145
42,1778608797.267222,-0.93859136,-1.7247348,-0.31392074,-4.6941905,2.0117304,-9.007506
43,1778608797.317497,-4.841258,-3.0289571,2.0530467,3.6050184,-2.5636468,-6.7265377
44,1778608797.368225,-5.4317803,-2.754551,-0.41539007,1.8029674,0.74235344,3.5555384
45,1778608797.42068,0.3178234,-2.836751,0.105615914,1.2531891,0.8645264,9.097303
46,1778608797.471547,1.6827811,-2.5894194,-0.39563283,3.0137014,-0.49281517,9.326989
47,1778608797.522002,2.1625652,-1.6949768,-0.13708118,-0.878729,0.5041162,6.604975
48,1778608797.572578,1.7596148,-1.6605847,0.6278415,0.95630884,1.9628613,5.6288137
49,1778608797.623828,1.8323021,-1.7891287,0.31343293,1.2702934,1.2725841,6.769909
50,1778608797.674189,1.3642259,-1.0776238,-0.079516836,1.510974,1.8455752,5.683791
51,1778608797.738718,2.0849998,-0.9363961,0.20464608,-0.64537865,2.7239988,5.7277737
52,1778608797.787404,5.1220064,-0.7812651,-0.781509,-1.4834851,2.1363468,7.7924967
53,1778608797.837709,3.928278,0.08585867,0.96444654,0.28802276,-1.3370303,4.6428776
54,1778608797.888994,5.639841,2.561125,-2.1245143,2.4113886,-1.4506512,2.2446227
55,1778608797.9402502,4.6292944,-0.181474,1.0237182,-0.5109884,0.28542656,-3.2262824
56,1778608797.991603,4.188293,-0.257576,0.59466887,2.4065018,-0.5038107,-3.728413
57,1778608798.043042,3.2206757,-0.2646496,0.66589254,0.85490525,0.97203857,-6.1620984
58,1778608798.094777,2.9199264,-1.4874039,0.3597771,2.0021093,-0.9460768,-7.7356863
59,1778608798.152948,2.9294393,-2.7304032,0.5102737,0.25137085,2.063043,-8.761939
60,1778608798.207078,2.209885,-2.7994316,0.042929336,3.029584,-2.0077598,-8.428407
61,1778608798.2713332,2.022801,-2.425995,-0.15269183,2.4028366,-4.0285006,-8.301347
62,1778608798.322033,-0.124641426,-2.03768,-0.58052164,-0.19089524,-5.110953,-7.3593936
63,1778608798.3725498,-0.9246881,-2.763088,0.33758068,-5.0680394,-2.2117887,-5.297114
64,1778608798.422952,-5.1907907,-3.220188,4.182927,-0.74067354,-1.234405,-3.4596326
65,1778608798.4736798,-3.4916673,-3.0135906,0.50905406,3.8713555,-1.4335469,3.891514
66,1778608798.524294,0.22367159,-2.9645634,1.2986124,4.203666,0.7948878,7.736297
67,1778608798.586228,2.2515948,-1.5442364,-0.32831186,3.3350163,1.1931716,5.5567317
68,1778608798.6367092,1.4959409,-1.5615546,0.04756375,2.3612978,3.4607017,4.993514
69,1778608798.687021,1.8269358,-1.6903424,-0.34294683,0.6093376,3.9078548,6.8224435
70,1778608798.7375412,2.0715842,-1.4971606,0.050734665,-1.1084142,4.2975864,7.50539
71,1778608798.788011,2.5881999,-1.7201004,0.9610317,-2.4559817,2.0422738,8.369153
72,1778608798.8394802,4.0070634,-1.3298336,-0.307335,0.030237807,-0.47571096,8.562186
73,1778608798.8914611,4.0970683,-0.6873572,-0.17049775,-1.6508621,0.7008146,6.72104
74,1778608798.9408891,4.733447,0.7446776,1.6027765,-1.6313144,0.43814278,4.809033
75,1778608798.991673,6.6784387,2.0208497,1.1205531,-0.38148504,-0.50014555,0.65759593
76,1778608799.0424361,3.9373028,-0.7702888,1.6257046,1.1102468,1.2554798,-4.2122183
77,1778608799.092875,3.1862836,-0.79760754,0.6566237,3.0821183,-0.638201,-5.083311
78,1778608799.143481,2.1389053,-1.07738,0.061467,1.5952734,0.7509055,-6.661786
79,1778608799.194077,2.0006044,-1.5898489,0.06415008,0.94164807,0.03619374,-6.809615
80,1778608799.244399,1.7364427,-1.7896166,0.015122834,0.1951713,0.6165153,-6.9965396
81,1778608799.2954571,1.7025384,-1.6974162,0.4973461,1.045495,0.34162614,-6.375901
82,1778608799.3458,1.6257046,-1.7230273,0.064394,2.1817036,-0.84100807,-6.639795
83,1778608799.3962328,1.0642084,-1.2015336,0.19586508,1.8420627,-1.862374,-6.5090694
84,1778608799.4565918,-0.93834746,-2.4791691,-0.4961265,-1.0167844,-0.82390386,-9.939686
85,1778608799.497195,-6.6277037,-4.545875,1.9210877,-0.66003937,2.7630942,-9.712444
86,1778608799.547638,-4.8876023,-3.9377909,-0.41514617,4.543307,0.71058846,4.591565
87,1778608799.598146,0.7283352,-3.4897156,-0.35197178,3.9544332,0.20967934,10.271386
88,1778608799.649257,2.5906389,-2.9752955,-0.7634592,4.5982847,0.30986115,11.025193
89,1778608799.6996229,2.3850172,-2.1503694,-1.5498465,-1.592219,2.262185,8.2653055
90,1778608799.7505229,2.452826,-2.6101522,1.1505549,-2.432769,3.2139122,9.965954
91,1778608799.807038,1.7293692,-1.3881298,0.68564975,0.5067123,-1.4714205,6.0429797
92,1778608799.859145,2.347454,-0.91932195,0.25952733,-1.330769,3.1039567,6.192031
93,1778608799.909441,2.7416234,-0.9463967,-0.42368326,-0.48533207,0.85963947,4.8884454
94,1778608799.959729,4.8868704,-0.34294683,0.9244442,-2.1334453,1.1907282,4.8517933
95,1778608800.011348,4.519288,0.61759704,1.2598295,-1.4541636,0.9463823,2.8518221
96,1778608800.061364,6.2306075,0.5527152,-0.43661085,-0.12858704,-0.9534072,-2.4785838
97,1778608800.120251,2.9167554,-0.37026548,1.6959527,-0.34483317,1.8907793,-4.210996
98,1778608800.1663418,2.2291543,-0.26074693,0.3670946,1.8127413,-0.5148063,-5.680737
99,1778608800.217178,2.4157507,-1.3742266,0.21318316,0.80114913,0.77534014,-6.3783445
100,1778608800.267715,1.9527969,-1.744248,-0.11146992,1.4755439,1.2432625,-7.5683093
101,1778608800.319093,1.5178934,-1.9262099,-0.079516836,1.0198387,0.30863944,-6.928123
102,1778608800.369707,1.823521,-1.7088803,-0.31123766,0.9770782,-0.19471315,-6.485857
103,1778608800.420641,1.3403221,-1.5669206,-0.33636108,-0.341168,-0.97539836,-6.1901984
104,1778608800.471401,1.352518,-1.0671355,-0.0570765,-1.6704098,1.2530364,-6.570156
105,1778608800.53318,-2.5835655,-3.0452998,0.4212441,-1.5347978,2.054491,-9.734436
106,1778608800.583689,-6.6491685,-3.1394515,-0.0036587503,3.8591383,-1.0914626,-1.9275838
107,1778608800.633943,-2.5240498,-2.772601,-0.8515131,1.8603886,0.9952514,6.064971
108,1778608800.684438,0.011708,-2.5918586,0.005854,1.2935061,-0.18982624,9.124182
109,1778608800.734742,2.930415,-2.462095,-0.016586334,1.926362,-0.13973531,8.950696
110,1778608800.7848918,2.1252458,-2.3079395,0.022440333,2.9416194,0.37583455,8.782098
111,1778608800.837496,2.7969925,-2.3396487,0.42685416,2.8756459,1.2029455,8.646485
112,1778608800.888618,2.854069,-1.5466757,-0.7002848,2.5030184,2.1058037,7.170636
113,1778608800.939151,1.8444978,-0.44539183,-0.81712085,-1.8732169,5.288409,5.5958266
114,1778608800.989855,2.7233295,-1.1498232,0.10464026,-6.6697273,6.0910854,4.724734
115,1778608801.0402088,3.7363155,-0.54125106,1.4815499,-2.9862125,1.1174244,3.8719664
116,1778608801.0913222,4.656125,0.5793021,1.5810679,0.6814197,-1.8904737,2.0320418
117,1778608801.142012,4.4422107,-0.8232187,0.55076385,-0.59650946,0.37583455,-3.4205372
118,1778608801.19246,3.014322,-0.8829783,1.4959409,1.9300272,-0.5392409,-3.8212647
119,1778608801.254179,1.9235268,0.006829667,0.09342009,1.2641847,-0.08842268,-5.123628
120,1778608801.3142972,2.7257688,-0.9556655,-0.039270584,0.18906265,0.85963947,-6.3343625
121,1778608801.362716,2.499902,-1.6305829,0.022196416,-0.8506292,2.695899,-6.8658147
122,1778608801.41435,2.6894252,-2.3762362,0.25220984,0.74006265,3.5059056,-7.1981254
123,1778608801.465486,2.6486912,-2.69284,-0.14098383,2.3771803,2.2401938,-7.148034
124,1778608801.517422,2.7696738,-2.6804001,-0.59954715,2.7155993,0.40026915,-7.827316
125,1778608801.565774,-0.75297076,-3.1040835,-1.3169061,1.7406592,-0.6369792,-10.235345
126,1778608801.6167822,-4.9634604,-2.6177137,-0.75809306,-1.7180572,-0.9912808,-7.3056374
127,1778608801.667767,-5.102005,-2.558686,1.1198214,2.2806637,-1.0548108,1.4358376
128,1778608801.727612,-2.233545,-2.4777055,0.027562585,0.58001614,1.2347105,5.9037027
129,1778608801.77893,0.8949303,-2.9952967,-0.18196183,3.9226682,-2.0236423,8.469335
130,1778608801.829538,2.7086947,-2.0479245,-0.9442014,2.8854198,-0.38530296,7.6617713
131,1778608801.88,2.081341,-2.058169,0.9620073,-1.4040726,2.9426885,6.5194545
132,1778608801.9302669,2.5972247,-2.4111164,1.0446951,2.46881,1.1943934,7.1694145
133,1778608801.9808261,2.2835479,-2.010605,-0.2678205,1.1921027,3.3226461,8.05639
134,1778608802.0311391,2.59942,-1.0759164,-0.36636284,-2.9629996,5.425243,7.297696
135,1778608802.0825658,3.40093,-1.1637264,0.06780884,-7.466295,5.092932,7.1425366
136,1778608802.134453,3.5577686,-0.61369437,3.3738554,-6.110175,2.709338,3.9843655
137,1778608802.189534,6.158408,0.31953084,1.8552301,3.2714863,-4.581944,0.74189526
138,1778608802.236941,4.055846,-0.94005483,1.9398693,-1.2977822,2.7081163,-3.0552402
139,1778608802.2880871,2.8152862,-1.1342125,2.005483,3.490176,-0.16905683,-3.0418012
140,1778608802.339158,2.7211344,-0.58564395,1.6686338,3.0662358,2.0471606,-4.2781916
141,1778608802.389367,2.2001283,-1.3181257,0.98810637,5.861553,0.17424917,-5.6477504
142,1778608802.4399512,2.4847791,-2.0818288,0.03146525,3.53538,1.2359321,-6.9244576
143,1778608802.490462,2.0623155,-2.3633087,0.68003964,2.7546947,2.2010984,-7.118713
144,1778608802.541922,1.4008135,-2.1423202,0.40563342,3.4681847,0.98303413,-5.861553
145,1778608802.595555,1.22934,-1.9191364,0.39148626,3.8701339,-2.7627888,-5.056433
146,1778608802.64682,2.2581806,-1.3878858,0.5175912,3.3887722,-6.7529573,-8.645875
147,1778608802.697054,-1.7235152,-3.2504337,-1.6730244,-5.672796,0.857196,-9.513303
148,1778608802.7483578,-6.1832876,-4.082677,2.104757,2.7143776,-2.9729261,-6.3062625
149,1778608802.798777,-4.8988223,-3.5370357,0.20293866,2.3099852,0.06918044,3.9538224
150,1778608802.849235,-0.9844477,-3.2272615,0.83882946,3.1480916,-0.1226311,7.166971
151,1778608802.9011369,2.1193922,-3.337512,-0.08293167,5.780919,0.1461494,9.518801
152,1778608802.951424,2.8672404,-2.4172142,-0.9288347,6.483413,-0.5734493,6.8603168
153,1778608803.001757,2.0630474,-2.1298804,-0.108055085,1.4437789,5.026959,7.578694
154,1778608803.0521522,2.5972247,-2.0950003,0.10707942,1.0662645,3.2468991,7.375887
155,1778608803.1029801,2.5033169,-1.5661889,0.25391725,-1.4761547,3.9542804,6.829774
156,1778608803.153651,2.1140258,-0.92517596,0.20171909,-1.5286891,3.3702936,5.9635673
157,1778608803.203933,3.7250953,-1.0234743,0.84102464,-1.8109087,1.972635,5.599492
158,1778608803.254644,4.5902677,0.04463675,-0.027806502,-2.255618,1.8993313,4.4950485
159,1778608803.305105,6.448181,1.4159362,1.5147225,-1.1597267,1.2530364,3.4406958
160,1778608803.355511,5.290065,0.019513333,-0.5588131,-0.3912589,-2.0786202,-3.6270096
161,1778608803.406045,2.8740702,-0.2619665,1.5293576,0.3197877,0.44302967,-4.320952
162,1778608803.456691,2.1825664,-0.07390675,0.2883095,1.6135993,-1.2820524,-5.551234
163,1778608803.5200791,2.0810971,-1.5549688,0.2180615,0.79015356,-1.0890192,-7.1199346
164,1778608803.5583801,1.6798542,-1.5008193,0.09585925,-0.08460477,0.20723587,-6.832828
165,1778608803.609607,1.6339977,-1.4978923,0.17293692,-0.39858928,-0.5086976,-6.1620984
166,1778608803.659866,2.2672055,-1.5322845,0.27440625,-1.1817179,0.6702714,-5.644085
167,1778608803.710252,1.5793605,-1.60424,0.37636343,-1.6435317,3.4704754,-4.7668834
168,1778608803.761787,0.7158954,-1.4932579,0.89053977,0.7156281,2.1253512,-7.284868
169,1778608803.8129091,-2.0142639,-1.6615603,-1.027377,2.0705261,1.9176573,-6.7082114
170,1778608803.864737,-5.608376,-1.9842621,-1.844254,5.5781116,-3.9258752,-4.331948
171,1778608803.915649,-3.78144,-2.2720838,-0.9261516,-0.63316137,0.16447534,4.9654145
172,1778608803.965871,-0.46441734,-3.0009067,0.40709692,1.0479386,-0.14828743,9.620204
173,1778608804.021282,2.426727,-3.2148218,-0.6463792,2.2501204,-1.0181589,9.319658
174,1778608804.0730681,2.022313,-2.8230915,0.31806734,0.82436204,0.73868823,8.068607
175,1778608804.1237912,2.0950003,-3.123109,0.629305,0.6826414,1.0587814,8.287297
176,1778608804.174772,2.3072078,-2.402823,-0.34880084,1.0430516,1.024573,7.4528556
177,1778608804.2255008,2.6891813,-2.1379297,0.006097917,-2.9495606,4.4283113,8.1419115
178,1778608804.27575,2.534782,-1.3078811,0.70418745,-3.4455829,2.9768968,4.94098
179,1778608804.328151,4.191708,-1.0629889,-0.17757133,-3.4162612,3.0282094,3.661829
180,1778608804.391849,6.0808425,-1.5957029,7.589467,-5.735104,4.7801695,-2.2244642
181,1778608804.429308,1.8952326,-2.3576987,2.634544,5.6599674,-0.39507678,-3.100444
182,1778608804.4800398,3.1638432,-1.8649869,0.04439283,4.2549787,-1.0377065,-3.1774132
183,1778608804.530963,1.5693599,-0.6976017,0.9217611,2.0827434,-0.30711228,-3.7137525
184,1778608804.581808,1.744492,-0.48661375,0.7622396,2.5017967,0.29153523,-4.7888746
185,1778608804.6323352,2.1664677,-1.4713054,0.462466,1.5415173,3.9396198,-4.8560696
186,1778608804.683009,1.8347412,-2.0584128,0.46953958,2.843881,4.4649634,-5.0637636
187,1778608804.733331,2.183786,-2.2994025,0.45588025,4.50299,3.3580763,-5.151728
188,1778608804.792685,2.145979,-2.464778,-0.32636052,6.068025,-1.3907864,-6.6581206
189,1778608804.843044,1.6261925,-2.1625652,-0.23318435,4.4309077,-4.550179,-8.992846
190,1778608804.894856,-1.9157214,-2.7877238,-1.6164358,-2.116341,-0.32665995,-9.266513
191,1778608804.945359,-3.892422,-2.6730828,1.3595915,-1.9379685,-3.3235626,-5.094307
192,1778608804.995768,-4.8776016,-2.4916089,1.1834837,2.2879941,-1.1794271,0.3045161
193,1778608805.047573,-2.1462228,-2.4508746,0.7158954,2.061974,1.5670209,6.5109024
194,1778608805.0970151,0.74321413,-3.003346,-0.597108,3.4278677,1.1662936,10.536501
