id,timestamp,acc_x,acc_y,acc_z,gyro_x,gyro_y,gyro_z
1,1778607684.073647,0.4749058,-1.5537492,0.26684484,1.2904519,-1.5987859,-0.099418245
2,1778607684.0898519,0.4749058,-1.5537492,0.26684484,1.2904519,-1.5987859,-0.099418245
3,1778607684.094774,0.4749058,-1.5537492,0.26684484,1.2904519,-1.5987859,-0.099418245
4,1778607684.110502,0.4749058,-1.5537492,0.26684484,1.2904519,-1.5987859,-0.099418245
5,1778607684.125531,0.4749058,-1.5537492,0.26684484,1.2904519,-1.5987859,-0.099418245
6,1778607684.142185,0.4749058,-1.5537492,0.26684484,1.2904519,-1.5987859,-0.099418245
7,1778607684.1465979,0.4749058,-1.5537492,0.26684484,1.2904519,-1.5987859,-0.099418245
8,1778607684.1594398,0.4749058,-1.5537492,0.26684484,1.2904519,-1.5987859,-0.099418245
9,1778607684.1702342,0.4749058,-1.5537492,0.26684484,1.2904519,-1.5987859,-0.099418245
10,1778607684.180732,0.4749058,-1.5537492,0.26684484,1.2904519,-1.5987859,-0.099418245
11,1778607684.192387,0.4749058,-1.5537492,0.26684484,1.2904519,-1.5987859,-0.099418245
12,1778607684.2030342,0.4749058,-1.5537492,0.26684484,1.2904519,-1.5987859,-0.099418245
13,1778607684.213732,0.4749058,-1.5537492,0.26684484,1.2904519,-1.5987859,-0.099418245
14,1778607684.226036,0.4749058,-1.5537492,0.26684484,1.2904519,-1.5987859,-0.099418245
15,1778607684.2366028,0.4749058,-1.5537492,0.26684484,1.2904519,-1.5987859,-0.099418245
16,1778607684.247259,0.4749058,-1.5537492,0.26684484,1.2904519,-1.5987859,-0.099418245
17,1778607684.2600188,0.4749058,-1.5537492,0.26684484,1.2904519,-1.5987859,-0.099418245
18,1778607684.270634,0.4749058,-1.5537492,0.26684484,1.2904519,-1.5987859,-0.099418245
19,1778607684.281443,0.4749058,-1.5537492,0.26684484,1.2904519,-1.5987859,-0.099418245
20,1778607684.293042,0.4749058,-1.5537492,0.26684484,1.2904519,-1.5987859,-0.099418245
21,1778607684.302799,0.4749058,-1.5537492,0.26684484,1.2904519,-1.5987859,-0.099418245
22,1778607684.313229,0.4749058,-1.5537492,0.26684484,1.2904519,-1.5987859,-0.099418245
23,1778607684.32448,0.4749058,-1.5537492,0.26684484,1.2904519,-1.5987859,-0.099418245
24,1778607684.336168,0.4749058,-1.5537492,0.26684484,1.2904519,-1.5987859,-0.099418245
25,1778607684.345854,0.4749058,-1.5537492,0.26684484,1.2904519,-1.5987859,-0.099418245
26,1778607684.356798,0.4749058,-1.5537492,0.26684484,1.2904519,-1.5987859,-0.099418245
27,1778607684.367578,0.4749058,-1.5537492,0.26684484,1.2904519,-1.5987859,-0.099418245
28,1778607684.378554,0.4749058,-1.5537492,0.26684484,1.2904519,-1.5987859,-0.099418245
29,1778607684.389548,0.4749058,-1.5537492,0.26684484,1.2904519,-1.5987859,-0.099418245
30,1778607684.4002979,0.4749058,-1.5537492,0.26684484,1.2904519,-1.5987859,-0.099418245
31,1778607684.4106429,0.4749058,-1.5537492,0.26684484,1.2904519,-1.5987859,-0.099418245
32,1778607684.421345,0.4749058,-1.5537492,0.26684484,1.2904519,-1.5987859,-0.099418245
33,1778607684.4320378,0.4749058,-1.5537492,0.26684484,1.2904519,-1.5987859,-0.099418245
34,1778607684.442676,0.4749058,-1.5537492,0.26684484,1.2904519,-1.5987859,-0.099418245
35,1778607684.453394,0.4749058,-1.5537492,0.26684484,1.2904519,-1.5987859,-0.099418245
36,1778607684.464056,0.4749058,-1.5537492,0.26684484,1.2904519,-1.5987859,-0.099418245
37,1778607684.474499,0.4749058,-1.5537492,0.26684484,1.2904519,-1.5987859,-0.099418245
38,1778607684.4848158,0.4749058,-1.5537492,0.26684484,1.2904519,-1.5987859,-0.099418245
39,1778607684.49595,0.4749058,-1.5537492,0.26684484,1.2904519,-1.5987859,-0.099418245
40,1778607684.5062149,0.4749058,-1.5537492,0.26684484,1.2904519,-1.5987859,-0.099418245
41,1778607684.517496,0.4749058,-1.5537492,0.26684484,1.2904519,-1.5987859,-0.099418245
42,1778607684.527908,0.4749058,-1.5537492,0.26684484,1.2904519,-1.5987859,-0.099418245
43,1778607684.546209,0.4749058,-1.5537492,0.26684484,1.2904519,-1.5987859,-0.099418245
44,1778607684.558958,0.4749058,-1.5537492,0.26684484,1.2904519,-1.5987859,-0.099418245
45,1778607684.576098,0.4749058,-1.5537492,0.26684484,1.2904519,-1.5987859,-0.099418245
46,1778607684.580269,0.4749058,-1.5537492,0.26684484,1.2904519,-1.5987859,-0.099418245
47,1778607684.592483,0.4749058,-1.5537492,0.26684484,1.2904519,-1.5987859,-0.099418245
48,1778607684.60285,0.4749058,-1.5537492,0.26684484,1.2904519,-1.5987859,-0.099418245
49,1778607684.613643,0.4749058,-1.5537492,0.26684484,1.2904519,-1.5987859,-0.099418245
50,1778607684.6248052,0.4749058,-1.5537492,0.26684484,1.2904519,-1.5987859,-0.099418245
51,1778607684.635312,0.4749058,-1.5537492,0.26684484,1.2904519,-1.5987859,-0.099418245
52,1778607684.645777,0.4749058,-1.5537492,0.26684484,1.2904519,-1.5987859,-0.099418245
53,1778607684.6592379,0.4749058,-1.5537492,0.26684484,1.2904519,-1.5987859,-0.099418245
54,1778607684.6677618,0.4749058,-1.5537492,0.26684484,1.2904519,-1.5987859,-0.099418245
55,1778607684.678273,0.4749058,-1.5537492,0.26684484,1.2904519,-1.5987859,-0.099418245
56,1778607684.689075,0.4749058,-1.5537492,0.26684484,1.2904519,-1.5987859,-0.099418245
57,1778607684.7003012,0.4749058,-1.5537492,0.26684484,1.2904519,-1.5987859,-0.099418245
58,1778607684.7107232,0.4749058,-1.5537492,0.26684484,1.2904519,-1.5987859,-0.099418245
59,1778607684.721107,0.4749058,-1.5537492,0.26684484,1.2904519,-1.5987859,-0.099418245
60,1778607684.731851,0.4749058,-1.5537492,0.26684484,1.2904519,-1.5987859,-0.099418245
61,1778607684.742281,0.4749058,-1.5537492,0.26684484,1.2904519,-1.5987859,-0.099418245
62,1778607684.7526982,0.4749058,-1.5537492,0.26684484,1.2904519,-1.5987859,-0.099418245
63,1778607684.762938,0.4749058,-1.5537492,0.26684484,1.2904519,-1.5987859,-0.099418245
64,1778607684.773723,0.4749058,-1.5537492,0.26684484,1.2904519,-1.5987859,-0.099418245
65,1778607684.7841039,0.4749058,-1.5537492,0.26684484,1.2904519,-1.5987859,-0.099418245
66,1778607684.79552,0.4749058,-1.5537492,0.26684484,1.2904519,-1.5987859,-0.099418245
67,1778607684.805213,0.4749058,-1.5537492,0.26684484,1.2904519,-1.5987859,-0.099418245
68,1778607684.81582,0.4749058,-1.5537492,0.26684484,1.2904519,-1.5987859,-0.099418245
69,1778607684.826443,0.4749058,-1.5537492,0.26684484,1.2904519,-1.5987859,-0.099418245
70,1778607684.837506,0.4749058,-1.5537492,0.26684484,1.2904519,-1.5987859,-0.099418245
71,1778607684.8481548,0.4749058,-1.5537492,0.26684484,1.2904519,-1.5987859,-0.099418245
72,1778607684.8593159,0.4749058,-1.5537492,0.26684484,1.2904519,-1.5987859,-0.099418245
73,1778607684.8704052,0.4749058,-1.5537492,0.26684484,1.2904519,-1.5987859,-0.099418245
74,1778607684.883615,0.4749058,-1.5537492,0.26684484,1.2904519,-1.5987859,-0.099418245
75,1778607684.892731,0.4749058,-1.5537492,0.26684484,1.2904519,-1.5987859,-0.099418245
76,1778607684.9033542,0.4749058,-1.5537492,0.26684484,1.2904519,-1.5987859,-0.099418245
77,1778607684.913773,0.4749058,-1.5537492,0.26684484,1.2904519,-1.5987859,-0.099418245
78,1778607684.924463,0.4749058,-1.5537492,0.26684484,1.2904519,-1.5987859,-0.099418245
79,1778607684.944842,0.4749058,-1.5537492,0.26684484,1.2904519,-1.5987859,-0.099418245
80,1778607684.963718,0.4749058,-1.5537492,0.26684484,1.2904519,-1.5987859,-0.099418245
81,1778607684.9786282,0.4749058,-1.5537492,0.26684484,1.2904519,-1.5987859,-0.099418245
82,1778607684.995261,0.4749058,-1.5537492,0.26684484,1.2904519,-1.5987859,-0.099418245
83,1778607685.009526,0.4749058,-1.5537492,0.26684484,1.2904519,-1.5987859,-0.099418245
84,1778607685.020858,0.4749058,-1.5537492,0.26684484,1.2904519,-1.5987859,-0.099418245
85,1778607685.0309892,0.4749058,-1.5537492,0.26684484,1.2904519,-1.5987859,-0.099418245
86,1778607685.0438669,0.4749058,-1.5537492,0.26684484,1.2904519,-1.5987859,-0.099418245
87,1778607685.054513,0.4749058,-1.5537492,0.26684484,1.2904519,-1.5987859,-0.099418245
88,1778607685.064776,0.4749058,-1.5537492,0.26684484,1.2904519,-1.5987859,-0.099418245
89,1778607685.0775821,0.4749058,-1.5537492,0.26684484,1.2904519,-1.5987859,-0.099418245
90,1778607685.088047,0.4749058,-1.5537492,0.26684484,1.2904519,-1.5987859,-0.099418245
91,1778607685.098763,0.4749058,-1.5537492,0.26684484,1.2904519,-1.5987859,-0.099418245
92,1778607685.110703,0.4749058,-1.5537492,0.26684484,1.2904519,-1.5987859,-0.099418245
93,1778607685.121502,0.4749058,-1.5537492,0.26684484,1.2904519,-1.5987859,-0.099418245
94,1778607685.1327019,0.4749058,-1.5537492,0.26684484,1.2904519,-1.5987859,-0.099418245
95,1778607685.143594,0.4749058,-1.5537492,0.26684484,1.2904519,-1.5987859,-0.099418245
96,1778607685.154474,0.4749058,-1.5537492,0.26684484,1.2904519,-1.5987859,-0.099418245
97,1778607685.16676,0.4749058,-1.5537492,0.26684484,1.2904519,-1.5987859,-0.099418245
98,1778607685.1760068,0.4749058,-1.5537492,0.26684484,1.2904519,-1.5987859,-0.099418245
99,1778607685.187349,0.4749058,-1.5537492,0.26684484,1.2904519,-1.5987859,-0.099418245
100,1778607685.1980338,0.4749058,-1.5537492,0.26684484,1.2904519,-1.5987859,-0.099418245
101,1778607685.20894,0.4749058,-1.5537492,0.26684484,1.2904519,-1.5987859,-0.099418245
102,1778607685.220279,0.4749058,-1.5537492,0.26684484,1.2904519,-1.5987859,-0.099418245
103,1778607685.2306838,0.4749058,-1.5537492,0.26684484,1.2904519,-1.5987859,-0.099418245
104,1778607685.2416482,0.4749058,-1.5537492,0.26684484,1.2904519,-1.5987859,-0.099418245
105,1778607685.252613,0.4749058,-1.5537492,0.26684484,1.2904519,-1.5987859,-0.099418245
106,1778607685.264155,0.4749058,-1.5537492,0.26684484,1.2904519,-1.5987859,-0.099418245
107,1778607685.273655,0.4749058,-1.5537492,0.26684484,1.2904519,-1.5987859,-0.099418245
108,1778607685.2839592,0.4749058,-1.5537492,0.26684484,1.2904519,-1.5987859,-0.099418245
109,1778607685.295275,0.4749058,-1.5537492,0.26684484,1.2904519,-1.5987859,-0.099418245
110,1778607685.3057458,0.4749058,-1.5537492,0.26684484,1.2904519,-1.5987859,-0.099418245
111,1778607685.315992,0.4749058,-1.5537492,0.26684484,1.2904519,-1.5987859,-0.099418245
112,1778607685.3269608,0.4749058,-1.5537492,0.26684484,1.2904519,-1.5987859,-0.099418245
113,1778607685.337365,0.4749058,-1.5537492,0.26684484,1.2904519,-1.5987859,-0.099418245
114,1778607685.34799,0.4749058,-1.5537492,0.26684484,1.2904519,-1.5987859,-0.099418245
115,1778607685.35939,0.4749058,-1.5537492,0.26684484,1.2904519,-1.5987859,-0.099418245
116,1778607685.369602,0.4749058,-1.5537492,0.26684484,1.2904519,-1.5987859,-0.099418245
117,1778607685.380679,0.4749058,-1.5537492,0.26684484,1.2904519,-1.5987859,-0.099418245
118,1778607685.3916328,0.4749058,-1.5537492,0.26684484,1.2904519,-1.5987859,-0.099418245
119,1778607685.405772,0.4749058,-1.5537492,0.26684484,1.2904519,-1.5987859,-0.099418245
120,1778607685.4124422,0.4749058,-1.5537492,0.26684484,1.2904519,-1.5987859,-0.099418245
121,1778607685.4230552,0.4749058,-1.5537492,0.26684484,1.2904519,-1.5987859,-0.099418245
122,1778607685.434417,0.4749058,-1.5537492,0.26684484,1.2904519,-1.5987859,-0.099418245
123,1778607685.445295,0.4749058,-1.5537492,0.26684484,1.2904519,-1.5987859,-0.099418245
124,1778607685.455729,0.4749058,-1.5537492,0.26684484,1.2904519,-1.5987859,-0.099418245
125,1778607685.466526,0.4749058,-1.5537492,0.26684484,1.2904519,-1.5987859,-0.099418245
126,1778607685.4773078,0.4749058,-1.5537492,0.26684484,1.2904519,-1.5987859,-0.099418245
127,1778607685.488223,0.4749058,-1.5537492,0.26684484,1.2904519,-1.5987859,-0.099418245
128,1778607685.49865,0.4749058,-1.5537492,0.26684484,1.2904519,-1.5987859,-0.099418245
129,1778607685.512463,0.4749058,-1.5537492,0.26684484,1.2904519,-1.5987859,-0.099418245
130,1778607685.534987,0.4749058,-1.5537492,0.26684484,1.2904519,-1.5987859,-0.099418245
131,1778607685.535177,0.4749058,-1.5537492,0.26684484,1.2904519,-1.5987859,-0.099418245
132,1778607685.5497248,0.4749058,-1.5537492,0.26684484,1.2904519,-1.5987859,-0.099418245
133,1778607685.571429,0.4749058,-1.5537492,0.26684484,1.2904519,-1.5987859,-0.099418245
134,1778607685.585314,0.4749058,-1.5537492,0.26684484,1.2904519,-1.5987859,-0.099418245
135,1778607685.60324,0.4749058,-1.5537492,0.26684484,1.2904519,-1.5987859,-0.099418245
136,1778607685.6217961,0.4749058,-1.5537492,0.26684484,1.2904519,-1.5987859,-0.099418245
137,1778607685.637577,0.4749058,-1.5537492,0.26684484,1.2904519,-1.5987859,-0.099418245
138,1778607685.6541371,0.4749058,-1.5537492,0.26684484,1.2904519,-1.5987859,-0.099418245
139,1778607685.669903,0.4749058,-1.5537492,0.26684484,1.2904519,-1.5987859,-0.099418245
140,1778607685.686643,0.4749058,-1.5537492,0.26684484,1.2904519,-1.5987859,-0.099418245
141,1778607685.690606,0.4749058,-1.5537492,0.26684484,1.2904519,-1.5987859,-0.099418245
142,1778607685.704669,0.4749058,-1.5537492,0.26684484,1.2904519,-1.5987859,-0.099418245
143,1778607685.71997,0.4749058,-1.5537492,0.26684484,1.2904519,-1.5987859,-0.099418245
144,1778607685.7302852,0.4749058,-1.5537492,0.26684484,1.2904519,-1.5987859,-0.099418245
145,1778607685.741763,0.4749058,-1.5537492,0.26684484,1.2904519,-1.5987859,-0.099418245
146,1778607685.753571,0.4749058,-1.5537492,0.26684484,1.2904519,-1.5987859,-0.099418245
147,1778607685.764126,0.4749058,-1.5537492,0.26684484,1.2904519,-1.5987859,-0.099418245
148,1778607685.775866,0.4749058,-1.5537492,0.26684484,1.2904519,-1.5987859,-0.099418245
149,1778607685.786359,0.4749058,-1.5537492,0.26684484,1.2904519,-1.5987859,-0.099418245
150,1778607685.7975838,0.4749058,-1.5537492,0.26684484,1.2904519,-1.5987859,-0.099418245
151,1778607685.809835,0.4749058,-1.5537492,0.26684484,1.2904519,-1.5987859,-0.099418245
152,1778607685.820747,0.4749058,-1.5537492,0.26684484,1.2904519,-1.5987859,-0.099418245
153,1778607685.8293881,0.4749058,-1.5537492,0.26684484,1.2904519,-1.5987859,-0.099418245
154,1778607685.839766,0.4749058,-1.5537492,0.26684484,1.2904519,-1.5987859,-0.099418245
155,1778607685.8501,0.4749058,-1.5537492,0.26684484,1.2904519,-1.5987859,-0.099418245
156,1778607685.8613381,0.4749058,-1.5537492,0.26684484,1.2904519,-1.5987859,-0.099418245
157,1778607685.871776,0.4749058,-1.5537492,0.26684484,1.2904519,-1.5987859,-0.099418245
158,1778607685.8826492,0.4749058,-1.5537492,0.26684484,1.2904519,-1.5987859,-0.099418245
159,1778607685.8937001,0.4749058,-1.5537492,0.26684484,1.2904519,-1.5987859,-0.099418245
160,1778607685.904732,0.4749058,-1.5537492,0.26684484,1.2904519,-1.5987859,-0.099418245
161,1778607685.915416,0.4749058,-1.5537492,0.26684484,1.2904519,-1.5987859,-0.099418245
162,1778607685.925944,0.4749058,-1.5537492,0.26684484,1.2904519,-1.5987859,-0.099418245
163,1778607685.937003,0.4749058,-1.5537492,0.26684484,1.2904519,-1.5987859,-0.099418245
164,1778607685.94742,0.4749058,-1.5537492,0.26684484,1.2904519,-1.5987859,-0.099418245
165,1778607685.959168,0.4749058,-1.5537492,0.26684484,1.2904519,-1.5987859,-0.099418245
166,1778607685.968129,0.4749058,-1.5537492,0.26684484,1.2904519,-1.5987859,-0.099418245
167,1778607685.979191,0.4749058,-1.5537492,0.26684484,1.2904519,-1.5987859,-0.099418245
168,1778607685.9905121,0.4749058,-1.5537492,0.26684484,1.2904519,-1.5987859,-0.099418245
169,1778607686.001003,0.4749058,-1.5537492,0.26684484,1.2904519,-1.5987859,-0.099418245
170,1778607686.013671,0.4749058,-1.5537492,0.26684484,1.2904519,-1.5987859,-0.099418245
171,1778607686.023211,0.4749058,-1.5537492,0.26684484,1.2904519,-1.5987859,-0.099418245
172,1778607686.041929,0.4749058,-1.5537492,0.26684484,1.2904519,-1.5987859,-0.099418245
173,1778607686.057188,0.4749058,-1.5537492,0.26684484,1.2904519,-1.5987859,-0.099418245
174,1778607686.077879,0.4749058,-1.5537492,0.26684484,1.2904519,-1.5987859,-0.099418245
175,1778607686.088341,0.4749058,-1.5537492,0.26684484,1.2904519,-1.5987859,-0.099418245
176,1778607686.098872,0.4749058,-1.5537492,0.26684484,1.2904519,-1.5987859,-0.099418245
177,1778607686.1101792,0.4749058,-1.5537492,0.26684484,1.2904519,-1.5987859,-0.099418245
178,1778607686.1214871,0.4749058,-1.5537492,0.26684484,1.2904519,-1.5987859,-0.099418245
179,1778607686.132719,0.4749058,-1.5537492,0.26684484,1.2904519,-1.5987859,-0.099418245
180,1778607686.144104,0.4749058,-1.5537492,0.26684484,1.2904519,-1.5987859,-0.099418245
181,1778607686.1622741,0.4749058,-1.5537492,0.26684484,1.2904519,-1.5987859,-0.099418245
182,1778607686.175196,0.4749058,-1.5537492,0.26684484,1.2904519,-1.5987859,-0.099418245
183,1778607686.1984901,0.4749058,-1.5537492,0.26684484,1.2904519,-1.5987859,-0.099418245
184,1778607686.219315,0.4749058,-1.5537492,0.26684484,1.2904519,-1.5987859,-0.099418245
185,1778607686.236501,0.4749058,-1.5537492,0.26684484,1.2904519,-1.5987859,-0.099418245
186,1778607686.249442,0.4749058,-1.5537492,0.26684484,1.2904519,-1.5987859,-0.099418245
187,1778607686.2653792,0.4749058,-1.5537492,0.26684484,1.2904519,-1.5987859,-0.099418245
188,1778607686.282121,0.4749058,-1.5537492,0.26684484,1.2904519,-1.5987859,-0.099418245
189,1778607686.29879,0.4749058,-1.5537492,0.26684484,1.2904519,-1.5987859,-0.099418245
190,1778607686.3152761,0.4749058,-1.5537492,0.26684484,1.2904519,-1.5987859,-0.099418245
191,1778607686.33217,0.4749058,-1.5537492,0.26684484,1.2904519,-1.5987859,-0.099418245
192,1778607686.3359191,0.4749058,-1.5537492,0.26684484,1.2904519,-1.5987859,-0.099418245
193,1778607686.348629,0.4749058,-1.5537492,0.26684484,1.2904519,-1.5987859,-0.099418245
194,1778607686.359724,0.4749058,-1.5537492,0.26684484,1.2904519,-1.5987859,-0.099418245
195,1778607686.3702831,0.4749058,-1.5537492,0.26684484,1.2904519,-1.5987859,-0.099418245
196,1778607686.382653,0.4749058,-1.5537492,0.26684484,1.2904519,-1.5987859,-0.099418245
197,1778607686.3939798,0.4749058,-1.5537492,0.26684484,1.2904519,-1.5987859,-0.099418245
198,1778607686.404441,0.4749058,-1.5537492,0.26684484,1.2904519,-1.5987859,-0.099418245
199,1778607686.415871,0.4749058,-1.5537492,0.26684484,1.2904519,-1.5987859,-0.099418245
200,1778607686.427117,0.4749058,-1.5537492,0.26684484,1.2904519,-1.5987859,-0.099418245
201,1778607686.437802,0.4749058,-1.5537492,0.26684484,1.2904519,-1.5987859,-0.099418245
202,1778607686.4480262,0.4749058,-1.5537492,0.26684484,1.2904519,-1.5987859,-0.099418245
203,1778607686.4588969,0.4749058,-1.5537492,0.26684484,1.2904519,-1.5987859,-0.099418245
204,1778607686.46942,0.4749058,-1.5537492,0.26684484,1.2904519,-1.5987859,-0.099418245
205,1778607686.4799318,0.4749058,-1.5537492,0.26684484,1.2904519,-1.5987859,-0.099418245
206,1778607686.490779,0.4749058,-1.5537492,0.26684484,1.2904519,-1.5987859,-0.099418245
207,1778607686.5009909,0.4749058,-1.5537492,0.26684484,1.2904519,-1.5987859,-0.099418245
208,1778607686.511313,0.4749058,-1.5537492,0.26684484,1.2904519,-1.5987859,-0.099418245
209,1778607686.52185,0.4749058,-1.5537492,0.26684484,1.2904519,-1.5987859,-0.099418245
210,1778607686.533946,0.4749058,-1.5537492,0.26684484,1.2904519,-1.5987859,-0.099418245
211,1778607686.545014,0.4749058,-1.5537492,0.26684484,1.2904519,-1.5987859,-0.099418245
212,1778607686.553718,0.4749058,-1.5537492,0.26684484,1.2904519,-1.5987859,-0.099418245
213,1778607686.565056,0.4749058,-1.5537492,0.26684484,1.2904519,-1.5987859,-0.099418245
214,1778607686.5758772,0.4749058,-1.5537492,0.26684484,1.2904519,-1.5987859,-0.099418245
215,1778607686.586045,0.4749058,-1.5537492,0.26684484,1.2904519,-1.5987859,-0.099418245
216,1778607686.597318,0.4749058,-1.5537492,0.26684484,1.2904519,-1.5987859,-0.099418245
217,1778607686.607884,0.4749058,-1.5537492,0.26684484,1.2904519,-1.5987859,-0.099418245
218,1778607686.618714,0.4749058,-1.5537492,0.26684484,1.2904519,-1.5987859,-0.099418245
219,1778607686.6293492,0.4749058,-1.5537492,0.26684484,1.2904519,-1.5987859,-0.099418245
220,1778607686.640254,0.4749058,-1.5537492,0.26684484,1.2904519,-1.5987859,-0.099418245
221,1778607686.650964,0.4749058,-1.5537492,0.26684484,1.2904519,-1.5987859,-0.099418245
222,1778607686.662047,0.4749058,-1.5537492,0.26684484,1.2904519,-1.5987859,-0.099418245
223,1778607686.673868,0.4749058,-1.5537492,0.26684484,1.2904519,-1.5987859,-0.099418245
224,1778607686.684511,0.4749058,-1.5537492,0.26684484,1.2904519,-1.5987859,-0.099418245
225,1778607686.6950772,0.4749058,-1.5537492,0.26684484,1.2904519,-1.5987859,-0.099418245
226,1778607686.706347,0.4749058,-1.5537492,0.26684484,1.2904519,-1.5987859,-0.099418245
227,1778607686.7229178,0.4749058,-1.5537492,0.26684484,1.2904519,-1.5987859,-0.099418245
228,1778607686.740936,0.4749058,-1.5537492,0.26684484,1.2904519,-1.5987859,-0.099418245
229,1778607686.7575302,0.4749058,-1.5537492,0.26684484,1.2904519,-1.5987859,-0.099418245
230,1778607686.768457,0.4749058,-1.5537492,0.26684484,1.2904519,-1.5987859,-0.099418245
231,1778607686.7787788,0.4749058,-1.5537492,0.26684484,1.2904519,-1.5987859,-0.099418245
232,1778607686.78904,0.4749058,-1.5537492,0.26684484,1.2904519,-1.5987859,-0.099418245
233,1778607686.7993758,0.4749058,-1.5537492,0.26684484,1.2904519,-1.5987859,-0.099418245
234,1778607686.810691,0.4749058,-1.5537492,0.26684484,1.2904519,-1.5987859,-0.099418245
235,1778607686.821085,0.4749058,-1.5537492,0.26684484,1.2904519,-1.5987859,-0.099418245
236,1778607686.8312871,0.4749058,-1.5537492,0.26684484,1.2904519,-1.5987859,-0.099418245
237,1778607686.8417761,0.4749058,-1.5537492,0.26684484,1.2904519,-1.5987859,-0.099418245
238,1778607686.852034,0.4749058,-1.5537492,0.26684484,1.2904519,-1.5987859,-0.099418245
239,1778607686.8623328,0.4749058,-1.5537492,0.26684484,1.2904519,-1.5987859,-0.099418245
240,1778607686.872777,0.4749058,-1.5537492,0.26684484,1.2904519,-1.5987859,-0.099418245
241,1778607686.883091,0.4749058,-1.5537492,0.26684484,1.2904519,-1.5987859,-0.099418245
242,1778607686.894784,0.4749058,-1.5537492,0.26684484,1.2904519,-1.5987859,-0.099418245
243,1778607686.905497,0.4749058,-1.5537492,0.26684484,1.2904519,-1.5987859,-0.099418245
244,1778607686.917372,0.4749058,-1.5537492,0.26684484,1.2904519,-1.5987859,-0.099418245
245,1778607686.929579,0.4749058,-1.5537492,0.26684484,1.2904519,-1.5987859,-0.099418245
246,1778607686.938093,0.4749058,-1.5537492,0.26684484,1.2904519,-1.5987859,-0.099418245
247,1778607686.9526029,0.4749058,-1.5537492,0.26684484,1.2904519,-1.5987859,-0.099418245
248,1778607686.963445,0.4749058,-1.5537492,0.26684484,1.2904519,-1.5987859,-0.099418245
249,1778607686.974585,0.4749058,-1.5537492,0.26684484,1.2904519,-1.5987859,-0.099418245
250,1778607686.987979,0.4749058,-1.5537492,0.26684484,1.2904519,-1.5987859,-0.099418245
251,1778607686.9984598,0.4749058,-1.5537492,0.26684484,1.2904519,-1.5987859,-0.099418245
252,1778607687.009193,0.4749058,-1.5537492,0.26684484,1.2904519,-1.5987859,-0.099418245
253,1778607687.022049,0.4749058,-1.5537492,0.26684484,1.2904519,-1.5987859,-0.099418245
254,1778607687.0325701,0.4749058,-1.5537492,0.26684484,1.2904519,-1.5987859,-0.099418245
255,1778607687.0431738,0.4749058,-1.5537492,0.26684484,1.2904519,-1.5987859,-0.099418245
256,1778607687.055249,0.4749058,-1.5537492,0.26684484,1.2904519,-1.5987859,-0.099418245
257,1778607687.065542,0.4749058,-1.5537492,0.26684484,1.2904519,-1.5987859,-0.099418245
258,1778607687.076517,0.4749058,-1.5537492,0.26684484,1.2904519,-1.5987859,-0.099418245
259,1778607687.087067,0.4749058,-1.5537492,0.26684484,1.2904519,-1.5987859,-0.099418245
260,1778607687.0992708,0.4749058,-1.5537492,0.26684484,1.2904519,-1.5987859,-0.099418245
261,1778607687.10814,0.4749058,-1.5537492,0.26684484,1.2904519,-1.5987859,-0.099418245
262,1778607687.11917,0.4749058,-1.5537492,0.26684484,1.2904519,-1.5987859,-0.099418245
263,1778607687.1303759,0.4749058,-1.5537492,0.26684484,1.2904519,-1.5987859,-0.099418245
264,1778607687.140589,0.4749058,-1.5537492,0.26684484,1.2904519,-1.5987859,-0.099418245
265,1778607687.150891,0.4749058,-1.5537492,0.26684484,1.2904519,-1.5987859,-0.099418245
266,1778607687.1617851,0.4749058,-1.5537492,0.26684484,1.2904519,-1.5987859,-0.099418245
267,1778607687.172682,0.4749058,-1.5537492,0.26684484,1.2904519,-1.5987859,-0.099418245
268,1778607687.183477,0.4749058,-1.5537492,0.26684484,1.2904519,-1.5987859,-0.099418245
269,1778607687.1939142,0.4749058,-1.5537492,0.26684484,1.2904519,-1.5987859,-0.099418245
270,1778607687.204423,0.4749058,-1.5537492,0.26684484,1.2904519,-1.5987859,-0.099418245
271,1778607687.2153971,0.4749058,-1.5537492,0.26684484,1.2904519,-1.5987859,-0.099418245
272,1778607687.228033,0.4749058,-1.5537492,0.26684484,1.2904519,-1.5987859,-0.099418245
273,1778607687.2362921,0.4749058,-1.5537492,0.26684484,1.2904519,-1.5987859,-0.099418245
274,1778607687.246779,0.4749058,-1.5537492,0.26684484,1.2904519,-1.5987859,-0.099418245
275,1778607687.25807,0.4749058,-1.5537492,0.26684484,1.2904519,-1.5987859,-0.099418245
276,1778607687.2699652,0.4749058,-1.5537492,0.26684484,1.2904519,-1.5987859,-0.099418245
277,1778607687.280204,0.4749058,-1.5537492,0.26684484,1.2904519,-1.5987859,-0.099418245
278,1778607687.2907488,0.4749058,-1.5537492,0.26684484,1.2904519,-1.5987859,-0.099418245
279,1778607687.31173,0.4749058,-1.5537492,0.26684484,1.2904519,-1.5987859,-0.099418245
280,1778607687.32377,0.4749058,-1.5537492,0.26684484,1.2904519,-1.5987859,-0.099418245
281,1778607687.346949,0.4749058,-1.5537492,0.26684484,1.2904519,-1.5987859,-0.099418245
282,1778607687.358177,0.4749058,-1.5537492,0.26684484,1.2904519,-1.5987859,-0.099418245
283,1778607687.368871,0.4749058,-1.5537492,0.26684484,1.2904519,-1.5987859,-0.099418245
284,1778607687.380507,0.4749058,-1.5537492,0.26684484,1.2904519,-1.5987859,-0.099418245
285,1778607687.396854,0.4749058,-1.5537492,0.26684484,1.2904519,-1.5987859,-0.099418245
286,1778607687.411168,0.4749058,-1.5537492,0.26684484,1.2904519,-1.5987859,-0.099418245
287,1778607687.4345129,0.4749058,-1.5537492,0.26684484,1.2904519,-1.5987859,-0.099418245
288,1778607687.453902,0.4749058,-1.5537492,0.26684484,1.2904519,-1.5987859,-0.099418245
289,1778607687.4640582,0.4749058,-1.5537492,0.26684484,1.2904519,-1.5987859,-0.099418245
290,1778607687.479251,0.4749058,-1.5537492,0.26684484,1.2904519,-1.5987859,-0.099418245
291,1778607687.497132,0.4749058,-1.5537492,0.26684484,1.2904519,-1.5987859,-0.099418245
292,1778607687.50066,0.4749058,-1.5537492,0.26684484,1.2904519,-1.5987859,-0.099418245
293,1778607687.513334,0.4749058,-1.5537492,0.26684484,1.2904519,-1.5987859,-0.099418245
294,1778607687.524819,0.4749058,-1.5537492,0.26684484,1.2904519,-1.5987859,-0.099418245
295,1778607687.535497,0.4749058,-1.5537492,0.26684484,1.2904519,-1.5987859,-0.099418245
296,1778607687.545656,0.4749058,-1.5537492,0.26684484,1.2904519,-1.5987859,-0.099418245
297,1778607687.557065,0.4749058,-1.5537492,0.26684484,1.2904519,-1.5987859,-0.099418245
298,1778607687.567373,0.4749058,-1.5537492,0.26684484,1.2904519,-1.5987859,-0.099418245
299,1778607687.5819259,0.4749058,-1.5537492,0.26684484,1.2904519,-1.5987859,-0.099418245
300,1778607687.593069,0.4749058,-1.5537492,0.26684484,1.2904519,-1.5987859,-0.099418245
301,1778607687.60364,0.4749058,-1.5537492,0.26684484,1.2904519,-1.5987859,-0.099418245
302,1778607687.616516,0.4749058,-1.5537492,0.26684484,1.2904519,-1.5987859,-0.099418245
303,1778607687.627234,0.4749058,-1.5537492,0.26684484,1.2904519,-1.5987859,-0.099418245
304,1778607687.638197,0.4749058,-1.5537492,0.26684484,1.2904519,-1.5987859,-0.099418245
305,1778607687.649481,0.4749058,-1.5537492,0.26684484,1.2904519,-1.5987859,-0.099418245
306,1778607687.660938,0.4749058,-1.5537492,0.26684484,1.2904519,-1.5987859,-0.099418245
307,1778607687.672268,0.4749058,-1.5537492,0.26684484,1.2904519,-1.5987859,-0.099418245
308,1778607687.683537,0.4749058,-1.5537492,0.26684484,1.2904519,-1.5987859,-0.099418245
309,1778607687.694533,0.4749058,-1.5537492,0.26684484,1.2904519,-1.5987859,-0.099418245
310,1778607687.703806,0.4749058,-1.5537492,0.26684484,1.2904519,-1.5987859,-0.099418245
311,1778607687.7153,0.4749058,-1.5537492,0.26684484,1.2904519,-1.5987859,-0.099418245
312,1778607687.726207,0.4749058,-1.5537492,0.26684484,1.2904519,-1.5987859,-0.099418245
313,1778607687.7364879,0.4749058,-1.5537492,0.26684484,1.2904519,-1.5987859,-0.099418245
314,1778607687.7470489,0.4749058,-1.5537492,0.26684484,1.2904519,-1.5987859,-0.099418245
315,1778607687.757857,0.4749058,-1.5537492,0.26684484,1.2904519,-1.5987859,-0.099418245
316,1778607687.768904,0.4749058,-1.5537492,0.26684484,1.2904519,-1.5987859,-0.099418245
317,1778607687.77954,0.4749058,-1.5537492,0.26684484,1.2904519,-1.5987859,-0.099418245
318,1778607687.7901928,0.4749058,-1.5537492,0.26684484,1.2904519,-1.5987859,-0.099418245
319,1778607687.801066,0.4749058,-1.5537492,0.26684484,1.2904519,-1.5987859,-0.099418245
320,1778607687.8121789,0.4749058,-1.5537492,0.26684484,1.2904519,-1.5987859,-0.099418245
321,1778607687.82413,0.4749058,-1.5537492,0.26684484,1.2904519,-1.5987859,-0.099418245
322,1778607687.835039,0.4749058,-1.5537492,0.26684484,1.2904519,-1.5987859,-0.099418245
323,1778607687.854214,0.4749058,-1.5537492,0.26684484,1.2904519,-1.5987859,-0.099418245
324,1778607687.8698409,0.4749058,-1.5537492,0.26684484,1.2904519,-1.5987859,-0.099418245
325,1778607687.890155,0.4749058,-1.5537492,0.26684484,1.2904519,-1.5987859,-0.099418245
326,1778607687.901184,0.4749058,-1.5537492,0.26684484,1.2904519,-1.5987859,-0.099418245
327,1778607687.911807,0.4749058,-1.5537492,0.26684484,1.2904519,-1.5987859,-0.099418245
328,1778607687.923177,0.4749058,-1.5537492,0.26684484,1.2904519,-1.5987859,-0.099418245
329,1778607687.9344141,0.4749058,-1.5537492,0.26684484,1.2904519,-1.5987859,-0.099418245
330,1778607687.956543,0.4749058,-1.5537492,0.26684484,1.2904519,-1.5987859,-0.099418245
331,1778607687.971017,0.4749058,-1.5537492,0.26684484,1.2904519,-1.5987859,-0.099418245
332,1778607687.989492,0.4749058,-1.5537492,0.26684484,1.2904519,-1.5987859,-0.099418245
333,1778607688.004989,0.4749058,-1.5537492,0.26684484,1.2904519,-1.5987859,-0.099418245
334,1778607688.0223758,0.4749058,-1.5537492,0.26684484,1.2904519,-1.5987859,-0.099418245
335,1778607688.039149,0.4749058,-1.5537492,0.26684484,1.2904519,-1.5987859,-0.099418245
336,1778607688.055551,0.4749058,-1.5537492,0.26684484,1.2904519,-1.5987859,-0.099418245
337,1778607688.060141,0.4749058,-1.5537492,0.26684484,1.2904519,-1.5987859,-0.099418245
338,1778607688.075514,0.4749058,-1.5537492,0.26684484,1.2904519,-1.5987859,-0.099418245
339,1778607688.089739,0.4749058,-1.5537492,0.26684484,1.2904519,-1.5987859,-0.099418245
340,1778607688.100884,0.4749058,-1.5537492,0.26684484,1.2904519,-1.5987859,-0.099418245
341,1778607688.110969,0.4749058,-1.5537492,0.26684484,1.2904519,-1.5987859,-0.099418245
342,1778607688.1232371,0.4749058,-1.5537492,0.26684484,1.2904519,-1.5987859,-0.099418245
343,1778607688.1338089,0.4749058,-1.5537492,0.26684484,1.2904519,-1.5987859,-0.099418245
344,1778607688.1447449,0.4749058,-1.5537492,0.26684484,1.2904519,-1.5987859,-0.099418245
345,1778607688.1561139,0.4749058,-1.5537492,0.26684484,1.2904519,-1.5987859,-0.099418245
346,1778607688.166987,0.4749058,-1.5537492,0.26684484,1.2904519,-1.5987859,-0.099418245
347,1778607688.177871,0.4749058,-1.5537492,0.26684484,1.2904519,-1.5987859,-0.099418245
348,1778607688.1883929,0.4749058,-1.5537492,0.26684484,1.2904519,-1.5987859,-0.099418245
349,1778607688.199616,0.4749058,-1.5537492,0.26684484,1.2904519,-1.5987859,-0.099418245
350,1778607688.2100182,0.4749058,-1.5537492,0.26684484,1.2904519,-1.5987859,-0.099418245
351,1778607688.220869,0.4749058,-1.5537492,0.26684484,1.2904519,-1.5987859,-0.099418245
352,1778607688.231667,0.4749058,-1.5537492,0.26684484,1.2904519,-1.5987859,-0.099418245
353,1778607688.242103,0.4749058,-1.5537492,0.26684484,1.2904519,-1.5987859,-0.099418245
354,1778607688.253215,0.4749058,-1.5537492,0.26684484,1.2904519,-1.5987859,-0.099418245
355,1778607688.264362,0.4749058,-1.5537492,0.26684484,1.2904519,-1.5987859,-0.099418245
356,1778607688.275289,0.4749058,-1.5537492,0.26684484,1.2904519,-1.5987859,-0.099418245
357,1778607688.286397,0.4749058,-1.5537492,0.26684484,1.2904519,-1.5987859,-0.099418245
358,1778607688.297276,0.4749058,-1.5537492,0.26684484,1.2904519,-1.5987859,-0.099418245
359,1778607688.30832,0.4749058,-1.5537492,0.26684484,1.2904519,-1.5987859,-0.099418245
360,1778607688.319217,0.4749058,-1.5537492,0.26684484,1.2904519,-1.5987859,-0.099418245
361,1778607688.32967,0.4749058,-1.5537492,0.26684484,1.2904519,-1.5987859,-0.099418245
362,1778607688.340197,0.4749058,-1.5537492,0.26684484,1.2904519,-1.5987859,-0.099418245
363,1778607688.3508391,0.4749058,-1.5537492,0.26684484,1.2904519,-1.5987859,-0.099418245
364,1778607688.362615,0.4749058,-1.5537492,0.26684484,1.2904519,-1.5987859,-0.099418245
365,1778607688.371546,0.4749058,-1.5537492,0.26684484,1.2904519,-1.5987859,-0.099418245
366,1778607688.383012,0.4749058,-1.5537492,0.26684484,1.2904519,-1.5987859,-0.099418245
367,1778607688.394343,0.4749058,-1.5537492,0.26684484,1.2904519,-1.5987859,-0.099418245
368,1778607688.405725,0.4749058,-1.5537492,0.26684484,1.2904519,-1.5987859,-0.099418245
369,1778607688.4176571,0.4749058,-1.5537492,0.26684484,1.2904519,-1.5987859,-0.099418245
370,1778607688.427115,0.4749058,-1.5537492,0.26684484,1.2904519,-1.5987859,-0.099418245
371,1778607688.444973,0.4749058,-1.5537492,0.26684484,1.2904519,-1.5987859,-0.099418245
372,1778607688.462573,0.4749058,-1.5537492,0.26684484,1.2904519,-1.5987859,-0.099418245
373,1778607688.481605,0.4749058,-1.5537492,0.26684484,1.2904519,-1.5987859,-0.099418245
374,1778607688.4930902,0.4749058,-1.5537492,0.26684484,1.2904519,-1.5987859,-0.099418245
375,1778607688.5100641,0.4749058,-1.5537492,0.26684484,1.2904519,-1.5987859,-0.099418245
376,1778607688.5275,0.4749058,-1.5537492,0.26684484,1.2904519,-1.5987859,-0.099418245
377,1778607688.542562,0.4749058,-1.5537492,0.26684484,1.2904519,-1.5987859,-0.099418245
378,1778607688.5616379,0.4749058,-1.5537492,0.26684484,1.2904519,-1.5987859,-0.099418245
379,1778607688.563448,0.4749058,-1.5537492,0.26684484,1.2904519,-1.5987859,-0.099418245
380,1778607688.576719,0.4749058,-1.5537492,0.26684484,1.2904519,-1.5987859,-0.099418245
381,1778607688.587281,0.4749058,-1.5537492,0.26684484,1.2904519,-1.5987859,-0.099418245
382,1778607688.597554,0.4749058,-1.5537492,0.26684484,1.2904519,-1.5987859,-0.099418245
383,1778607688.6097238,0.4749058,-1.5537492,0.26684484,1.2904519,-1.5987859,-0.099418245
384,1778607688.620847,0.4749058,-1.5537492,0.26684484,1.2904519,-1.5987859,-0.099418245
385,1778607688.630924,0.4749058,-1.5537492,0.26684484,1.2904519,-1.5987859,-0.099418245
386,1778607688.643221,0.4749058,-1.5537492,0.26684484,1.2904519,-1.5987859,-0.099418245
387,1778607688.654586,0.4749058,-1.5537492,0.26684484,1.2904519,-1.5987859,-0.099418245
388,1778607688.664804,0.4749058,-1.5537492,0.26684484,1.2904519,-1.5987859,-0.099418245
389,1778607688.676673,0.4749058,-1.5537492,0.26684484,1.2904519,-1.5987859,-0.099418245
390,1778607688.687524,0.4749058,-1.5537492,0.26684484,1.2904519,-1.5987859,-0.099418245
391,1778607688.699129,0.4749058,-1.5537492,0.26684484,1.2904519,-1.5987859,-0.099418245
392,1778607688.7108731,0.4749058,-1.5537492,0.26684484,1.2904519,-1.5987859,-0.099418245
393,1778607688.722175,0.4749058,-1.5537492,0.26684484,1.2904519,-1.5987859,-0.099418245
394,1778607688.733075,0.4749058,-1.5537492,0.26684484,1.2904519,-1.5987859,-0.099418245
395,1778607688.743835,0.4749058,-1.5537492,0.26684484,1.2904519,-1.5987859,-0.099418245
396,1778607688.754381,0.4749058,-1.5537492,0.26684484,1.2904519,-1.5987859,-0.099418245
397,1778607688.766586,0.4749058,-1.5537492,0.26684484,1.2904519,-1.5987859,-0.099418245
398,1778607688.775738,0.4749058,-1.5537492,0.26684484,1.2904519,-1.5987859,-0.099418245
399,1778607688.787158,0.4749058,-1.5537492,0.26684484,1.2904519,-1.5987859,-0.099418245
400,1778607688.7975218,0.4749058,-1.5537492,0.26684484,1.2904519,-1.5987859,-0.099418245
401,1778607688.8087559,0.4749058,-1.5537492,0.26684484,1.2904519,-1.5987859,-0.099418245
402,1778607688.819815,0.4749058,-1.5537492,0.26684484,1.2904519,-1.5987859,-0.099418245
403,1778607688.8321059,0.4749058,-1.5537492,0.26684484,1.2904519,-1.5987859,-0.099418245
404,1778607688.843084,0.4749058,-1.5537492,0.26684484,1.2904519,-1.5987859,-0.099418245
405,1778607688.853728,0.4749058,-1.5537492,0.26684484,1.2904519,-1.5987859,-0.099418245
406,1778607688.8658922,0.4749058,-1.5537492,0.26684484,1.2904519,-1.5987859,-0.099418245
407,1778607688.8745449,0.4749058,-1.5537492,0.26684484,1.2904519,-1.5987859,-0.099418245
408,1778607688.885151,0.4749058,-1.5537492,0.26684484,1.2904519,-1.5987859,-0.099418245
409,1778607688.8958879,0.4749058,-1.5537492,0.26684484,1.2904519,-1.5987859,-0.099418245
410,1778607688.9064698,0.4749058,-1.5537492,0.26684484,1.2904519,-1.5987859,-0.099418245
411,1778607688.931741,0.4749058,-1.5537492,0.26684484,1.2904519,-1.5987859,-0.099418245
412,1778607688.931984,0.4749058,-1.5537492,0.26684484,1.2904519,-1.5987859,-0.099418245
413,1778607688.9471538,0.4749058,-1.5537492,0.26684484,1.2904519,-1.5987859,-0.099418245
414,1778607688.967756,0.4749058,-1.5537492,0.26684484,1.2904519,-1.5987859,-0.099418245
415,1778607688.989103,0.4749058,-1.5537492,0.26684484,1.2904519,-1.5987859,-0.099418245
416,1778607689.005733,0.4749058,-1.5537492,0.26684484,1.2904519,-1.5987859,-0.099418245
417,1778607689.0183082,0.4749058,-1.5537492,0.26684484,1.2904519,-1.5987859,-0.099418245
418,1778607689.0339708,0.4749058,-1.5537492,0.26684484,1.2904519,-1.5987859,-0.099418245
419,1778607689.052002,0.4749058,-1.5537492,0.26684484,1.2904519,-1.5987859,-0.099418245
420,1778607689.068272,0.4749058,-1.5537492,0.26684484,1.2904519,-1.5987859,-0.099418245
421,1778607689.084738,0.4749058,-1.5537492,0.26684484,1.2904519,-1.5987859,-0.099418245
422,1778607689.102586,0.4749058,-1.5537492,0.26684484,1.2904519,-1.5987859,-0.099418245
423,1778607689.118013,0.4749058,-1.5537492,0.26684484,1.2904519,-1.5987859,-0.099418245
424,1778607689.128434,0.4749058,-1.5537492,0.26684484,1.2904519,-1.5987859,-0.099418245
425,1778607689.138956,0.4749058,-1.5537492,0.26684484,1.2904519,-1.5987859,-0.099418245
426,1778607689.15227,0.4749058,-1.5537492,0.26684484,1.2904519,-1.5987859,-0.099418245
427,1778607689.162761,0.4749058,-1.5537492,0.26684484,1.2904519,-1.5987859,-0.099418245
428,1778607689.173068,0.4749058,-1.5537492,0.26684484,1.2904519,-1.5987859,-0.099418245
429,1778607689.1850219,0.4749058,-1.5537492,0.26684484,1.2904519,-1.5987859,-0.099418245
430,1778607689.195721,0.4749058,-1.5537492,0.26684484,1.2904519,-1.5987859,-0.099418245
431,1778607689.2061892,0.4749058,-1.5537492,0.26684484,1.2904519,-1.5987859,-0.099418245
432,1778607689.217818,0.4749058,-1.5537492,0.26684484,1.2904519,-1.5987859,-0.099418245
433,1778607689.229384,0.4749058,-1.5537492,0.26684484,1.2904519,-1.5987859,-0.099418245
434,1778607689.240578,0.4749058,-1.5537492,0.26684484,1.2904519,-1.5987859,-0.099418245
435,1778607689.252398,0.4749058,-1.5537492,0.26684484,1.2904519,-1.5987859,-0.099418245
436,1778607689.2622411,0.4749058,-1.5537492,0.26684484,1.2904519,-1.5987859,-0.099418245
437,1778607689.273126,0.4749058,-1.5537492,0.26684484,1.2904519,-1.5987859,-0.099418245
438,1778607689.2836459,0.4749058,-1.5537492,0.26684484,1.2904519,-1.5987859,-0.099418245
439,1778607689.294228,0.4749058,-1.5537492,0.26684484,1.2904519,-1.5987859,-0.099418245
440,1778607689.3044548,0.4749058,-1.5537492,0.26684484,1.2904519,-1.5987859,-0.099418245
441,1778607689.315572,0.4749058,-1.5537492,0.26684484,1.2904519,-1.5987859,-0.099418245
442,1778607689.326242,0.4749058,-1.5537492,0.26684484,1.2904519,-1.5987859,-0.099418245
443,1778607689.337121,0.4749058,-1.5537492,0.26684484,1.2904519,-1.5987859,-0.099418245
444,1778607689.3479848,0.4749058,-1.5537492,0.26684484,1.2904519,-1.5987859,-0.099418245
445,1778607689.358699,0.4749058,-1.5537492,0.26684484,1.2904519,-1.5987859,-0.099418245
446,1778607689.369319,0.4749058,-1.5537492,0.26684484,1.2904519,-1.5987859,-0.099418245
447,1778607689.380453,0.4749058,-1.5537492,0.26684484,1.2904519,-1.5987859,-0.099418245
448,1778607689.3948412,0.4749058,-1.5537492,0.26684484,1.2904519,-1.5987859,-0.099418245
449,1778607689.40599,0.4749058,-1.5537492,0.26684484,1.2904519,-1.5987859,-0.099418245
450,1778607689.4269261,0.4749058,-1.5537492,0.26684484,1.2904519,-1.5987859,-0.099418245
451,1778607689.440029,0.4749058,-1.5537492,0.26684484,1.2904519,-1.5987859,-0.099418245
452,1778607689.453048,0.4749058,-1.5537492,0.26684484,1.2904519,-1.5987859,-0.099418245
453,1778607689.472703,0.4749058,-1.5537492,0.26684484,1.2904519,-1.5987859,-0.099418245
454,1778607689.488301,0.4749058,-1.5537492,0.26684484,1.2904519,-1.5987859,-0.099418245
455,1778607689.50401,0.4749058,-1.5537492,0.26684484,1.2904519,-1.5987859,-0.099418245
456,1778607689.5213802,0.4749058,-1.5537492,0.26684484,1.2904519,-1.5987859,-0.099418245
457,1778607689.5252821,0.4749058,-1.5537492,0.26684484,1.2904519,-1.5987859,-0.099418245
458,1778607689.537119,0.4749058,-1.5537492,0.26684484,1.2904519,-1.5987859,-0.099418245
459,1778607689.548108,0.4749058,-1.5537492,0.26684484,1.2904519,-1.5987859,-0.099418245
460,1778607689.558837,0.4749058,-1.5537492,0.26684484,1.2904519,-1.5987859,-0.099418245
461,1778607689.57076,0.4749058,-1.5537492,0.26684484,1.2904519,-1.5987859,-0.099418245
462,1778607689.5816162,0.4749058,-1.5537492,0.26684484,1.2904519,-1.5987859,-0.099418245
463,1778607689.5924969,0.4749058,-1.5537492,0.26684484,1.2904519,-1.5987859,-0.099418245
464,1778607689.604091,0.4749058,-1.5537492,0.26684484,1.2904519,-1.5987859,-0.099418245
465,1778607689.614903,0.4749058,-1.5537492,0.26684484,1.2904519,-1.5987859,-0.099418245
466,1778607689.626018,0.4749058,-1.5537492,0.26684484,1.2904519,-1.5987859,-0.099418245
467,1778607689.6377778,0.4749058,-1.5537492,0.26684484,1.2904519,-1.5987859,-0.099418245
468,1778607689.6474829,0.4749058,-1.5537492,0.26684484,1.2904519,-1.5987859,-0.099418245
469,1778607689.6578581,0.4749058,-1.5537492,0.26684484,1.2904519,-1.5987859,-0.099418245
470,1778607689.669167,0.4749058,-1.5537492,0.26684484,1.2904519,-1.5987859,-0.099418245
471,1778607689.679687,0.4749058,-1.5537492,0.26684484,1.2904519,-1.5987859,-0.099418245
472,1778607689.6918778,0.4749058,-1.5537492,0.26684484,1.2904519,-1.5987859,-0.099418245
473,1778607689.702713,0.4749058,-1.5537492,0.26684484,1.2904519,-1.5987859,-0.099418245
474,1778607689.713164,0.4749058,-1.5537492,0.26684484,1.2904519,-1.5987859,-0.099418245
475,1778607689.7238069,0.4749058,-1.5537492,0.26684484,1.2904519,-1.5987859,-0.099418245
476,1778607689.735277,0.4749058,-1.5537492,0.26684484,1.2904519,-1.5987859,-0.099418245
477,1778607689.745943,0.4749058,-1.5537492,0.26684484,1.2904519,-1.5987859,-0.099418245
478,1778607689.757195,0.4749058,-1.5537492,0.26684484,1.2904519,-1.5987859,-0.099418245
479,1778607689.768511,0.4749058,-1.5537492,0.26684484,1.2904519,-1.5987859,-0.099418245
480,1778607689.780521,0.4749058,-1.5537492,0.26684484,1.2904519,-1.5987859,-0.099418245
481,1778607689.789043,0.4749058,-1.5537492,0.26684484,1.2904519,-1.5987859,-0.099418245
482,1778607689.800164,0.4749058,-1.5537492,0.26684484,1.2904519,-1.5987859,-0.099418245
483,1778607689.82422,0.4749058,-1.5537492,0.26684484,1.2904519,-1.5987859,-0.099418245
484,1778607689.826127,0.4749058,-1.5537492,0.26684484,1.2904519,-1.5987859,-0.099418245
485,1778607689.841001,0.4749058,-1.5537492,0.26684484,1.2904519,-1.5987859,-0.099418245
486,1778607689.862203,0.4749058,-1.5537492,0.26684484,1.2904519,-1.5987859,-0.099418245
487,1778607689.872981,0.4749058,-1.5537492,0.26684484,1.2904519,-1.5987859,-0.099418245
488,1778607689.891808,0.4749058,-1.5537492,0.26684484,1.2904519,-1.5987859,-0.099418245
489,1778607689.907299,0.4749058,-1.5537492,0.26684484,1.2904519,-1.5987859,-0.099418245
490,1778607689.923149,0.4749058,-1.5537492,0.26684484,1.2904519,-1.5987859,-0.099418245
491,1778607689.940385,0.4749058,-1.5537492,0.26684484,1.2904519,-1.5987859,-0.099418245
492,1778607689.944174,0.4749058,-1.5537492,0.26684484,1.2904519,-1.5987859,-0.099418245
493,1778607689.9566982,0.4749058,-1.5537492,0.26684484,1.2904519,-1.5987859,-0.099418245
494,1778607689.9670908,0.4749058,-1.5537492,0.26684484,1.2904519,-1.5987859,-0.099418245
495,1778607689.9774258,0.4749058,-1.5537492,0.26684484,1.2904519,-1.5987859,-0.099418245
496,1778607689.99007,0.4749058,-1.5537492,0.26684484,1.2904519,-1.5987859,-0.099418245
497,1778607690.0008981,0.4749058,-1.5537492,0.26684484,1.2904519,-1.5987859,-0.099418245
498,1778607690.0115469,0.4749058,-1.5537492,0.26684484,1.2904519,-1.5987859,-0.099418245
499,1778607690.024281,0.4749058,-1.5537492,0.26684484,1.2904519,-1.5987859,-0.099418245
500,1778607690.0354502,0.4749058,-1.5537492,0.26684484,1.2904519,-1.5987859,-0.099418245
501,1778607690.045932,0.4749058,-1.5537492,0.26684484,1.2904519,-1.5987859,-0.099418245
502,1778607690.056957,0.4749058,-1.5537492,0.26684484,1.2904519,-1.5987859,-0.099418245
503,1778607690.068671,0.4749058,-1.5537492,0.26684484,1.2904519,-1.5987859,-0.099418245
504,1778607690.0780501,0.4749058,-1.5537492,0.26684484,1.2904519,-1.5987859,-0.099418245
505,1778607690.089076,0.4749058,-1.5537492,0.26684484,1.2904519,-1.5987859,-0.099418245
506,1778607690.099657,0.4749058,-1.5537492,0.26684484,1.2904519,-1.5987859,-0.099418245
507,1778607690.1100302,0.4749058,-1.5537492,0.26684484,1.2904519,-1.5987859,-0.099418245
508,1778607690.121428,0.4749058,-1.5537492,0.26684484,1.2904519,-1.5987859,-0.099418245
509,1778607690.131785,0.4749058,-1.5537492,0.26684484,1.2904519,-1.5987859,-0.099418245
510,1778607690.143779,0.4749058,-1.5537492,0.26684484,1.2904519,-1.5987859,-0.099418245
511,1778607690.153388,0.4749058,-1.5537492,0.26684484,1.2904519,-1.5987859,-0.099418245
512,1778607690.164185,0.4749058,-1.5537492,0.26684484,1.2904519,-1.5987859,-0.099418245
513,1778607690.174927,0.4749058,-1.5537492,0.26684484,1.2904519,-1.5987859,-0.099418245
514,1778607690.185944,0.4749058,-1.5537492,0.26684484,1.2904519,-1.5987859,-0.099418245
515,1778607690.196186,0.4749058,-1.5537492,0.26684484,1.2904519,-1.5987859,-0.099418245
516,1778607690.2067049,0.4749058,-1.5537492,0.26684484,1.2904519,-1.5987859,-0.099418245
517,1778607690.2176828,0.4749058,-1.5537492,0.26684484,1.2904519,-1.5987859,-0.099418245
518,1778607690.2294452,0.4749058,-1.5537492,0.26684484,1.2904519,-1.5987859,-0.099418245
519,1778607690.246552,0.4749058,-1.5537492,0.26684484,1.2904519,-1.5987859,-0.099418245
520,1778607690.257365,0.4749058,-1.5537492,0.26684484,1.2904519,-1.5987859,-0.099418245
521,1778607690.280641,0.4749058,-1.5537492,0.26684484,1.2904519,-1.5987859,-0.099418245
522,1778607690.3019571,0.4749058,-1.5537492,0.26684484,1.2904519,-1.5987859,-0.099418245
523,1778607690.319136,0.4749058,-1.5537492,0.26684484,1.2904519,-1.5987859,-0.099418245
524,1778607690.332277,0.4749058,-1.5537492,0.26684484,1.2904519,-1.5987859,-0.099418245
525,1778607690.34641,0.4749058,-1.5537492,0.26684484,1.2904519,-1.5987859,-0.099418245
526,1778607690.366206,0.4749058,-1.5537492,0.26684484,1.2904519,-1.5987859,-0.099418245
527,1778607690.389413,0.4749058,-1.5537492,0.26684484,1.2904519,-1.5987859,-0.099418245
528,1778607690.39974,0.4749058,-1.5537492,0.26684484,1.2904519,-1.5987859,-0.099418245
529,1778607690.414075,0.4749058,-1.5537492,0.26684484,1.2904519,-1.5987859,-0.099418245
530,1778607690.4302661,0.4749058,-1.5537492,0.26684484,1.2904519,-1.5987859,-0.099418245
531,1778607690.4357078,0.4749058,-1.5537492,0.26684484,1.2904519,-1.5987859,-0.099418245
532,1778607690.4467998,0.4749058,-1.5537492,0.26684484,1.2904519,-1.5987859,-0.099418245
533,1778607690.457846,0.4749058,-1.5537492,0.26684484,1.2904519,-1.5987859,-0.099418245
534,1778607690.4683578,0.4749058,-1.5537492,0.26684484,1.2904519,-1.5987859,-0.099418245
535,1778607690.480834,0.4749058,-1.5537492,0.26684484,1.2904519,-1.5987859,-0.099418245
536,1778607690.4914439,0.4749058,-1.5537492,0.26684484,1.2904519,-1.5987859,-0.099418245
537,1778607690.5018811,0.4749058,-1.5537492,0.26684484,1.2904519,-1.5987859,-0.099418245
538,1778607690.514399,0.4749058,-1.5537492,0.26684484,1.2904519,-1.5987859,-0.099418245
539,1778607690.524395,0.4749058,-1.5537492,0.26684484,1.2904519,-1.5987859,-0.099418245
540,1778607690.534837,0.4749058,-1.5537492,0.26684484,1.2904519,-1.5987859,-0.099418245
541,1778607690.5461829,0.4749058,-1.5537492,0.26684484,1.2904519,-1.5987859,-0.099418245
542,1778607690.55674,0.4749058,-1.5537492,0.26684484,1.2904519,-1.5987859,-0.099418245
543,1778607690.56709,0.4749058,-1.5537492,0.26684484,1.2904519,-1.5987859,-0.099418245
544,1778607690.578412,0.4749058,-1.5537492,0.26684484,1.2904519,-1.5987859,-0.099418245
545,1778607690.5888,0.4749058,-1.5537492,0.26684484,1.2904519,-1.5987859,-0.099418245
546,1778607690.6001742,0.4749058,-1.5537492,0.26684484,1.2904519,-1.5987859,-0.099418245
547,1778607690.6095219,0.4749058,-1.5537492,0.26684484,1.2904519,-1.5987859,-0.099418245
548,1778607690.6202612,0.4749058,-1.5537492,0.26684484,1.2904519,-1.5987859,-0.099418245
549,1778607690.630733,0.4749058,-1.5537492,0.26684484,1.2904519,-1.5987859,-0.099418245
550,1778607690.641821,0.4749058,-1.5537492,0.26684484,1.2904519,-1.5987859,-0.099418245
551,1778607690.653137,0.4749058,-1.5537492,0.26684484,1.2904519,-1.5987859,-0.099418245
552,1778607690.663341,0.4749058,-1.5537492,0.26684484,1.2904519,-1.5987859,-0.099418245
553,1778607690.674245,0.4749058,-1.5537492,0.26684484,1.2904519,-1.5987859,-0.099418245
554,1778607690.68539,0.4749058,-1.5537492,0.26684484,1.2904519,-1.5987859,-0.099418245
555,1778607690.696917,0.4749058,-1.5537492,0.26684484,1.2904519,-1.5987859,-0.099418245
556,1778607690.70618,0.4749058,-1.5537492,0.26684484,1.2904519,-1.5987859,-0.099418245
557,1778607690.716761,0.4749058,-1.5537492,0.26684484,1.2904519,-1.5987859,-0.099418245
558,1778607690.7276359,0.4749058,-1.5537492,0.26684484,1.2904519,-1.5987859,-0.099418245
559,1778607690.749344,0.4749058,-1.5537492,0.26684484,1.2904519,-1.5987859,-0.099418245
560,1778607690.749537,0.4749058,-1.5537492,0.26684484,1.2904519,-1.5987859,-0.099418245
561,1778607690.766099,0.4749058,-1.5537492,0.26684484,1.2904519,-1.5987859,-0.099418245
562,1778607690.782475,0.4749058,-1.5537492,0.26684484,1.2904519,-1.5987859,-0.099418245
563,1778607690.798576,0.4749058,-1.5537492,0.26684484,1.2904519,-1.5987859,-0.099418245
564,1778607690.815845,0.4749058,-1.5537492,0.26684484,1.2904519,-1.5987859,-0.099418245
565,1778607690.832417,0.4749058,-1.5537492,0.26684484,1.2904519,-1.5987859,-0.099418245
566,1778607690.8489962,0.4749058,-1.5537492,0.26684484,1.2904519,-1.5987859,-0.099418245
567,1778607690.8536708,0.4749058,-1.5537492,0.26684484,1.2904519,-1.5987859,-0.099418245
568,1778607690.8657222,0.4749058,-1.5537492,0.26684484,1.2904519,-1.5987859,-0.099418245
569,1778607690.876105,0.4749058,-1.5537492,0.26684484,1.2904519,-1.5987859,-0.099418245
570,1778607690.886794,0.4749058,-1.5537492,0.26684484,1.2904519,-1.5987859,-0.099418245
571,1778607690.900764,0.4749058,-1.5537492,0.26684484,1.2904519,-1.5987859,-0.099418245
572,1778607690.911294,0.4749058,-1.5537492,0.26684484,1.2904519,-1.5987859,-0.099418245
573,1778607690.922538,0.4749058,-1.5537492,0.26684484,1.2904519,-1.5987859,-0.099418245
574,1778607690.932836,0.4749058,-1.5537492,0.26684484,1.2904519,-1.5987859,-0.099418245
575,1778607690.944021,0.4749058,-1.5537492,0.26684484,1.2904519,-1.5987859,-0.099418245
576,1778607690.954556,0.4749058,-1.5537492,0.26684484,1.2904519,-1.5987859,-0.099418245
577,1778607690.9660249,0.4749058,-1.5537492,0.26684484,1.2904519,-1.5987859,-0.099418245
578,1778607690.975755,0.4749058,-1.5537492,0.26684484,1.2904519,-1.5987859,-0.099418245
579,1778607690.986233,0.4749058,-1.5537492,0.26684484,1.2904519,-1.5987859,-0.099418245
580,1778607690.9974852,0.4749058,-1.5537492,0.26684484,1.2904519,-1.5987859,-0.099418245
581,1778607691.008214,0.4749058,-1.5537492,0.26684484,1.2904519,-1.5987859,-0.099418245
582,1778607691.01879,0.4749058,-1.5537492,0.26684484,1.2904519,-1.5987859,-0.099418245
583,1778607691.02944,0.4749058,-1.5537492,0.26684484,1.2904519,-1.5987859,-0.099418245
584,1778607691.039755,0.4749058,-1.5537492,0.26684484,1.2904519,-1.5987859,-0.099418245
585,1778607691.050703,0.4749058,-1.5537492,0.26684484,1.2904519,-1.5987859,-0.099418245
586,1778607691.061258,0.4749058,-1.5537492,0.26684484,1.2904519,-1.5987859,-0.099418245
587,1778607691.073142,0.4749058,-1.5537492,0.26684484,1.2904519,-1.5987859,-0.099418245
588,1778607691.0844202,0.4749058,-1.5537492,0.26684484,1.2904519,-1.5987859,-0.099418245
589,1778607691.095715,0.4749058,-1.5537492,0.26684484,1.2904519,-1.5987859,-0.099418245
590,1778607691.106508,0.4749058,-1.5537492,0.26684484,1.2904519,-1.5987859,-0.099418245
591,1778607691.1181939,0.4749058,-1.5537492,0.26684484,1.2904519,-1.5987859,-0.099418245
592,1778607691.142009,0.4749058,-1.5537492,0.26684484,1.2904519,-1.5987859,-0.099418245
593,1778607691.157472,0.4749058,-1.5537492,0.26684484,1.2904519,-1.5987859,-0.099418245
594,1778607691.171714,0.4749058,-1.5537492,0.26684484,1.2904519,-1.5987859,-0.099418245
595,1778607691.186032,0.4749058,-1.5537492,0.26684484,1.2904519,-1.5987859,-0.099418245
596,1778607691.208072,0.4749058,-1.5537492,0.26684484,1.2904519,-1.5987859,-0.099418245
597,1778607691.222628,0.4749058,-1.5537492,0.26684484,1.2904519,-1.5987859,-0.099418245
598,1778607691.245274,0.4749058,-1.5537492,0.26684484,1.2904519,-1.5987859,-0.099418245
599,1778607691.2661078,0.4749058,-1.5537492,0.26684484,1.2904519,-1.5987859,-0.099418245
600,1778607691.282967,0.4749058,-1.5537492,0.26684484,1.2904519,-1.5987859,-0.099418245
601,1778607691.295386,0.4749058,-1.5537492,0.26684484,1.2904519,-1.5987859,-0.099418245
602,1778607691.309977,0.4749058,-1.5537492,0.26684484,1.2904519,-1.5987859,-0.099418245
603,1778607691.330849,0.4749058,-1.5537492,0.26684484,1.2904519,-1.5987859,-0.099418245
604,1778607691.344848,0.4749058,-1.5537492,0.26684484,1.2904519,-1.5987859,-0.099418245
605,1778607691.370108,0.4749058,-1.5537492,0.26684484,1.2904519,-1.5987859,-0.099418245
606,1778607691.389338,0.4749058,-1.5537492,0.26684484,1.2904519,-1.5987859,-0.099418245
607,1778607691.405843,0.4749058,-1.5537492,0.26684484,1.2904519,-1.5987859,-0.099418245
608,1778607691.418211,0.4749058,-1.5537492,0.26684484,1.2904519,-1.5987859,-0.099418245
609,1778607691.432787,0.4749058,-1.5537492,0.26684484,1.2904519,-1.5987859,-0.099418245
610,1778607691.453999,0.4749058,-1.5537492,0.26684484,1.2904519,-1.5987859,-0.099418245
611,1778607691.469671,0.4749058,-1.5537492,0.26684484,1.2904519,-1.5987859,-0.099418245
612,1778607691.4875379,0.4749058,-1.5537492,0.26684484,1.2904519,-1.5987859,-0.099418245
613,1778607691.502652,0.4749058,-1.5537492,0.26684484,1.2904519,-1.5987859,-0.099418245
614,1778607691.521984,0.4749058,-1.5537492,0.26684484,1.2904519,-1.5987859,-0.099418245
615,1778607691.5372758,0.4749058,-1.5537492,0.26684484,1.2904519,-1.5987859,-0.099418245
616,1778607691.5551722,0.4749058,-1.5537492,0.26684484,1.2904519,-1.5987859,-0.099418245
617,1778607691.5712981,0.4749058,-1.5537492,0.26684484,1.2904519,-1.5987859,-0.099418245
618,1778607691.589078,0.4749058,-1.5537492,0.26684484,1.2904519,-1.5987859,-0.099418245
619,1778607691.604457,0.4749058,-1.5537492,0.26684484,1.2904519,-1.5987859,-0.099418245
620,1778607691.615755,0.4749058,-1.5537492,0.26684484,1.2904519,-1.5987859,-0.099418245
621,1778607691.626749,0.4749058,-1.5537492,0.26684484,1.2904519,-1.5987859,-0.099418245
622,1778607691.6382039,0.4749058,-1.5537492,0.26684484,1.2904519,-1.5987859,-0.099418245
623,1778607691.64878,0.4749058,-1.5537492,0.26684484,1.2904519,-1.5987859,-0.099418245
624,1778607691.659511,0.4749058,-1.5537492,0.26684484,1.2904519,-1.5987859,-0.099418245
625,1778607691.6711712,0.4749058,-1.5537492,0.26684484,1.2904519,-1.5987859,-0.099418245
626,1778607691.681775,0.4749058,-1.5537492,0.26684484,1.2904519,-1.5987859,-0.099418245
627,1778607691.692329,0.4749058,-1.5537492,0.26684484,1.2904519,-1.5987859,-0.099418245
628,1778607691.704281,0.4749058,-1.5537492,0.26684484,1.2904519,-1.5987859,-0.099418245
629,1778607691.713561,0.4749058,-1.5537492,0.26684484,1.2904519,-1.5987859,-0.099418245
630,1778607691.723902,0.4749058,-1.5537492,0.26684484,1.2904519,-1.5987859,-0.099418245
631,1778607691.734658,0.4749058,-1.5537492,0.26684484,1.2904519,-1.5987859,-0.099418245
632,1778607691.745353,0.4749058,-1.5537492,0.26684484,1.2904519,-1.5987859,-0.099418245
633,1778607691.756264,0.4749058,-1.5537492,0.26684484,1.2904519,-1.5987859,-0.099418245
634,1778607691.766869,0.4749058,-1.5537492,0.26684484,1.2904519,-1.5987859,-0.099418245
635,1778607691.777801,0.4749058,-1.5537492,0.26684484,1.2904519,-1.5987859,-0.099418245
636,1778607691.7885592,0.4749058,-1.5537492,0.26684484,1.2904519,-1.5987859,-0.099418245
637,1778607691.7988322,0.4749058,-1.5537492,0.26684484,1.2904519,-1.5987859,-0.099418245
638,1778607691.809328,0.4749058,-1.5537492,0.26684484,1.2904519,-1.5987859,-0.099418245
639,1778607691.819778,0.4749058,-1.5537492,0.26684484,1.2904519,-1.5987859,-0.099418245
640,1778607691.831425,0.4749058,-1.5537492,0.26684484,1.2904519,-1.5987859,-0.099418245
641,1778607691.8405912,0.4749058,-1.5537492,0.26684484,1.2904519,-1.5987859,-0.099418245
642,1778607691.851868,0.4749058,-1.5537492,0.26684484,1.2904519,-1.5987859,-0.099418245
643,1778607691.8623831,0.4749058,-1.5537492,0.26684484,1.2904519,-1.5987859,-0.099418245
644,1778607691.8735611,0.4749058,-1.5537492,0.26684484,1.2904519,-1.5987859,-0.099418245
645,1778607691.884713,0.4749058,-1.5537492,0.26684484,1.2904519,-1.5987859,-0.099418245
646,1778607691.8989599,0.4749058,-1.5537492,0.26684484,1.2904519,-1.5987859,-0.099418245
647,1778607691.905826,0.4749058,-1.5537492,0.26684484,1.2904519,-1.5987859,-0.099418245
648,1778607691.925031,0.4749058,-1.5537492,0.26684484,1.2904519,-1.5987859,-0.099418245
649,1778607691.942679,0.4749058,-1.5537492,0.26684484,1.2904519,-1.5987859,-0.099418245
650,1778607691.9569988,0.4749058,-1.5537492,0.26684484,1.2904519,-1.5987859,-0.099418245
651,1778607691.975661,0.4749058,-1.5537492,0.26684484,1.2904519,-1.5987859,-0.099418245
652,1778607691.9920151,0.4749058,-1.5537492,0.26684484,1.2904519,-1.5987859,-0.099418245
653,1778607692.0085828,0.4749058,-1.5537492,0.26684484,1.2904519,-1.5987859,-0.099418245
654,1778607692.023571,0.4749058,-1.5537492,0.26684484,1.2904519,-1.5987859,-0.099418245
655,1778607692.0349529,0.4749058,-1.5537492,0.26684484,1.2904519,-1.5987859,-0.099418245
656,1778607692.045207,0.4749058,-1.5537492,0.26684484,1.2904519,-1.5987859,-0.099418245
657,1778607692.0560782,0.4749058,-1.5537492,0.26684484,1.2904519,-1.5987859,-0.099418245
658,1778607692.067505,0.4749058,-1.5537492,0.26684484,1.2904519,-1.5987859,-0.099418245
659,1778607692.077963,0.4749058,-1.5537492,0.26684484,1.2904519,-1.5987859,-0.099418245
660,1778607692.089149,0.4749058,-1.5537492,0.26684484,1.2904519,-1.5987859,-0.099418245
661,1778607692.100306,0.4749058,-1.5537492,0.26684484,1.2904519,-1.5987859,-0.099418245
662,1778607692.1119418,0.4749058,-1.5537492,0.26684484,1.2904519,-1.5987859,-0.099418245
663,1778607692.1235409,0.4749058,-1.5537492,0.26684484,1.2904519,-1.5987859,-0.099418245
664,1778607692.1333618,0.4749058,-1.5537492,0.26684484,1.2904519,-1.5987859,-0.099418245
665,1778607692.143874,0.4749058,-1.5537492,0.26684484,1.2904519,-1.5987859,-0.099418245
666,1778607692.1546812,0.4749058,-1.5537492,0.26684484,1.2904519,-1.5987859,-0.099418245
667,1778607692.165858,0.4749058,-1.5537492,0.26684484,1.2904519,-1.5987859,-0.099418245
668,1778607692.1761348,0.4749058,-1.5537492,0.26684484,1.2904519,-1.5987859,-0.099418245
669,1778607692.1866949,0.4749058,-1.5537492,0.26684484,1.2904519,-1.5987859,-0.099418245
670,1778607692.1971781,0.4749058,-1.5537492,0.26684484,1.2904519,-1.5987859,-0.099418245
671,1778607692.2085161,0.4749058,-1.5537492,0.26684484,1.2904519,-1.5987859,-0.099418245
672,1778607692.219531,0.4749058,-1.5537492,0.26684484,1.2904519,-1.5987859,-0.099418245
673,1778607692.2300742,0.4749058,-1.5537492,0.26684484,1.2904519,-1.5987859,-0.099418245
674,1778607692.240472,0.4749058,-1.5537492,0.26684484,1.2904519,-1.5987859,-0.099418245
675,1778607692.251144,0.4749058,-1.5537492,0.26684484,1.2904519,-1.5987859,-0.099418245
676,1778607692.262393,0.4749058,-1.5537492,0.26684484,1.2904519,-1.5987859,-0.099418245
677,1778607692.273659,0.4749058,-1.5537492,0.26684484,1.2904519,-1.5987859,-0.099418245
678,1778607692.284232,0.4749058,-1.5537492,0.26684484,1.2904519,-1.5987859,-0.099418245
679,1778607692.294964,0.4749058,-1.5537492,0.26684484,1.2904519,-1.5987859,-0.099418245
680,1778607692.306439,0.4749058,-1.5537492,0.26684484,1.2904519,-1.5987859,-0.099418245
681,1778607692.31668,0.4749058,-1.5537492,0.26684484,1.2904519,-1.5987859,-0.099418245
682,1778607692.3283908,0.4749058,-1.5537492,0.26684484,1.2904519,-1.5987859,-0.099418245
683,1778607692.34513,0.4749058,-1.5537492,0.26684484,1.2904519,-1.5987859,-0.099418245
684,1778607692.35902,0.4749058,-1.5537492,0.26684484,1.2904519,-1.5987859,-0.099418245
685,1778607692.3813288,0.4749058,-1.5537492,0.26684484,1.2904519,-1.5987859,-0.099418245
686,1778607692.393875,0.4749058,-1.5537492,0.26684484,1.2904519,-1.5987859,-0.099418245
687,1778607692.419519,0.4749058,-1.5537492,0.26684484,1.2904519,-1.5987859,-0.099418245
688,1778607692.431253,0.4749058,-1.5537492,0.26684484,1.2904519,-1.5987859,-0.099418245
689,1778607692.446754,0.4749058,-1.5537492,0.26684484,1.2904519,-1.5987859,-0.099418245
690,1778607692.4624798,0.4749058,-1.5537492,0.26684484,1.2904519,-1.5987859,-0.099418245
691,1778607692.480741,0.4749058,-1.5537492,0.26684484,1.2904519,-1.5987859,-0.099418245
692,1778607692.497099,0.4749058,-1.5537492,0.26684484,1.2904519,-1.5987859,-0.099418245
693,1778607692.512149,0.4749058,-1.5537492,0.26684484,1.2904519,-1.5987859,-0.099418245
694,1778607692.5190358,0.4749058,-1.5537492,0.26684484,1.2904519,-1.5987859,-0.099418245
695,1778607692.529587,0.4749058,-1.5537492,0.26684484,1.2904519,-1.5987859,-0.099418245
696,1778607692.540895,0.4749058,-1.5537492,0.26684484,1.2904519,-1.5987859,-0.099418245
697,1778607692.551293,0.4749058,-1.5537492,0.26684484,1.2904519,-1.5987859,-0.099418245
698,1778607692.56186,0.4749058,-1.5537492,0.26684484,1.2904519,-1.5987859,-0.099418245
699,1778607692.572583,0.4749058,-1.5537492,0.26684484,1.2904519,-1.5987859,-0.099418245
700,1778607692.583157,0.4749058,-1.5537492,0.26684484,1.2904519,-1.5987859,-0.099418245
701,1778607692.598159,0.4749058,-1.5537492,0.26684484,1.2904519,-1.5987859,-0.099418245
702,1778607692.60942,0.4749058,-1.5537492,0.26684484,1.2904519,-1.5987859,-0.099418245
703,1778607692.62024,0.4749058,-1.5537492,0.26684484,1.2904519,-1.5987859,-0.099418245
704,1778607692.6311228,0.4749058,-1.5537492,0.26684484,1.2904519,-1.5987859,-0.099418245
705,1778607692.642386,0.4749058,-1.5537492,0.26684484,1.2904519,-1.5987859,-0.099418245
706,1778607692.6534872,0.4749058,-1.5537492,0.26684484,1.2904519,-1.5987859,-0.099418245
707,1778607692.6638012,0.4749058,-1.5537492,0.26684484,1.2904519,-1.5987859,-0.099418245
708,1778607692.674981,0.4749058,-1.5537492,0.26684484,1.2904519,-1.5987859,-0.099418245
709,1778607692.686118,0.4749058,-1.5537492,0.26684484,1.2904519,-1.5987859,-0.099418245
710,1778607692.696449,0.4749058,-1.5537492,0.26684484,1.2904519,-1.5987859,-0.099418245
711,1778607692.707785,0.4749058,-1.5537492,0.26684484,1.2904519,-1.5987859,-0.099418245
712,1778607692.718326,0.4749058,-1.5537492,0.26684484,1.2904519,-1.5987859,-0.099418245
713,1778607692.729302,0.4749058,-1.5537492,0.26684484,1.2904519,-1.5987859,-0.099418245
714,1778607692.7398772,0.4749058,-1.5537492,0.26684484,1.2904519,-1.5987859,-0.099418245
715,1778607692.750249,0.4749058,-1.5537492,0.26684484,1.2904519,-1.5987859,-0.099418245
716,1778607692.761128,0.4749058,-1.5537492,0.26684484,1.2904519,-1.5987859,-0.099418245
717,1778607692.772484,0.4749058,-1.5537492,0.26684484,1.2904519,-1.5987859,-0.099418245
718,1778607692.7835362,0.4749058,-1.5537492,0.26684484,1.2904519,-1.5987859,-0.099418245
719,1778607692.794059,0.4749058,-1.5537492,0.26684484,1.2904519,-1.5987859,-0.099418245
720,1778607692.804846,0.4749058,-1.5537492,0.26684484,1.2904519,-1.5987859,-0.099418245
721,1778607692.8161511,0.4749058,-1.5537492,0.26684484,1.2904519,-1.5987859,-0.099418245
722,1778607692.8266711,0.4749058,-1.5537492,0.26684484,1.2904519,-1.5987859,-0.099418245
723,1778607692.8372202,0.4749058,-1.5537492,0.26684484,1.2904519,-1.5987859,-0.099418245
724,1778607692.847937,0.4749058,-1.5537492,0.26684484,1.2904519,-1.5987859,-0.099418245
725,1778607692.859107,0.4749058,-1.5537492,0.26684484,1.2904519,-1.5987859,-0.099418245
726,1778607692.870486,0.4749058,-1.5537492,0.26684484,1.2904519,-1.5987859,-0.099418245
727,1778607692.881842,0.4749058,-1.5537492,0.26684484,1.2904519,-1.5987859,-0.099418245
728,1778607692.900289,0.4749058,-1.5537492,0.26684484,1.2904519,-1.5987859,-0.099418245
729,1778607692.912914,0.4749058,-1.5537492,0.26684484,1.2904519,-1.5987859,-0.099418245
730,1778607692.936668,0.4749058,-1.5537492,0.26684484,1.2904519,-1.5987859,-0.099418245
731,1778607692.9487948,0.4749058,-1.5537492,0.26684484,1.2904519,-1.5987859,-0.099418245
732,1778607692.9673119,0.4749058,-1.5537492,0.26684484,1.2904519,-1.5987859,-0.099418245
733,1778607692.982551,0.4749058,-1.5537492,0.26684484,1.2904519,-1.5987859,-0.099418245
734,1778607692.999369,0.4749058,-1.5537492,0.26684484,1.2904519,-1.5987859,-0.099418245
735,1778607693.0157251,0.4749058,-1.5537492,0.26684484,1.2904519,-1.5987859,-0.099418245
736,1778607693.034347,0.4749058,-1.5537492,0.26684484,1.2904519,-1.5987859,-0.099418245
737,1778607693.036844,0.4749058,-1.5537492,0.26684484,1.2904519,-1.5987859,-0.099418245
738,1778607693.049572,0.4749058,-1.5537492,0.26684484,1.2904519,-1.5987859,-0.099418245
739,1778607693.0609112,0.4749058,-1.5537492,0.26684484,1.2904519,-1.5987859,-0.099418245
740,1778607693.071455,0.4749058,-1.5537492,0.26684484,1.2904519,-1.5987859,-0.099418245
741,1778607693.0842822,0.4749058,-1.5537492,0.26684484,1.2904519,-1.5987859,-0.099418245
742,1778607693.095653,0.4749058,-1.5537492,0.26684484,1.2904519,-1.5987859,-0.099418245
743,1778607693.1070132,0.4749058,-1.5537492,0.26684484,1.2904519,-1.5987859,-0.099418245
744,1778607693.118818,0.4749058,-1.5537492,0.26684484,1.2904519,-1.5987859,-0.099418245
745,1778607693.130154,0.4749058,-1.5537492,0.26684484,1.2904519,-1.5987859,-0.099418245
746,1778607693.140882,0.4749058,-1.5537492,0.26684484,1.2904519,-1.5987859,-0.099418245
747,1778607693.152587,0.4749058,-1.5537492,0.26684484,1.2904519,-1.5987859,-0.099418245
748,1778607693.162892,0.4749058,-1.5537492,0.26684484,1.2904519,-1.5987859,-0.099418245
749,1778607693.1745589,0.4749058,-1.5537492,0.26684484,1.2904519,-1.5987859,-0.099418245
750,1778607693.183775,0.4749058,-1.5537492,0.26684484,1.2904519,-1.5987859,-0.099418245
751,1778607693.194889,0.4749058,-1.5537492,0.26684484,1.2904519,-1.5987859,-0.099418245
752,1778607693.2056162,0.4749058,-1.5537492,0.26684484,1.2904519,-1.5987859,-0.099418245
753,1778607693.215921,0.4749058,-1.5537492,0.26684484,1.2904519,-1.5987859,-0.099418245
754,1778607693.226568,0.4749058,-1.5537492,0.26684484,1.2904519,-1.5987859,-0.099418245
755,1778607693.236937,0.4749058,-1.5537492,0.26684484,1.2904519,-1.5987859,-0.099418245
756,1778607693.247919,0.4749058,-1.5537492,0.26684484,1.2904519,-1.5987859,-0.099418245
757,1778607693.2590568,0.4749058,-1.5537492,0.26684484,1.2904519,-1.5987859,-0.099418245
758,1778607693.269692,0.4749058,-1.5537492,0.26684484,1.2904519,-1.5987859,-0.099418245
759,1778607693.2804291,0.4749058,-1.5537492,0.26684484,1.2904519,-1.5987859,-0.099418245
760,1778607693.2908092,0.4749058,-1.5537492,0.26684484,1.2904519,-1.5987859,-0.099418245
761,1778607693.3020449,0.4749058,-1.5537492,0.26684484,1.2904519,-1.5987859,-0.099418245
762,1778607693.312584,0.4749058,-1.5537492,0.26684484,1.2904519,-1.5987859,-0.099418245
763,1778607693.323219,0.4749058,-1.5537492,0.26684484,1.2904519,-1.5987859,-0.099418245
764,1778607693.3345459,0.4749058,-1.5537492,0.26684484,1.2904519,-1.5987859,-0.099418245
765,1778607693.3447502,0.4749058,-1.5537492,0.26684484,1.2904519,-1.5987859,-0.099418245
766,1778607693.356114,0.4749058,-1.5537492,0.26684484,1.2904519,-1.5987859,-0.099418245
767,1778607693.367423,0.4749058,-1.5537492,0.26684484,1.2904519,-1.5987859,-0.099418245
768,1778607693.378208,0.4749058,-1.5537492,0.26684484,1.2904519,-1.5987859,-0.099418245
769,1778607693.3896651,0.4749058,-1.5537492,0.26684484,1.2904519,-1.5987859,-0.099418245
770,1778607693.400173,0.4749058,-1.5537492,0.26684484,1.2904519,-1.5987859,-0.099418245
771,1778607693.411818,0.4749058,-1.5537492,0.26684484,1.2904519,-1.5987859,-0.099418245
772,1778607693.422127,0.4749058,-1.5537492,0.26684484,1.2904519,-1.5987859,-0.099418245
773,1778607693.440542,0.4749058,-1.5537492,0.26684484,1.2904519,-1.5987859,-0.099418245
774,1778607693.4632168,0.4749058,-1.5537492,0.26684484,1.2904519,-1.5987859,-0.099418245
775,1778607693.473547,0.4749058,-1.5537492,0.26684484,1.2904519,-1.5987859,-0.099418245
776,1778607693.4970949,0.4749058,-1.5537492,0.26684484,1.2904519,-1.5987859,-0.099418245
777,1778607693.5139341,0.4749058,-1.5537492,0.26684484,1.2904519,-1.5987859,-0.099418245
778,1778607693.526904,0.4749058,-1.5537492,0.26684484,1.2904519,-1.5987859,-0.099418245
779,1778607693.540881,0.4749058,-1.5537492,0.26684484,1.2904519,-1.5987859,-0.099418245
780,1778607693.56071,0.4749058,-1.5537492,0.26684484,1.2904519,-1.5987859,-0.099418245
781,1778607693.577461,0.4749058,-1.5537492,0.26684484,1.2904519,-1.5987859,-0.099418245
782,1778607693.59251,0.4749058,-1.5537492,0.26684484,1.2904519,-1.5987859,-0.099418245
783,1778607693.6028512,0.4749058,-1.5537492,0.26684484,1.2904519,-1.5987859,-0.099418245
784,1778607693.61333,0.4749058,-1.5537492,0.26684484,1.2904519,-1.5987859,-0.099418245
785,1778607693.6281118,0.4749058,-1.5537492,0.26684484,1.2904519,-1.5987859,-0.099418245
786,1778607693.644522,0.4749058,-1.5537492,0.26684484,1.2904519,-1.5987859,-0.099418245
787,1778607693.660512,0.4749058,-1.5537492,0.26684484,1.2904519,-1.5987859,-0.099418245
788,1778607693.670849,0.4749058,-1.5537492,0.26684484,1.2904519,-1.5987859,-0.099418245
789,1778607693.6816158,0.4749058,-1.5537492,0.26684484,1.2904519,-1.5987859,-0.099418245
790,1778607693.692377,0.4749058,-1.5537492,0.26684484,1.2904519,-1.5987859,-0.099418245
791,1778607693.704756,0.4749058,-1.5537492,0.26684484,1.2904519,-1.5987859,-0.099418245
792,1778607693.713571,0.4749058,-1.5537492,0.26684484,1.2904519,-1.5987859,-0.099418245
793,1778607693.725918,0.4749058,-1.5537492,0.26684484,1.2904519,-1.5987859,-0.099418245
794,1778607693.735357,0.4749058,-1.5537492,0.26684484,1.2904519,-1.5987859,-0.099418245
795,1778607693.745732,0.4749058,-1.5537492,0.26684484,1.2904519,-1.5987859,-0.099418245
796,1778607693.7570271,0.4749058,-1.5537492,0.26684484,1.2904519,-1.5987859,-0.099418245
797,1778607693.768358,0.4749058,-1.5537492,0.26684484,1.2904519,-1.5987859,-0.099418245
798,1778607693.778757,0.4749058,-1.5537492,0.26684484,1.2904519,-1.5987859,-0.099418245
799,1778607693.789365,0.4749058,-1.5537492,0.26684484,1.2904519,-1.5987859,-0.099418245
800,1778607693.800566,0.4749058,-1.5537492,0.26684484,1.2904519,-1.5987859,-0.099418245
801,1778607693.811499,0.4749058,-1.5537492,0.26684484,1.2904519,-1.5987859,-0.099418245
802,1778607693.8228118,0.4749058,-1.5537492,0.26684484,1.2904519,-1.5987859,-0.099418245
803,1778607693.833628,0.4749058,-1.5537492,0.26684484,1.2904519,-1.5987859,-0.099418245
804,1778607693.844336,0.4749058,-1.5537492,0.26684484,1.2904519,-1.5987859,-0.099418245
805,1778607693.855705,0.4749058,-1.5537492,0.26684484,1.2904519,-1.5987859,-0.099418245
806,1778607693.866615,0.4749058,-1.5537492,0.26684484,1.2904519,-1.5987859,-0.099418245
807,1778607693.877192,0.4749058,-1.5537492,0.26684484,1.2904519,-1.5987859,-0.099418245
808,1778607693.887915,0.4749058,-1.5537492,0.26684484,1.2904519,-1.5987859,-0.099418245
809,1778607693.898804,0.4749058,-1.5537492,0.26684484,1.2904519,-1.5987859,-0.099418245
810,1778607693.909439,0.4749058,-1.5537492,0.26684484,1.2904519,-1.5987859,-0.099418245
811,1778607693.920413,0.4749058,-1.5537492,0.26684484,1.2904519,-1.5987859,-0.099418245
812,1778607693.932095,0.4749058,-1.5537492,0.26684484,1.2904519,-1.5987859,-0.099418245
813,1778607693.9412181,0.4749058,-1.5537492,0.26684484,1.2904519,-1.5987859,-0.099418245
814,1778607693.951694,0.4749058,-1.5537492,0.26684484,1.2904519,-1.5987859,-0.099418245
815,1778607693.962982,0.4749058,-1.5537492,0.26684484,1.2904519,-1.5987859,-0.099418245
816,1778607693.981122,0.4749058,-1.5537492,0.26684484,1.2904519,-1.5987859,-0.099418245
817,1778607693.993451,0.4749058,-1.5537492,0.26684484,1.2904519,-1.5987859,-0.099418245
818,1778607694.0170062,0.4749058,-1.5537492,0.26684484,1.2904519,-1.5987859,-0.099418245
819,1778607694.028159,0.4749058,-1.5537492,0.26684484,1.2904519,-1.5987859,-0.099418245
820,1778607694.04078,0.4749058,-1.5537492,0.26684484,1.2904519,-1.5987859,-0.099418245
821,1778607694.0541198,0.4749058,-1.5537492,0.26684484,1.2904519,-1.5987859,-0.099418245
