id,timestamp,acc_x,acc_y,acc_z,gyro_x,gyro_y,gyro_z
1,1778609078.630058,0.56369144,-0.8159013,0.19610901,0.45494154,-0.40301803,-0.0004581486
2,1778609078.648719,0.59857154,-0.8200479,0.18196183,0.4659371,-0.3810269,-0.004123337
3,1778609078.6629891,0.5980837,-0.8229748,0.16952209,0.4977021,-0.30405796,-0.061544627
4,1778609078.6734579,0.55393475,-0.82760924,0.14171559,0.5050325,-0.28451028,-0.098196514
5,1778609078.685429,0.51807904,-0.83078015,0.11927526,0.4903717,-0.28939718,-0.08842268
6,1778609078.699463,0.49076036,-0.8227309,0.105615914,0.4647154,-0.29672757,-0.05299252
7,1778609078.7167182,0.49344343,-0.82931674,0.085614756,0.39507678,-0.30039275,0.03375028
8,1778609078.732414,0.5653988,-0.84200037,0.09415183,0.26923865,-0.21731515,0.2243401
9,1778609078.7493749,0.6132065,-0.83907336,0.075126335,0.24602579,-0.08659008,0.23411393
10,1778609078.753331,0.629305,-0.82370657,0.045856334,0.19226968,0.13209951,0.20601414
11,1778609078.763953,0.6166213,-0.7995589,0.027318668,0.1226311,0.2848157,0.1632536
12,1778609078.7741911,0.56003267,-0.7549221,0.016342416,-0.022754714,0.49861836,0.09850194
13,1778609078.7876348,0.56003267,-0.7549221,0.016342416,-0.113162704,0.59391326,0.08261946
14,1778609078.798025,0.46319774,-0.7056509,0.059027832,-0.2451095,0.65866494,0.07895427
15,1778609078.8084202,0.43197644,-0.6707708,0.10951859,-0.3110829,0.6195696,0.09850194
16,1778609078.819668,0.40904826,-0.64564747,0.14610608,-0.3281871,0.5572614,0.12171481
17,1778609078.831133,0.46002686,-0.5417389,0.22440335,-0.24877468,0.310472,0.22311836
18,1778609078.842381,0.46002686,-0.5417389,0.22440335,-0.24877468,0.310472,0.22311836
19,1778609078.8537788,0.93615216,-0.52149385,0.05195425,-0.07651082,0.5352703,0.11682789
20,1778609078.864782,0.9712762,-0.43270817,-0.0160985,-0.07651082,0.5352703,0.11682789
21,1778609078.875482,1.1305537,-0.13000758,-0.38246134,0.05421425,2.0526583,-0.020005822
22,1778609078.887743,1.3922764,0.09000525,-0.83882946,-0.29275694,2.9176428,-0.045662142
23,1778609078.896716,1.3922764,0.09000525,-0.83882946,-0.29275694,2.9176428,-0.045662142
24,1778609078.908087,2.2808647,0.32636052,-1.5888731,-3.2187994,3.486969,-1.021824
25,1778609078.918628,2.7472334,-0.13122717,-1.050793,-4.7630653,3.4515388,-1.7731878
26,1778609078.929846,3.0994492,-0.87444127,0.6715026,-5.288409,3.2010841,-2.291201
27,1778609078.941115,3.500936,-1.0110346,2.3137934,-4.444194,2.2676828,-2.232558
28,1778609078.9515781,5.5566654,-1.5539931,2.8652892,0.05421425,0.7221949,-3.1122034
29,1778609078.962574,5.5566654,-1.5539931,2.8652892,0.05421425,0.7221949,-3.1122034
30,1778609078.973323,5.1822534,-2.0981712,1.2627566,2.1311545,-0.15012002,-5.846434
31,1778609079.034299,3.3865392,-2.5079513,1.6400958,0.39752024,1.480889,-6.718749
32,1778609079.045307,3.3865392,-2.5079513,1.6400958,0.39752024,1.480889,-6.718749
33,1778609079.0559978,2.9782226,-2.306964,1.5744821,2.1433718,1.2707515,-7.076716
34,1778609079.066412,2.9782226,-2.306964,1.5744821,2.580751,1.0410663,-7.2770796
35,1778609079.076923,2.2842798,-2.263059,0.81760865,2.969261,0.7857248,-7.617942
36,1778609079.0872772,2.201592,-2.254034,0.7505316,2.9802566,0.7796162,-7.681472
37,1778609079.097594,2.201592,-2.254034,0.7505316,2.9802566,0.7796162,-7.681472
38,1778609079.1080909,1.5283818,-2.259644,0.33172667,2.7383542,1.4381284,-7.586177
39,1778609079.118656,1.4481333,-2.274279,0.28172377,2.6369505,1.7179044,-7.468891
40,1778609079.128854,1.4337422,-2.3603816,0.22952558,2.5196645,2.0196717,-7.283188
41,1778609079.1467578,1.4495968,-2.4464843,0.21732976,2.4781258,2.0343325,-7.1622367
42,1778609079.149653,1.419595,-2.5177078,0.21562232,2.4830127,1.882838,-7.0144076
43,1778609079.163748,1.361055,-2.5511243,0.20537783,2.535547,1.5749621,-6.845809
44,1778609079.18101,1.4217902,-2.5355139,0.020976834,2.5318818,0.9408845,-6.5098333
45,1778609079.1969652,1.4217902,-2.5355139,0.020976834,2.4597998,0.70875585,-6.430421
46,1778609079.201637,1.3561767,-2.4594119,-0.0012195833,2.2924228,0.38011062,-6.3558955
47,1778609079.213249,1.2661715,-2.345259,0.002927,2.1299329,0.20173809,-6.2923656
48,1778609079.2237399,1.2098267,-2.2052505,-0.0017074167,1.7890702,0.09789108,-6.1457577
49,1778609079.234241,1.2098267,-2.2052505,-0.0017074167,1.7890702,0.09789108,-6.1457577
50,1778609079.246998,1.2300718,-2.1413445,0.032197,1.5862631,0.25671592,-6.0309153
51,1778609079.257832,1.2856847,-2.1213434,0.054637335,1.5410591,0.37766716,-5.962498
52,1778609079.268655,1.3176379,-2.1081717,0.05390558,1.5520546,0.4167625,-5.941729
53,1778609079.278883,1.3566645,-2.0852437,0.0043905,1.5948153,0.41920596,-5.973494
54,1778609079.2892532,1.3620307,-2.0684133,-0.022440333,1.5923718,0.37888888,-6.0077024
55,1778609079.3000488,1.4037405,-2.0303624,-0.12366576,1.5007421,0.16508621,-6.193405
56,1778609079.310722,1.396423,-1.99036,-0.16415593,1.3797908,-0.03405571,-6.370556
57,1778609079.321267,1.3393465,-1.9154776,-0.17683959,1.2759438,-0.24541493,-6.5269375
58,1778609079.331907,1.1988504,-1.8276677,-0.1419595,1.0841323,-0.67790717,-6.737075
59,1778609079.3420649,0.9342008,-1.5405777,0.09707884,1.0010546,-1.0236566,-6.8678
60,1778609079.3530428,0.98103285,-1.4595973,0.21879324,1.0865757,-1.4524838,-6.9863076
61,1778609079.364062,1.0388411,-1.8115691,-0.08171208,1.3529128,-1.5477786,-8.060208
62,1778609079.373875,0.56686234,-2.0764627,-0.36075276,1.3077087,-1.1189516,-9.26239
63,1778609079.384605,-1.0900636,-2.5930781,-0.37002158,1.0157154,-1.0590868,-10.702809
64,1778609079.395265,-1.0900636,-2.5930781,-0.37002158,1.0157154,-1.0590868,-10.702809
65,1778609079.405727,-4.531728,-2.9760275,0.7456533,1.5899283,-5.29238,-8.836006
66,1778609079.416359,-5.523737,-2.3472102,1.0544518,2.115272,-7.1225305,-7.042507
67,1778609079.427644,-5.406901,-1.8101057,0.7127245,2.4255912,-7.9044375,-5.170818
68,1778609079.4379961,-5.12225,-1.9027939,0.25586858,1.8672609,-6.3565063,-4.1470084
69,1778609079.4486358,-5.5539827,-2.0296307,0.15708233,0.54534954,-2.5434883,-3.2197156
70,1778609079.459326,-6.1828,-2.1164649,0.63418335,-0.3733911,-0.2197586,-1.9637775
71,1778609079.4699929,-6.1828,-2.1164649,0.63418335,-0.3733911,-0.2197586,-1.9637775
72,1778609079.480567,-6.131089,-1.9808472,1.5413094,0.30711228,0.57680905,2.0874777
73,1778609079.491744,-4.669541,-2.0159714,0.7293108,1.2747221,0.04535671,4.417316
74,1778609079.501943,-3.946328,-2.1084158,0.2853825,1.2392919,-0.03649917,5.3409433
75,1778609079.512667,-3.946328,-2.1084158,0.2853825,1.2392919,-0.03649917,5.3409433
76,1778609079.523107,-2.6386905,-2.3264773,0.3902667,0.71028304,-0.047494736,6.6921763
77,1778609079.53356,-2.344527,-2.3645282,0.5719846,0.73960453,-0.06093376,6.9572916
78,1778609079.546117,-1.5757017,-2.511366,1.0756725,1.5630503,-0.29917103,7.6622295
79,1778609079.554944,-1.0956737,-2.7182074,1.1944599,2.6320636,-0.7182243,8.15703
80,1778609079.566163,-0.5836926,-3.023591,1.0639645,3.900219,-1.184925,8.723912
81,1778609079.5766249,0.007073583,-3.3540983,0.7327257,5.139053,-1.4475968,9.3042345
82,1778609079.587305,0.8180965,-3.7009475,0.1387886,6.369334,-1.3755147,9.906547
83,1778609079.597729,1.3010515,-3.8616886,-0.24977067,6.8384786,-1.1311688,10.180214
84,1778609079.608308,1.8686457,-4.0246253,-0.7036996,7.0156293,-0.88682294,10.26207
85,1778609079.618634,2.5225863,-3.9875495,-1.2915388,6.6454453,-0.5532908,10.034828
86,1778609079.629743,2.6747901,-3.1816492,-1.3800805,5.685166,-0.15867212,9.522923
87,1778609079.640194,2.6747901,-3.1816492,-1.3800805,4.7884164,0.28603745,9.087988
88,1778609079.6507678,2.274767,-2.7064993,-1.0854292,2.9277222,1.4821106,8.618844
89,1778609079.661587,2.274767,-2.7064993,-1.0854292,2.9277222,1.4821106,8.618844
90,1778609079.672512,2.3528202,-2.6323485,-0.7163833,0.86910784,2.4814854,8.16436
91,1778609079.682652,2.3528202,-2.6323485,-0.7163833,0.86910784,2.4814854,8.16436
92,1778609079.693923,2.0476804,-2.4023352,-0.13708118,-0.5383246,3.6946628,7.4716396
93,1778609079.7046568,1.9045013,-2.3730652,0.00512225,-1.1711805,4.050186,7.135664
94,1778609079.725801,1.7815673,-2.371114,0.10122541,-1.1711805,4.050186,7.135664
95,1778609079.733719,1.4542311,-2.4050183,0.28806558,-2.2731805,3.7032151,6.7117243
96,1778609079.745386,1.3456882,-2.4991703,0.37270468,-2.5505133,3.4845254,6.782584
97,1778609079.756669,1.3303216,-2.5972247,0.47319835,-2.8278458,3.4356563,6.9084225
98,1778609079.7674198,1.2951975,-2.6513743,0.58052164,-2.9158103,3.567603,6.9548483
99,1778609079.781491,1.2339745,-2.6860104,0.6329638,-2.9878924,3.9170177,7.0122695
100,1778609079.793067,1.1134796,-2.6399102,0.70467526,-3.0086617,4.403266,7.096569
101,1778609079.8038259,0.8717582,-2.2320817,0.5173473,-2.9378014,4.9469357,7.285937
102,1778609079.814195,0.8717582,-2.2320817,0.5173473,-2.957349,5.57857,7.6390166
103,1778609079.8274329,1.571799,-2.2057383,0.152204,-3.6952739,5.789929,7.9077973
104,1778609079.8353019,2.2794013,-2.3081834,0.0307335,-4.4857326,5.297572,7.383675
105,1778609079.847397,2.6564965,-2.3537958,0.23074517,-5.3666,4.532769,6.359866
106,1778609079.856962,2.763332,-2.3406246,0.85224485,-6.120407,3.4295475,5.085602
107,1778609079.867902,2.716744,-2.3376973,1.1305537,-6.2523537,3.0104942,4.711753
108,1778609079.878549,2.5733209,-2.1820786,1.9049891,-5.9860168,2.388634,4.0984445
109,1778609079.8889751,2.5155125,-2.0952442,2.0457292,-5.419134,2.7209444,3.933511
110,1778609079.8992262,2.464778,-1.9271855,1.9320639,-5.124697,3.0728025,3.879755
111,1778609079.9101682,2.7011333,-1.8303508,1.8891346,-5.092932,3.0361507,3.774686
112,1778609079.9210398,3.8294916,-1.8103495,2.895047,-5.229766,2.2017093,3.4607017
113,1778609079.931617,3.8294916,-1.8103495,2.895047,-5.1014843,0.8174898,2.8791585
114,1778609079.9421928,4.0938973,-0.96712965,4.0863357,-2.90848,-1.3388629,1.9433136
115,1778609079.952399,4.7829623,-1.012742,4.0131607,-2.0092869,-1.9179627,1.8089234
116,1778609079.962522,4.7829623,-1.012742,4.0131607,-2.0092869,-1.9179627,1.8089234
117,1778609079.973563,5.9503474,-0.9183462,4.150486,0.066431545,-3.881282,0.47112945
118,1778609079.9860742,6.4079347,-1.1083573,3.9304733,0.5013673,-3.6955793,-0.19837834
119,1778609079.996196,5.8037534,-1.5503343,3.202382,1.2942698,-2.002262,-2.4646866
120,1778609080.004828,4.996633,-2.0206058,2.736257,1.4482076,-0.64614224,-3.4640615
121,1778609080.015401,4.996633,-2.0206058,2.736257,1.4482076,-0.64614224,-3.4640615
122,1778609080.0263832,3.4141018,-2.5301476,2.4064817,1.7463096,1.2218822,-4.0138397
123,1778609080.036639,3.199699,-2.5640519,2.3450148,1.9234605,1.3623812,-3.900219
124,1778609080.0469089,3.0257862,-2.5091708,2.0825605,2.5196645,1.0435097,-3.560578
125,1778609080.057784,3.0574956,-2.379895,1.8501079,2.8409793,0.5083922,-3.5373652
126,1778609080.068193,3.0784721,-2.2020798,1.5869218,2.8409793,0.5083922,-3.5373652
127,1778609080.079486,3.0057852,-1.987189,1.2795869,2.8031058,-0.1244637,-4.099361
128,1778609080.089953,2.8782167,-1.9149898,1.0968933,2.6406157,0.11866048,-4.243525
129,1778609080.1003551,2.5250254,-1.6864399,0.94298184,2.016312,1.2719731,-4.46588
130,1778609080.112257,2.1932988,-1.5052098,0.9378596,1.4763075,3.0227118,-4.396241
131,1778609080.132071,1.7935193,-1.3073933,1.2449507,0.9460768,5.464949,-4.016283
132,1778609080.134781,1.7935193,-1.3073933,1.2449507,0.9460768,5.464949,-4.016283
133,1778609080.147752,1.8727922,-1.5064293,1.5639937,1.5972587,6.6976743,-3.7401724
134,1778609080.164702,1.9927992,-1.7037579,1.6015568,2.5233297,6.6060443,-3.7927067
135,1778609080.168159,2.0759747,-1.9010866,1.5513101,3.1891723,6.3018336,-3.900219
136,1778609080.1804469,2.107928,-2.3789194,1.334712,4.3412633,5.6262174,-4.1189084
137,1778609080.1919339,2.0425582,-2.6638138,1.1495793,4.7774205,5.4001975,-4.186104
138,1778609080.202107,1.9240146,-2.9791982,0.8961498,5.7377,5.0471177,-4.2105384
139,1778609080.2145522,1.8596207,-3.105547,0.7607761,6.059015,4.986031,-4.151895
140,1778609080.225301,1.6740001,-3.298973,0.17440042,7.0473943,4.9212794,-3.222159
141,1778609080.236289,1.7491266,-3.3111687,0.13952033,7.1133676,4.792998,-3.0340126
142,1778609080.246965,2.0886586,-3.3858073,0.071467586,7.2685275,4.141816,-2.7982187
143,1778609080.258346,2.2228124,-3.4248338,0.06317442,7.363822,3.5395033,-2.9093962
144,1778609080.270731,2.2874506,-3.4594703,0.10171325,7.363822,3.5395033,-2.9093962
145,1778609080.2813911,2.318672,-3.4331272,0.17927876,7.671698,2.1064146,-3.3797622
146,1778609080.29188,2.327209,-3.3780022,0.17781526,7.929483,1.5603013,-3.677864
147,1778609080.3039901,2.3396487,-3.2792158,-0.2736745,8.150616,1.2524256,-4.478097
148,1778609080.3163788,2.3396487,-3.2792158,-0.2736745,8.150616,1.2524256,-4.478097
149,1778609080.3256261,2.0442657,-3.047007,-0.74345803,7.9099355,1.1546872,-4.89715
150,1778609080.337597,2.003044,-2.9450498,-0.75272685,7.2770796,0.85414165,-5.2978773
151,1778609080.348299,2.1752489,-2.8062613,-0.4417331,6.2178397,-0.32971427,-5.896525
152,1778609080.359502,2.157443,-2.7043042,-0.143423,6.0614586,-1.0932952,-6.407208
153,1778609080.3711932,2.010849,-2.7462578,-0.09000525,6.0932236,-1.5832088,-6.8116
154,1778609080.381993,1.6413152,-2.6938157,-0.22123243,6.059015,-2.119548,-7.2465363
155,1778609080.393198,0.8971255,-2.204275,-0.7149198,5.2160215,-2.404211,-7.512873
156,1778609080.4049568,0.82565796,-2.0947564,-0.71784675,4.9643455,-2.3700027,-7.5434165
157,1778609080.415259,0.82565796,-2.0947564,-0.71784675,4.9643455,-2.3700027,-7.5434165
158,1778609080.426353,1.1495793,-1.8627917,-0.872246,4.9643455,-2.3700027,-7.5434165
159,1778609080.437829,0.755166,-2.2428138,-1.5315528,3.9234319,-2.3736677,-9.3808975
160,1778609080.4481332,-1.8984034,-2.5621006,-2.0267036,3.2368197,-2.4652975,-10.140814
161,1778609080.458475,-3.0835946,-2.9557822,-1.9352349,0.7017309,-2.4750714,-9.672891
162,1778609080.4698062,-4.1621943,-2.7157683,-1.4827695,-0.24266604,-2.164752,-8.110299
163,1778609080.479295,-4.637344,-2.207202,-1.1156749,-0.8657481,-1.406058,-5.990598
164,1778609080.48965,-4.6888103,-2.1003664,-0.98030114,-1.0477858,-1.1507165,-5.323534
165,1778609080.499848,-4.8895535,-2.0503635,-0.60515726,-1.394757,-0.46899143,-4.0407176
166,1778609080.51053,-4.922726,-2.1235385,-0.5073467,-1.3972005,-0.44944376,-3.890445
167,1778609080.520958,-5.2873816,-2.4681928,0.26904008,-0.7643446,-0.93935734,-2.932609
168,1778609080.531281,-5.5891066,-2.4611194,0.75906867,0.6467531,-2.1781912,-1.6717842
169,1778609080.54162,-5.0624905,-2.4057503,0.5617401,2.8165448,-3.7261224,0.39171705
170,1778609080.5519629,-5.0624905,-2.4057503,0.5617401,2.8165448,-3.7261224,0.39171705
171,1778609080.562337,-4.3224473,-2.4964871,-0.040734082,3.6668684,-3.8837256,1.4741694
172,1778609080.5792708,-3.6392367,-2.5618567,-0.68540585,3.4103053,-3.308291,2.9524622
173,1778609080.597574,-2.854069,-2.6067374,-0.4429527,2.6723807,-2.3700027,4.6641054
174,1778609080.613759,-2.4401424,-2.7416234,-0.20098734,2.639394,-2.1476479,5.7099056
175,1778609080.619621,-2.0820727,-2.8787045,-0.05366167,2.7872233,-2.1000004,6.5907726
176,1778609080.63099,-1.2942219,-3.1604283,0.053173836,3.2771368,-2.142761,8.110604
177,1778609080.642761,-0.72345686,-3.3453171,0.039026666,3.6534295,-2.2429428,8.958485
178,1778609080.653126,0.30684718,-3.6272848,-0.087566085,4.342485,-2.4262023,10.071481
179,1778609080.664094,0.72370076,-3.7177777,-0.17903483,4.6161523,-2.4714062,10.376913
180,1778609080.6762218,1.9176729,-3.79388,-0.47929627,5.41272,-2.6778784,10.687232
181,1778609080.686663,2.8182132,-3.3736117,-0.8241945,5.7767954,-2.874577,9.8308
182,1778609080.698632,2.8696797,-2.8811438,-0.8981012,5.693718,-2.6900957,9.07577
183,1778609080.710389,2.6833274,-2.5638082,-0.88810056,5.3015428,-2.0645702,8.233999
184,1778609080.721322,2.4452646,-2.3772118,-0.8971255,4.752986,-1.4072797,7.7440853
185,1778609080.731664,2.3281846,-2.259888,-0.9000525,3.999179,-0.6327032,7.388562
186,1778609080.744844,2.0559735,-2.095488,-0.5575935,2.3107488,1.0581706,6.9536266
187,1778609080.755658,1.9449916,-2.142564,-0.28050417,1.6216933,1.8706207,6.879101
188,1778609080.765923,1.8069347,-2.1635408,-0.00804925,1.1513274,2.6769621,6.9218616
189,1778609080.778539,1.724003,-2.2776937,0.18537667,0.8752165,3.4222171,7.086795
190,1778609080.786578,1.6166797,-2.27745,0.28904125,0.8752165,3.4222171,7.086795
191,1778609080.79712,1.607167,-2.368187,0.39246193,0.5673407,4.255437,7.620691
192,1778609080.807776,1.7949828,-2.3703823,0.3802661,0.46838057,4.416705,7.83205
193,1778609080.8182342,1.9601145,-2.2979388,0.24855109,0.3205513,4.585304,7.8564844
194,1778609080.829029,2.074999,-2.2118363,0.058052167,-0.010537418,4.751459,7.7172074
195,1778609080.8399842,2.0645108,-2.1301243,-0.076102,-0.3941605,4.9163923,7.553496
196,1778609080.850676,1.8108373,-2.2137878,-0.045612417,-2.2010984,5.375763,7.024487
197,1778609080.8616729,1.8108373,-2.2137878,-0.045612417,-2.2010984,5.375763,7.024487
198,1778609080.87226,1.4337422,-1.9884087,0.415634,-3.092961,5.4319625,7.0941253
199,1778609080.882771,1.4337422,-1.9884087,0.415634,-3.092961,5.4319625,7.0941253
200,1778609080.893644,1.8547423,-1.9508456,0.64003736,-3.680613,4.9884744,7.175981
201,1778609080.9041002,2.5381968,-2.0767064,0.7183346,-3.9591672,3.852266,6.621316
202,1778609080.914782,2.5381968,-2.0767064,0.7183346,-3.9591672,3.852266,6.621316
203,1778609080.9257169,2.6382027,-2.0796335,1.1688486,-4.032471,1.3880374,5.130806
204,1778609080.937543,2.2486677,-1.946455,1.4639878,-3.861429,0.98486674,4.9927506
205,1778609080.9492538,1.7959584,-1.7874215,1.824009,-2.8840454,0.45219266,5.7428927
206,1778609080.960139,2.435752,-1.9403572,1.6552185,-2.2878413,0.58047426,6.462491
207,1778609080.972182,3.9873056,-2.0849998,1.3744705,-1.9701916,-0.38591382,5.7990923
208,1778609080.983526,3.9873056,-2.0849998,1.3744705,-1.9701916,-0.38591382,5.7990923
209,1778609080.9947991,3.8570542,-1.4620365,1.773762,-1.8394666,-2.1183264,4.453968
210,1778609081.017287,3.9977944,-1.3522741,1.5217961,-1.3568834,-1.2374593,4.160753
211,1778609081.020124,3.9977944,-1.3522741,1.5217961,-1.3568834,-1.2374593,4.160753
212,1778609081.030875,4.094385,-1.1451888,1.2576344,-1.7221805,0.06734784,4.0886707
213,1778609081.048537,4.6244164,-0.6073525,2.3459904,-2.7117815,2.262796,3.6341872
214,1778609081.064169,5.0210247,-0.45100194,3.0192006,-2.3257148,1.9793546,3.3544111
215,1778609081.0744529,6.024498,-0.050002918,3.9204726,0.61132294,-0.9955569,1.7649411
216,1778609081.085303,6.024498,-0.050002918,3.9204726,0.61132294,-0.9955569,1.7649411
217,1778609081.0975518,5.836926,-0.18318142,2.5740526,3.5190394,-3.6577055,-0.85689056
218,1778609081.108232,5.3864117,-0.2697718,1.4474015,3.6302166,-3.4695592,-2.1299329
219,1778609081.1187708,5.3864117,-0.2697718,1.4474015,3.6302166,-3.4695592,-2.1299329
220,1778609081.1305358,4.566364,-0.62540233,0.08415125,1.2649482,0.08078687,-3.3968663
221,1778609081.1410959,4.364645,-0.7158954,0.21781757,-0.5090031,2.9408557,-4.265516
222,1778609081.151674,3.787538,-1.0376215,1.010059,-0.5090031,2.9408557,-4.265516
223,1778609081.163521,3.6972888,-1.0898197,1.1464083,-0.5603157,3.0581417,-4.357146
224,1778609081.1740859,2.827482,-1.4022769,1.8486444,0.6137664,1.9781328,-5.1121745
225,1778609081.184727,2.648935,-1.4034966,1.7432724,0.6137664,1.9781328,-5.1121745
226,1778609081.195331,2.4923406,-1.4193511,1.4588655,1.6375757,0.79549867,-5.5153456
227,1778609081.205815,2.4055061,-1.4588655,1.2195834,1.8660392,0.56337005,-5.7670217
228,1778609081.2162418,2.4055061,-1.4588655,1.2195834,1.8660392,0.56337005,-5.7670217
229,1778609081.226985,1.9749933,-1.6337539,0.9176145,1.966221,0.87368935,-6.2911434
230,1778609081.2380009,1.7310767,-1.6569259,0.8966377,1.9955425,1.1253656,-6.3412347
231,1778609081.248968,1.4725249,-1.694733,0.8493178,2.1678064,1.5676317,-6.236166
232,1778609081.2592902,1.3988621,-1.8157157,0.76004434,2.327853,1.7508912,-6.11888
233,1778609081.270017,1.3954473,-1.8862077,0.7144319,2.4878995,1.8229733,-6.011368
234,1778609081.2804108,1.4461819,-1.9998728,0.66296554,2.612516,1.7960951,-5.9551682
235,1778609081.29167,1.52204,-2.1615896,0.6227193,2.7896667,1.6714787,-5.916073
236,1778609081.30209,1.5610667,-2.4069695,0.52686,3.2111635,1.462563,-5.8684254
237,1778609081.312623,1.5610667,-2.4069695,0.52686,3.2111635,1.462563,-5.8684254
238,1778609081.32532,1.5391142,-2.4855108,0.44392833,3.2111635,1.462563,-5.8684254
239,1778609081.335563,1.4678905,-2.5064878,0.34782517,3.6448774,1.5932881,-5.633853
240,1778609081.3467252,1.4181316,-2.4591677,0.30660325,3.7988153,1.6079488,-5.4921327
241,1778609081.3591192,1.4181316,-2.425995,0.25611252,3.8941102,1.5603013,-5.395616
242,1778609081.3712409,1.4803302,-2.3811145,0.15098442,3.9527533,1.345277,-5.3381944
243,1778609081.381553,1.4803302,-2.3811145,0.15098442,3.9527533,1.345277,-5.3381944
244,1778609081.3939,1.498868,-2.3925786,0.0570765,3.8647888,0.8981239,-5.5141234
245,1778609081.4060621,1.4866722,-2.4042866,0.009024917,3.7743807,0.61223924,-5.6277447
246,1778609081.414946,1.4939896,-2.4116042,-0.028294332,3.650986,0.31291547,-5.751139
247,1778609081.4360802,1.4642318,-2.3662357,-0.07366284,3.5043786,0.123547405,-5.9295115
248,1778609081.4470642,1.4798424,-2.172566,-0.149277,3.0926557,0.0001527162,-6.1384273
249,1778609081.464455,1.4298396,-1.8949887,-0.35514265,2.517221,-0.08536835,-6.7114186
250,1778609081.4803379,1.2859286,-1.7557122,-0.47905236,2.0541856,-0.15500695,-7.0522814
251,1778609081.4981902,0.7995589,-1.6339977,-0.4080726,0.9411899,0.0368046,-7.6655893
252,1778609081.504936,0.7995589,-1.6339977,-0.4080726,0.9411899,0.0368046,-7.6655893
253,1778609081.513977,-0.35465485,-0.93932307,0.13049541,0.49525863,0.59757847,-7.620385
254,1778609081.524849,-0.51246893,-1.1564089,0.037075333,0.5685624,0.9274455,-7.391922
255,1778609081.537833,-0.51246893,-1.1564089,0.037075333,0.5685624,0.9274455,-7.391922
256,1778609081.546775,-1.3810562,-1.416668,-0.0629305,0.8300125,1.8168646,-7.161015
257,1778609081.5581691,-1.973042,-1.554237,-0.36514327,1.0144937,2.1051927,-7.1268067
258,1778609081.56867,-2.8779728,-1.3688604,-0.46002686,1.0144937,2.1051927,-7.1268067
259,1778609081.5802538,-3.8709574,-1.2642201,-0.24855109,1.5215114,1.1449133,-7.0596113
260,1778609081.590728,-5.666428,-1.6030204,-0.08073642,3.5324783,-2.4530802,-5.373625
261,1778609081.6012218,-5.666428,-1.6030204,-0.08073642,3.5324783,-2.4530802,-5.373625
262,1778609081.613051,-6.2386565,-1.5442364,-1.0222547,4.3766932,-4.110967,-2.4426956
263,1778609081.622294,-6.0527925,-1.4374009,-1.3225162,3.9747443,-3.4988806,-0.6980657
264,1778609081.632576,-6.0527925,-1.4374009,-1.3225162,3.9747443,-3.4988806,-0.6980657
265,1778609081.6430159,-5.585448,-1.4483773,-1.4554508,3.3382232,-2.4115415,1.0538945
266,1778609081.654149,-4.432942,-1.7032701,-1.4978923,1.8880303,-0.60949033,4.1851873
267,1778609081.665233,-4.432942,-1.7032701,-1.4978923,1.8880303,-0.60949033,4.1851873
268,1778609081.674798,-2.8021147,-2.102074,-1.2698302,0.4243983,0.7331905,6.0727596
269,1778609081.6853561,-2.8021147,-2.102074,-1.2698302,0.4243983,0.7331905,6.0727596
270,1778609081.695874,-1.7540047,-2.4333127,-0.6010107,-0.12782346,0.72952527,7.127112
271,1778609081.70666,-1.1722635,-2.6408858,-0.28708994,0.1763872,-0.2283107,7.4313226
272,1778609081.7180102,-0.79858315,-2.8018708,-0.18757193,0.1763872,-0.2283107,7.4313226
273,1778609081.72872,-0.6097917,-2.9126089,-0.18610841,1.2906046,-2.241721,8.023862
274,1778609081.741764,-0.026343001,-3.2709227,-0.5110054,1.6742276,-2.6791003,8.394046
275,1778609081.753252,0.3934376,-3.368977,-0.7051631,2.0920591,-2.5153885,9.90166
276,1778609081.7643049,0.3934376,-3.368977,-0.7051631,2.0920591,-2.5153885,9.90166
277,1778609081.7750552,1.624485,-3.3389752,-1.0776238,1.284496,-0.6669116,10.66402
278,1778609081.787574,1.624485,-3.3389752,-1.0776238,1.284496,-0.6669116,10.66402
279,1778609081.7979362,2.680888,-2.9457817,-0.9827402,-0.6067414,1.001971,9.708627
280,1778609081.808905,2.725037,-2.7957728,-0.8644407,-1.3324488,1.3733767,8.971924
281,1778609081.819361,2.3920908,-2.5194154,-0.53442144,-3.274999,2.0172281,7.0586953
282,1778609081.830217,2.127929,-2.5577102,-0.3322145,-3.274999,2.0172281,7.0586953
283,1778609081.859614,1.1117722,-2.7121096,0.39099842,-4.7887216,2.9640687,6.1863804
284,1778609081.873066,0.9363961,-2.69284,0.9002964,-4.870578,3.0361507,6.462491
285,1778609081.884247,0.9363961,-2.69284,0.9002964,-4.6763225,2.8223479,6.750819
286,1778609081.8980649,1.4744763,-2.6369832,1.0210352,-3.9127417,1.5273147,6.7178326
287,1778609081.9164941,1.677171,-2.5152688,0.8993208,-3.0098834,-0.4628828,6.0593204
288,1778609081.932765,1.6291195,-2.3845294,0.8149256,-2.6299255,-1.302211,5.8161964
289,1778609081.949068,1.4232538,-2.1376858,0.6434522,-2.0153956,-2.206291,5.6720324
290,1778609081.964074,1.2883679,-2.0218253,0.6507697,-1.4179698,-2.404211,5.959139
291,1778609081.9748008,1.4474015,-1.852791,0.55978876,-1.1662936,-2.5337143,6.048325
292,1778609081.985169,1.4474015,-1.852791,0.55978876,-1.1662936,-2.5337143,6.048325
293,1778609081.9984992,1.9262099,-1.7479068,0.1975725,-1.2053889,-2.1403174,5.664702
294,1778609082.0097768,1.9686514,-1.8025441,0.12366576,-1.2811362,-1.9497277,5.6439323
295,1778609082.020202,2.678205,-2.3618453,0.33392194,-2.1913247,1.4662281,5.984795
296,1778609082.0316129,2.678205,-2.3618453,0.33392194,-2.1913247,1.4662281,5.984795
297,1778609082.04191,3.2531166,-1.9332834,0.8578549,-3.1809256,2.9689555,6.34154
298,1778609082.052703,3.2531166,-1.9332834,0.8578549,-3.1809256,2.9689555,6.34154
299,1778609082.0658891,4.637344,-1.3608111,1.3366634,-3.7074912,2.502255,5.6060586
300,1778609082.077164,5.07054,-0.9117605,1.6471694,-3.744143,2.284787,4.0410233
301,1778609082.088282,4.9683385,-0.94151837,1.6905864,-3.6745043,2.21637,2.9830055
302,1778609082.0999649,4.1819515,-0.9446892,1.7040019,-3.6574001,2.0367758,1.7930409
303,1778609082.110357,3.8041244,-1.1351881,1.7059531,-3.8333292,1.5199842,1.4509566
304,1778609082.121283,3.697045,-0.8122425,2.8401656,-4.019032,0.8162681,1.557247
305,1778609082.1336808,3.697045,-0.8122425,2.8401656,-3.7734644,0.33979353,1.8223623
306,1778609082.143939,4.789304,-0.56417924,3.70046,-3.07097,0.053908817,1.7808236
307,1778609082.154463,4.789304,-0.56417924,3.70046,-2.036165,-0.3260491,1.3361139
308,1778609082.169219,5.333482,-0.5073467,3.4867887,0.89232075,-1.451262,-0.88621205
309,1778609082.177731,5.102493,-0.699797,2.7730887,1.5031855,-1.7029383,-1.8147266
310,1778609082.1885178,4.516361,-0.9346887,2.0886586,1.7817398,-1.7799072,-2.8324273
311,1778609082.201334,3.9302292,-1.2639762,1.595459,1.6033673,-1.320537,-3.3968663
312,1778609082.210005,3.568501,-1.472281,1.4173998,1.3235912,-0.70967215,-3.552026
313,1778609082.2209861,3.146281,-1.6732683,1.40496,0.95096374,0.45952302,-3.4726136
314,1778609082.231439,3.0145662,-1.7396137,1.4791107,0.8703296,1.2023346,-3.3272278
315,1778609082.242338,2.991638,-1.7783965,1.5583836,0.8703296,1.2023346,-3.3272278
316,1778609082.255925,2.8299212,-1.6822933,1.7020506,1.5410591,1.5199842,-3.4762788
317,1778609082.264865,2.7389402,-1.6444862,1.6613165,2.0786202,1.0703878,-3.6937466
318,1778609082.283251,2.6128354,-1.5942394,1.5208205,2.5306602,0.70509064,-4.029722
319,1778609082.298466,2.3025734,-1.5644815,1.2651958,2.9717045,0.57925254,-4.533075
320,1778609082.313023,1.6035082,-1.4025208,0.91419965,3.225824,1.4931062,-4.6149306
321,1778609082.323564,1.4159362,-1.276416,0.7741915,3.2527022,2.157727,-4.4499974
322,1778609082.33412,1.4159362,-1.276416,0.7741915,3.2527022,2.157727,-4.4499974
323,1778609082.3470771,1.3205649,-1.1466522,0.5753994,3.176955,3.3794568,-4.139678
324,1778609082.358248,1.3573962,-1.1349442,0.52442086,3.131751,3.7154324,-4.1176867
325,1778609082.371389,1.4742323,-1.2300718,0.4875894,3.1403031,4.1882415,-4.31072
326,1778609082.381954,1.5444803,-1.3822758,0.46392953,3.1403031,4.1882415,-4.31072
327,1778609082.393216,1.5300893,-1.8057151,0.3673385,3.4041967,4.05996,-4.721221
328,1778609082.4054122,1.5300893,-1.8057151,0.3673385,3.4041967,4.05996,-4.721221
329,1778609082.4158468,1.1622629,-2.005483,0.24855109,3.6436558,4.0025387,-4.6747956
330,1778609082.4266722,0.9856673,-2.0125563,0.25440508,3.6436558,4.0025387,-4.6747956
331,1778609082.4408882,0.9507872,-1.9725542,0.27025968,3.913658,3.9903214,-4.039496
332,1778609082.4514382,0.9822524,-1.9418206,0.28806558,4.096917,3.8901396,-3.714516
333,1778609082.464585,1.0893319,-1.920356,0.20586567,4.454884,3.453982,-3.2930193
334,1778609082.4728189,1.0893319,-1.920356,0.20586567,4.454884,3.453982,-3.2930193
335,1778609082.483168,1.1637264,-1.8764509,0.13732508,4.5721703,3.0581417,-3.2074983
336,1778609082.4944289,1.2532439,-1.8571815,0.098054506,4.6466956,2.4032948,-3.3113453
337,1778609082.507776,1.2561709,-1.8447418,0.08878566,4.6638,2.1296272,-3.4041967
338,1778609082.5181508,1.2115341,-1.8149838,0.0746385,4.690678,1.7460042,-3.5544693
339,1778609082.528954,1.1717757,-1.7671763,0.07805333,4.69923,1.3843724,-3.6632035
340,1778609082.542068,1.1988504,-1.7452238,0.083907336,4.7077823,1.0948224,-3.7426157
341,1778609082.552313,1.3244675,-1.7620541,0.08122425,4.7236648,0.80405074,-3.877006
342,1778609082.563563,1.6188749,-1.7957146,0.03878275,4.7163343,0.050243627,-4.533075
343,1778609082.575593,1.720832,-1.7898606,0.027562585,4.6528044,-0.44944376,-5.0681925
344,1778609082.5875862,1.6752198,-1.7683958,0.037563168,4.567283,-1.0517564,-5.680279
345,1778609082.598055,1.6325343,-1.7605907,0.037807085,4.5208573,-1.3828452,-5.960055
346,1778609082.6088781,1.337639,-1.7071728,-0.04463675,4.2251987,-2.3993242,-6.528159
347,1778609082.6206012,1.1354321,-1.492526,-0.037563168,3.8489063,-2.842812,-6.8250394
348,1778609082.6349099,1.07738,-1.3095887,-0.077077664,3.6021168,-2.6204572,-7.010742
349,1778609082.659161,0.5966202,-1.2073874,-0.45027018,2.7640104,-0.20021093,-8.128625
350,1778609082.673072,-1.2003139,-1.326175,-0.6836984,2.4707954,-0.13179408,-8.983835
351,1778609082.683265,-1.916941,-1.3971547,-0.74662894,2.3315182,-1.6699516,-8.705281
352,1778609082.697124,-3.3775141,-1.1510427,-1.3178818,1.3455824,-2.8440337,-7.2025537
353,1778609082.708458,-3.6165526,-1.0293283,-1.4674027,0.57589275,-1.6711733,-6.650332
354,1778609082.719141,-4.276591,-1.4103262,-1.3956913,-0.40882125,0.504727,-6.0968885
355,1778609082.731415,-5.647403,-1.7283936,-0.29440743,-0.5358811,1.6128358,-4.903259
356,1778609082.742016,-6.1776776,-1.7083925,0.18123008,0.16294818,0.74174255,-3.8623452
357,1778609082.752768,-6.087428,-1.6242411,0.073175006,1.5166246,-1.0884084,-2.120159
358,1778609082.76477,-5.2151823,-1.7205882,-0.5873514,3.3052366,-2.7805037,1.195615
359,1778609082.775049,-4.5595345,-1.7403455,-0.99005777,3.3602145,-2.454302,2.6384778
360,1778609082.785507,-4.5595345,-1.7403455,-0.99005777,3.3602145,-2.454302,2.6384778
361,1778609082.79683,-3.187747,-1.7640054,-1.3193452,2.3974915,-1.2533418,5.2248793
362,1778609082.808258,-2.6028347,-1.8120569,-1.2547073,1.9124649,-0.75487614,5.9432564
363,1778609082.818696,-1.7369306,-1.905721,-0.9712762,1.2673917,-0.18310672,6.698285
364,1778609082.831244,-0.94005483,-2.0076783,-0.42709813,1.071915,-0.18310672,7.1625423
365,1778609082.842557,-0.58637565,-2.0820727,-0.40929216,1.4995203,-0.719446,7.909019
366,1778609082.853153,-0.58637565,-2.0820727,-0.40929216,1.4995203,-0.719446,7.909019
367,1778609082.8659031,0.37660733,-2.3057442,-0.8324875,1.952782,-1.2460114,8.916945
368,1778609082.877166,0.4931995,-2.3318434,-0.89419854,1.9136866,-1.2765547,9.078215
369,1778609082.8879209,0.4931995,-2.3318434,-0.89419854,1.9136866,-1.2765547,9.078215
370,1778609082.8995929,1.5969224,-2.4616072,-1.3391025,0.80313444,-1.0346522,9.281021
371,1778609082.909924,1.770835,-2.3598938,-1.279343,0.25824308,-0.90637064,9.136857
372,1778609082.9204879,1.937674,-2.1232946,-0.9990827,-0.61162835,-0.6998983,8.731243
373,1778609082.932801,1.9630414,-1.9706028,-0.7166272,-1.1711805,-0.5215258,8.282868
374,1778609082.941334,1.738638,-1.8776705,-0.12708059,-1.7893757,-0.19288056,7.398336
375,1778609082.9523551,1.738638,-1.8776705,-0.12708059,-1.7893757,-0.19288056,7.398336
376,1778609082.963012,1.4200828,-1.9045013,0.18903543,-1.8199189,0.0001527162,6.840006
377,1778609082.973572,1.2639762,-1.9337715,0.20684133,-1.7991495,0.16019928,6.811906
378,1778609082.9840379,1.267391,-2.0006044,0.1741565,-1.7991495,0.16019928,6.811906
379,1778609083.0070798,1.3581281,-2.0003607,0.13732508,-1.9934045,0.82848537,6.7984667
380,1778609083.0232792,1.3822758,-1.8666942,0.1741565,-2.337932,1.3293945,6.540682
381,1778609083.034348,1.2993441,-1.7359549,0.32440916,-2.4808745,1.3464987,6.2633495
382,1778609083.049214,1.2425115,-1.6957086,0.3583136,-2.4857614,1.2646428,6.1888237
383,1778609083.0638368,1.2332426,-1.8127887,0.20928052,-2.6128213,1.5346451,6.246245
384,1778609083.0751832,1.3276384,-1.8249846,0.18391317,-2.8706064,1.8584033,6.2218103
385,1778609083.085876,1.3608111,-1.7276617,0.29318783,-3.1418302,2.112523,6.0409946
386,1778609083.0981429,1.3439809,-1.4920382,0.6173531,-3.2468991,2.2065964,5.785653
387,1778609083.109459,1.3673968,-1.3978864,0.7695571,-3.1919212,2.135736,5.5706286
388,1778609083.120137,1.4039844,-1.2903192,0.913224,-2.853502,1.6421572,5.081937
389,1778609083.130389,1.6849765,-1.6235093,0.8537083,-2.3745842,0.7002038,4.5859146
390,1778609083.141139,1.6849765,-1.6235093,0.8537083,-2.3745842,0.7002038,4.5859146
391,1778609083.151454,1.715466,-1.8066907,0.8444395,-2.2145376,0.09789108,4.322021
392,1778609083.162702,1.5283818,-1.8742558,1.0412803,-2.0581563,-0.6534726,4.452746
393,1778609083.174054,1.4637439,-1.8815733,1.1149431,-1.918879,-0.62903804,4.6995354
394,1778609083.184427,1.5525296,-1.9310883,1.0966494,-1.7661628,-0.44333512,5.230988
395,1778609083.195022,2.1030495,-2.0613399,1.0195717,-1.7270675,-0.18555018,5.800314
396,1778609083.205634,2.1030495,-2.0613399,1.0195717,-1.7270675,-0.18555018,5.800314
397,1778609083.216053,3.8231497,-2.2574487,1.0171325,-1.8675663,-0.11957678,5.976243
398,1778609083.226718,3.9848669,-2.0586567,1.2605613,-2.361145,-0.32360563,4.567589
399,1778609083.237279,3.6721654,-1.9574313,1.4317908,-2.361145,-0.32360563,4.567589
400,1778609083.2475572,3.5260594,-1.7818112,1.6566821,-2.7740896,0.2102902,4.367225
401,1778609083.257875,3.8619325,-1.5815557,1.765225,-2.8877106,0.6330086,4.6494446
402,1778609083.268229,5.049319,-1.4444746,1.884744,-3.1528258,1.2450951,4.474737
403,1778609083.279337,5.8127785,-1.373251,2.0825605,-3.4154978,1.2646428,3.486358
404,1778609083.29008,5.6913075,-0.84395164,2.6199088,-3.5388923,0.6159044,2.3868015
405,1778609083.301282,5.5544705,-0.23440392,3.5402064,-3.2554512,-0.7707586,1.8687881
406,1778609083.312096,5.9991307,0.11146992,4.1382904,-2.568839,-1.6125304,1.4411827
407,1778609083.322357,6.686976,0.22635466,4.3012266,-0.8486439,-2.0486877,-0.018784093
408,1778609083.33372,5.862049,-0.30074924,2.8987057,0.87155133,-0.9808961,-3.0132432
409,1778609083.344773,4.8366237,-0.61247474,2.004751,0.7664826,0.17730351,-4.107913
410,1778609083.355721,4.8366237,-0.61247474,2.004751,0.7664826,0.17730351,-4.107913
411,1778609083.366255,2.6360073,-0.94322574,1.296661,-0.59085894,3.0813546,-4.7151127
412,1778609083.377582,2.0679255,-0.8749291,1.5208205,-1.0551162,4.0953903,-4.3864675
413,1778609083.388127,1.893769,-0.7100414,1.9259661,-0.9854776,4.1845765,-3.9771879
414,1778609083.3995142,2.0764627,-0.55466646,2.3633087,-0.41126472,3.581042,-3.863567
415,1778609083.4100428,2.2620833,-0.5458855,2.4652658,0.23869541,3.0227118,-3.9930704
416,1778609083.421195,2.4538019,-0.6656486,2.3818464,1.460425,2.112523,-4.550179
417,1778609083.432302,2.4825838,-0.75858086,2.2737913,1.9454516,1.8168646,-4.844616
418,1778609083.443174,2.3618453,-1.1364079,1.8044956,1.9454516,1.8168646,-4.844616
419,1778609083.453791,2.1242702,-1.3849589,1.539602,3.6851945,1.3599377,-6.0248065
420,1778609083.472843,1.7403455,-1.9035257,0.9756667,4.575835,2.031889,-6.0309153
421,1778609083.494964,1.8125448,-2.3684309,0.39612067,4.9044805,2.1833835,-5.819556
422,1778609083.50262,1.8903543,-2.4959993,0.23513566,4.7871947,2.000124,-5.815891
423,1778609083.51748,1.9825547,-2.5889316,0.07390675,4.585609,1.760665,-5.8940816
424,1778609083.531341,1.9320639,-2.555515,0.05390558,3.7841547,1.3721551,-6.3424563
425,1778609083.541677,1.51643,-2.482096,0.09537142,3.5984516,1.5541927,-6.2911434
426,1778609083.552299,1.51643,-2.482096,0.09537142,3.5984516,1.5541927,-6.2911434
427,1778609083.566388,1.3961791,-2.5111222,0.06097917,3.3479972,2.048993,-5.8305516
428,1778609083.576698,1.4259369,-2.514049,-0.005610083,3.253924,2.1613922,-5.615527
429,1778609083.587339,1.5730187,-2.4923406,-0.073175006,3.0853252,2.2041528,-5.517789
430,1778609083.5975418,1.6198506,-2.4306295,-0.110006414,2.8409793,2.1931572,-5.5422235
431,1778609083.608141,1.5383825,-2.3506248,-0.077809416,2.7041457,2.1296272,-5.5507755
432,1778609083.6187992,1.4737445,-2.2547657,0.03878275,2.56609,1.9011639,-5.4383764
433,1778609083.6290078,1.527894,-2.2637906,0.07122366,2.5624251,1.7276783,-5.344303
434,1778609083.6393542,1.6439984,-2.2840357,0.14903308,2.6674938,1.5505276,-5.1952524
435,1778609083.649621,1.718393,-2.2023237,0.14220342,2.8360925,1.4295763,-5.069414
436,1778609083.663105,1.7342474,-2.084756,0.0570765,2.9533784,1.3428335,-5.037649
437,1778609083.6711428,1.6471694,-1.6379005,-0.3468495,2.9081745,1.0826051,-5.548332
438,1778609083.682454,1.6471694,-1.6379005,-0.3468495,2.9081745,1.0826051,-5.548332
439,1778609083.693708,0.9498116,-1.5056976,-0.6785762,2.386496,0.49739665,-6.438973
440,1778609083.704452,0.9498116,-1.5056976,-0.6785762,2.386496,0.49739665,-6.438973
441,1778609083.7157881,-0.10854292,-1.1288464,-0.573692,2.6638286,0.74174255,-6.7749486
442,1778609083.726764,-0.6678439,-1.1747028,-0.8215113,3.0694427,1.733787,-7.1512413
443,1778609083.737238,-2.1911035,-1.3454443,-1.4298396,3.33578,2.157727,-7.302736
444,1778609083.747985,-2.8230915,-1.4200828,-1.6315585,3.479944,0.55115277,-6.704088
445,1778609083.7589629,-4.2990313,-1.3771535,-2.557954,3.073108,-1.3449715,-6.0040374
446,1778609083.769922,-4.721739,-0.8698068,-2.9609046,1.844048,-3.077384,-5.245343
447,1778609083.7807648,-4.9332147,-0.8149256,-2.7782109,0.7469349,-3.3363907,-4.836064
448,1778609083.791622,-6.028644,-1.2925144,-1.2461703,-1.6757548,-2.2038474,-2.147037
449,1778609083.801964,-6.028644,-1.2925144,-1.2461703,-1.6757548,-2.2038474,-2.147037
450,1778609083.812945,-5.1527395,-1.3422734,0.8454151,-0.39293876,-2.7829473,2.2243114
451,1778609083.8238358,-5.1527395,-1.3422734,0.8454151,-0.39293876,-2.7829473,2.2243114
452,1778609083.834202,-3.7755861,-1.7666885,1.0727456,2.5563164,-2.5251622,4.849808
453,1778609083.850057,-3.620455,-1.8198622,1.003961,2.9252787,-2.5019493,5.1320276
454,1778609083.8666859,-2.602347,-2.2006161,0.201963,4.702895,-2.1281002,6.771589
455,1778609083.880687,-0.47905236,-2.8869977,-1.4737445,4.7419906,-0.7536544,8.6726
456,1778609083.898061,1.001034,-3.005541,-1.6500962,2.9839218,-1.1201733,8.5785265
457,1778609083.9134998,1.3603233,-2.7208905,-1.1042107,1.9625558,-1.916741,8.246217
458,1778609083.931259,1.4188633,-2.6769855,-0.52856743,1.4775292,-2.030362,7.968884
459,1778609083.936646,1.4188633,-2.6769855,-0.52856743,1.4775292,-2.030362,7.968884
460,1778609083.947022,1.3605672,-2.7391844,-0.26367393,1.4530946,-1.9876013,7.949336
461,1778609083.958194,1.3605672,-2.7391844,-0.26367393,1.4530946,-1.9876013,7.949336
462,1778609083.971203,1.2193395,-2.812359,-0.12537317,1.7524183,-1.3535236,8.583414
463,1778609083.9805472,1.3703239,-2.9821253,-0.2180615,1.7475314,-1.1837032,8.769116
464,1778609083.99118,1.9591386,-3.0226152,-0.40319425,1.4579815,-0.90392715,8.991471
465,1778609084.0017211,1.9591386,-3.0226152,-0.40319425,1.0877974,-0.5545125,9.047671
466,1778609084.0145879,2.3689187,-2.8343117,-0.33440974,0.20570871,0.3019199,8.496671
467,1778609084.024842,2.3879442,-2.7969925,-0.3175795,0.021227552,0.5193878,8.310968
468,1778609084.035188,2.2954998,-2.7213783,-0.22708642,-0.55787224,1.2524256,7.7404203
469,1778609084.046633,2.0686574,-2.6599114,-0.10756725,-0.8975131,1.810756,7.4594226
470,1778609084.057151,2.0686574,-2.6599114,-0.10756725,-0.8975131,1.810756,7.4594226
471,1778609084.0675788,1.5152103,-2.5669792,0.04610025,-1.439961,2.9481862,7.5180655
472,1778609084.07837,1.3132474,-2.3957496,0.029513916,-1.6647593,3.3550222,7.7709637
473,1778609084.0887868,1.9479185,-2.0059707,0.079029,-2.113134,3.8107271,8.384272
474,1778609084.099272,1.9479185,-2.0059707,0.079029,-2.5004222,3.9133525,8.419702
475,1778609084.109694,3.0972538,-1.8727922,-0.0687845,-3.5938702,3.7997317,6.887653
476,1778609084.1203241,3.0972538,-1.8727922,-0.0687845,-3.5938702,3.7997317,6.887653
477,1778609084.130996,3.0162735,-1.7264422,0.04317325,-4.078897,3.7826273,5.998234
478,1778609084.141454,2.2642784,-1.8669382,0.6300368,-4.8461432,4.1674724,4.8669124
479,1778609084.1522481,2.2642784,-1.8669382,0.6300368,-4.8461432,4.1674724,4.8669124
480,1778609084.163213,1.9793837,-1.8220576,0.7683375,-4.936551,4.579195,5.1002626
481,1778609084.175345,2.1976893,-1.9379181,0.72516423,-5.2248793,4.931053,5.4997683
482,1778609084.185923,3.355074,-1.7864457,1.1105527,-5.696467,4.9481573,5.4618945
483,1778609084.196749,3.866567,-1.6296073,1.7461994,-6.3134403,3.7435322,4.318356
484,1778609084.208948,3.866567,-1.6296073,1.7461994,-6.3134403,3.7435322,4.318356
485,1778609084.2194638,4.27342,-1.3251992,2.788943,-5.3409433,2.0758712,2.9952228
486,1778609084.229843,4.3453755,-1.2195834,3.0221274,-4.5920234,1.5444189,2.5187483
487,1778609084.2426162,4.2402472,-0.96469045,3.1138403,-2.1766639,-0.285732,1.4668391
488,1778609084.252769,4.439039,-0.81151074,2.9640756,-2.1766639,-0.285732,1.4668391
489,1778609084.263306,5.2676244,-0.7783381,3.023835,-0.87307847,-2.0047054,0.35628688
490,1778609084.276163,5.453489,-0.95590943,3.009444,-0.38438666,-2.3467898,-0.40118545
491,1778609084.284768,5.1795707,-1.3003198,2.7996757,0.34498587,-2.2319472,-1.8697044
492,1778609084.2959528,4.5883164,-1.5908246,2.5894194,0.7811433,-1.5636611,-2.865414
493,1778609084.306446,4.5883164,-1.5908246,2.5894194,0.7811433,-1.5636611,-2.865414
494,1778609084.3180668,4.5883164,-1.5908246,2.5894194,0.7811433,-1.5636611,-2.865414
495,1778609084.334228,2.5240498,-1.7501022,1.5269184,2.2997532,1.7521129,-3.2282677
496,1778609084.3508952,2.6889374,-1.5000875,1.1788493,2.3962698,1.8425208,-3.1244206
497,1778609084.364203,2.7740643,-1.2883679,1.22934,2.421926,1.1033745,-3.746281
498,1778609084.38215,2.5384407,-1.1551894,1.3398343,2.7261367,0.46563166,-4.7114472
499,1778609084.398405,2.2837918,-1.164946,1.2478777,2.94727,0.6647736,-4.9900017
500,1778609084.414586,1.8764509,-1.1381152,1.0210352,3.1500769,1.7484477,-5.128057
501,1778609084.43101,1.7825431,-1.1383591,0.9444453,3.1574073,2.048993,-5.1378307
502,1778609084.4353862,1.7344915,-1.2610493,0.8017541,3.0779948,2.7881396,-5.1952524
503,1778609084.449095,1.7620541,-1.40496,0.78809476,3.0169084,3.1009023,-5.27833
504,1778609084.463725,1.7808355,-1.5225278,0.8154134,3.091434,3.3696828,-5.4725847
505,1778609084.469723,1.78547,-1.5935075,0.837366,3.091434,3.3696828,-5.4725847
506,1778609084.4819,1.6820493,-2.1586626,0.7863874,3.709629,3.517512,-5.8953032
507,1778609084.49316,1.5442364,-2.3633087,0.71248055,4.0260572,3.5199556,-5.968607
508,1778609084.503524,1.5442364,-2.3633087,0.71248055,4.0260572,3.5199556,-5.968607
509,1778609084.51375,1.4047161,-2.5003898,0.6332077,4.3485937,3.486969,-5.919738
510,1778609084.524585,1.3134913,-2.6179576,0.5439342,4.6613564,3.3684611,-5.7755737
511,1778609084.536099,1.2320231,-2.7208905,0.25123417,5.077966,2.827235,-5.3687377
512,1778609084.5476632,1.1029912,-2.6040545,0.06097917,5.032762,2.5938845,-5.183035
513,1778609084.557525,1.1029912,-2.6040545,0.06097917,5.032762,2.5938845,-5.183035
514,1778609084.568005,0.9666417,-2.4472158,-0.012683666,4.8776026,2.3813035,-4.9545717
515,1778609084.578259,0.9151754,-2.265986,-0.05366167,4.556288,2.0917537,-4.492758
516,1778609084.588806,1.0073758,-2.2111046,-0.06488183,4.2093163,1.8474078,-4.0749264
517,1778609084.600428,1.185679,-2.1608577,-0.061223082,4.0370526,1.7362304,-3.9820747
518,1778609084.610462,1.2783673,-2.0654864,-0.037807085,3.8330238,1.6213878,-4.033387
519,1778609084.62171,1.2559268,-1.8925494,0.012927583,3.6790857,1.4735585,-4.193434
520,1778609084.6330361,0.9590804,-1.4866722,0.09146875,3.59723,0.95554525,-4.556288
521,1778609084.6442702,0.70882183,-1.290807,0.08268775,3.6888597,0.5254964,-4.5489573
522,1778609084.655757,0.6546724,-1.1961673,-0.0039026667,3.7975936,0.19440772,-4.463436
523,1778609084.667082,0.63393945,-1.0417681,-0.17513217,3.962527,0.04780017,-4.599048
524,1778609084.678376,0.49344343,-0.90175986,-0.45807552,3.962527,0.04780017,-4.599048
525,1778609084.690848,0.49344343,-0.90175986,-0.45807552,4.1237955,0.33612835,-4.966789
526,1778609084.70211,-1.4037405,-0.9246881,-1.8271798,4.125017,2.3214388,-6.330239
527,1778609084.71296,-2.938952,-1.212022,-2.4301417,3.5056002,0.50106186,-5.390729
528,1778609084.7250319,-2.938952,-1.212022,-2.4301417,3.5056002,0.50106186,-5.390729
529,1778609084.736575,-3.7424135,-0.6224753,-2.8484588,1.8147266,-1.8593197,-2.6503897
530,1778609084.749963,-3.627529,-0.42197582,-2.5164883,0.77747816,-1.8018984,-1.1537708
531,1778609084.768521,-2.8794363,-0.30196884,-1.6940012,-0.5933024,-0.5752819,2.1827726
532,1778609084.78076,-2.523562,-0.35465485,-1.5296015,-0.8034399,-0.4641045,3.1320565
533,1778609084.798866,-1.37008,-0.54612947,-1.2478777,-1.2029455,-0.45433068,5.0452847
534,1778609084.8129501,-0.14171559,-0.7032117,-1.0268891,-1.6305509,-0.506865,5.7160144
535,1778609084.830843,0.4246589,-0.7832164,-0.8239506,-2.0044,-0.6950114,5.4851074
536,1778609084.836514,0.4246589,-0.7832164,-0.8239506,-2.0044,-0.6950114,5.4851074
537,1778609084.8472168,0.6105234,-0.8200479,-0.725896,-2.2023203,-0.8623884,5.2322097
538,1778609084.865847,0.83297545,-0.83639026,-0.48905292,-2.5529566,-1.0468695,4.52605
539,1778609084.869677,0.83297545,-0.83639026,-0.48905292,-2.5529566,-1.0468695,4.52605
540,1778609084.879843,0.8351707,-0.8344389,-0.4024625,-2.5529566,-1.0468695,4.52605
541,1778609084.8912508,0.77955765,-0.8378538,-0.26245433,-2.7557638,-1.158047,3.8589854
542,1778609084.903927,0.67833227,-0.8480983,-0.11829959,-2.7740896,-1.2741113,3.6390743
543,1778609084.913962,0.6261341,-0.8602941,-0.064394,-2.749655,-1.5111268,3.4484844
544,1778609084.925097,0.6302807,-0.88053924,-0.04463675,-2.749655,-1.5111268,3.4484844
545,1778609084.9383218,0.6507697,-0.9581047,-0.020976834,-2.6922338,-1.5111268,3.4778059
546,1778609084.946862,0.6495501,-0.9817646,-0.014635001,-2.6702425,-1.4634793,3.496132
547,1778609084.9583511,0.61125517,-1.0588423,-0.03390442,-2.6262605,-1.2582288,3.585318
548,1778609084.9689999,0.54490983,-1.1042107,-0.08268775,-2.6787949,-1.0810779,3.7319257
549,1778609084.980372,0.54490983,-1.1042107,-0.08268775,-2.7753115,-1.0077741,3.8821983
550,1778609084.991222,0.4622221,-1.220559,-0.1885476,-3.0367615,-0.8953751,4.2242827
551,1778609085.001878,0.47783276,-1.2456825,-0.19927992,-3.1687083,-0.8306234,4.362338
552,1778609085.012587,0.61345047,-1.4339862,-0.18171792,-3.6366308,-0.6693551,4.737409
553,1778609085.0231822,0.7005287,-1.5159422,-0.069760166,-3.9054112,-0.67668545,4.9585423
554,1778609085.034816,0.90615046,-1.7218078,0.36050883,-3.8944156,-0.97356576,5.4008083
555,1778609085.04586,0.95347023,-1.7801039,0.3931937,-3.6916087,-1.1739293,5.722123
556,1778609085.0566819,0.95347023,-1.7801039,0.3931937,-3.6916087,-1.1739293,5.722123
557,1778609085.06755,1.3652016,-1.8444978,0.2309891,-3.4313803,-1.3315325,6.7288284
558,1778609085.078099,1.7581513,-1.9618217,0.17903483,-3.4558148,-1.2716677,7.053808
559,1778609085.088733,2.6077132,-2.163297,0.12512925,-3.5486662,-1.1116211,7.2602806
560,1778609085.1000268,3.2626295,-2.253302,0.108055085,-3.7820165,-1.2655591,6.914531
561,1778609085.110652,3.949011,-2.0330455,0.24781933,-4.340347,-2.1061091,5.9835734
562,1778609085.139492,4.4858713,-2.0657303,0.5305188,-4.995194,-1.8153374,4.809491
563,1778609085.1621308,4.418794,-1.9747493,1.1264071,-5.524203,-0.6950114,3.9347327
564,1778609085.172866,4.41416,-1.7852261,1.7632736,-5.459451,-0.64247704,3.7282605
565,1778609085.183383,4.862723,-1.6222898,2.169395,-4.6860967,-0.6168207,2.9915576
566,1778609085.194724,4.844917,-1.4315469,2.2547657,-4.2474957,-0.66446817,2.248746
567,1778609085.205607,4.8493075,-1.2964171,2.3791633,-4.027584,-0.7707586,1.7637193
568,1778609085.2200708,4.7754006,-1.1483598,2.5889316,-3.7404778,-1.0236566,1.0538945
569,1778609085.230363,4.7754006,-1.1483598,2.5889316,-3.7404778,-1.0236566,1.0538945
570,1778609085.243514,4.451967,-0.84565914,3.2065287,-2.9304712,-1.4329361,-0.3572032
571,1778609085.252073,3.5702085,-0.46807608,3.5731354,-2.600604,-1.2973241,-0.70783955
572,1778609085.2629929,3.123353,-0.33123884,3.5336208,-0.37094763,0.2933678,-2.002873
573,1778609085.273386,3.123353,-0.33123884,3.5336208,-0.37094763,0.2933678,-2.002873
574,1778609085.284616,2.611372,-0.3568501,3.181405,1.5972587,1.1021528,-2.7126977
575,1778609085.2959511,2.5550272,-0.41319484,3.0233471,2.3070836,1.2218822,-2.9998043
576,1778609085.3068988,2.4306295,-0.55954486,2.4333127,3.47017,1.286634,-3.6302166
577,1778609085.318306,2.3479419,-0.6705269,2.043046,4.0407176,1.295186,-4.067596
578,1778609085.328435,2.3135495,-0.8734656,1.6881473,4.382802,1.2976295,-4.3864675
579,1778609085.3389099,2.2637906,-1.1246997,1.3471518,4.844616,1.4002548,-4.816516
580,1778609085.349408,2.2337887,-1.3259311,1.0942101,4.9875584,1.4906628,-4.9472413
581,1778609085.360115,2.1872008,-1.6188749,0.70809007,5.2392344,1.8632903,-5.1622653
582,1778609085.372287,2.142808,-1.774006,0.3902667,5.3284206,2.405738,-5.268556
583,1778609085.383094,2.0969517,-1.8945009,-0.090737,5.130501,3.1790931,-5.3162036
584,1778609085.400984,2.1218312,-1.9747493,-0.29148042,4.853168,3.6641197,-5.3601856
585,1778609085.4191658,2.2118363,-2.1823225,-0.42856157,4.3779154,4.4044876,-5.4823585
586,1778609085.430376,2.08378,-2.4691684,-0.383437,4.2691813,4.6439466,-5.526341
587,1778609085.449344,2.0445094,-2.4955115,-0.327824,4.1812167,4.9127274,-5.4738064
588,1778609085.4635851,1.9918234,-2.5745404,-0.18098617,4.5526223,4.1344857,-5.3516335
589,1778609085.4808698,2.0906098,-2.6230798,-0.32879966,4.709004,3.6201375,-5.3626294
590,1778609085.497372,2.1557355,-2.6118598,-0.39173016,4.6980085,2.8247914,-5.4383764
591,1778609085.507976,2.2979388,-2.564296,-0.46490517,4.442667,2.4081817,-5.5862055
592,1778609085.521086,2.3662357,-2.4520943,-0.5392997,4.0382743,2.301891,-5.887973
593,1778609085.530514,2.4098969,-2.3459904,-0.56686234,3.7633853,2.428951,-6.1420927
594,1778609085.540868,2.3281846,-2.2606196,-0.54637337,3.3736534,2.79547,-6.667436
595,1778609085.5515058,2.1628091,-2.2315936,-0.49759,3.1989462,2.9591818,-6.9435472
596,1778609085.56357,1.7100997,-2.192079,-0.28708994,3.2294893,2.6061018,-7.2343187
597,1778609085.574802,1.1976309,-1.9498698,-0.046832,3.2294893,2.6061018,-7.2343187
598,1778609085.585387,0.59832764,-1.6876595,0.10122541,3.9429793,2.1210752,-7.2990704
599,1778609085.596989,0.34001982,-1.5266744,0.051466417,4.228864,2.189492,-7.4542303
600,1778609085.6079721,-0.7010165,-1.3569084,-0.69808954,4.969232,2.433838,-8.115186
601,1778609085.618458,-1.3647138,-1.6837567,-1.4542311,5.047423,2.1723878,-8.452383
602,1778609085.6304572,-2.4313614,-1.8986473,-2.3025734,4.6650214,1.6653701,-8.628312
603,1778609085.6399958,-3.834858,-1.8786461,-3.196284,3.5825691,0.7356339,-8.082199
604,1778609085.6504982,-4.566364,-1.7825431,-3.4592261,2.219119,-0.11835505,-7.2221017
605,1778609085.661317,-4.9856567,-1.7762011,-2.617226,0.21914774,-0.64369875,-5.4921327
606,1778609085.67242,-5.127128,-1.7625419,-1.4954531,-0.43692103,-0.74632406,-4.004066
607,1778609085.6826081,-5.100054,-1.6922939,-0.5041757,-0.042302385,-1.1018473,-2.2655447
608,1778609085.6929321,-4.7946696,-1.7318083,-0.14464259,0.9827287,-1.7151556,-0.3999637
609,1778609085.70324,-3.620943,-1.9559679,-0.72052985,2.8666358,-2.4750714,3.097848
610,1778609085.714298,-3.0187128,-2.0823166,-1.2169002,3.1415248,-2.2881467,4.5834713
611,1778609085.7247732,-3.0187128,-2.0823166,-1.2169002,3.1415248,-2.2881467,4.5834713
612,1778609085.7351592,-1.653755,-2.435264,-1.8679138,1.9576689,-1.0798562,7.5119567
613,1778609085.746526,-1.653755,-2.435264,-1.8679138,1.9576689,-1.0798562,7.5119567
614,1778609085.757913,-0.4846624,-2.7399158,-1.5569202,0.09697478,-0.34070984,9.443511
615,1778609085.769823,-0.002927,-2.8555326,-1.3012954,-0.69104075,-0.56550807,10.048267
616,1778609085.779354,-0.002927,-2.8555326,-1.3012954,-0.69104075,-0.56550807,10.048267
617,1778609085.792032,1.100796,-2.9150481,-0.7373601,-1.4362959,-1.3804017,10.427004
618,1778609085.803972,1.6193627,-2.8065052,-0.3758756,-1.4362959,-1.9497277,10.335374
619,1778609085.813066,1.7508337,-2.7821136,-0.4844185,-1.4350741,-1.8177809,10.3683605
620,1778609085.8256798,1.7508337,-2.7821136,-0.4844185,-1.4350741,-1.8177809,10.3683605
621,1778609085.837416,1.919868,-2.8160179,-0.7102853,-2.243859,-0.6656899,10.405012
622,1778609085.851323,2.0593886,-2.8294334,-0.6866255,-2.5395176,-0.34681848,10.369582
623,1778609085.8679738,2.5718572,-2.7599173,-0.26099083,-3.6977172,0.4338667,9.317673
624,1778609085.880974,2.502585,-2.6482034,-0.03585575,-3.8834202,0.3507891,8.550427
625,1778609085.8985548,2.112806,-2.526001,0.20562175,-3.7783513,-0.68890274,7.434988
626,1778609085.914208,1.6161919,-2.2559853,0.23635526,-3.3006551,-2.2087343,7.1613207
627,1778609085.925573,1.6161919,-2.2559853,0.23635526,-3.3006551,-2.2087343,7.1613207
628,1778609085.9357069,1.60424,-2.1862252,0.17049775,-3.1711519,-2.4103198,7.235846
629,1778609085.9471412,1.8101057,-2.1069522,-0.045612417,-3.2530077,-2.2026258,7.24562
630,1778609085.9584231,2.5891755,-2.0469487,-0.13098325,-4.0178103,-0.85872316,6.3513136
631,1778609085.969409,2.5518563,-1.9042575,0.036587503,-4.475959,-0.2234238,5.69891
632,1778609085.980396,2.5518563,-1.9042575,0.036587503,-4.475959,-0.2234238,5.69891
633,1778609085.990676,2.426971,-1.7398577,0.21050009,-4.8571386,0.12843432,5.162571
634,1778609086.002958,2.2130558,-1.5617985,0.45075798,-5.0892673,0.46074477,4.798496
635,1778609086.014003,1.7879093,-1.7742498,1.115431,-4.9206686,3.7032151,4.494285
636,1778609086.02462,1.7879093,-1.7742498,1.115431,-4.9206686,3.7032151,4.494285
637,1778609086.037251,1.9430403,-1.7979097,1.4369131,-4.4600763,4.949379,5.2370963
638,1778609086.048131,2.5345383,-1.9586508,1.589605,-4.2193956,4.4472485,5.3812604
639,1778609086.0594392,3.8146126,-1.9835303,1.8727922,-3.536449,1.8889467,4.827817
640,1778609086.0712671,3.9363272,-1.9059649,1.9235268,-3.242012,0.8382592,4.4674067
641,1778609086.082535,4.4419665,-1.0888441,1.8059591,-1.6623157,-1.6711733,2.6348126
642,1778609086.093767,4.4419665,-1.0888441,1.8059591,-1.5132648,-1.6161954,2.012952
643,1778609086.104513,4.326838,-0.92907864,1.58058,-1.6781982,-1.0456477,1.4876084
644,1778609086.11478,4.1434126,-0.75833696,1.7079045,-1.9567527,-0.9760092,1.5633557
645,1778609086.125399,4.1434126,-0.75833696,1.7079045,-1.9567527,-0.9760092,1.5633557
646,1778609086.1380491,5.715455,-1.2073874,2.3486736,-1.9579743,-0.7157808,0.6201805
647,1778609086.1467469,5.7381396,-1.3452004,2.4638023,-1.6500984,0.20173809,-0.768926
648,1778609086.157831,5.1239576,-1.5471635,2.7428432,-1.1247548,1.0691661,-2.1091633
649,1778609086.168797,4.311959,-1.720832,2.8723626,-0.24999641,1.6678135,-3.1085382
650,1778609086.179206,3.6753361,-1.8181548,2.8526053,-0.24999641,1.6678135,-3.1085382
651,1778609086.189954,2.8260186,-1.8945009,2.5969808,1.8819216,1.480889,-3.650986
652,1778609086.2014132,2.5560029,-1.8840125,2.3557472,2.5734205,1.0496184,-3.4836092
653,1778609086.211749,2.4767299,-1.7744938,1.8869393,3.5190394,0.27870706,-3.1708465
654,1778609086.222202,2.5452704,-1.627412,1.5493587,3.8318021,0.057574004,-3.2026112
655,1778609086.232517,2.605274,-1.3254431,1.10665,3.949088,0.19929464,-3.7120726
656,1778609086.243018,2.605274,-1.3254431,1.10665,3.949088,0.19929464,-3.7120726
657,1778609086.254693,2.2850113,-1.1322612,0.91444355,3.8562367,0.82359844,-4.654026
658,1778609086.266793,2.233301,-1.1242119,0.9020039,3.8537931,0.9824233,-4.8323984
659,1778609086.2847848,2.233301,-1.1242119,0.9020039,3.9063275,1.5163192,-5.219687
660,1778609086.297833,1.7015628,-1.1522623,0.69125986,3.9832964,1.941481,-5.3577423
661,1778609086.315119,1.7466872,-1.3827636,0.47466183,4.1152434,2.713614,-5.5422235
662,1778609086.331073,1.9513334,-1.9208438,0.19001108,4.171443,3.0728025,-5.740144
663,1778609086.3418849,1.9513334,-1.9208438,0.19001108,4.186104,3.287827,-5.9612765
664,1778609086.352,1.8664504,-2.0832922,0.09707884,4.1812167,3.4307692,-6.089558
665,1778609086.3637052,1.4822817,-2.2442772,0.009268833,4.0785913,3.604255,-5.918516
666,1778609086.3751402,1.4822817,-2.2442772,0.009268833,4.0785913,3.604255,-5.918516
667,1778609086.3856692,1.2878801,-2.1962256,0.14098383,4.1470084,3.5333946,-5.202583
668,1778609086.396779,1.3659334,-2.1925669,0.15635058,4.234973,3.4600909,-5.0144362
669,1778609086.40784,1.5264305,-2.2242763,0.15439926,4.3986845,3.2743878,-4.867829
670,1778609086.420403,1.6379005,-2.2389112,0.1595215,4.541627,3.0288203,-4.899594
671,1778609086.4318871,1.6988796,-2.2140315,0.18708408,4.702895,2.651306,-5.0315404
672,1778609086.443176,1.7261983,-2.1745172,0.16879034,4.8812675,2.1003058,-5.2221303
673,1778609086.454697,1.6671704,-2.1735415,-0.22684251,4.970454,1.6861395,-5.3711815
674,1778609086.464946,1.6354613,-2.1403687,-0.27611366,4.7652035,1.1681262,-5.644849
675,1778609086.4763808,1.6354613,-2.1403687,-0.27611366,4.7652035,1.1681262,-5.644849
676,1778609086.488204,1.4876478,-1.9530407,-0.29343176,3.9283187,0.7502947,-5.687609
677,1778609086.4991639,1.4981362,-1.8666942,-0.25123417,3.7902632,0.6036871,-5.707157
678,1778609086.5104709,1.5513101,-1.7247348,-0.20220692,3.4286313,0.030695954,-5.953946
679,1778609086.522673,1.5432608,-1.7042459,-0.199036,3.3101234,-0.18799363,-6.0993323
680,1778609086.5335732,1.1376274,-1.4974045,-0.12317792,2.9338307,-0.67668545,-6.564811
681,1778609086.544789,1.1376274,-1.4974045,-0.12317792,2.7200282,-0.78908455,-6.8739085
682,1778609086.55541,0.91615105,-1.4100822,-0.05780825,2.6540546,-0.7670934,-7.0987067
683,1778609086.5666728,0.42709813,-1.291051,-0.16659509,2.8483098,-0.20143266,-7.5153165
684,1778609086.578047,0.42709813,-1.291051,-0.16659509,2.8483098,-0.20143266,-7.5153165
685,1778609086.5895522,-0.324897,-1.319833,-0.6863815,2.9985826,0.35445428,-8.394962
686,1778609086.600725,-0.324897,-1.319833,-0.6863815,2.9985826,0.35445428,-8.394962
687,1778609086.611501,-1.8776705,-1.8271798,-1.7086363,2.0444117,-0.2686278,-9.110895
688,1778609086.6233568,-2.9018767,-1.9481626,-1.6000934,1.2625048,-0.93691385,-9.090126
689,1778609086.634059,-3.746316,-2.198421,-1.1168944,-0.80588335,-3.0663884,-8.719942
690,1778609086.645352,-4.37367,-2.3433075,-0.6363786,-0.80588335,-3.0663884,-8.719942
691,1778609086.6578481,-4.9715095,-2.3586743,0.50271225,-0.77411836,-3.881282,-6.299696
692,1778609086.666123,-4.9715095,-2.3586743,0.50271225,-0.34773478,-4.1268497,-5.4005027
693,1778609086.684802,-4.865406,-2.1596382,1.0883563,2.9704826,-3.8263042,0.28053966
694,1778609086.701625,-4.574657,-2.1845179,0.87931955,3.6986334,-3.154353,1.9433136
695,1778609086.71381,-2.9450498,-2.7323546,0.06390616,4.776199,-0.3346012,6.4478307
696,1778609086.731158,-2.1430519,-3.0272498,-0.22684251,4.7566514,0.82359844,7.9285665
697,1778609086.7477682,-0.75589776,-3.4255657,-0.5617401,4.347372,2.0758712,9.87356
698,1778609086.764471,1.1739709,-3.6648479,-0.3583136,4.226421,0.54382235,10.8204
699,1778609086.770002,1.1739709,-3.6648479,-0.3583136,4.226421,0.54382235,10.8204
700,1778609086.7807732,1.7052215,-3.6548474,-0.120738745,4.9594584,-1.5661045,10.69945
701,1778609086.791598,2.0381677,-3.633139,-0.091224834,5.6228576,-2.7023132,10.52352
702,1778609086.8037262,2.1586626,-3.568257,-0.18196183,6.307026,-3.4292421,10.376913
703,1778609086.813938,2.6830833,-3.1489642,-1.2983685,7.0144076,-3.0834928,10.171662
704,1778609086.824388,2.8696797,-2.8718748,-1.744736,6.072454,-2.0352488,9.970077
705,1778609086.8373802,2.9691978,-2.5889316,-1.7940072,4.126239,-0.49831295,9.5791235
706,1778609086.846997,2.9691978,-2.5889316,-1.7940072,4.126239,-0.49831295,9.5791235
707,1778609086.857465,3.0260303,-2.1262217,-0.8205357,1.4970769,1.837634,8.705586
708,1778609086.868098,2.950416,-2.0540223,-0.60515726,1.0865757,2.2408047,8.468571
709,1778609086.880509,2.950416,-2.0540223,-0.60515726,1.0865757,2.2408047,8.468571
710,1778609086.8903081,2.0930488,-1.8066907,-0.0687845,-0.49189886,2.8602216,7.5730433
711,1778609086.900625,1.580824,-1.7666885,0.15171617,-0.8364266,2.8663301,7.547387
712,1778609086.9115179,1.580824,-1.7666885,0.15171617,-1.2542582,3.0324855,7.726981
713,1778609086.9223108,1.264464,-1.8864515,0.35563052,-1.4020873,3.1167848,7.8711452
714,1778609086.932398,1.5186251,-2.0067024,0.40368208,-1.9347615,4.5046697,8.738573
715,1778609086.943085,1.5186251,-2.0067024,0.40368208,-1.9347615,4.5046697,8.738573
716,1778609086.954001,2.057925,-1.972798,0.5173473,-2.4393358,6.2321954,8.434362
717,1778609086.9642959,2.0979273,-1.8171792,0.56661844,-2.6128213,6.6695743,8.139926
718,1778609086.974935,2.2118363,-1.6988796,0.5019805,-2.8473935,6.6011577,7.8039503
719,1778609086.985868,2.2794013,-1.580824,0.538568,-3.1051784,6.294503,7.430101
720,1778609086.996759,2.3901396,-1.5439925,0.5334458,-3.292103,6.020836,7.108786
721,1778609087.00703,2.5230742,-1.5317967,0.57320416,-3.5572183,5.871785,6.57489
722,1778609087.017956,2.476242,-1.443255,0.7193103,-3.6781695,5.9951797,6.1998196
723,1778609087.02927,2.4689245,-1.3478836,0.8059007,-3.766134,6.186991,5.7783227
724,1778609087.040137,2.7528436,-1.4286199,0.7729719,-3.9396198,5.83269,5.6292715
725,1778609087.051036,3.670458,-1.7510778,0.93005425,-4.5101676,3.4930775,4.9524336
726,1778609087.061579,3.670458,-1.7510778,0.93005425,-4.5101676,3.4930775,4.9524336
727,1778609087.087065,4.048041,-1.2132416,2.0642667,-3.8626506,0.023365578,4.368447
728,1778609087.106496,4.995901,-0.81248647,2.2867188,-3.3849545,-2.2099562,3.9921541
729,1778609087.122957,6.3662252,-0.28123593,3.1218894,-2.8522804,-3.831191,3.3568547
730,1778609087.1374102,6.7679553,-0.29611483,3.3789778,-2.0434954,-3.3473864,2.0935862
731,1778609087.1484559,6.7574673,-0.39538893,3.5380113,-1.4753911,-2.4872887,1.1467459
732,1778609087.159907,6.410374,-0.6139383,3.5987468,-0.364839,-0.5459604,-0.47815442
733,1778609087.170597,5.739115,-0.734677,3.3760505,0.77503467,1.2145519,-1.9735514
734,1778609087.180943,4.136339,-1.0939662,2.4952674,1.9026911,2.3214388,-3.1708465
735,1778609087.194376,4.136339,-1.0939662,2.4952674,1.9026911,2.3214388,-3.1708465
736,1778609087.202194,3.659726,-1.1866546,2.2413504,2.1934626,2.3079998,-3.3993099
737,1778609087.2131069,2.98554,-1.2086071,1.9010866,2.7676756,1.7117958,-3.5227044
738,1778609087.224375,2.677961,-1.1081134,1.7676642,3.2074983,0.8920153,-3.6008952
739,1778609087.2351968,2.5433192,-0.9959117,1.7522974,3.5544693,0.29581127,-3.8037024
740,1778609087.245964,2.5433192,-0.9959117,1.7522974,3.5544693,0.29581127,-3.8037024
741,1778609087.257192,2.269157,-0.92981035,1.4637439,4.3766932,-0.8623884,-4.6161523
742,1778609087.2675898,2.2045188,-0.95493376,1.3569084,4.491536,-1.0456477,-4.821403
743,1778609087.27907,2.07817,-1.0956737,1.0607935,4.6039352,-1.3180934,-5.4114985
744,1778609087.289333,1.9315761,-1.2766598,0.7315061,4.434115,-1.184925,-5.707157
745,1778609087.300456,1.8701092,-1.4008135,0.5885709,4.194656,-0.9295835,-5.843991
746,1778609087.310984,1.9315761,-1.6542429,0.44392833,3.719403,-0.27473643,-5.988155
747,1778609087.321672,2.057925,-1.9188924,0.37953433,3.0022476,0.85414165,-6.3021393
748,1778609087.332101,2.136954,-2.1474423,0.32831186,3.0022476,0.85414165,-6.3021393
749,1778609087.343203,2.1169527,-2.2706203,0.29001692,2.7786713,1.2731949,-6.4585204
750,1778609087.3538911,1.6966844,-2.3898954,0.22147635,2.2203407,2.6720753,-6.6564407
751,1778609087.364156,1.6966844,-2.3898954,0.22147635,2.2203407,2.6720753,-6.6564407
752,1778609087.374628,1.3983742,-2.400384,0.23245259,2.1213806,3.44543,-6.4145384
753,1778609087.386754,1.3130034,-2.3611133,0.29782224,2.2362232,3.7044368,-6.12621
754,1778609087.397604,1.3178818,-2.3472102,0.33831242,2.3840525,3.6873326,-5.962498
755,1778609087.40813,1.3491031,-2.3655038,0.36563107,2.6479461,3.5065165,-5.7987866
756,1778609087.41924,1.3720312,-2.3942862,0.35514265,2.8678575,3.2670577,-5.716931
757,1778609087.431631,1.4127654,-2.429654,0.32904357,3.20872,2.7123923,-5.630188
758,1778609087.439949,1.4513042,-2.455509,0.3031884,3.5080438,2.050215,-5.5556626
759,1778609087.4508748,1.5576519,-2.3942862,0.23074517,3.669312,1.6299399,-5.521454
760,1778609087.468689,1.5678964,-2.3547716,0.163912,4.016283,0.5658135,-5.6094184
761,1778609087.481188,1.5083808,-2.295256,-0.0834195,3.999179,0.24572036,-5.734035
762,1778609087.4986439,1.5083808,-2.295256,-0.0834195,3.8892233,0.01970039,-5.856208
763,1778609087.513752,1.4310591,-2.0896342,-0.19488941,3.280802,-0.4176788,-6.0565715
764,1778609087.531334,1.4086188,-1.6910743,0.007561417,2.5599816,-1.9472842,-6.892235
765,1778609087.5347111,1.4086188,-1.6910743,0.007561417,2.5599816,-1.9472842,-6.892235
766,1778609087.548144,1.3425174,-1.6666826,0.07415067,2.4500258,-2.5569272,-7.405361
767,1778609087.563925,1.2229983,-1.6993674,0.15025267,2.3852742,-2.9319983,-8.011339
768,1778609087.5686872,1.1310416,-1.7054653,0.20952442,2.3791656,-3.0724971,-8.333876
769,1778609087.580641,0.4610025,-1.6003373,0.3583136,2.621068,-3.1763442,-9.553162
770,1778609087.591572,0.08268775,-1.5642376,0.36685067,2.8312056,-3.1115925,-10.012532
771,1778609087.6021519,-0.3353854,-1.8374243,0.20001167,3.0560038,-3.2203264,-10.647831
772,1778609087.614666,-1.4613048,-2.6086888,-0.5441781,3.0584471,-3.6906922,-11.267248
773,1778609087.6252658,-2.371114,-2.8491907,-0.8724899,0.9961677,-6.0241957,-12.1468935
774,1778609087.635942,-3.14311,-3.54167,-0.16074108,-1.0746639,-7.2899075,-12.076033
775,1778609087.6487691,-3.530206,-3.8414435,0.54100716,-1.0746639,-7.2899075,-12.076033
776,1778609087.6591601,-4.442942,-3.7389984,1.6337539,-2.51997,-5.94234,-10.129818
777,1778609087.669842,-4.8546734,-3.6163087,1.969871,-2.4283402,-5.0089383,-9.235512
778,1778609087.682529,-5.638622,-2.9462695,2.3998961,-0.45769045,-0.008399391,-2.8165448
779,1778609087.693216,-5.638622,-2.9462695,2.3998961,-0.45769045,-0.008399391,-2.8165448
780,1778609087.7036722,-5.638622,-2.9462695,2.3998961,-0.45769045,-0.008399391,-2.8165448
781,1778609087.71579,-4.125363,-3.0282257,1.4171559,0.9485203,2.2383614,3.6525133
782,1778609087.726176,-2.953343,-3.1575015,1.2337306,1.4726423,2.8932083,6.4747086
783,1778609087.736959,-2.2640345,-3.2382376,1.1754345,2.0126467,3.1045675,7.9016886
784,1778609087.7477,-2.2640345,-3.2382376,1.1754345,2.0126467,3.1045675,7.9016886
785,1778609087.758202,-1.0439633,-3.4419084,0.8200479,3.4017532,2.8284566,10.015281
786,1778609087.768853,-0.6815032,-3.5365477,0.5144203,3.9649706,2.574337,10.858274
787,1778609087.7793221,0.028050419,-3.7241197,-0.022440333,4.2361946,2.3629777,11.708598
788,1778609087.790586,0.4563681,-3.8163202,-0.48612595,4.14823,2.5120287,12.116655
789,1778609087.800815,0.4563681,-3.8163202,-0.48612595,4.14823,2.5120287,12.116655
790,1778609087.811433,0.96590996,-3.9912083,-1.0886002,2.7285802,4.0233083,13.357933
791,1778609087.8221161,1.3137352,-4.4214773,-0.9478602,-0.16814053,5.2560334,14.90953
792,1778609087.833338,1.7025384,-4.6731997,-0.7563856,-1.5144866,5.094765,15.351795
793,1778609087.845105,1.7025384,-4.6731997,-0.7563856,-1.5144866,5.094765,15.351795
794,1778609087.85326,2.6660092,-4.739057,-0.30660325,-3.6745043,3.852266,14.573554
795,1778609087.863703,2.6660092,-4.739057,-0.30660325,-3.6745043,3.852266,14.573554
796,1778609087.87468,3.3133643,-3.626309,0.7995589,-4.0092583,1.9842415,11.0378685
797,1778609087.886515,3.0782285,-3.2933629,1.047866,-3.4802494,1.1901174,9.885777
798,1778609087.896808,3.0782285,-3.2933629,1.047866,-3.4802494,1.1901174,9.885777
799,1778609087.9076438,2.4264832,-2.7752838,0.80712026,-2.515083,-0.062155493,8.689704
800,1778609087.9183822,2.2225688,-2.6982062,0.50832236,-1.0868812,-1.8971933,7.4643097
801,1778609087.929688,1.8654748,-2.628934,-0.10464026,-0.8327614,-2.2392776,7.081908
802,1778609087.940319,1.6335099,-2.60503,-0.5168594,-1.3067925,-1.9081888,6.978061
803,1778609087.950953,1.452036,-2.6242995,-0.6493062,-2.2010984,-1.2386811,6.987835
804,1778609087.9622881,1.3291019,-2.6869862,-0.4914921,-3.1980298,-0.44333512,7.096569
805,1778609087.9735339,1.25861,-2.742599,0.041221917,-4.10211,0.42287114,7.2786064
806,1778609087.984339,1.2634883,-2.7343059,0.40831652,-4.33546,0.8455896,7.3824534
807,1778609088.000751,1.3398343,-2.6221042,1.1651899,-3.563327,1.1498002,7.3726797
808,1778609088.0176451,1.37569,-2.3879442,1.3471518,-2.767981,1.2878556,7.4252143
809,1778609088.031003,2.1274412,-2.4425814,0.23635526,-2.1070254,3.1082327,6.598103
810,1778609088.04839,2.066462,-2.6362514,0.15927759,-3.092961,3.3672395,5.9750214
811,1778609088.064207,1.9764568,-2.7228417,0.5522273,-3.734369,2.7527094,6.003121
812,1778609088.0809128,2.549173,-2.5957613,1.6618043,-3.450928,1.774104,6.725163
813,1778609088.0884402,3.1535985,-2.608445,1.771323,-2.840063,2.1784966,6.653081
814,1778609088.097281,4.3680596,-2.9494405,1.6249729,-2.3599234,2.4558291,5.9175997
815,1778609088.108489,4.618318,-2.9667585,1.4315469,-2.1607814,2.0013456,4.792387
816,1778609088.1194508,4.4156237,-2.6940596,1.3234918,-2.1375685,1.353829,4.1167703
817,1778609088.129764,4.277323,-2.5623448,0.9888382,-2.587165,-0.19410229,3.3104289
818,1778609088.140717,4.0929217,-2.4340444,0.8993208,-3.1002915,-0.7182243,3.097848
819,1778609088.151106,4.3824506,-2.5855167,1.7079045,-4.6995354,-1.1494948,3.029431
820,1778609088.1631758,4.3824506,-2.5855167,1.7079045,-4.6995354,-1.1494948,3.029431
821,1778609088.1725702,4.6092935,-2.5160003,2.5394166,-4.717861,-1.2203552,3.0465353
822,1778609088.182836,5.9464445,-2.2128122,4.308544,-2.9830055,-1.5453352,2.6262605
823,1778609088.19365,5.9464445,-2.2128122,4.308544,-2.9830055,-1.5453352,2.6262605
824,1778609088.204642,6.7840543,-1.9742615,4.265371,0.29122978,-1.2276855,-0.028557928
825,1778609088.2151182,6.7840543,-1.9742615,4.265371,0.29122978,-1.2276855,-0.028557928
826,1778609088.225576,4.3239107,-2.133783,2.0610957,1.7780746,1.0325142,-4.2740684
827,1778609088.236316,3.3143399,-2.1964695,1.9096236,1.5972587,2.0844233,-4.423119
828,1778609088.246707,3.3143399,-2.1964695,1.9096236,1.5972587,2.0844233,-4.423119
829,1778609088.258313,2.0849998,-2.0369482,1.9869453,1.6949971,4.4790134,-3.3907576
830,1778609088.2686348,2.1181724,-1.9332834,2.037436,1.9833252,4.5596476,-3.0217953
831,1778609088.279037,2.3162327,-1.8042516,2.057681,2.5050037,4.353175,-2.788445
832,1778609088.292613,2.4308736,-1.75059,2.049388,2.8165448,4.1699157,-2.8104362
833,1778609088.3000362,2.6652775,-1.7322961,1.8932812,3.813476,3.3550222,-3.3724318
834,1778609088.311362,2.6791809,-1.7869337,1.7076607,4.4475536,2.722166,-4.0113964
835,1778609088.321919,2.458924,-2.426727,1.1432374,5.407833,1.8840597,-5.323534
836,1778609088.332268,2.306964,-2.8172376,0.88810056,5.642405,1.706909,-5.797565
837,1778609088.3433778,2.306964,-2.8172376,0.88810056,5.642405,1.706909,-5.797565
838,1778609088.3537421,2.0276792,-3.4611778,0.48539415,5.861095,2.027002,-6.3962126
839,1778609088.364495,2.0276792,-3.4611778,0.48539415,5.861095,2.027002,-6.3962126
840,1778609088.37553,1.7605907,-3.782172,0.22123243,5.9844894,3.1644323,-6.4597425
841,1778609088.38704,1.7225395,-3.9312048,0.14878917,6.157975,3.7899578,-6.276483
842,1778609088.397904,1.7037579,-3.989257,0.11537258,6.320465,4.050186,-6.122545
843,1778609088.41842,1.6513159,-4.0434065,0.06683317,6.9020085,4.149146,-5.625301
844,1778609088.436437,1.7815673,-4.0556026,-0.07927292,7.373596,3.2023058,-5.2526736
845,1778609088.448292,1.8479128,-4.0470653,-0.14464259,7.4615607,2.4497204,-5.2905474
846,1778609088.464767,1.791568,-3.986574,-0.15244792,7.487217,1.4466805,-5.435933
847,1778609088.480652,1.8069347,-3.8955932,-0.099274084,7.5214252,0.04657844,-5.693718
848,1778609088.490889,1.8957204,-3.8836412,-0.19391376,7.559299,-0.4641045,-5.918516
849,1778609088.501247,1.9271855,-3.8577862,-0.2924561,7.5702944,-1.3119848,-6.3021393
850,1778609088.513684,1.9271855,-3.8577862,-0.2924561,7.4542303,-1.8813108,-6.727301
851,1778609088.52488,1.7286373,-3.7511947,-0.48636985,6.7492924,-3.4781113,-7.70102
852,1778609088.538243,1.650828,-3.7163146,-0.50978583,6.184853,-4.532464,-8.118851
853,1778609088.548429,1.548383,-3.5797212,-0.45124584,5.494576,-5.6149163,-8.557452
854,1778609088.559753,1.3291019,-3.354342,-0.30611542,4.866607,-6.4261446,-9.019266
855,1778609088.5720582,1.1010399,-3.2709227,-0.295627,4.359589,-6.4542446,-9.549497
856,1778609088.5824199,0.42856157,-2.696255,-0.21976891,3.9735227,-5.8140583,-10.011311
857,1778609088.5933099,-0.8890763,-3.3726358,-1.7327839,3.8831146,-5.289936,-10.247104
858,1778609088.606168,-0.8890763,-3.3726358,-1.7327839,2.612516,-3.6687012,-10.848195
