id,timestamp,acc_x,acc_y,acc_z,gyro_x,gyro_y,gyro_z
0,1778615609273,0.34,0.11,0.27,-210.82,159.91,0.24
1,1778615609289,0.34,0.11,0.27,-168.21,112.49,64.64
2,1778615609305,0.34,0.11,0.27,-168.21,112.49,64.64
3,1778615609305,0.34,0.11,0.27,-168.21,112.49,64.64
4,1778615609321,0.97,-0.58,-0.32,94.18,88.62,134.09
5,1778615609337,0.97,-0.58,-0.32,94.18,88.62,134.09
6,1778615609337,0.97,-0.58,-0.32,94.18,88.62,134.09
7,1778615609353,2.12,-1.8,0.28,-8.48,7.2,44.49
8,1778615609369,2.12,-1.8,0.28,-8.48,7.2,44.49
9,1778615609369,2.12,-1.8,0.28,-8.48,7.2,44.49
10,1778615609385,2.12,-1.8,0.28,-8.48,7.2,44.49
11,1778615609385,2.12,-1.8,0.28,-8.48,7.2,44.49
12,1778615609402,1.53,-0.63,0.59,18.86,-5.55,57.56
13,1778615609418,1.53,-0.63,0.59,18.86,-5.55,57.56
14,1778615609418,1.53,-0.63,0.59,18.86,-5.55,57.56
15,1778615609434,2.35,-0.32,0.3,38.7,-54.02,-6.41
16,1778615609434,2.35,-0.32,0.3,38.7,-54.02,-6.41
17,1778615609450,2.35,-0.32,0.3,38.7,-54.02,-6.41
18,1778615609467,2.35,-0.32,0.3,38.7,-54.02,-6.41
19,1778615609467,2.35,-0.32,0.3,38.7,-54.02,-6.41
20,1778615609483,1.76,-0.32,0.37,92.35,-35.22,-41.69
21,1778615609499,1.76,-0.32,0.37,92.35,-35.22,-41.69
22,1778615609499,1.76,-0.32,0.37,92.35,-35.22,-41.69
23,1778615609515,1.13,-0.2,0.1,113.77,-69.95,-97.23
24,1778615609515,1.13,-0.2,0.1,113.77,-69.95,-97.23
25,1778615609531,1.13,-0.2,0.1,113.77,-69.95,-97.23
26,1778615609548,0.37,0.08,0.03,90.15,-122.07,-120.97
27,1778615609548,0.37,0.08,0.03,90.15,-122.07,-120.97
28,1778615609564,0.37,0.08,0.03,90.15,-122.07,-120.97
29,1778615609564,0.37,0.08,0.03,90.15,-122.07,-120.97
30,1778615609580,0.37,0.08,0.03,90.15,-122.07,-120.97
31,1778615609596,-0.0,0.09,0.14,-6.96,-122.74,-127.26
32,1778615609596,-0.0,0.09,0.14,-6.96,-122.74,-127.26
33,1778615609612,-0.0,0.09,0.14,-6.96,-122.74,-127.26
34,1778615609629,-0.02,0.03,0.2,-89.72,-64.15,-108.4
35,1778615609629,-0.02,0.03,0.2,-89.72,-64.15,-108.4
36,1778615609645,-0.02,0.03,0.2,-89.72,-64.15,-108.4
37,1778615609645,-0.02,0.03,0.2,-89.72,-64.15,-108.4
38,1778615609661,-0.15,-0.31,0.29,283.02,-70.92,-71.96
39,1778615609677,-0.15,-0.31,0.29,283.02,-70.92,-71.96
40,1778615609677,-0.15,-0.31,0.29,283.02,-70.92,-71.96
41,1778615609694,-0.15,-0.31,0.29,283.02,-70.92,-71.96
42,1778615609694,-0.15,-0.31,0.29,283.02,-70.92,-71.96
43,1778615609710,0.02,0.06,0.06,208.8,68.97,-38.7
44,1778615609726,0.02,0.06,0.06,208.8,68.97,-38.7
45,1778615609726,0.02,0.06,0.06,208.8,68.97,-38.7
46,1778615609741,0.62,1.09,2.97,-438.96,-339.72,42.18
47,1778615609757,0.62,1.09,2.97,-438.96,-339.72,42.18
48,1778615609757,0.62,1.09,2.97,-438.96,-339.72,42.18
49,1778615609773,2.11,0.55,-0.54,-438.96,-339.72,42.18
50,1778615609789,2.11,0.55,-0.54,-64.39,161.5,-2.2
51,1778615609789,2.11,0.55,-0.54,-64.39,161.5,-2.2
52,1778615609805,2.11,0.55,-0.54,-64.39,161.5,-2.2
53,1778615609805,2.11,0.55,-0.54,-64.39,161.5,-2.2
54,1778615609821,3.5,0.0,-0.66,409.73,127.81,-57.01
55,1778615609838,3.5,0.0,-0.66,409.73,127.81,-57.01
56,1778615609838,3.5,0.0,-0.66,409.73,127.81,-57.01
57,1778615609853,1.39,0.55,0.11,-232.06,91.55,79.28
58,1778615609869,1.39,0.55,0.11,-232.06,91.55,79.28
59,1778615609869,1.39,0.55,0.11,-232.06,91.55,79.28
60,1778615609886,1.39,0.55,0.11,-232.06,91.55,79.28
61,1778615609886,1.39,0.55,0.11,-232.06,91.55,79.28
62,1778615609902,1.39,0.55,0.11,-232.06,91.55,79.28
63,1778615609918,2.06,0.77,-0.13,15.63,-5.31,33.75
64,1778615609918,2.06,0.77,-0.13,15.63,-5.31,33.75
65,1778615609934,2.02,0.6,-0.2,37.17,-10.62,-38.15
66,1778615609934,2.02,0.6,-0.2,37.17,-10.62,-38.15
67,1778615609950,2.02,0.6,-0.2,37.17,-10.62,-38.15
68,1778615609966,1.47,0.19,-0.23,62.99,-26.73,-33.75
69,1778615609966,1.47,0.19,-0.23,62.99,-26.73,-33.75
70,1778615609983,1.47,0.19,-0.23,62.99,-26.73,-33.75
71,1778615609999,1.47,0.19,-0.23,62.99,-26.73,-33.75
72,1778615609999,1.47,0.19,-0.23,62.99,-26.73,-33.75
73,1778615610015,0.74,0.12,-0.14,77.15,-85.94,-22.77
74,1778615610015,0.74,0.12,-0.14,77.15,-85.94,-22.77
75,1778615610031,0.74,0.12,-0.14,77.15,-85.94,-22.77
76,1778615610047,0.22,0.05,0.1,-14.4,-142.4,-33.87
77,1778615610047,0.22,0.05,0.1,-14.4,-142.4,-33.87
78,1778615610064,0.22,0.05,0.1,-14.4,-142.4,-33.87
79,1778615610064,0.22,0.05,0.1,-14.4,-142.4,-33.87
80,1778615610080,0.89,-0.42,1.92,-41.81,230.77,-4.33
81,1778615610096,0.89,-0.42,1.92,-41.81,230.77,-4.33
82,1778615610096,0.89,-0.42,1.92,-41.81,230.77,-4.33
83,1778615610112,0.89,-0.42,1.92,-41.81,230.77,-4.33
84,1778615610128,-0.03,0.26,-0.31,-374.51,77.03,40.77
85,1778615610128,-0.03,0.26,-0.31,-374.51,77.03,40.77
86,1778615610144,-0.03,0.26,-0.31,-374.51,77.03,40.77
87,1778615610144,-0.03,0.26,-0.31,-374.51,77.03,40.77
88,1778615610161,-0.12,-0.04,-0.28,-125.73,3.3,37.11
89,1778615610177,-0.12,-0.04,-0.28,-125.73,3.3,37.11
90,1778615610177,-0.12,-0.04,-0.28,-125.73,3.3,37.11
91,1778615610193,-0.12,-0.04,-0.28,-125.73,3.3,37.11
92,1778615610209,-0.12,-0.04,-0.28,-125.73,3.3,37.11
93,1778615610209,-0.12,-0.04,-0.28,-125.73,3.3,37.11
94,1778615610225,-0.04,-0.03,0.02,-103.03,13.67,95.7
95,1778615610225,-0.04,-0.03,0.02,-103.03,13.67,95.7
96,1778615610241,0.72,-0.02,0.08,-246.15,322.02,197.2
97,1778615610257,0.72,-0.02,0.08,-246.15,322.02,197.2
98,1778615610257,0.72,-0.02,0.08,-246.15,322.02,197.2
99,1778615610273,3.23,-0.06,0.34,87.22,40.77,144.41
100,1778615610289,3.23,-0.06,0.34,87.22,40.77,144.41
101,1778615610289,3.23,-0.06,0.34,87.22,40.77,144.41
102,1778615610305,3.23,-0.06,0.34,87.22,40.77,144.41
103,1778615610305,3.23,-0.06,0.34,87.22,40.77,144.41
104,1778615610321,2.27,-0.37,0.06,-179.32,5.49,73.24
105,1778615610337,2.27,-0.37,0.06,-179.32,5.49,73.24
106,1778615610337,2.27,-0.37,0.06,-179.32,5.49,73.24
107,1778615610353,2.25,0.15,0.38,79.1,-42.05,36.13
108,1778615610370,2.25,0.15,0.38,79.1,-42.05,36.13
109,1778615610370,2.25,0.15,0.38,79.1,-42.05,36.13
110,1778615610386,1.36,0.28,0.11,79.1,-42.05,36.13
111,1778615610386,1.36,0.28,0.11,79.1,-42.05,36.13
112,1778615610402,1.36,0.28,0.11,118.96,-19.47,-33.63
113,1778615610418,1.36,0.28,0.11,118.96,-19.47,-33.63
114,1778615610418,1.36,0.28,0.11,118.96,-19.47,-33.63
115,1778615610434,0.82,0.46,0.15,128.91,-44.07,-97.11
116,1778615610434,0.82,0.46,0.15,128.91,-44.07,-97.11
117,1778615610450,0.82,0.46,0.15,128.91,-44.07,-97.11
118,1778615610467,0.22,0.21,-0.05,143.07,-69.7,-116.88
119,1778615610467,0.22,0.21,-0.05,143.07,-69.7,-116.88
120,1778615610483,0.22,0.21,-0.05,143.07,-69.7,-116.88
121,1778615610499,0.22,0.21,-0.05,143.07,-69.7,-116.88
122,1778615610499,0.22,0.21,-0.05,143.07,-69.7,-116.88
123,1778615610515,0.01,0.04,0.08,91.19,-128.36,-98.51
124,1778615610515,0.01,0.04,0.08,91.19,-128.36,-98.51
125,1778615610531,0.01,0.04,0.08,91.19,-128.36,-98.51
126,1778615610548,-0.01,-0.04,0.14,52.92,-81.73,-79.16
127,1778615610548,-0.01,-0.04,0.14,52.92,-81.73,-79.16
128,1778615610564,-0.01,-0.04,0.14,52.92,-81.73,-79.16
129,1778615610564,-0.01,-0.04,0.14,52.92,-81.73,-79.16
130,1778615610580,-0.27,-0.36,0.2,221.25,77.76,-76.78
131,1778615610596,-0.27,-0.36,0.2,221.25,77.76,-76.78
132,1778615610596,-0.27,-0.36,0.2,221.25,77.76,-76.78
133,1778615610612,-0.27,-0.36,0.2,221.25,77.76,-76.78
134,1778615610628,0.03,-0.05,0.09,246.03,68.48,-34.73
135,1778615610628,0.03,-0.05,0.09,246.03,68.48,-34.73
136,1778615610644,0.03,-0.05,0.09,246.03,68.48,-34.73
137,1778615610644,0.03,-0.05,0.09,246.03,68.48,-34.73
138,1778615610660,-0.24,1.76,2.6,-364.81,-51.09,-30.58
139,1778615610676,-0.24,1.76,2.6,-364.81,-51.09,-30.58
140,1778615610676,-0.24,1.76,2.6,-364.81,-51.09,-30.58
141,1778615610692,1.74,1.32,-0.2,-364.81,-51.09,-30.58
142,1778615610707,1.74,1.32,-0.2,-3.66,53.83,76.54
143,1778615610707,1.74,1.32,-0.2,-3.66,53.83,76.54
144,1778615610723,1.74,1.32,-0.2,-3.66,53.83,76.54
145,1778615610739,3.04,1.4,-1.13,322.14,92.53,-8.42
146,1778615610739,3.04,1.4,-1.13,322.14,92.53,-8.42
147,1778615610756,3.04,1.4,-1.13,322.14,92.53,-8.42
148,1778615610756,3.04,1.4,-1.13,322.14,92.53,-8.42
149,1778615610771,1.32,0.35,0.34,-141.97,-97.53,37.41
150,1778615610788,1.32,0.35,0.34,-141.97,-97.53,37.41
151,1778615610788,1.32,0.35,0.34,-141.97,-97.53,37.41
152,1778615610804,1.32,0.35,0.34,-141.97,-97.53,37.41
153,1778615610804,1.32,0.35,0.34,-141.97,-97.53,37.41
154,1778615610820,2.38,1.03,-0.48,24.84,-56.52,-3.78
155,1778615610836,2.38,1.03,-0.48,24.84,-56.52,-3.78
156,1778615610836,2.38,1.03,-0.48,24.84,-56.52,-3.78
157,1778615610853,2.08,1.05,-0.31,56.82,-92.96,-33.75
158,1778615610869,2.08,1.05,-0.31,56.82,-92.96,-33.75
159,1778615610869,2.08,1.05,-0.31,56.82,-92.96,-33.75
160,1778615610885,1.12,0.56,-0.06,55.6,-137.33,-66.96
161,1778615610885,1.12,0.56,-0.06,55.6,-137.33,-66.96
162,1778615610902,1.12,0.56,-0.06,55.6,-137.33,-66.96
163,1778615610918,1.12,0.56,-0.06,55.6,-137.33,-66.96
164,1778615610918,1.12,0.56,-0.06,55.6,-137.33,-66.96
165,1778615610934,0.01,0.71,1.61,-144.65,-39.92,-135.25
166,1778615610934,0.01,0.71,1.61,-144.65,-39.92,-135.25
167,1778615610949,0.01,0.71,1.61,-144.65,-39.92,-135.25
168,1778615610965,1.48,-0.98,0.71,-236.15,-21.06,-11.17
169,1778615610965,1.48,-0.98,0.71,-236.15,-21.06,-11.17
170,1778615610981,1.48,-0.98,0.71,-236.15,-21.06,-11.17
171,1778615610997,1.48,-0.98,0.71,-236.15,-21.06,-11.17
172,1778615610997,1.48,-0.98,0.71,-236.15,-21.06,-11.17
173,1778615611013,1.48,-0.98,0.71,-236.15,-21.06,-11.17
174,1778615611029,0.33,-0.3,-0.15,27.4,0.12,96.74
175,1778615611029,0.33,-0.3,-0.15,27.4,0.12,96.74
176,1778615611046,0.33,-0.3,-0.15,27.4,0.12,96.74
177,1778615611046,0.33,-0.3,-0.15,27.4,0.12,96.74
178,1778615611062,0.33,-0.3,-0.15,27.4,0.12,96.74
179,1778615611078,-0.01,-0.41,-0.02,-213.2,47.36,267.03
180,1778615611078,-0.01,-0.41,-0.02,-213.2,47.36,267.03
181,1778615611094,-0.01,-0.41,-0.02,-213.2,47.36,267.03
182,1778615611094,-0.01,-0.41,-0.02,-213.2,47.36,267.03
183,1778615611110,-0.01,-0.41,-0.02,-213.2,47.36,267.03
184,1778615611125,-0.03,0.39,1.1,-343.63,35.28,432.92
185,1778615611125,-0.03,0.39,1.1,-343.63,35.28,432.92
186,1778615611141,-0.03,0.39,1.1,-343.63,35.28,432.92
187,1778615611157,0.38,-0.34,-0.3,-257.75,265.2,337.4
188,1778615611157,0.38,-0.34,-0.3,-257.75,265.2,337.4
189,1778615611173,0.38,-0.34,-0.3,-257.75,265.2,337.4
190,1778615611189,0.38,-0.34,-0.3,-257.75,265.2,337.4
191,1778615611189,0.38,-0.34,-0.3,-257.75,265.2,337.4
192,1778615611205,2.69,-1.56,0.58,-85.75,-165.28,239.81
193,1778615611205,2.69,-1.56,0.58,-85.75,-165.28,239.81
194,1778615611221,2.69,-1.56,0.58,-85.75,-165.28,239.81
195,1778615611237,1.88,-1.42,0.04,49.74,-46.14,67.08
196,1778615611237,1.88,-1.42,0.04,49.74,-46.14,67.08
197,1778615611254,1.88,-1.42,0.04,49.74,-46.14,67.08
198,1778615611254,1.88,-1.42,0.04,49.74,-46.14,67.08
199,1778615611270,2.3,-0.33,0.17,80.38,-77.58,-51.76
200,1778615611286,2.3,-0.33,0.17,80.38,-77.58,-51.76
201,1778615611286,2.3,-0.33,0.17,80.38,-77.58,-51.76
202,1778615611302,2.3,-0.33,0.17,80.38,-77.58,-51.76
203,1778615611319,1.67,-0.07,0.1,130.37,-48.58,-157.1
204,1778615611319,1.67,-0.07,0.1,130.37,-48.58,-157.1
205,1778615611334,1.67,-0.07,0.1,130.37,-48.58,-157.1
206,1778615611334,1.67,-0.07,0.1,130.37,-48.58,-157.1
207,1778615611350,0.96,0.17,0.19,177.49,-6.65,-262.08
208,1778615611366,0.96,0.17,0.19,177.49,-6.65,-262.08
209,1778615611366,0.96,0.17,0.19,177.49,-6.65,-262.08
210,1778615611382,0.38,0.19,0.09,219.54,-47.36,-276.06
211,1778615611397,0.38,0.19,0.09,219.54,-47.36,-276.06
212,1778615611397,0.38,0.19,0.09,219.54,-47.36,-276.06
213,1778615611413,0.38,0.19,0.09,219.54,-47.36,-276.06
214,1778615611413,0.38,0.19,0.09,219.54,-47.36,-276.06
215,1778615611429,0.05,0.11,-0.0,226.2,-72.45,-257.39
216,1778615611446,0.05,0.11,-0.0,226.2,-72.45,-257.39
217,1778615611446,0.05,0.11,-0.0,226.2,-72.45,-257.39
218,1778615611462,-0.07,0.22,0.62,77.82,-124.69,-232.36
219,1778615611478,-0.07,0.22,0.62,77.82,-124.69,-232.36
220,1778615611478,-0.07,0.22,0.62,77.82,-124.69,-232.36
221,1778615611494,-0.14,-0.63,0.18,73.12,-75.99,-136.05
222,1778615611494,-0.14,-0.63,0.18,73.12,-75.99,-136.05
223,1778615611510,-0.14,-0.63,0.18,73.12,-75.99,-136.05
224,1778615611526,-0.14,-0.63,0.18,73.12,-75.99,-136.05
225,1778615611526,-0.14,-0.63,0.18,73.12,-75.99,-136.05
226,1778615611542,0.09,0.02,0.1,285.89,37.29,-37.9
227,1778615611558,0.09,0.02,0.1,285.89,37.29,-37.9
228,1778615611558,0.09,0.02,0.1,285.89,37.29,-37.9
229,1778615611574,-0.0,-0.42,-0.93,-595.89,-38.88,41.69
230,1778615611574,-0.0,-0.42,-0.93,-595.89,-38.88,41.69
231,1778615611590,-0.0,-0.42,-0.93,-595.89,-38.88,41.69
232,1778615611606,-0.0,-0.42,-0.93,-595.89,-38.88,41.69
233,1778615611606,-0.0,-0.42,-0.93,-595.89,-38.88,41.69
234,1778615611622,1.35,1.29,0.05,67.32,117.25,51.7
235,1778615611638,1.35,1.29,0.05,67.32,117.25,51.7
236,1778615611638,1.35,1.29,0.05,67.32,117.25,51.7
237,1778615611654,2.81,1.13,-1.05,264.4,127.69,-81.54
238,1778615611654,2.81,1.13,-1.05,264.4,127.69,-81.54
239,1778615611671,2.81,1.13,-1.05,264.4,127.69,-81.54
240,1778615611687,1.45,0.88,-0.43,264.4,127.69,-81.54
241,1778615611687,1.45,0.88,-0.43,264.4,127.69,-81.54
242,1778615611703,1.45,0.88,-0.43,-127.44,17.82,27.04
243,1778615611719,1.45,0.88,-0.43,-127.44,17.82,27.04
244,1778615611719,1.45,0.88,-0.43,-127.44,17.82,27.04
245,1778615611735,1.76,1.2,-0.21,11.72,4.76,5.19
246,1778615611735,1.76,1.2,-0.21,11.72,4.76,5.19
247,1778615611751,1.76,1.2,-0.21,11.72,4.76,5.19
248,1778615611767,2.01,1.56,-0.42,-9.58,-103.82,-34.3
249,1778615611767,2.01,1.56,-0.42,-9.58,-103.82,-34.3
250,1778615611783,2.01,1.56,-0.42,-9.58,-103.82,-34.3
251,1778615611798,1.09,0.82,-0.07,-9.58,-103.82,-34.3
252,1778615611798,1.09,0.82,-0.07,-9.58,-103.82,-34.3
253,1778615611815,1.09,0.82,-0.07,-27.53,-136.47,-77.51
254,1778615611815,1.09,0.82,-0.07,-27.53,-136.47,-77.51
255,1778615611831,1.09,0.82,-0.07,-27.53,-136.47,-77.51
256,1778615611847,1.09,0.82,-0.07,-27.53,-136.47,-77.51
257,1778615611847,1.09,0.82,-0.07,-27.53,-136.47,-77.51
258,1778615611863,0.49,0.27,0.02,72.94,-67.26,-68.73
259,1778615611879,1.0,-1.0,5.66,14.77,-66.22,-43.7
260,1778615611879,1.0,-1.0,5.66,14.77,-66.22,-43.7
261,1778615611895,1.0,-1.0,5.66,14.77,-66.22,-43.7
262,1778615611895,1.0,-1.0,5.66,14.77,-66.22,-43.7
263,1778615611911,0.43,0.08,-0.17,14.77,-66.22,-43.7
264,1778615611927,0.43,0.08,-0.17,-111.45,69.7,44.37
265,1778615611927,0.43,0.08,-0.17,-111.45,69.7,44.37
266,1778615611942,0.43,0.08,-0.17,-111.45,69.7,44.37
267,1778615611958,0.03,-0.19,-0.23,-133.0,20.57,17.94
268,1778615611958,0.03,-0.19,-0.23,-133.0,20.57,17.94
269,1778615611974,0.03,-0.19,-0.23,-133.0,20.57,17.94
270,1778615611974,0.03,-0.19,-0.23,-133.0,20.57,17.94
271,1778615611990,0.03,-0.19,-0.23,-133.0,20.57,17.94
272,1778615612006,0.03,-0.19,-0.23,-133.0,20.57,17.94
273,1778615612006,0.03,-0.19,-0.23,-133.0,20.57,17.94
274,1778615612022,0.04,-0.22,-0.1,-82.82,2.14,62.26
275,1778615612038,0.42,0.07,0.29,-374.82,121.64,125.49
276,1778615612038,0.42,0.07,0.29,-374.82,121.64,125.49
277,1778615612054,0.42,0.07,0.29,-374.82,121.64,125.49
278,1778615612054,0.42,0.07,0.29,-374.82,121.64,125.49
279,1778615612071,1.5,0.55,0.73,-13.43,-47.91,157.71
280,1778615612087,1.5,0.55,0.73,-13.43,-47.91,157.71
281,1778615612087,1.5,0.55,0.73,-13.43,-47.91,157.71
282,1778615612103,1.5,0.55,0.73,-13.43,-47.91,157.71
283,1778615612120,2.89,0.96,0.42,76.84,14.77,9.16
284,1778615612120,2.89,0.96,0.42,76.84,14.77,9.16
285,1778615612136,2.89,0.96,0.42,76.84,14.77,9.16
286,1778615612136,2.89,0.96,0.42,76.84,14.77,9.16
287,1778615612152,2.39,0.39,0.95,-55.97,-63.78,47.85
288,1778615612168,2.39,0.39,0.95,-55.97,-63.78,47.85
289,1778615612168,2.39,0.39,0.95,-55.97,-63.78,47.85
290,1778615612184,1.65,1.05,0.02,100.52,2.56,-16.05
291,1778615612184,1.65,1.05,0.02,100.52,2.56,-16.05
292,1778615612200,1.65,1.05,0.02,100.52,2.56,-16.05
293,1778615612217,1.65,1.05,0.02,100.52,2.56,-16.05
294,1778615612217,1.65,1.05,0.02,100.52,2.56,-16.05
295,1778615612233,1.17,0.96,0.26,105.77,-41.32,-63.48
296,1778615612249,1.17,0.96,0.26,105.77,-41.32,-63.48
297,1778615612249,1.17,0.96,0.26,105.77,-41.32,-63.48
298,1778615612265,0.46,0.59,0.26,118.23,-47.49,-95.34
299,1778615612265,0.46,0.59,0.26,118.23,-47.49,-95.34
300,1778615612282,0.46,0.59,0.26,118.23,-47.49,-95.34
301,1778615612297,0.02,0.19,0.11,169.68,-3.97,-125.55
302,1778615612297,0.02,0.19,0.11,169.68,-3.97,-125.55
303,1778615612314,0.02,0.19,0.11,169.68,-3.97,-125.55
304,1778615612314,0.02,0.19,0.11,169.68,-3.97,-125.55
305,1778615612330,0.02,0.19,0.11,169.68,-3.97,-125.55
306,1778615612346,-0.08,0.09,0.04,151.12,-49.07,-143.13
307,1778615612346,-0.08,0.09,0.04,151.12,-49.07,-143.13
308,1778615612362,-0.08,0.09,0.04,151.12,-49.07,-143.13
309,1778615612378,-0.03,0.04,0.66,17.58,-101.99,-160.95
310,1778615612378,-0.03,0.04,0.66,17.58,-101.99,-160.95
311,1778615612394,-0.03,0.04,0.66,17.58,-101.99,-160.95
312,1778615612394,-0.03,0.04,0.66,17.58,-101.99,-160.95
313,1778615612410,-0.02,-0.12,-0.08,17.58,-101.99,-160.95
314,1778615612426,-0.02,-0.12,-0.08,244.93,67.81,-128.36
315,1778615612426,-0.02,-0.12,-0.08,244.93,67.81,-128.36
316,1778615612441,-0.02,-0.12,-0.08,244.93,67.81,-128.36
317,1778615612458,-0.03,-0.04,0.03,157.65,13.67,-80.57
318,1778615612458,-0.03,-0.04,0.03,157.65,13.67,-80.57
319,1778615612474,-0.03,-0.04,0.03,157.65,13.67,-80.57
320,1778615612474,-0.03,-0.04,0.03,157.65,13.67,-80.57
321,1778615612490,0.76,-0.03,-0.12,-262.63,-287.35,159.0
322,1778615612507,0.76,-0.03,-0.12,-262.63,-287.35,159.0
323,1778615612507,0.76,-0.03,-0.12,-262.63,-287.35,159.0
324,1778615612523,0.76,-0.03,-0.12,-262.63,-287.35,159.0
325,1778615612539,3.26,3.44,0.35,69.76,262.63,60.3
326,1778615612539,3.26,3.44,0.35,69.76,262.63,60.3
327,1778615612555,3.26,3.44,0.35,69.76,262.63,60.3
328,1778615612555,3.26,3.44,0.35,69.76,262.63,60.3
329,1778615612572,2.16,1.91,-0.79,251.95,101.99,-147.52
330,1778615612588,2.16,1.91,-0.79,251.95,101.99,-147.52
331,1778615612588,2.16,1.91,-0.79,251.95,101.99,-147.52
332,1778615612604,0.61,1.46,0.18,3.23,-18.19,-38.57
333,1778615612604,0.61,1.46,0.18,3.23,-18.19,-38.57
334,1778615612620,0.61,1.46,0.18,3.23,-18.19,-38.57
335,1778615612636,0.61,1.46,0.18,3.23,-18.19,-38.57
336,1778615612636,0.61,1.46,0.18,3.23,-18.19,-38.57
337,1778615612653,1.01,2.85,-0.42,76.97,-88.87,-464.11
338,1778615612669,1.01,2.85,-0.42,76.97,-88.87,-464.11
339,1778615612669,1.01,2.85,-0.42,76.97,-88.87,-464.11
340,1778615612685,0.52,0.77,0.13,37.84,-91.43,-688.78
341,1778615612685,0.52,0.77,0.13,37.84,-91.43,-688.78
342,1778615612702,0.52,0.77,0.13,37.84,-91.43,-688.78
343,1778615612718,-0.0,0.86,0.05,141.3,101.93,112.12
344,1778615612718,-0.0,0.86,0.05,141.3,101.93,112.12
345,1778615612734,-0.0,0.86,0.05,141.3,101.93,112.12
346,1778615612734,-0.0,0.86,0.05,141.3,101.93,112.12
347,1778615612750,-0.0,0.86,0.05,141.3,101.93,112.12
348,1778615612766,-0.03,0.07,0.11,141.3,101.93,112.12
349,1778615612766,-0.03,0.07,0.11,141.3,101.93,112.12
350,1778615612782,-0.03,0.07,0.11,168.27,128.23,-7.75
351,1778615612799,-0.06,0.59,0.03,-25.51,-115.66,-32.04
352,1778615612799,-0.06,0.59,0.03,-25.51,-115.66,-32.04
353,1778615612815,-0.06,0.59,0.03,-25.51,-115.66,-32.04
354,1778615612815,-0.06,0.59,0.03,-25.51,-115.66,-32.04
355,1778615612831,0.04,-0.01,-0.04,-66.96,-319.15,4.27
356,1778615612847,0.04,-0.01,-0.04,-66.96,-319.15,4.27
357,1778615612847,0.04,-0.01,-0.04,-66.96,-319.15,4.27
358,1778615612863,0.04,-0.01,-0.04,-66.96,-319.15,4.27
359,1778615612879,0.19,-0.05,0.03,-98.33,-108.7,-34.36
360,1778615612879,0.19,-0.05,0.03,-98.33,-108.7,-34.36
361,1778615612895,0.19,-0.05,0.03,-98.33,-108.7,-34.36
362,1778615612895,0.19,-0.05,0.03,-98.33,-108.7,-34.36
363,1778615612911,0.17,-0.06,-0.17,-13.24,1.34,-21.79
364,1778615612927,0.17,-0.06,-0.17,-13.24,1.34,-21.79
365,1778615612927,0.17,-0.06,-0.17,-13.24,1.34,-21.79
366,1778615612943,0.17,-0.06,-0.17,-13.24,1.34,-21.79
367,1778615612959,0.18,0.21,-0.28,-106.63,-32.84,4.7
368,1778615612959,0.18,0.21,-0.28,-106.63,-32.84,4.7
369,1778615612975,0.18,0.21,-0.28,-106.63,-32.84,4.7
370,1778615612975,0.18,0.21,-0.28,-106.63,-32.84,4.7
371,1778615612992,0.22,4.23,0.67,-90.7,-490.42,-100.1
372,1778615613008,0.22,4.23,0.67,-90.7,-490.42,-100.1
373,1778615613008,0.22,4.23,0.67,-90.7,-490.42,-100.1
374,1778615613023,0.22,4.23,0.67,-90.7,-490.42,-100.1
375,1778615613040,0.56,2.25,1.15,-36.44,55.18,78.49
376,1778615613040,0.56,2.25,1.15,-36.44,55.18,78.49
377,1778615613056,0.56,2.25,1.15,-36.44,55.18,78.49
378,1778615613056,0.56,2.25,1.15,-36.44,55.18,78.49
379,1778615613072,0.56,2.25,1.15,-36.44,55.18,78.49
380,1778615613088,0.56,2.25,1.15,-36.44,55.18,78.49
381,1778615613088,0.56,2.25,1.15,-36.44,55.18,78.49
382,1778615613104,-0.8,1.63,0.26,36.93,-2.32,-6.04
383,1778615613104,-0.8,1.63,0.26,36.93,-2.32,-6.04
384,1778615613120,-0.8,1.63,0.26,36.93,-2.32,-6.04
385,1778615613136,-0.4,0.71,0.15,36.93,-2.32,-6.04
386,1778615613136,-0.4,0.71,0.15,36.93,-2.32,-6.04
387,1778615613152,-0.4,0.71,0.15,25.63,76.42,-86.43
388,1778615613169,-0.4,0.71,0.15,25.63,76.42,-86.43
389,1778615613169,-0.4,0.71,0.15,25.63,76.42,-86.43
390,1778615613185,-0.13,0.09,0.09,54.81,118.29,-118.96
391,1778615613185,-0.13,0.09,0.09,54.81,118.29,-118.96
392,1778615613201,-0.13,0.09,0.09,54.81,118.29,-118.96
393,1778615613217,0.0,0.02,0.09,67.75,69.46,-143.86
394,1778615613217,0.0,0.02,0.09,67.75,69.46,-143.86
395,1778615613234,0.0,0.02,0.09,67.75,69.46,-143.86
396,1778615613234,0.0,0.02,0.09,67.75,69.46,-143.86
397,1778615613249,0.07,0.03,0.14,21.91,74.4,-173.89
398,1778615613265,0.07,0.03,0.14,21.91,74.4,-173.89
399,1778615613265,0.07,0.03,0.14,21.91,74.4,-173.89
400,1778615613282,0.07,0.03,0.14,21.91,74.4,-173.89
401,1778615613298,0.36,-0.2,0.56,-42.42,217.1,-48.4
402,1778615613298,0.36,-0.2,0.56,-42.42,217.1,-48.4
403,1778615613314,0.36,-0.2,0.56,-42.42,217.1,-48.4
404,1778615613314,0.36,-0.2,0.56,-42.42,217.1,-48.4
405,1778615613330,0.04,0.07,-0.13,-69.09,134.89,-38.02
406,1778615613346,0.04,0.07,-0.13,-69.09,134.89,-38.02
407,1778615613346,0.04,0.07,-0.13,-69.09,134.89,-38.02
408,1778615613363,0.04,0.07,-0.13,-69.09,134.89,-38.02
409,1778615613379,0.29,0.53,0.83,285.71,-316.83,79.22
410,1778615613379,0.29,0.53,0.83,285.71,-316.83,79.22
411,1778615613394,0.29,0.53,0.83,285.71,-316.83,79.22
412,1778615613394,0.29,0.53,0.83,285.71,-316.83,79.22
413,1778615613411,-1.12,3.73,-0.56,-247.5,264.53,-187.81
414,1778615613427,-1.12,3.73,-0.56,-247.5,264.53,-187.81
415,1778615613427,-1.12,3.73,-0.56,-247.5,264.53,-187.81
416,1778615613442,-1.06,1.48,-1.34,89.72,-10.07,31.01
417,1778615613458,-1.06,1.48,-1.34,89.72,-10.07,31.01
418,1778615613458,-1.06,1.48,-1.34,89.72,-10.07,31.01
419,1778615613474,-1.06,1.48,-1.34,89.72,-10.07,31.01
420,1778615613474,-1.06,1.48,-1.34,89.72,-10.07,31.01
421,1778615613490,-1.06,1.48,-1.34,89.72,-10.07,31.01
422,1778615613506,-0.77,1.74,-0.04,13.61,-90.82,20.45
423,1778615613506,-0.77,1.74,-0.04,13.61,-90.82,20.45
424,1778615613522,-1.26,2.3,-0.56,47.67,106.81,-33.69
425,1778615613538,-1.26,2.3,-0.56,47.67,106.81,-33.69
426,1778615613538,-1.26,2.3,-0.56,47.67,106.81,-33.69
427,1778615613553,-1.26,2.3,-0.56,47.67,106.81,-33.69
428,1778615613570,-0.84,1.2,-0.35,103.94,12.08,-25.82
429,1778615613570,-0.84,1.2,-0.35,103.94,12.08,-25.82
430,1778615613586,-0.84,1.2,-0.35,103.94,12.08,-25.82
431,1778615613586,-0.84,1.2,-0.35,103.94,12.08,-25.82
432,1778615613602,-0.35,0.64,0.06,138.67,-18.13,-45.23
433,1778615613618,-0.35,0.64,0.06,138.67,-18.13,-45.23
434,1778615613618,-0.35,0.64,0.06,138.67,-18.13,-45.23
435,1778615613634,-0.06,0.19,0.08,87.4,31.13,-27.65
436,1778615613634,-0.06,0.19,0.08,87.4,31.13,-27.65
437,1778615613651,-0.06,0.19,0.08,87.4,31.13,-27.65
438,1778615613667,-0.06,0.19,0.08,87.4,31.13,-27.65
439,1778615613667,-0.06,0.19,0.08,87.4,31.13,-27.65
440,1778615613684,0.71,0.99,2.66,1.46,-272.58,21.73
441,1778615613684,0.71,0.99,2.66,1.46,-272.58,21.73
442,1778615613700,0.71,0.99,2.66,1.46,-272.58,21.73
443,1778615613716,0.07,0.23,-0.03,51.45,-130.98,6.16
444,1778615613716,0.07,0.23,-0.03,51.45,-130.98,6.16
445,1778615613733,0.07,0.23,-0.03,51.45,-130.98,6.16
446,1778615613749,0.1,0.05,-0.01,-40.28,-86.91,-21.12
447,1778615613749,0.1,0.05,-0.01,-40.28,-86.91,-21.12
448,1778615613765,0.1,0.05,-0.01,-40.28,-86.91,-21.12
449,1778615613765,0.1,0.05,-0.01,-40.28,-86.91,-21.12
450,1778615613781,0.1,0.05,-0.01,-40.28,-86.91,-21.12
451,1778615613797,0.2,-0.03,-0.08,-59.39,-81.42,-15.32
452,1778615613797,0.2,-0.03,-0.08,-59.39,-81.42,-15.32
453,1778615613813,0.2,-0.03,-0.08,-59.39,-81.42,-15.32
454,1778615613829,0.19,0.32,-0.21,-83.98,-84.17,50.84
455,1778615613829,0.19,0.32,-0.21,-83.98,-84.17,50.84
456,1778615613845,0.19,0.32,-0.21,-83.98,-84.17,50.84
457,1778615613845,0.19,0.32,-0.21,-83.98,-84.17,50.84
458,1778615613861,-0.55,3.2,0.3,145.14,-320.68,204.04
459,1778615613876,-0.55,3.2,0.3,145.14,-320.68,204.04
460,1778615613876,-0.55,3.2,0.3,145.14,-320.68,204.04
461,1778615613893,-0.95,2.3,1.23,145.14,-320.68,204.04
462,1778615613908,-0.95,2.3,1.23,25.15,-164.43,64.76
463,1778615613908,-0.95,2.3,1.23,25.15,-164.43,64.76
464,1778615613924,-0.95,2.3,1.23,25.15,-164.43,64.76
465,1778615613924,-0.95,2.3,1.23,25.15,-164.43,64.76
466,1778615613940,-1.0,2.04,0.04,-107.06,156.19,35.03
467,1778615613957,-1.0,2.04,0.04,-107.06,156.19,35.03
468,1778615613957,-1.0,2.04,0.04,-107.06,156.19,35.03
469,1778615613972,-1.18,1.9,-0.38,-107.06,156.19,35.03
470,1778615613989,-1.18,1.9,-0.38,15.75,40.34,-21.61
471,1778615613989,-1.18,1.9,-0.38,15.75,40.34,-21.61
472,1778615614005,-1.18,1.9,-0.38,15.75,40.34,-21.61
473,1778615614005,-1.18,1.9,-0.38,15.75,40.34,-21.61
474,1778615614021,-1.18,1.9,-0.38,15.75,40.34,-21.61
475,1778615614037,-1.18,1.9,-0.38,15.75,40.34,-21.61
476,1778615614037,-1.18,1.9,-0.38,15.75,40.34,-21.61
477,1778615614053,-1.18,1.9,-0.38,15.75,40.34,-21.61
478,1778615614069,-0.11,0.01,0.25,-23.44,132.08,-101.01
479,1778615614069,-0.11,0.01,0.25,-23.44,132.08,-101.01
480,1778615614085,0.09,-0.03,0.03,-28.38,178.41,-110.78
481,1778615614085,0.09,-0.03,0.03,-28.38,178.41,-110.78
482,1778615614101,0.09,-0.03,0.03,-28.38,178.41,-110.78
483,1778615614117,0.09,-0.03,0.03,-28.38,178.41,-110.78
484,1778615614117,0.09,-0.03,0.03,-28.38,178.41,-110.78
485,1778615614133,0.12,-0.0,0.0,-31.92,146.12,-107.24
486,1778615614149,0.12,-0.0,0.0,-31.92,146.12,-107.24
487,1778615614149,0.12,-0.0,0.0,-31.92,146.12,-107.24
488,1778615614165,0.46,-0.7,1.43,28.32,-177.98,-181.95
489,1778615614165,0.46,-0.7,1.43,28.32,-177.98,-181.95
490,1778615614181,0.46,-0.7,1.43,28.32,-177.98,-181.95
491,1778615614197,0.1,0.01,0.12,35.03,82.46,-69.34
492,1778615614197,0.1,0.01,0.12,35.03,82.46,-69.34
493,1778615614213,0.1,0.01,0.12,35.03,82.46,-69.34
494,1778615614229,0.1,0.01,0.12,35.03,82.46,-69.34
495,1778615614229,0.1,0.01,0.12,35.03,82.46,-69.34
496,1778615614246,0.02,-0.39,1.65,112.98,-151.79,35.22
497,1778615614246,0.02,-0.39,1.65,112.98,-151.79,35.22
498,1778615614262,0.02,-0.39,1.65,112.98,-151.79,35.22
499,1778615614278,-0.21,0.79,-0.28,-306.95,125.37,-80.44
500,1778615614278,-0.21,0.79,-0.28,-306.95,125.37,-80.44
501,1778615614293,-0.21,0.79,-0.28,-306.95,125.37,-80.44
502,1778615614293,-0.21,0.79,-0.28,-306.95,125.37,-80.44
503,1778615614310,-0.21,0.79,-0.28,-306.95,125.37,-80.44
504,1778615614326,-3.2,2.77,-0.93,-204.16,88.81,-86.85
505,1778615614326,-3.2,2.77,-0.93,-204.16,88.81,-86.85
506,1778615614342,-3.2,2.77,-0.93,-204.16,88.81,-86.85
507,1778615614358,-1.08,0.92,-0.24,165.1,-35.64,-41.81
508,1778615614358,-1.08,0.92,-0.24,165.1,-35.64,-41.81
509,1778615614374,-1.08,0.92,-0.24,165.1,-35.64,-41.81
510,1778615614374,-1.08,0.92,-0.24,165.1,-35.64,-41.81
511,1778615614391,-1.08,0.92,-0.24,165.1,-35.64,-41.81
512,1778615614407,-2.03,1.79,0.04,6.84,11.41,-109.31
513,1778615614407,-2.03,1.79,0.04,6.84,11.41,-109.31
514,1778615614423,-1.49,1.26,-0.13,6.84,11.41,-109.31
515,1778615614440,-1.49,1.26,-0.13,48.95,68.73,-503.97
516,1778615614440,-1.49,1.26,-0.13,48.95,68.73,-503.97
517,1778615614456,-1.49,1.26,-0.13,48.95,68.73,-503.97
518,1778615614456,-1.49,1.26,-0.13,48.95,68.73,-503.97
519,1778615614472,-0.69,-0.96,0.08,34.48,90.27,-622.8
520,1778615614488,-0.69,-0.96,0.08,34.48,90.27,-622.8
521,1778615614488,-0.69,-0.96,0.08,34.48,90.27,-622.8
522,1778615614504,-0.29,-0.04,0.14,-44.86,96.37,57.07
523,1778615614504,-0.29,-0.04,0.14,-44.86,96.37,57.07
524,1778615614521,-0.29,-0.04,0.14,-44.86,96.37,57.07
525,1778615614537,-0.29,-0.04,0.14,-44.86,96.37,57.07
526,1778615614537,-0.29,-0.04,0.14,-44.86,96.37,57.07
527,1778615614553,-0.74,0.85,2.75,-229.86,-87.89,-45.35
528,1778615614569,-0.74,0.85,2.75,-229.86,-87.89,-45.35
529,1778615614569,-0.74,0.85,2.75,-229.86,-87.89,-45.35
530,1778615614585,-0.2,0.14,-0.04,288.64,-20.57,27.16
531,1778615614585,-0.2,0.14,-0.04,288.64,-20.57,27.16
532,1778615614602,-0.2,0.14,-0.04,288.64,-20.57,27.16
533,1778615614618,0.13,0.14,0.0,249.76,-157.47,-25.51
534,1778615614618,0.13,0.14,0.0,249.76,-157.47,-25.51
535,1778615614634,0.13,0.14,0.0,249.76,-157.47,-25.51
536,1778615614634,0.13,0.14,0.0,249.76,-157.47,-25.51
537,1778615614650,0.13,0.14,0.0,249.76,-157.47,-25.51
538,1778615614666,0.09,0.09,0.04,57.8,-125.24,8.36
539,1778615614666,0.09,0.09,0.04,57.8,-125.24,8.36
540,1778615614682,0.09,0.09,0.04,57.8,-125.24,8.36
541,1778615614699,-0.18,0.03,-0.32,57.8,-125.24,8.36
542,1778615614699,-0.18,0.03,-0.32,57.8,-125.24,8.36
543,1778615614715,-0.18,0.03,-0.32,-52.73,-10.99,47.61
544,1778615614715,-0.18,0.03,-0.32,-52.73,-10.99,47.61
545,1778615614730,-1.24,0.43,-0.07,-49.26,-95.83,137.57
546,1778615614746,-1.24,0.43,-0.07,-49.26,-95.83,137.57
547,1778615614746,-1.24,0.43,-0.07,-49.26,-95.83,137.57
548,1778615614762,-1.24,0.43,-0.07,-49.26,-95.83,137.57
549,1778615614778,-3.83,0.62,1.6,156.74,-40.83,61.77
550,1778615614778,-3.83,0.62,1.6,156.74,-40.83,61.77
551,1778615614793,-3.83,0.62,1.6,156.74,-40.83,61.77
552,1778615614809,-1.87,0.03,0.34,-108.95,-11.96,67.26
553,1778615614809,-1.87,0.03,0.34,-108.95,-11.96,67.26
554,1778615614826,-1.87,0.03,0.34,-108.95,-11.96,67.26
555,1778615614826,-1.87,0.03,0.34,-108.95,-11.96,67.26
556,1778615614842,-1.87,0.03,0.34,-108.95,-11.96,67.26
557,1778615614859,-2.7,-0.03,0.03,-11.78,2.14,31.01
558,1778615614859,-2.7,-0.03,0.03,-11.78,2.14,31.01
559,1778615614875,-2.7,-0.03,0.03,-11.78,2.14,31.01
560,1778615614875,-2.7,-0.03,0.03,-11.78,2.14,31.01
561,1778615614891,-1.37,-0.07,0.2,-29.24,32.53,-24.23
562,1778615614907,-1.37,-0.07,0.2,-29.24,32.53,-24.23
563,1778615614907,-1.37,-0.07,0.2,-29.24,32.53,-24.23
564,1778615614923,-0.34,-0.22,0.17,-93.57,48.95,-87.1
565,1778615614939,-0.34,-0.22,0.17,-93.57,48.95,-87.1
566,1778615614939,-0.34,-0.22,0.17,-93.57,48.95,-87.1
567,1778615614955,-0.34,-0.22,0.17,-93.57,48.95,-87.1
568,1778615614955,-0.34,-0.22,0.17,-93.57,48.95,-87.1
569,1778615614972,0.08,-0.0,0.01,-64.09,147.64,-99.91
570,1778615614988,0.08,-0.0,0.01,-64.09,147.64,-99.91
571,1778615614988,0.08,-0.0,0.01,-64.09,147.64,-99.91
572,1778615615004,0.07,0.06,-0.08,-64.09,147.64,-99.91
573,1778615615004,0.07,0.06,-0.08,-64.09,147.64,-99.91
574,1778615615020,0.07,0.06,-0.08,-64.09,147.64,-99.91
575,1778615615036,0.05,0.09,-0.02,-99.55,-21.85,-138.49
576,1778615615036,0.05,0.09,-0.02,-99.55,-21.85,-138.49
577,1778615615052,0.05,0.09,-0.02,-99.55,-21.85,-138.49
578,1778615615067,0.05,0.09,-0.02,-99.55,-21.85,-138.49
579,1778615615067,0.05,0.09,-0.02,-99.55,-21.85,-138.49
580,1778615615083,0.65,0.29,1.85,1.83,-100.04,-33.75
581,1778615615099,0.65,0.29,1.85,1.83,-100.04,-33.75
582,1778615615099,0.65,0.29,1.85,1.83,-100.04,-33.75
583,1778615615116,0.09,-0.16,0.41,-121.77,27.04,-17.09
584,1778615615116,0.09,-0.16,0.41,-121.77,27.04,-17.09
585,1778615615132,0.09,-0.16,0.41,-121.77,27.04,-17.09
586,1778615615148,0.09,-0.16,0.41,-121.77,27.04,-17.09
587,1778615615148,0.09,-0.16,0.41,-121.77,27.04,-17.09
588,1778615615163,-0.29,-0.01,-0.51,138.79,13.43,106.69
589,1778615615179,-0.29,-0.01,-0.51,138.79,13.43,106.69
590,1778615615179,-0.29,-0.01,-0.51,138.79,13.43,106.69
591,1778615615196,-3.32,1.99,-0.55,-210.21,-49.99,-58.78
592,1778615615196,-3.32,1.99,-0.55,-210.21,-49.99,-58.78
593,1778615615211,-3.32,1.99,-0.55,-210.21,-49.99,-58.78
594,1778615615227,-2.84,-2.27,-1.99,-210.21,-49.99,-58.78
595,1778615615227,-2.84,-2.27,-1.99,-210.21,-49.99,-58.78
596,1778615615243,-2.84,-2.27,-1.99,160.34,152.83,152.53
597,1778615615260,-2.84,-2.27,-1.99,160.34,152.83,152.53
598,1778615615260,-2.84,-2.27,-1.99,160.34,152.83,152.53
599,1778615615275,-0.93,-0.49,0.23,186.95,-24.29,52.19
600,1778615615275,-0.93,-0.49,0.23,186.95,-24.29,52.19
601,1778615615292,-0.93,-0.49,0.23,186.95,-24.29,52.19
602,1778615615308,-2.44,-1.47,-0.4,186.95,-24.29,52.19
603,1778615615308,-2.44,-1.47,-0.4,186.95,-24.29,52.19
604,1778615615324,-2.44,-1.47,-0.4,-19.47,56.76,-36.68
605,1778615615324,-2.44,-1.47,-0.4,-19.47,56.76,-36.68
606,1778615615340,-2.44,-1.47,-0.4,-19.47,56.76,-36.68
607,1778615615356,-1.38,-0.72,-0.12,50.11,95.34,-57.01
608,1778615615356,-1.38,-0.72,-0.12,50.11,95.34,-57.01
609,1778615615372,-1.38,-0.72,-0.12,50.11,95.34,-57.01
610,1778615615388,-0.8,-0.28,-0.05,-28.26,88.68,-51.03
611,1778615615388,-0.8,-0.28,-0.05,-28.26,88.68,-51.03
612,1778615615404,-0.8,-0.28,-0.05,-28.26,88.68,-51.03
613,1778615615404,-0.8,-0.28,-0.05,-28.26,88.68,-51.03
614,1778615615420,-0.8,-0.28,-0.05,-28.26,88.68,-51.03
615,1778615615436,-0.19,0.04,0.03,-53.16,85.94,-50.72
616,1778615615436,-0.19,0.04,0.03,-53.16,85.94,-50.72
617,1778615615452,-0.19,0.04,0.03,-53.16,85.94,-50.72
618,1778615615468,-1.28,0.52,3.14,377.93,148.99,52.06
619,1778615615468,-1.28,0.52,3.14,377.93,148.99,52.06
620,1778615615484,-1.28,0.52,3.14,377.93,148.99,52.06
621,1778615615484,-1.28,0.52,3.14,377.93,148.99,52.06
622,1778615615500,-0.04,0.11,-0.15,186.95,-117.98,21.06
623,1778615615516,-0.04,0.11,-0.15,186.95,-117.98,21.06
624,1778615615516,-0.04,0.11,-0.15,186.95,-117.98,21.06
625,1778615615532,-0.04,0.11,-0.15,186.95,-117.98,21.06
626,1778615615548,-0.04,0.11,-0.15,186.95,-117.98,21.06
627,1778615615548,-0.04,0.11,-0.15,186.95,-117.98,21.06
628,1778615615564,-0.04,0.11,-0.15,186.95,-117.98,21.06
629,1778615615564,-0.04,0.11,-0.15,186.95,-117.98,21.06
630,1778615615580,-0.04,0.11,-0.15,186.95,-117.98,21.06
631,1778615615596,0.09,0.32,0.06,-59.33,-147.09,8.91
632,1778615615596,0.09,0.32,0.06,-59.33,-147.09,8.91
633,1778615615612,0.02,0.18,-0.06,-179.75,66.89,126.89
634,1778615615628,0.02,0.18,-0.06,-179.75,66.89,126.89
635,1778615615628,0.02,0.18,-0.06,-179.75,66.89,126.89
636,1778615615644,-0.34,0.26,-0.4,74.58,-67.38,247.99
637,1778615615644,-0.34,0.26,-0.4,74.58,-67.38,247.99
638,1778615615660,-1.42,0.79,0.61,388.67,-249.39,30.82
639,1778615615677,-1.42,0.79,0.61,388.67,-249.39,30.82
640,1778615615677,-1.42,0.79,0.61,388.67,-249.39,30.82
641,1778615615693,-1.42,0.79,0.61,388.67,-249.39,30.82
642,1778615615709,-3.8,-0.21,-0.59,122.31,165.71,-149.17
643,1778615615709,-3.8,-0.21,-0.59,122.31,165.71,-149.17
644,1778615615726,-3.8,-0.21,-0.59,122.31,165.71,-149.17
645,1778615615726,-3.8,-0.21,-0.59,122.31,165.71,-149.17
646,1778615615742,-2.34,-0.41,0.13,-237.06,-113.22,-14.59
647,1778615615759,-2.34,-0.41,0.13,-237.06,-113.22,-14.59
648,1778615615759,-2.34,-0.41,0.13,-237.06,-113.22,-14.59
649,1778615615775,-2.29,-1.24,-0.08,-211.98,-18.49,-171.75
650,1778615615775,-2.29,-1.24,-0.08,-211.98,-18.49,-171.75
651,1778615615791,-2.29,-1.24,-0.08,-211.98,-18.49,-171.75
652,1778615615808,-0.9,-1.23,0.37,-31.07,-3.6,-111.02
653,1778615615808,-0.9,-1.23,0.37,-31.07,-3.6,-111.02
654,1778615615824,-0.9,-1.23,0.37,-31.07,-3.6,-111.02
655,1778615615824,-0.9,-1.23,0.37,-31.07,-3.6,-111.02
656,1778615615840,-0.9,-1.23,0.37,-31.07,-3.6,-111.02
657,1778615615857,-0.11,-0.38,0.14,-86.67,30.88,-92.71
658,1778615615857,-0.11,-0.38,0.14,-86.67,30.88,-92.71
659,1778615615873,-0.11,-0.38,0.14,-86.67,30.88,-92.71
660,1778615615889,0.16,0.07,0.14,-59.75,68.12,-139.83
661,1778615615889,0.16,0.07,0.14,-59.75,68.12,-139.83
662,1778615615905,0.16,0.07,0.14,-59.75,68.12,-139.83
663,1778615615905,0.16,0.07,0.14,-59.75,68.12,-139.83
664,1778615615921,0.11,0.17,0.02,-53.65,39.61,-201.97
665,1778615615937,0.11,0.17,0.02,-53.65,39.61,-201.97
666,1778615615937,0.11,0.17,0.02,-53.65,39.61,-201.97
667,1778615615954,0.11,0.17,0.02,-53.65,39.61,-201.97
668,1778615615954,0.11,0.17,0.02,-53.65,39.61,-201.97
669,1778615615969,-0.06,0.72,1.11,36.87,44.37,-161.68
670,1778615615985,-0.06,0.72,1.11,36.87,44.37,-161.68
671,1778615615985,-0.06,0.72,1.11,36.87,44.37,-161.68
672,1778615616001,-0.11,0.02,-0.3,-194.58,-204.77,-43.27
673,1778615616017,-0.11,0.02,-0.3,-194.58,-204.77,-43.27
674,1778615616017,-0.11,0.02,-0.3,-194.58,-204.77,-43.27
675,1778615616034,-0.11,0.02,-0.3,-194.58,-204.77,-43.27
676,1778615616034,-0.11,0.02,-0.3,-194.58,-204.77,-43.27
677,1778615616050,-0.11,0.02,-0.3,-194.58,-204.77,-43.27
678,1778615616066,0.3,-0.39,1.34,-81.48,-222.41,-46.57
679,1778615616066,0.3,-0.39,1.34,-81.48,-222.41,-46.57
680,1778615616082,-0.68,-0.17,-0.96,-55.42,140.14,83.98
681,1778615616098,-0.68,-0.17,-0.96,-55.42,140.14,83.98
682,1778615616098,-0.68,-0.17,-0.96,-55.42,140.14,83.98
683,1778615616115,-2.17,-1.84,0.18,-119.32,-297.0,63.35
684,1778615616115,-2.17,-1.84,0.18,-119.32,-297.0,63.35
685,1778615616130,-2.17,-1.84,0.18,-119.32,-297.0,63.35
686,1778615616146,-1.08,-1.29,-0.67,170.96,113.34,-46.94
687,1778615616146,-1.08,-1.29,-0.67,170.96,113.34,-46.94
688,1778615616162,-1.08,-1.29,-0.67,170.96,113.34,-46.94
689,1778615616178,-1.08,-1.29,-0.67,170.96,113.34,-46.94
690,1778615616178,-1.08,-1.29,-0.67,170.96,113.34,-46.94
691,1778615616194,-1.15,-1.32,-0.24,-4.46,-6.84,-146.55
692,1778615616194,-1.15,-1.32,-0.24,-4.46,-6.84,-146.55
693,1778615616210,-1.15,-1.32,-0.24,-4.46,-6.84,-146.55
694,1778615616226,-0.63,-1.11,-0.32,-16.72,-70.01,-585.88
695,1778615616226,-0.63,-1.11,-0.32,-16.72,-70.01,-585.88
696,1778615616242,-0.63,-1.11,-0.32,-16.72,-70.01,-585.88
697,1778615616258,0.96,-3.33,-0.34,28.38,-124.21,-691.96
698,1778615616258,0.96,-3.33,-0.34,28.38,-124.21,-691.96
699,1778615616274,0.96,-3.33,-0.34,28.38,-124.21,-691.96
700,1778615616274,0.96,-3.33,-0.34,28.38,-124.21,-691.96
701,1778615616291,0.96,-3.33,-0.34,28.38,-124.21,-691.96
702,1778615616307,0.07,-0.56,0.34,-138.0,-89.17,55.91
703,1778615616307,0.07,-0.56,0.34,-138.0,-89.17,55.91
704,1778615616323,0.07,-0.56,0.34,-138.0,-89.17,55.91
705,1778615616339,0.07,-0.56,0.34,-138.0,-89.17,55.91
706,1778615616339,0.07,-0.56,0.34,-138.0,-89.17,55.91
707,1778615616355,0.07,-0.56,0.34,-138.0,-89.17,55.91
708,1778615616355,0.07,-0.56,0.34,-138.0,-89.17,55.91
709,1778615616371,-0.83,-1.06,1.59,-190.0,-76.66,-82.76
710,1778615616387,-0.83,-1.06,1.59,-1.4,16.54,-40.83
711,1778615616387,-0.83,-1.06,1.59,-1.4,16.54,-40.83
712,1778615616404,-0.83,-1.06,1.59,-1.4,16.54,-40.83
713,1778615616404,-0.83,-1.06,1.59,-1.4,16.54,-40.83
714,1778615616420,-0.06,-0.09,0.18,117.25,251.53,36.13
715,1778615616436,-0.06,-0.09,0.18,117.25,251.53,36.13
716,1778615616436,-0.06,-0.09,0.18,117.25,251.53,36.13
717,1778615616452,-0.08,0.17,-0.28,60.73,161.01,2.38
718,1778615616468,-0.08,0.17,-0.28,60.73,161.01,2.38
719,1778615616468,-0.08,0.17,-0.28,60.73,161.01,2.38
720,1778615616484,-0.08,0.17,-0.28,60.73,161.01,2.38
721,1778615616484,-0.08,0.17,-0.28,60.73,161.01,2.38
722,1778615616500,-0.08,0.13,-0.29,39.31,-15.87,-13.06
723,1778615616516,-0.08,0.13,-0.29,39.31,-15.87,-13.06
724,1778615616516,-0.08,0.13,-0.29,39.31,-15.87,-13.06
725,1778615616532,-0.09,-0.02,-0.08,43.15,-54.5,-9.28
726,1778615616548,-0.09,-0.02,-0.08,43.15,-54.5,-9.28
727,1778615616548,-0.09,-0.02,-0.08,43.15,-54.5,-9.28
728,1778615616564,0.26,-1.06,0.89,121.34,422.85,125.79
729,1778615616564,0.26,-1.06,0.89,121.34,422.85,125.79
730,1778615616580,0.26,-1.06,0.89,121.34,422.85,125.79
731,1778615616595,-0.23,-4.11,0.05,-5.13,-69.03,-75.26
732,1778615616595,-0.23,-4.11,0.05,-5.13,-69.03,-75.26
733,1778615616611,-0.23,-4.11,0.05,-5.13,-69.03,-75.26
734,1778615616627,-0.23,-4.11,0.05,-5.13,-69.03,-75.26
735,1778615616627,-0.23,-4.11,0.05,-5.13,-69.03,-75.26
736,1778615616644,-0.03,-1.93,0.05,63.66,-186.83,44.8
737,1778615616644,-0.03,-1.93,0.05,63.66,-186.83,44.8
738,1778615616660,-0.03,-1.93,0.05,63.66,-186.83,44.8
739,1778615616676,0.82,-2.75,0.38,8.06,-34.3,-127.93
740,1778615616676,0.82,-2.75,0.38,8.06,-34.3,-127.93
741,1778615616692,0.82,-2.75,0.38,8.06,-34.3,-127.93
742,1778615616709,0.79,-1.38,0.14,-41.08,-31.07,-20.57
743,1778615616709,0.79,-1.38,0.14,-41.08,-31.07,-20.57
744,1778615616725,0.79,-1.38,0.14,-41.08,-31.07,-20.57
745,1778615616725,0.79,-1.38,0.14,-41.08,-31.07,-20.57
746,1778615616741,0.79,-1.38,0.14,-41.08,-31.07,-20.57
747,1778615616757,0.47,-0.51,0.07,5.86,-91.74,-83.92
748,1778615616757,0.47,-0.51,0.07,5.86,-91.74,-83.92
749,1778615616773,0.47,-0.51,0.07,5.86,-91.74,-83.92
750,1778615616790,0.16,0.06,0.06,-28.14,-78.0,-113.34
751,1778615616790,0.16,0.06,0.06,-28.14,-78.0,-113.34
752,1778615616806,0.16,0.06,0.06,-28.14,-78.0,-113.34
753,1778615616806,0.16,0.06,0.06,-28.14,-78.0,-113.34
754,1778615616821,0.02,0.3,0.3,-28.14,-78.0,-113.34
755,1778615616838,0.02,0.3,0.3,-33.94,-78.37,-153.5
756,1778615616838,0.02,0.3,0.3,-33.94,-78.37,-153.5
757,1778615616854,0.02,0.3,0.3,-33.94,-78.37,-153.5
758,1778615616854,0.02,0.3,0.3,-33.94,-78.37,-153.5
759,1778615616870,-0.52,0.29,0.66,6.84,151.18,-253.23
760,1778615616886,-0.52,0.29,0.66,6.84,151.18,-253.23
761,1778615616886,-0.52,0.29,0.66,6.84,151.18,-253.23
762,1778615616902,-0.13,-0.52,0.49,70.13,-263.85,25.51
763,1778615616918,-0.13,-0.52,0.49,70.13,-263.85,25.51
764,1778615616918,-0.13,-0.52,0.49,70.13,-263.85,25.51
765,1778615616935,-0.13,-0.52,0.49,70.13,-263.85,25.51
766,1778615616935,-0.13,-0.52,0.49,70.13,-263.85,25.51
767,1778615616951,-0.02,0.05,0.07,127.2,-146.85,17.52
768,1778615616967,-0.02,0.05,0.07,127.2,-146.85,17.52
769,1778615616967,-0.02,0.05,0.07,127.2,-146.85,17.52
770,1778615616983,0.45,-0.54,-2.1,-453.25,765.08,111.02
771,1778615616999,0.45,-0.54,-2.1,-453.25,765.08,111.02
772,1778615616999,0.45,-0.54,-2.1,-453.25,765.08,111.02
773,1778615617014,1.22,-2.44,-1.19,-453.25,765.08,111.02
774,1778615617014,1.22,-2.44,-1.19,-453.25,765.08,111.02
775,1778615617030,1.22,-2.44,-1.19,142.27,-433.23,42.3
776,1778615617046,1.22,-2.44,-1.19,142.27,-433.23,42.3
777,1778615617046,1.22,-2.44,-1.19,142.27,-433.23,42.3
778,1778615617062,1.36,-1.57,-0.11,52.19,-62.99,-44.13
779,1778615617078,1.36,-1.57,-0.11,52.19,-62.99,-44.13
780,1778615617078,1.36,-1.57,-0.11,52.19,-62.99,-44.13
781,1778615617093,1.22,-1.29,-0.5,28.75,0.92,-21.97
782,1778615617109,1.22,-1.29,-0.5,28.75,0.92,-21.97
783,1778615617109,1.22,-1.29,-0.5,28.75,0.92,-21.97
784,1778615617126,1.22,-1.29,-0.5,28.75,0.92,-21.97
785,1778615617126,1.22,-1.29,-0.5,28.75,0.92,-21.97
786,1778615617142,1.78,-1.79,-0.58,-67.69,23.32,-42.91
787,1778615617158,1.78,-1.79,-0.58,-67.69,23.32,-42.91
788,1778615617158,1.78,-1.79,-0.58,-67.69,23.32,-42.91
789,1778615617174,1.14,-1.11,-0.33,-168.95,57.74,-32.17
790,1778615617174,1.14,-1.11,-0.33,-168.95,57.74,-32.17
791,1778615617190,1.14,-1.11,-0.33,-168.95,57.74,-32.17
792,1778615617207,0.48,-0.74,-0.26,-68.66,-2.14,-41.69
793,1778615617207,0.48,-0.74,-0.26,-68.66,-2.14,-41.69
794,1778615617223,0.48,-0.74,-0.26,-68.66,-2.14,-41.69
795,1778615617239,0.48,-0.74,-0.26,-68.66,-2.14,-41.69
796,1778615617239,0.48,-0.74,-0.26,-68.66,-2.14,-41.69
797,1778615617256,0.13,-0.17,0.09,-37.11,-80.02,-54.69
798,1778615617256,0.13,-0.17,0.09,-37.11,-80.02,-54.69
799,1778615617272,0.13,-0.17,0.09,-37.11,-80.02,-54.69
800,1778615617288,-0.59,-0.77,3.01,-52.37,217.9,-58.84
801,1778615617288,-0.59,-0.77,3.01,-52.37,217.9,-58.84
802,1778615617305,-0.59,-0.77,3.01,-52.37,217.9,-58.84
803,1778615617305,-0.59,-0.77,3.01,-52.37,217.9,-58.84
804,1778615617321,-0.59,-0.77,3.01,-52.37,217.9,-58.84
805,1778615617337,-0.06,-0.28,-0.14,23.38,39.25,7.93
806,1778615617337,-0.06,-0.28,-0.14,23.38,39.25,7.93
807,1778615617354,-0.06,-0.28,-0.14,23.38,39.25,7.93
808,1778615617354,-0.06,-0.28,-0.14,23.38,39.25,7.93
809,1778615617370,-0.06,-0.28,-0.14,23.38,39.25,7.93
810,1778615617386,-0.06,-0.28,-0.14,23.38,39.25,7.93
811,1778615617386,-0.06,-0.28,-0.14,23.38,39.25,7.93
812,1778615617402,-0.06,-0.28,-0.14,23.38,39.25,7.93
813,1778615617418,-0.35,-0.37,0.14,25.15,-101.32,318.36
814,1778615617418,-0.35,-0.37,0.14,25.15,-101.32,318.36
815,1778615617435,-0.35,-0.37,0.14,25.15,-101.32,318.36
816,1778615617435,-0.35,-0.37,0.14,25.15,-101.32,318.36
817,1778615617450,-0.35,-0.37,0.14,25.15,-101.32,318.36
818,1778615617466,0.02,0.04,0.35,143.37,107.97,402.71
819,1778615617466,0.02,0.04,0.35,143.37,107.97,402.71
820,1778615617482,-0.05,-0.59,0.92,182.01,413.82,209.78
821,1778615617498,-0.05,-0.59,0.92,182.01,413.82,209.78
822,1778615617498,-0.05,-0.59,0.92,182.01,413.82,209.78
823,1778615617513,-0.05,-0.59,0.92,182.01,413.82,209.78
824,1778615617529,-0.45,-3.03,0.03,-96.86,264.95,-365.66
825,1778615617529,-0.45,-3.03,0.03,-96.86,264.95,-365.66
826,1778615617545,-0.45,-3.03,0.03,-96.86,264.95,-365.66
827,1778615617545,-0.45,-3.03,0.03,-96.86,264.95,-365.66
828,1778615617561,0.78,-3.53,0.48,-23.8,164.37,73.3
829,1778615617577,0.78,-3.53,0.48,-23.8,164.37,73.3
830,1778615617577,0.78,-3.53,0.48,-23.8,164.37,73.3
831,1778615617593,0.78,-3.53,0.48,-23.8,164.37,73.3
832,1778615617609,0.64,-1.89,-0.0,3.05,-124.57,-56.46
833,1778615617609,0.64,-1.89,-0.0,3.05,-124.57,-56.46
834,1778615617625,0.64,-1.89,-0.0,3.05,-124.57,-56.46
835,1778615617625,0.64,-1.89,-0.0,3.05,-124.57,-56.46
836,1778615617641,0.81,-1.32,0.15,3.78,-158.63,-172.42
837,1778615617657,0.81,-1.32,0.15,3.78,-158.63,-172.42
838,1778615617657,0.81,-1.32,0.15,3.78,-158.63,-172.42
839,1778615617673,0.66,-0.87,0.24,30.09,-110.72,-105.83
840,1778615617688,0.66,-0.87,0.24,30.09,-110.72,-105.83
841,1778615617688,0.66,-0.87,0.24,30.09,-110.72,-105.83
842,1778615617704,0.11,0.06,0.02,54.32,-112.43,-121.4
843,1778615617704,0.11,0.06,0.02,54.32,-112.43,-121.4
844,1778615617720,0.11,0.06,0.02,54.32,-112.43,-121.4
845,1778615617736,0.02,0.1,0.09,6.71,-100.77,-111.76
846,1778615617736,0.02,0.1,0.09,6.71,-100.77,-111.76
847,1778615617752,0.02,0.1,0.09,6.71,-100.77,-111.76
848,1778615617768,0.02,0.1,0.09,6.71,-100.77,-111.76
849,1778615617768,0.02,0.1,0.09,6.71,-100.77,-111.76
850,1778615617784,-0.85,1.16,2.84,-51.64,266.54,-243.71
851,1778615617784,-0.85,1.16,2.84,-51.64,266.54,-243.71
852,1778615617800,-0.85,1.16,2.84,-51.64,266.54,-243.71
853,1778615617816,0.07,-0.26,-0.5,112.3,-183.47,24.72
854,1778615617816,0.07,-0.26,-0.5,112.3,-183.47,24.72
855,1778615617832,0.07,-0.26,-0.5,112.3,-183.47,24.72
856,1778615617848,0.07,-0.26,-0.5,112.3,-183.47,24.72
857,1778615617848,0.07,-0.26,-0.5,112.3,-183.47,24.72
858,1778615617863,-0.07,0.08,0.05,208.44,-107.91,12.7
859,1778615617878,-0.07,0.08,0.05,208.44,-107.91,12.7
860,1778615617878,-0.07,0.08,0.05,208.44,-107.91,12.7
861,1778615617894,-0.07,0.08,0.05,208.44,-107.91,12.7
862,1778615617894,-0.07,0.08,0.05,208.44,-107.91,12.7
863,1778615617910,-0.0,-0.04,0.12,187.99,-2.93,-16.85
864,1778615617926,-0.0,-0.04,0.12,187.99,-2.93,-16.85
865,1778615617926,-0.0,-0.04,0.12,187.99,-2.93,-16.85
866,1778615617942,0.63,-1.45,0.41,99.98,-128.17,-5.8
867,1778615617958,0.63,-1.45,0.41,99.98,-128.17,-5.8
868,1778615617958,0.63,-1.45,0.41,99.98,-128.17,-5.8
869,1778615617974,2.85,-2.63,0.65,27.1,157.53,-41.38
870,1778615617974,2.85,-2.63,0.65,27.1,157.53,-41.38
871,1778615617990,2.85,-2.63,0.65,27.1,157.53,-41.38
872,1778615618006,0.73,-0.66,-0.21,9.34,-56.88,2.56
873,1778615618006,0.73,-0.66,-0.21,9.34,-56.88,2.56
874,1778615618022,0.73,-0.66,-0.21,9.34,-56.88,2.56
875,1778615618038,0.73,-0.66,-0.21,9.34,-56.88,2.56
876,1778615618038,0.73,-0.66,-0.21,9.34,-56.88,2.56
877,1778615618054,2.03,-1.69,-0.29,125.12,-162.6,-110.9
878,1778615618054,2.03,-1.69,-0.29,125.12,-162.6,-110.9
879,1778615618070,2.03,-1.69,-0.29,125.12,-162.6,-110.9
880,1778615618085,1.53,-0.94,0.05,11.84,-167.66,-290.77
881,1778615618085,1.53,-0.94,0.05,11.84,-167.66,-290.77
882,1778615618101,1.53,-0.94,0.05,11.84,-167.66,-290.77
883,1778615618117,1.53,-0.94,0.05,11.84,-167.66,-290.77
884,1778615618117,1.53,-0.94,0.05,11.84,-167.66,-290.77
885,1778615618133,0.87,-0.61,-0.05,-29.66,-78.74,-265.32
886,1778615618133,0.87,-0.61,-0.05,-29.66,-78.74,-265.32
887,1778615618150,0.87,-0.61,-0.05,-29.66,-78.74,-265.32
888,1778615618166,0.32,-0.11,-0.0,-29.66,-78.74,-265.32
889,1778615618166,0.32,-0.11,-0.0,-29.66,-78.74,-265.32
890,1778615618182,0.32,-0.11,-0.0,-53.47,-132.08,-193.24
891,1778615618198,0.32,-0.11,-0.0,-53.47,-132.08,-193.24
892,1778615618198,0.32,-0.11,-0.0,-53.47,-132.08,-193.24
893,1778615618213,0.32,-0.11,-0.0,-53.47,-132.08,-193.24
894,1778615618213,0.32,-0.11,-0.0,-53.47,-132.08,-193.24
895,1778615618229,0.32,-0.11,-0.0,-53.47,-132.08,-193.24
896,1778615618245,0.32,-0.11,-0.0,-53.47,-132.08,-193.24
897,1778615618245,0.32,-0.11,-0.0,-53.47,-132.08,-193.24
898,1778615618261,0.32,-0.11,-0.0,-53.47,-132.08,-193.24
899,1778615618277,0.32,-0.11,-0.0,-53.47,-132.08,-193.24
900,1778615618277,0.32,-0.11,-0.0,-53.47,-132.08,-193.24
901,1778615618293,0.32,-0.11,-0.0,-53.47,-132.08,-193.24
902,1778615618309,0.32,-0.11,-0.0,-53.47,-132.08,-193.24
903,1778615618309,0.32,-0.11,-0.0,-53.47,-132.08,-193.24
904,1778615618324,0.32,-0.11,-0.0,-53.47,-132.08,-193.24
905,1778615618324,0.32,-0.11,-0.0,-53.47,-132.08,-193.24
906,1778615618340,0.32,-0.11,-0.0,-53.47,-132.08,-193.24
907,1778615618357,0.32,-0.11,-0.0,-53.47,-132.08,-193.24
908,1778615618357,0.32,-0.11,-0.0,-53.47,-132.08,-193.24
909,1778615618373,0.32,-0.11,-0.0,-53.47,-132.08,-193.24
910,1778615618389,0.08,-0.05,-0.17,31.68,153.02,-2.26
911,1778615618389,0.08,-0.05,-0.17,31.68,153.02,-2.26
912,1778615618405,0.73,-0.26,-0.44,-18.31,56.7,54.99
913,1778615618405,0.73,-0.26,-0.44,-18.31,56.7,54.99
914,1778615618421,0.73,-0.26,-0.44,-18.31,56.7,54.99
915,1778615618437,4.68,-1.79,3.0,-231.14,44.49,40.95
916,1778615618437,4.68,-1.79,3.0,-231.14,44.49,40.95
917,1778615618454,4.68,-1.79,3.0,-231.14,44.49,40.95
918,1778615618454,4.68,-1.79,3.0,-231.14,44.49,40.95
919,1778615618470,1.71,-0.45,-0.05,99.85,2.69,80.57
920,1778615618486,1.71,-0.45,-0.05,99.85,2.69,80.57
921,1778615618486,1.71,-0.45,-0.05,99.85,2.69,80.57
922,1778615618502,1.71,-0.45,-0.05,99.85,2.69,80.57
923,1778615618518,2.29,-0.02,0.32,34.0,-28.56,25.76
924,1778615618518,2.29,-0.02,0.32,34.0,-28.56,25.76
925,1778615618534,2.29,-0.02,0.32,34.0,-28.56,25.76
926,1778615618534,2.29,-0.02,0.32,34.0,-28.56,25.76
927,1778615618549,1.38,-0.06,0.0,27.71,-50.35,-23.93
928,1778615618565,1.38,-0.06,0.0,27.71,-50.35,-23.93
929,1778615618565,1.38,-0.06,0.0,27.71,-50.35,-23.93
930,1778615618581,0.6,0.05,0.01,27.71,-50.35,-23.93
931,1778615618597,0.6,0.05,0.01,65.67,-63.17,-69.09
932,1778615618597,0.6,0.05,0.01,65.67,-63.17,-69.09
933,1778615618613,0.6,0.05,0.01,65.67,-63.17,-69.09
934,1778615618629,0.02,0.22,-0.02,51.7,-100.16,-122.25
935,1778615618629,0.02,0.22,-0.02,51.7,-100.16,-122.25
936,1778615618645,0.02,0.22,-0.02,51.7,-100.16,-122.25
937,1778615618645,0.02,0.22,-0.02,51.7,-100.16,-122.25
938,1778615618661,-0.0,0.09,0.24,-27.28,-91.8,-159.18
939,1778615618677,-0.0,0.09,0.24,-27.28,-91.8,-159.18
940,1778615618677,-0.0,0.09,0.24,-27.28,-91.8,-159.18
941,1778615618693,-0.0,0.09,0.24,-27.28,-91.8,-159.18
942,1778615618709,-0.91,-0.77,0.09,233.64,281.37,-34.67
943,1778615618709,-0.91,-0.77,0.09,233.64,281.37,-34.67
944,1778615618725,-0.91,-0.77,0.09,233.64,281.37,-34.67
945,1778615618725,-0.91,-0.77,0.09,233.64,281.37,-34.67
946,1778615618742,0.03,0.03,0.35,308.84,-151.18,3.17
947,1778615618758,0.03,0.03,0.35,308.84,-151.18,3.17
948,1778615618758,0.03,0.03,0.35,308.84,-151.18,3.17
949,1778615618774,0.15,1.88,2.14,-659.12,193.66,15.08
950,1778615618774,0.15,1.88,2.14,-659.12,193.66,15.08
951,1778615618790,0.15,1.88,2.14,-659.12,193.66,15.08
952,1778615618806,0.15,1.88,2.14,-659.12,193.66,15.08
953,1778615618806,0.15,1.88,2.14,-659.12,193.66,15.08
954,1778615618822,0.59,-0.17,-0.47,-104.74,-88.56,162.17
955,1778615618839,0.59,-0.17,-0.47,-104.74,-88.56,162.17
956,1778615618839,0.59,-0.17,-0.47,-104.74,-88.56,162.17
957,1778615618855,3.16,0.86,-0.55,348.02,102.72,-424.99
958,1778615618855,3.16,0.86,-0.55,348.02,102.72,-424.99
959,1778615618871,3.16,0.86,-0.55,348.02,102.72,-424.99
960,1778615618886,1.57,0.88,0.77,-96.68,0.61,78.25
961,1778615618886,1.57,0.88,0.77,-96.68,0.61,78.25
962,1778615618903,1.57,0.88,0.77,-96.68,0.61,78.25
963,1778615618919,1.57,0.88,0.77,-96.68,0.61,78.25
964,1778615618919,1.57,0.88,0.77,-96.68,0.61,78.25
965,1778615618936,1.82,0.08,-0.5,-11.23,28.99,-0.55
966,1778615618936,1.82,0.08,-0.5,-11.23,28.99,-0.55
967,1778615618951,1.82,0.08,-0.5,-11.23,28.99,-0.55
968,1778615618967,2.42,0.32,-0.45,216.49,-70.37,-26.31
969,1778615618967,2.42,0.32,-0.45,216.49,-70.37,-26.31
970,1778615618983,2.42,0.32,-0.45,216.49,-70.37,-26.31
971,1778615618999,2.42,0.32,-0.45,216.49,-70.37,-26.31
972,1778615618999,2.42,0.32,-0.45,216.49,-70.37,-26.31
973,1778615619015,1.73,0.4,-0.33,-57.5,-71.47,-14.71
974,1778615619015,1.73,0.4,-0.33,-57.5,-71.47,-14.71
975,1778615619030,1.73,0.4,-0.33,-57.5,-71.47,-14.71
976,1778615619046,1.26,0.16,-0.19,-16.48,-95.89,-35.58
977,1778615619046,1.26,0.16,-0.19,-16.48,-95.89,-35.58
978,1778615619063,1.26,0.16,-0.19,-16.48,-95.89,-35.58
979,1778615619079,0.4,0.1,0.02,22.71,-107.3,-39.37
980,1778615619079,0.4,0.1,0.02,22.71,-107.3,-39.37
981,1778615619095,0.4,0.1,0.02,22.71,-107.3,-39.37
982,1778615619095,0.4,0.1,0.02,22.71,-107.3,-39.37
983,1778615619111,0.4,0.1,0.02,22.71,-107.3,-39.37
984,1778615619127,-0.03,-0.42,3.96,302.12,203.06,-55.42
985,1778615619127,-0.03,-0.42,3.96,302.12,203.06,-55.42
986,1778615619144,-0.03,-0.42,3.96,302.12,203.06,-55.42
987,1778615619144,-0.03,-0.42,3.96,302.12,203.06,-55.42
988,1778615619160,0.6,-0.15,1.07,-264.16,33.33,-0.61
989,1778615619176,0.6,-0.15,1.07,-264.16,33.33,-0.61
990,1778615619176,0.6,-0.15,1.07,-264.16,33.33,-0.61
991,1778615619192,0.08,0.02,-0.16,-311.71,89.48,24.9
992,1778615619209,0.08,0.02,-0.16,-311.71,89.48,24.9
993,1778615619209,0.08,0.02,-0.16,-311.71,89.48,24.9
994,1778615619225,0.08,0.02,-0.16,-311.71,89.48,24.9
995,1778615619225,0.08,0.02,-0.16,-311.71,89.48,24.9
996,1778615619241,-0.01,-0.14,-0.18,-79.59,42.6,49.44
997,1778615619257,-0.01,-0.14,-0.18,-79.59,42.6,49.44
998,1778615619257,-0.01,-0.14,-0.18,-79.59,42.6,49.44
