id,timestamp,acc_x,acc_y,acc_z,gyro_x,gyro_y,gyro_z
0,1778616379295,-0.69,-3.75,0.99,4.76,-25.94,-50.66
1,1778616379311,-0.69,-3.75,0.99,4.76,-25.94,-50.66
2,1778616379327,-0.69,-3.75,0.99,4.76,-25.94,-50.66
3,1778616379327,-0.69,-3.75,0.99,4.76,-25.94,-50.66
4,1778616379344,-0.69,-3.75,0.99,4.76,-25.94,-50.66
5,1778616379360,-0.69,-3.75,0.99,4.76,-25.94,-50.66
6,1778616379360,-0.69,-3.75,0.99,4.76,-25.94,-50.66
7,1778616379376,-0.69,-3.75,0.99,4.76,-25.94,-50.66
8,1778616379376,-0.69,-3.75,0.99,4.76,-25.94,-50.66
9,1778616379393,-0.69,-3.75,0.99,4.76,-25.94,-50.66
10,1778616379409,-0.69,-3.75,0.99,4.76,-25.94,-50.66
11,1778616379409,-0.69,-3.75,0.99,4.76,-25.94,-50.66
12,1778616379425,-0.69,-3.75,0.99,4.76,-25.94,-50.66
13,1778616379425,-0.69,-3.75,0.99,4.76,-25.94,-50.66
14,1778616379441,-0.69,-3.75,0.99,4.76,-25.94,-50.66
15,1778616379458,-0.69,-3.75,0.99,4.76,-25.94,-50.66
16,1778616379458,-0.69,-3.75,0.99,4.76,-25.94,-50.66
17,1778616379474,-0.69,-3.75,0.99,4.76,-25.94,-50.66
18,1778616379490,-0.69,-3.75,0.99,4.76,-25.94,-50.66
19,1778616379490,-0.69,-3.75,0.99,4.76,-25.94,-50.66
20,1778616379506,-0.69,-3.75,0.99,4.76,-25.94,-50.66
21,1778616379506,-0.69,-3.75,0.99,4.76,-25.94,-50.66
22,1778616379522,-0.69,-3.75,0.99,4.76,-25.94,-50.66
23,1778616379539,-0.69,-3.75,0.99,4.76,-25.94,-50.66
24,1778616379539,-0.69,-3.75,0.99,4.76,-25.94,-50.66
25,1778616379555,-0.69,-3.75,0.99,4.76,-25.94,-50.66
26,1778616379555,-0.69,-3.75,0.99,4.76,-25.94,-50.66
27,1778616379571,-0.69,-3.75,0.99,4.76,-25.94,-50.66
28,1778616379587,-0.69,-3.75,0.99,4.76,-25.94,-50.66
29,1778616379587,-0.69,-3.75,0.99,4.76,-25.94,-50.66
30,1778616379604,-0.69,-3.75,0.99,4.76,-25.94,-50.66
31,1778616379620,-0.69,-3.75,0.99,4.76,-25.94,-50.66
32,1778616379620,-0.69,-3.75,0.99,4.76,-25.94,-50.66
33,1778616379636,0.64,-1.99,1.58,-36.8,-77.15,-87.4
34,1778616379636,0.64,-1.99,1.58,-36.8,-77.15,-87.4
35,1778616379652,0.64,-1.99,1.58,-36.8,-77.15,-87.4
36,1778616379668,0.64,-1.99,1.58,-36.8,-77.15,-87.4
37,1778616379668,0.64,-1.99,1.58,-36.8,-77.15,-87.4
38,1778616379684,-0.14,-0.42,-0.07,-103.03,-67.99,-27.47
39,1778616379701,-0.17,0.22,0.32,-37.35,-57.62,-11.47
40,1778616379701,-0.17,0.22,0.32,-37.35,-57.62,-11.47
41,1778616379717,-0.17,0.22,0.32,-37.35,-57.62,-11.47
42,1778616379717,-0.17,0.22,0.32,-37.35,-57.62,-11.47
43,1778616379734,-0.17,0.22,0.32,-37.35,-57.62,-11.47
44,1778616379750,-0.16,0.01,0.26,-29.85,-14.95,54.87
45,1778616379750,-0.16,0.01,0.26,-29.85,-14.95,54.87
46,1778616379767,-0.35,-0.1,0.58,-1.4,-13.55,117.92
47,1778616379767,-0.35,-0.1,0.58,-1.4,-13.55,117.92
48,1778616379783,-0.35,-0.1,0.58,-1.4,-13.55,117.92
49,1778616379800,-0.35,-0.1,0.58,-1.4,-13.55,117.92
50,1778616379800,-0.35,-0.1,0.58,-1.4,-13.55,117.92
51,1778616379816,0.12,0.01,-0.46,-29.91,0.24,91.06
52,1778616379816,0.12,0.01,-0.46,-29.91,0.24,91.06
53,1778616379832,0.12,0.01,-0.46,-29.91,0.24,91.06
54,1778616379849,-0.04,-0.04,-0.07,-39.92,-94.48,71.47
55,1778616379849,-0.04,-0.04,-0.07,-39.92,-94.48,71.47
56,1778616379865,-0.04,-0.04,-0.07,-39.92,-94.48,71.47
57,1778616379881,-0.04,-0.04,-0.07,-39.92,-94.48,71.47
58,1778616379881,-0.04,-0.04,-0.07,-39.92,-94.48,71.47
59,1778616379897,-0.04,-0.04,-0.07,-39.92,-94.48,71.47
60,1778616379897,-0.04,-0.04,-0.07,-39.92,-94.48,71.47
61,1778616379914,-0.04,-0.04,-0.07,-39.92,-94.48,71.47
62,1778616379930,-0.04,-0.04,-0.07,-39.92,-94.48,71.47
63,1778616379930,-0.04,-0.04,-0.07,-39.92,-94.48,71.47
64,1778616379946,-0.04,-0.04,-0.07,-39.92,-94.48,71.47
65,1778616379946,-0.04,-0.04,-0.07,-39.92,-94.48,71.47
66,1778616379962,-0.04,-0.04,-0.07,-39.92,-94.48,71.47
67,1778616379978,-0.04,-0.04,-0.07,-39.92,-94.48,71.47
68,1778616379978,-0.04,-0.04,-0.07,-39.92,-94.48,71.47
69,1778616379994,-0.04,-0.04,-0.07,-39.92,-94.48,71.47
70,1778616380010,-0.04,-0.04,-0.07,-39.92,-94.48,71.47
71,1778616380010,-0.04,-0.04,-0.07,-39.92,-94.48,71.47
72,1778616380026,0.8,-2.38,-0.9,62.5,212.95,-39.31
73,1778616380026,0.8,-2.38,-0.9,62.5,212.95,-39.31
74,1778616380043,0.8,-2.38,-0.9,62.5,212.95,-39.31
75,1778616380059,0.8,-2.38,-0.9,62.5,212.95,-39.31
76,1778616380059,0.8,-2.38,-0.9,62.5,212.95,-39.31
77,1778616380075,0.8,-2.38,-0.9,62.5,212.95,-39.31
78,1778616380075,0.8,-2.38,-0.9,62.5,212.95,-39.31
79,1778616380091,-0.02,-3.93,0.4,-38.21,218.63,-85.14
80,1778616380108,-0.02,-3.93,0.4,-38.21,218.63,-85.14
81,1778616380108,-0.02,-3.93,0.4,-38.21,218.63,-85.14
82,1778616380124,-0.02,-3.93,0.4,-38.21,218.63,-85.14
83,1778616380140,-0.02,-3.93,0.4,-38.21,218.63,-85.14
84,1778616380140,-0.02,-3.93,0.4,-38.21,218.63,-85.14
85,1778616380156,-0.02,-3.93,0.4,-38.21,218.63,-85.14
86,1778616380156,-0.02,-3.93,0.4,-38.21,218.63,-85.14
87,1778616380172,0.39,0.82,0.01,32.17,-45.04,-1.83
88,1778616380188,0.39,0.82,0.01,28.63,6.9,-83.44
89,1778616380188,0.39,0.82,0.01,28.63,6.9,-83.44
90,1778616380204,-0.25,0.1,-0.15,32.71,18.49,-92.29
91,1778616380220,-0.25,0.1,-0.15,32.71,18.49,-92.29
92,1778616380220,-0.25,0.1,-0.15,32.71,18.49,-92.29
93,1778616380237,-0.25,0.1,-0.15,32.71,18.49,-92.29
94,1778616380237,-0.25,0.1,-0.15,32.71,18.49,-92.29
95,1778616380253,-0.15,-0.15,0.13,32.71,18.49,-92.29
96,1778616380269,-0.15,-0.15,0.13,-33.39,-36.07,-27.65
97,1778616380269,-0.15,-0.15,0.13,-33.39,-36.07,-27.65
98,1778616380285,-0.15,-0.15,0.13,-33.39,-36.07,-27.65
99,1778616380285,-0.15,-0.15,0.13,-33.39,-36.07,-27.65
100,1778616380302,-0.15,-0.15,0.13,-33.39,-36.07,-27.65
101,1778616380318,-0.15,-0.15,0.13,-33.39,-36.07,-27.65
102,1778616380318,-0.15,-0.15,0.13,-33.39,-36.07,-27.65
103,1778616380334,-0.01,-0.07,0.35,55.91,25.39,-61.95
104,1778616380351,-0.01,-0.07,0.35,55.91,25.39,-61.95
105,1778616380351,-0.01,-0.07,0.35,55.91,25.39,-61.95
106,1778616380367,-0.01,-0.07,0.35,55.91,25.39,-61.95
107,1778616380367,-0.01,-0.07,0.35,55.91,25.39,-61.95
108,1778616380383,-0.01,-0.07,0.35,55.91,25.39,-61.95
109,1778616380399,0.1,-0.02,-0.02,73.61,29.05,15.14
110,1778616380399,0.1,-0.02,-0.02,73.61,29.05,15.14
111,1778616380416,0.1,-0.02,-0.02,73.61,29.05,15.14
112,1778616380416,0.1,-0.02,-0.02,73.61,29.05,15.14
113,1778616380432,0.1,-0.02,-0.02,73.61,29.05,15.14
114,1778616380448,-0.14,-0.27,0.28,131.65,-40.71,38.64
115,1778616380448,-0.14,-0.27,0.28,131.65,-40.71,38.64
116,1778616380464,-0.14,-0.27,0.28,131.65,-40.71,38.64
117,1778616380480,-0.14,-0.27,0.28,131.65,-40.71,38.64
118,1778616380480,-0.14,-0.27,0.28,131.65,-40.71,38.64
119,1778616380497,-0.19,-1.2,1.02,118.65,243.59,69.03
120,1778616380497,-0.19,-1.2,1.02,118.65,243.59,69.03
121,1778616380513,1.03,-1.51,2.67,90.45,-74.28,-35.58
122,1778616380529,1.03,-1.51,2.67,90.45,-74.28,-35.58
123,1778616380529,1.03,-1.51,2.67,90.45,-74.28,-35.58
124,1778616380545,1.03,-1.51,2.67,90.45,-74.28,-35.58
125,1778616380545,1.03,-1.51,2.67,90.45,-74.28,-35.58
126,1778616380561,-0.1,-2.73,0.8,26.25,130.92,25.09
127,1778616380578,-0.1,-2.73,0.8,26.25,130.92,25.09
128,1778616380578,-0.1,-2.73,0.8,26.25,130.92,25.09
129,1778616380594,0.54,-2.46,1.82,26.25,130.92,25.09
130,1778616380610,0.54,-2.46,1.82,26.25,130.92,25.09
131,1778616380610,0.54,-2.46,1.82,26.25,130.92,25.09
132,1778616380626,-0.04,-2.34,1.14,-73.67,19.17,-62.38
133,1778616380626,-0.04,-2.34,1.14,-73.67,19.17,-62.38
134,1778616380643,-0.04,-2.34,1.14,-73.67,19.17,-62.38
135,1778616380659,-0.04,-2.34,1.14,-73.67,19.17,-62.38
136,1778616380659,-0.04,-2.34,1.14,-73.67,19.17,-62.38
137,1778616380675,-0.04,-2.34,1.14,-73.67,19.17,-62.38
138,1778616380675,-0.04,-2.34,1.14,-73.67,19.17,-62.38
139,1778616380691,-0.04,-2.34,1.14,-73.67,19.17,-62.38
140,1778616380707,-0.04,-2.34,1.14,-73.67,19.17,-62.38
141,1778616380707,-0.04,-2.34,1.14,-73.67,19.17,-62.38
142,1778616380723,-0.49,-0.35,0.03,-106.99,-68.97,-39.55
143,1778616380739,-0.49,-0.35,0.03,-106.99,-68.97,-39.55
144,1778616380739,-0.49,-0.35,0.03,-106.99,-68.97,-39.55
145,1778616380756,-0.17,0.91,0.18,-18.01,-180.85,-20.51
146,1778616380756,-0.17,0.91,0.18,-18.01,-180.85,-20.51
147,1778616380772,-0.17,0.91,0.18,-18.01,-180.85,-20.51
148,1778616380789,0.23,0.02,0.22,-78.43,-110.29,55.36
149,1778616380789,0.23,0.02,0.22,-78.43,-110.29,55.36
150,1778616380805,0.23,0.02,0.22,-78.43,-110.29,55.36
151,1778616380805,0.23,0.02,0.22,-78.43,-110.29,55.36
152,1778616380821,0.04,-0.2,0.36,10.19,-53.53,43.33
153,1778616380837,0.04,-0.2,0.36,10.19,-53.53,43.33
154,1778616380837,0.04,-0.2,0.36,10.19,-53.53,43.33
155,1778616380853,-0.02,-0.16,-0.3,-27.59,-15.01,33.14
156,1778616380870,-0.02,-0.16,-0.3,-27.59,-15.01,33.14
157,1778616380870,-0.02,-0.16,-0.3,-27.59,-15.01,33.14
158,1778616380885,-0.12,-0.17,-0.3,-68.66,-7.26,60.91
159,1778616380885,-0.12,-0.17,-0.3,-68.66,-7.26,60.91
160,1778616380902,-0.12,-0.17,-0.3,-68.66,-7.26,60.91
161,1778616380918,-0.12,-0.17,-0.3,-68.66,-7.26,60.91
162,1778616380918,-0.12,-0.17,-0.3,-68.66,-7.26,60.91
163,1778616380934,-0.12,-0.17,-0.3,-68.66,-7.26,60.91
164,1778616380950,0.03,0.02,0.26,-22.95,-117.86,96.19
165,1778616380950,0.03,0.02,0.26,-22.95,-117.86,96.19
166,1778616380966,0.15,-0.12,-0.15,-4.39,-124.08,91.37
167,1778616380966,0.15,-0.12,-0.15,-4.39,-124.08,91.37
168,1778616380982,0.15,-0.12,-0.15,-4.39,-124.08,91.37
169,1778616380999,0.15,-0.12,-0.15,-4.39,-124.08,91.37
170,1778616380999,0.15,-0.12,-0.15,-4.39,-124.08,91.37
171,1778616381015,0.15,-0.12,-0.15,-4.39,-124.08,91.37
172,1778616381016,0.15,-0.12,-0.15,-4.39,-124.08,91.37
173,1778616381031,0.15,-0.12,-0.15,-4.39,-124.08,91.37
174,1778616381047,0.15,-0.12,-0.15,-4.39,-124.08,91.37
175,1778616381047,0.15,-0.12,-0.15,-4.39,-124.08,91.37
176,1778616381064,0.4,-2.37,0.22,29.42,65.25,6.04
177,1778616381080,0.4,-2.37,0.22,29.42,65.25,6.04
178,1778616381080,0.4,-2.37,0.22,29.42,65.25,6.04
179,1778616381096,0.52,-3.67,1.64,-26.37,155.76,-32.17
180,1778616381096,0.52,-3.67,1.64,-26.37,155.76,-32.17
181,1778616381112,0.52,-3.67,1.64,-26.37,155.76,-32.17
182,1778616381128,-0.32,-4.05,-0.08,-79.04,151.98,-67.02
183,1778616381128,-0.32,-4.05,-0.08,-79.04,151.98,-67.02
184,1778616381144,-0.32,-4.05,-0.08,-79.04,151.98,-67.02
185,1778616381160,-0.32,-4.05,-0.08,-79.04,151.98,-67.02
186,1778616381160,-0.32,-4.05,-0.08,-79.04,151.98,-67.02
187,1778616381176,-0.26,-2.13,0.77,101.14,-41.81,-18.49
188,1778616381176,-0.26,-2.13,0.77,101.14,-41.81,-18.49
189,1778616381192,0.47,-0.31,0.27,36.68,11.35,-98.45
190,1778616381208,0.47,-0.31,0.27,36.68,11.35,-98.45
191,1778616381208,0.47,-0.31,0.27,36.68,11.35,-98.45
192,1778616381224,0.47,-0.31,0.27,36.68,11.35,-98.45
193,1778616381241,-0.15,0.62,-0.22,36.13,143.43,-86.24
194,1778616381241,-0.15,0.62,-0.22,36.13,143.43,-86.24
195,1778616381256,-0.15,0.62,-0.22,36.13,143.43,-86.24
196,1778616381256,-0.15,0.62,-0.22,36.13,143.43,-86.24
197,1778616381273,-0.15,0.62,-0.22,36.13,143.43,-86.24
198,1778616381289,-0.37,-0.02,-0.12,-5.19,23.44,-34.3
199,1778616381289,-0.37,-0.02,-0.12,-5.19,23.44,-34.3
200,1778616381305,0.07,-0.2,0.14,-12.21,27.89,13.43
201,1778616381305,0.07,-0.2,0.14,-12.21,27.89,13.43
202,1778616381322,0.07,-0.2,0.14,-12.21,27.89,13.43
203,1778616381338,0.07,-0.2,0.14,-12.21,27.89,13.43
204,1778616381338,0.07,-0.2,0.14,-12.21,27.89,13.43
205,1778616381354,0.07,-0.2,0.14,-12.21,27.89,13.43
206,1778616381370,0.07,-0.2,0.14,-12.21,27.89,13.43
207,1778616381370,0.07,-0.2,0.14,-12.21,27.89,13.43
208,1778616381386,0.07,-0.2,0.14,-12.21,27.89,13.43
209,1778616381386,0.07,-0.2,0.14,-12.21,27.89,13.43
210,1778616381403,0.07,-0.2,0.14,-12.21,27.89,13.43
211,1778616381419,0.07,-0.2,0.14,-12.21,27.89,13.43
212,1778616381419,0.07,-0.2,0.14,-12.21,27.89,13.43
213,1778616381435,0.07,-0.2,0.14,-12.21,27.89,13.43
214,1778616381435,0.07,-0.2,0.14,-12.21,27.89,13.43
215,1778616381452,0.07,-0.2,0.14,-12.21,27.89,13.43
216,1778616381468,0.07,-0.2,0.14,-12.21,27.89,13.43
217,1778616381468,0.07,-0.2,0.14,-12.21,27.89,13.43
218,1778616381484,0.07,-0.2,0.14,-12.21,27.89,13.43
219,1778616381500,0.07,-0.2,0.14,-12.21,27.89,13.43
220,1778616381500,0.07,-0.2,0.14,-12.21,27.89,13.43
221,1778616381516,0.07,-0.2,0.14,-12.21,27.89,13.43
222,1778616381516,0.07,-0.2,0.14,-12.21,27.89,13.43
223,1778616381532,0.07,-0.2,0.14,-12.21,27.89,13.43
224,1778616381549,0.07,-0.2,0.14,-12.21,27.89,13.43
225,1778616381549,0.07,-0.2,0.14,-12.21,27.89,13.43
226,1778616381565,0.07,-0.2,0.14,-12.21,27.89,13.43
227,1778616381565,0.07,-0.2,0.14,-12.21,27.89,13.43
228,1778616381581,0.07,-0.2,0.14,-12.21,27.89,13.43
229,1778616381598,0.07,-0.2,0.14,-12.21,27.89,13.43
230,1778616381598,0.07,-0.2,0.14,-12.21,27.89,13.43
231,1778616381614,0.07,-0.2,0.14,-12.21,27.89,13.43
232,1778616381630,0.07,-0.2,0.14,-12.21,27.89,13.43
233,1778616381630,0.07,-0.2,0.14,-12.21,27.89,13.43
234,1778616381646,0.07,-0.2,0.14,-12.21,27.89,13.43
235,1778616381646,0.07,-0.2,0.14,-12.21,27.89,13.43
236,1778616381663,0.14,-3.03,1.58,-35.34,72.08,-63.54
237,1778616381679,0.14,-3.03,1.58,-35.34,72.08,-63.54
238,1778616381679,0.14,-3.03,1.58,-35.34,72.08,-63.54
239,1778616381695,-0.02,-2.17,1.07,-91.49,-21.3,-43.76
240,1778616381695,-0.02,-2.17,1.07,-91.49,-21.3,-43.76
241,1778616381712,-0.02,-2.17,1.07,-91.49,-21.3,-43.76
242,1778616381728,-0.02,-2.17,1.07,-91.49,-21.3,-43.76
243,1778616381728,-0.02,-2.17,1.07,-91.49,-21.3,-43.76
244,1778616381744,-0.02,-2.17,1.07,-91.49,-21.3,-43.76
245,1778616381760,-0.33,0.47,0.23,-115.42,-105.04,-76.35
246,1778616381760,-0.33,0.47,0.23,-115.42,-105.04,-76.35
247,1778616381776,-0.33,0.47,0.23,-115.42,-105.04,-76.35
248,1778616381776,-0.33,0.47,0.23,-115.42,-105.04,-76.35
249,1778616381792,-0.33,0.47,0.23,-115.42,-105.04,-76.35
250,1778616381808,-0.33,0.47,0.23,-115.42,-105.04,-76.35
251,1778616381808,-0.33,0.47,0.23,-115.42,-105.04,-76.35
252,1778616381824,-0.33,0.47,0.23,-115.42,-105.04,-76.35
253,1778616381840,0.01,-0.08,0.73,5.98,-212.59,153.44
254,1778616381840,0.01,-0.08,0.73,5.98,-212.59,153.44
255,1778616381856,0.01,-0.08,0.73,5.98,-212.59,153.44
256,1778616381856,0.01,-0.08,0.73,5.98,-212.59,153.44
257,1778616381872,0.31,0.01,-0.05,26.12,-32.23,69.89
258,1778616381888,0.31,0.01,-0.05,26.12,-32.23,69.89
259,1778616381888,0.31,0.01,-0.05,26.12,-32.23,69.89
260,1778616381904,0.31,0.01,-0.05,26.12,-32.23,69.89
261,1778616381920,0.16,0.0,-0.26,-73.91,80.63,45.84
262,1778616381920,0.16,0.0,-0.26,-73.91,80.63,45.84
263,1778616381936,0.16,0.0,-0.26,-73.91,80.63,45.84
264,1778616381936,0.16,0.0,-0.26,-73.91,80.63,45.84
265,1778616381952,0.16,0.0,-0.26,-73.91,80.63,45.84
266,1778616381968,0.16,0.0,-0.26,-73.91,80.63,45.84
267,1778616381968,0.16,0.0,-0.26,-73.91,80.63,45.84
268,1778616381985,-0.06,-0.1,-0.06,-34.42,-110.6,94.6
269,1778616382001,-0.06,-0.1,-0.06,-34.42,-110.6,94.6
270,1778616382001,-0.06,-0.1,-0.06,-34.42,-110.6,94.6
271,1778616382017,-0.06,-0.1,-0.06,-34.42,-110.6,94.6
272,1778616382017,-0.06,-0.1,-0.06,-34.42,-110.6,94.6
273,1778616382033,-0.06,-0.1,-0.06,-34.42,-110.6,94.6
274,1778616382049,-0.06,-0.1,-0.06,-34.42,-110.6,94.6
275,1778616382049,-0.06,-0.1,-0.06,-34.42,-110.6,94.6
276,1778616382066,-0.06,-0.1,-0.06,-34.42,-110.6,94.6
277,1778616382066,-0.06,-0.1,-0.06,-34.42,-110.6,94.6
278,1778616382081,-0.06,-0.1,-0.06,-34.42,-110.6,94.6
279,1778616382098,-0.06,-0.1,-0.06,-34.42,-110.6,94.6
280,1778616382098,-0.06,-0.1,-0.06,-34.42,-110.6,94.6
281,1778616382114,-0.06,-0.1,-0.06,-34.42,-110.6,94.6
282,1778616382130,-0.06,-0.1,-0.06,-34.42,-110.6,94.6
283,1778616382130,-0.06,-0.1,-0.06,-34.42,-110.6,94.6
284,1778616382146,-0.06,-0.1,-0.06,-34.42,-110.6,94.6
285,1778616382146,-0.06,-0.1,-0.06,-34.42,-110.6,94.6
286,1778616382163,-0.06,-0.1,-0.06,-34.42,-110.6,94.6
287,1778616382179,-0.06,-0.1,-0.06,-34.42,-110.6,94.6
288,1778616382179,-0.06,-0.1,-0.06,-34.42,-110.6,94.6
289,1778616382195,-0.06,-0.1,-0.06,-34.42,-110.6,94.6
290,1778616382195,-0.06,-0.1,-0.06,-34.42,-110.6,94.6
291,1778616382212,-0.06,-0.1,-0.06,-34.42,-110.6,94.6
292,1778616382228,-0.06,-0.1,-0.06,-34.42,-110.6,94.6
293,1778616382228,-0.06,-0.1,-0.06,-34.42,-110.6,94.6
294,1778616382244,-0.06,-0.1,-0.06,-34.42,-110.6,94.6
295,1778616382261,-0.06,-0.1,-0.06,-34.42,-110.6,94.6
296,1778616382261,-0.06,-0.1,-0.06,-34.42,-110.6,94.6
297,1778616382277,-0.06,-0.1,-0.06,-34.42,-110.6,94.6
298,1778616382277,-0.06,-0.1,-0.06,-34.42,-110.6,94.6
299,1778616382293,-0.06,-0.1,-0.06,-34.42,-110.6,94.6
300,1778616382309,-0.06,-0.1,-0.06,-34.42,-110.6,94.6
301,1778616382310,-0.06,-0.1,-0.06,-34.42,-110.6,94.6
302,1778616382324,-0.06,-0.1,-0.06,-34.42,-110.6,94.6
303,1778616382340,-0.06,-0.1,-0.06,-34.42,-110.6,94.6
304,1778616382340,-0.06,-0.1,-0.06,-34.42,-110.6,94.6
305,1778616382356,-0.06,-0.1,-0.06,-34.42,-110.6,94.6
306,1778616382356,-0.06,-0.1,-0.06,-34.42,-110.6,94.6
307,1778616382373,-0.06,-0.1,-0.06,-34.42,-110.6,94.6
308,1778616382389,-0.06,-0.1,-0.06,-34.42,-110.6,94.6
309,1778616382389,-0.06,-0.1,-0.06,-34.42,-110.6,94.6
310,1778616382405,-0.06,-0.1,-0.06,-34.42,-110.6,94.6
311,1778616382405,-0.06,-0.1,-0.06,-34.42,-110.6,94.6
312,1778616382421,-0.06,-0.1,-0.06,-34.42,-110.6,94.6
313,1778616382438,-0.06,-0.1,-0.06,-34.42,-110.6,94.6
314,1778616382438,-0.06,-0.1,-0.06,-34.42,-110.6,94.6
315,1778616382454,-0.06,-0.1,-0.06,-34.42,-110.6,94.6
316,1778616382471,-0.06,-0.1,-0.06,-34.42,-110.6,94.6
317,1778616382471,-0.06,-0.1,-0.06,-34.42,-110.6,94.6
318,1778616382487,-0.06,-0.1,-0.06,-34.42,-110.6,94.6
319,1778616382487,-0.06,-0.1,-0.06,-34.42,-110.6,94.6
320,1778616382503,-0.06,-0.1,-0.06,-34.42,-110.6,94.6
321,1778616382519,-0.06,-0.1,-0.06,-34.42,-110.6,94.6
322,1778616382519,-0.06,-0.1,-0.06,-34.42,-110.6,94.6
323,1778616382536,-0.06,-0.1,-0.06,-34.42,-110.6,94.6
324,1778616382536,-0.06,-0.1,-0.06,-34.42,-110.6,94.6
325,1778616382552,-0.06,-0.1,-0.06,-34.42,-110.6,94.6
326,1778616382568,-0.06,-0.1,-0.06,-34.42,-110.6,94.6
327,1778616382568,-0.06,-0.1,-0.06,-34.42,-110.6,94.6
328,1778616382585,-0.06,-0.1,-0.06,-34.42,-110.6,94.6
329,1778616382585,-0.06,-0.1,-0.06,-34.42,-110.6,94.6
330,1778616382601,-0.06,-0.1,-0.06,-34.42,-110.6,94.6
331,1778616382617,2.54,-2.18,-3.47,65.98,101.56,126.89
332,1778616382617,2.54,-2.18,-3.47,65.98,101.56,126.89
333,1778616382633,2.54,-2.18,-3.47,65.98,101.56,126.89
334,1778616382650,2.54,-2.18,-3.47,65.98,101.56,126.89
335,1778616382650,2.54,-2.18,-3.47,65.98,101.56,126.89
336,1778616382666,2.54,-2.18,-3.47,65.98,101.56,126.89
337,1778616382666,2.54,-2.18,-3.47,65.98,101.56,126.89
338,1778616382682,2.54,-2.18,-3.47,65.98,101.56,126.89
339,1778616382699,2.54,-2.18,-3.47,65.98,101.56,126.89
340,1778616382699,2.54,-2.18,-3.47,65.98,101.56,126.89
341,1778616382715,2.54,-2.18,-3.47,65.98,101.56,126.89
342,1778616382715,2.54,-2.18,-3.47,65.98,101.56,126.89
343,1778616382731,2.54,-2.18,-3.47,65.98,101.56,126.89
344,1778616382747,2.54,-2.18,-3.47,65.98,101.56,126.89
345,1778616382747,2.54,-2.18,-3.47,65.98,101.56,126.89
346,1778616382764,2.54,-2.18,-3.47,65.98,101.56,126.89
347,1778616382780,2.54,-2.18,-3.47,65.98,101.56,126.89
348,1778616382780,2.54,-2.18,-3.47,65.98,101.56,126.89
349,1778616382797,2.54,-2.18,-3.47,65.98,101.56,126.89
350,1778616382797,2.54,-2.18,-3.47,65.98,101.56,126.89
351,1778616382813,2.54,-2.18,-3.47,65.98,101.56,126.89
352,1778616382829,2.54,-2.18,-3.47,65.98,101.56,126.89
353,1778616382829,2.54,-2.18,-3.47,65.98,101.56,126.89
354,1778616382845,2.54,-2.18,-3.47,65.98,101.56,126.89
355,1778616382845,2.54,-2.18,-3.47,65.98,101.56,126.89
356,1778616382862,2.54,-2.18,-3.47,65.98,101.56,126.89
357,1778616382878,2.54,-2.18,-3.47,65.98,101.56,126.89
358,1778616382878,2.54,-2.18,-3.47,65.98,101.56,126.89
359,1778616382894,2.54,-2.18,-3.47,65.98,101.56,126.89
360,1778616382911,-0.2,-0.29,0.0,-82.03,-77.03,-50.9
361,1778616382911,-0.2,-0.29,0.0,-82.03,-77.03,-50.9
362,1778616382927,-0.44,-0.44,0.69,-3.17,-26.37,59.57
363,1778616382927,-0.44,-0.44,0.69,-3.17,-26.37,59.57
364,1778616382943,-0.16,0.16,-0.32,-30.76,32.17,75.74
365,1778616382960,-0.16,0.16,-0.32,-30.76,32.17,75.74
366,1778616382960,-0.16,0.16,-0.32,-30.76,32.17,75.74
367,1778616382975,0.02,-0.09,-0.52,-30.76,32.17,75.74
368,1778616382975,0.02,-0.09,-0.52,-30.76,32.17,75.74
369,1778616382991,0.02,-0.09,-0.52,-83.01,-40.41,36.38
370,1778616383008,0.02,-0.09,-0.52,-83.01,-40.41,36.38
371,1778616383008,0.02,-0.09,-0.52,-83.01,-40.41,36.38
372,1778616383023,0.02,-0.09,-0.52,-83.01,-40.41,36.38
373,1778616383040,0.02,-0.09,-0.52,-83.01,-40.41,36.38
374,1778616383040,0.02,-0.09,-0.52,-83.01,-40.41,36.38
375,1778616383056,0.02,-0.09,-0.52,-83.01,-40.41,36.38
376,1778616383056,0.02,-0.09,-0.52,-83.01,-40.41,36.38
377,1778616383072,0.02,-0.09,-0.52,-83.01,-40.41,36.38
378,1778616383088,0.02,-0.09,-0.52,-83.01,-40.41,36.38
379,1778616383088,0.02,-0.09,-0.52,-83.01,-40.41,36.38
380,1778616383104,0.02,-0.09,-0.52,-83.01,-40.41,36.38
381,1778616383120,0.24,-0.29,1.89,60.06,-137.7,72.27
382,1778616383120,0.24,-0.29,1.89,60.06,-137.7,72.27
383,1778616383136,0.79,-2.21,-0.52,60.06,-137.7,72.27
384,1778616383136,0.79,-2.21,-0.52,60.06,-137.7,72.27
385,1778616383153,0.79,-2.21,-0.52,60.06,-137.7,72.27
386,1778616383168,0.79,-2.21,-0.52,60.06,-137.7,72.27
387,1778616383168,0.79,-2.21,-0.52,60.06,-137.7,72.27
388,1778616383184,0.79,-2.21,-0.52,60.06,-137.7,72.27
389,1778616383200,0.22,-4.63,1.05,18.62,204.22,-58.04
390,1778616383200,0.22,-4.63,1.05,18.62,204.22,-58.04
391,1778616383216,-0.04,-3.67,0.22,26.73,100.71,-47.79
392,1778616383216,-0.04,-3.67,0.22,26.73,100.71,-47.79
393,1778616383233,-0.04,-3.67,0.22,26.73,100.71,-47.79
394,1778616383249,-0.04,-3.67,0.22,26.73,100.71,-47.79
395,1778616383249,-0.04,-3.67,0.22,26.73,100.71,-47.79
396,1778616383265,-0.04,-3.67,0.22,26.73,100.71,-47.79
397,1778616383265,-0.04,-3.67,0.22,26.73,100.71,-47.79
398,1778616383281,-0.04,-3.67,0.22,26.73,100.71,-47.79
399,1778616383298,-0.04,-3.67,0.22,26.73,100.71,-47.79
400,1778616383298,-0.04,-3.67,0.22,26.73,100.71,-47.79
401,1778616383314,-0.04,-3.67,0.22,26.73,100.71,-47.79
402,1778616383330,-0.04,-3.67,0.22,26.73,100.71,-47.79
403,1778616383330,-0.04,-3.67,0.22,26.73,100.71,-47.79
404,1778616383345,-0.04,-3.67,0.22,26.73,100.71,-47.79
405,1778616383345,-0.04,-3.67,0.22,26.73,100.71,-47.79
406,1778616383362,-0.04,-3.67,0.22,26.73,100.71,-47.79
407,1778616383378,-0.04,-3.67,0.22,26.73,100.71,-47.79
408,1778616383378,-0.04,-3.67,0.22,26.73,100.71,-47.79
409,1778616383394,-0.04,-3.67,0.22,26.73,100.71,-47.79
410,1778616383410,-0.04,-3.67,0.22,26.73,100.71,-47.79
411,1778616383410,-0.04,-3.67,0.22,26.73,100.71,-47.79
412,1778616383426,-0.04,-3.67,0.22,26.73,100.71,-47.79
413,1778616383426,-0.04,-3.67,0.22,26.73,100.71,-47.79
414,1778616383442,-0.04,-3.67,0.22,26.73,100.71,-47.79
415,1778616383459,-0.04,-3.67,0.22,26.73,100.71,-47.79
416,1778616383459,-0.04,-3.67,0.22,26.73,100.71,-47.79
417,1778616383475,-0.04,-3.67,0.22,26.73,100.71,-47.79
418,1778616383475,-0.04,-3.67,0.22,26.73,100.71,-47.79
419,1778616383491,-0.04,-3.67,0.22,26.73,100.71,-47.79
420,1778616383507,-0.04,-3.67,0.22,26.73,100.71,-47.79
421,1778616383507,-0.04,-3.67,0.22,26.73,100.71,-47.79
422,1778616383523,-0.04,-3.67,0.22,26.73,100.71,-47.79
423,1778616383540,-0.04,-3.67,0.22,26.73,100.71,-47.79
424,1778616383540,-0.04,-3.67,0.22,26.73,100.71,-47.79
425,1778616383556,-0.04,-3.67,0.22,26.73,100.71,-47.79
426,1778616383556,-0.04,-3.67,0.22,26.73,100.71,-47.79
427,1778616383572,-0.04,-3.67,0.22,26.73,100.71,-47.79
428,1778616383588,-0.04,-3.67,0.22,26.73,100.71,-47.79
429,1778616383588,-0.04,-3.67,0.22,26.73,100.71,-47.79
430,1778616383604,-0.04,-3.67,0.22,26.73,100.71,-47.79
431,1778616383621,-0.04,-3.67,0.22,26.73,100.71,-47.79
432,1778616383621,-0.04,-3.67,0.22,26.73,100.71,-47.79
433,1778616383637,0.96,-0.55,-0.08,89.05,26.98,16.91
434,1778616383637,0.96,-0.55,-0.08,89.05,26.98,16.91
435,1778616383653,0.1,-3.21,2.12,5.98,65.73,5.62
436,1778616383669,0.1,-3.21,2.12,5.98,65.73,5.62
437,1778616383669,0.1,-3.21,2.12,5.98,65.73,5.62
438,1778616383685,-0.08,-3.08,0.97,-43.95,122.74,40.83
439,1778616383685,-0.08,-3.08,0.97,-43.95,122.74,40.83
440,1778616383702,-0.08,-3.08,0.97,-43.95,122.74,40.83
441,1778616383718,-0.31,-3.04,1.67,-18.92,-34.42,9.83
442,1778616383718,-0.31,-3.04,1.67,-18.92,-34.42,9.83
443,1778616383734,-0.31,-3.04,1.67,-18.92,-34.42,9.83
444,1778616383750,-0.31,-3.04,1.67,-18.92,-34.42,9.83
445,1778616383750,-0.31,-3.04,1.67,-18.92,-34.42,9.83
446,1778616383766,0.41,-2.21,1.38,-18.92,-34.42,9.83
447,1778616383766,0.41,-2.21,1.38,-18.92,-34.42,9.83
448,1778616383783,0.41,-2.21,1.38,-18.92,-34.42,9.83
449,1778616383799,0.41,-2.21,1.38,-18.92,-34.42,9.83
450,1778616383799,0.41,-2.21,1.38,-18.92,-34.42,9.83
451,1778616383815,0.41,-2.21,1.38,-18.92,-34.42,9.83
452,1778616383815,0.41,-2.21,1.38,-18.92,-34.42,9.83
453,1778616383831,0.41,-2.21,1.38,-18.92,-34.42,9.83
454,1778616383847,0.41,-2.21,1.38,-18.92,-34.42,9.83
455,1778616383847,0.41,-2.21,1.38,-18.92,-34.42,9.83
456,1778616383864,0.41,-2.21,1.38,-18.92,-34.42,9.83
457,1778616383880,0.41,-2.21,1.38,-18.92,-34.42,9.83
458,1778616383880,0.41,-2.21,1.38,-18.92,-34.42,9.83
459,1778616383897,0.41,-2.21,1.38,-18.92,-34.42,9.83
460,1778616383897,0.41,-2.21,1.38,-18.92,-34.42,9.83
461,1778616383913,0.41,-2.21,1.38,-18.92,-34.42,9.83
462,1778616383929,0.41,-2.21,1.38,-18.92,-34.42,9.83
463,1778616383929,0.41,-2.21,1.38,-18.92,-34.42,9.83
464,1778616383945,-0.26,-0.28,0.32,-54.87,80.87,62.13
465,1778616383945,-0.26,-0.28,0.32,-54.87,80.87,62.13
466,1778616383962,-0.26,-0.28,0.32,-54.87,80.87,62.13
467,1778616383978,-0.26,-0.28,0.32,-54.87,80.87,62.13
468,1778616383978,-0.26,-0.28,0.32,-54.87,80.87,62.13
469,1778616383994,-0.05,-0.12,-0.03,-54.87,80.87,62.13
470,1778616384010,-0.05,-0.12,-0.03,-5.49,23.68,74.28
471,1778616384010,-0.05,-0.12,-0.03,-5.49,23.68,74.28
472,1778616384026,0.03,-0.09,-0.62,-49.32,-48.71,67.69
473,1778616384026,0.03,-0.09,-0.62,-49.32,-48.71,67.69
474,1778616384043,0.03,-0.09,-0.62,-49.32,-48.71,67.69
475,1778616384058,0.28,0.19,0.27,-49.32,-48.71,67.69
476,1778616384058,0.28,0.19,0.27,-49.32,-48.71,67.69
477,1778616384074,0.28,0.19,0.27,-13.43,-161.56,75.26
478,1778616384090,0.28,0.19,0.27,-13.43,-161.56,75.26
479,1778616384090,0.28,0.19,0.27,-13.43,-161.56,75.26
480,1778616384106,0.28,0.19,0.27,-13.43,-161.56,75.26
481,1778616384106,0.28,0.19,0.27,-13.43,-161.56,75.26
482,1778616384122,0.28,0.19,0.27,-13.43,-161.56,75.26
483,1778616384139,0.28,0.19,0.27,-13.43,-161.56,75.26
484,1778616384139,0.28,0.19,0.27,-13.43,-161.56,75.26
485,1778616384155,0.28,0.19,0.27,-13.43,-161.56,75.26
486,1778616384155,0.28,0.19,0.27,-13.43,-161.56,75.26
487,1778616384172,0.28,0.19,0.27,-13.43,-161.56,75.26
488,1778616384188,0.28,0.19,0.27,-13.43,-161.56,75.26
489,1778616384188,0.28,0.19,0.27,-13.43,-161.56,75.26
490,1778616384205,0.28,0.19,0.27,-13.43,-161.56,75.26
491,1778616384221,0.28,0.19,0.27,-13.43,-161.56,75.26
492,1778616384221,0.28,0.19,0.27,-13.43,-161.56,75.26
493,1778616384237,0.28,0.19,0.27,-13.43,-161.56,75.26
494,1778616384237,0.28,0.19,0.27,-13.43,-161.56,75.26
495,1778616384253,0.28,0.19,0.27,-13.43,-161.56,75.26
496,1778616384270,0.28,0.19,0.27,-13.43,-161.56,75.26
497,1778616384270,0.28,0.19,0.27,-13.43,-161.56,75.26
498,1778616384286,0.28,0.19,0.27,-13.43,-161.56,75.26
499,1778616384286,0.28,0.19,0.27,-13.43,-161.56,75.26
500,1778616384302,0.28,0.19,0.27,-13.43,-161.56,75.26
501,1778616384319,0.28,0.19,0.27,-13.43,-161.56,75.26
502,1778616384319,0.28,0.19,0.27,-13.43,-161.56,75.26
503,1778616384335,0.28,0.19,0.27,-13.43,-161.56,75.26
504,1778616384335,0.28,0.19,0.27,-13.43,-161.56,75.26
505,1778616384352,0.28,0.19,0.27,-13.43,-161.56,75.26
506,1778616384368,0.28,0.19,0.27,-13.43,-161.56,75.26
507,1778616384368,0.28,0.19,0.27,-13.43,-161.56,75.26
508,1778616384384,0.28,0.19,0.27,-13.43,-161.56,75.26
509,1778616384400,0.28,0.19,0.27,-13.43,-161.56,75.26
510,1778616384400,0.28,0.19,0.27,-13.43,-161.56,75.26
511,1778616384417,0.28,0.19,0.27,-13.43,-161.56,75.26
512,1778616384417,0.28,0.19,0.27,-13.43,-161.56,75.26
513,1778616384433,0.28,0.19,0.27,-13.43,-161.56,75.26
514,1778616384449,0.28,0.19,0.27,-13.43,-161.56,75.26
515,1778616384449,0.28,0.19,0.27,-13.43,-161.56,75.26
516,1778616384466,0.28,0.19,0.27,-13.43,-161.56,75.26
517,1778616384466,0.28,0.19,0.27,-13.43,-161.56,75.26
518,1778616384482,0.28,0.19,0.27,-13.43,-161.56,75.26
519,1778616384499,0.28,0.19,0.27,-13.43,-161.56,75.26
520,1778616384499,0.28,0.19,0.27,-13.43,-161.56,75.26
521,1778616384515,0.28,0.19,0.27,-13.43,-161.56,75.26
522,1778616384515,0.28,0.19,0.27,-13.43,-161.56,75.26
523,1778616384531,0.28,0.19,0.27,-13.43,-161.56,75.26
524,1778616384547,0.28,0.19,0.27,-13.43,-161.56,75.26
525,1778616384547,0.28,0.19,0.27,-13.43,-161.56,75.26
526,1778616384563,0.28,0.19,0.27,-13.43,-161.56,75.26
527,1778616384580,0.28,0.19,0.27,-13.43,-161.56,75.26
528,1778616384580,0.28,0.19,0.27,-13.43,-161.56,75.26
529,1778616384596,0.28,0.19,0.27,-13.43,-161.56,75.26
530,1778616384596,0.28,0.19,0.27,-13.43,-161.56,75.26
531,1778616384612,0.28,0.19,0.27,-13.43,-161.56,75.26
532,1778616384628,0.28,0.19,0.27,-13.43,-161.56,75.26
533,1778616384628,0.28,0.19,0.27,-13.43,-161.56,75.26
534,1778616384645,-0.33,-0.41,0.56,128.54,-55.91,51.15
535,1778616384645,-0.33,-0.41,0.56,128.54,-55.91,51.15
536,1778616384661,-0.33,-0.41,0.56,128.54,-55.91,51.15
537,1778616384677,0.3,-1.08,0.01,55.36,297.55,69.4
538,1778616384677,0.3,-1.08,0.01,55.36,297.55,69.4
539,1778616384693,0.3,-1.08,0.01,55.36,297.55,69.4
540,1778616384710,0.3,-1.08,0.01,55.36,297.55,69.4
541,1778616384710,0.3,-1.08,0.01,55.36,297.55,69.4
542,1778616384726,0.3,-1.08,0.01,55.36,297.55,69.4
543,1778616384726,0.3,-1.08,0.01,55.36,297.55,69.4
544,1778616384742,-0.52,-3.57,1.18,-34.42,23.13,15.5
545,1778616384758,-0.52,-3.57,1.18,-34.42,23.13,15.5
546,1778616384758,-0.52,-3.57,1.18,-34.42,23.13,15.5
547,1778616384774,-0.52,-3.57,1.18,-34.42,23.13,15.5
548,1778616384791,-0.52,-3.57,1.18,-34.42,23.13,15.5
549,1778616384791,-0.52,-3.57,1.18,-34.42,23.13,15.5
550,1778616384807,-0.05,-2.92,1.47,-51.39,-81.85,-1.83
551,1778616384807,-0.05,-2.92,1.47,-51.39,-81.85,-1.83
552,1778616384823,-0.07,-1.9,1.03,-77.21,-74.83,-21.12
553,1778616384839,-0.07,-1.9,1.03,-77.21,-74.83,-21.12
554,1778616384839,-0.07,-1.9,1.03,-77.21,-74.83,-21.12
555,1778616384856,-0.07,-1.9,1.03,-77.21,-74.83,-21.12
556,1778616384856,-0.07,-1.9,1.03,-77.21,-74.83,-21.12
557,1778616384872,-0.07,-1.9,1.03,-77.21,-74.83,-21.12
558,1778616384888,-0.3,-0.63,0.36,-72.88,-61.04,-6.23
559,1778616384888,-0.3,-0.63,0.36,-72.88,-61.04,-6.23
560,1778616384904,0.45,0.49,-0.06,-1.4,-119.93,26.43
561,1778616384920,0.45,0.49,-0.06,-1.4,-119.93,26.43
562,1778616384920,0.45,0.49,-0.06,-1.4,-119.93,26.43
563,1778616384937,0.37,0.4,0.1,-36.93,-34.42,0.92
564,1778616384937,0.37,0.4,0.1,-36.93,-34.42,0.92
565,1778616384953,0.37,0.4,0.1,-36.93,-34.42,0.92
566,1778616384969,0.37,0.4,0.1,-36.93,-34.42,0.92
567,1778616384969,0.37,0.4,0.1,-36.93,-34.42,0.92
568,1778616384985,0.37,0.4,0.1,-36.93,-34.42,0.92
569,1778616384985,0.37,0.4,0.1,-36.93,-34.42,0.92
570,1778616385001,0.37,0.4,0.1,-36.93,-34.42,0.92
571,1778616385017,0.37,0.4,0.1,-36.93,-34.42,0.92
572,1778616385017,0.37,0.4,0.1,-36.93,-34.42,0.92
573,1778616385033,0.37,0.4,0.1,-36.93,-34.42,0.92
574,1778616385050,0.37,0.4,0.1,-36.93,-34.42,0.92
575,1778616385050,0.37,0.4,0.1,-36.93,-34.42,0.92
576,1778616385066,-0.08,-0.12,-0.67,-62.07,-47.97,57.01
577,1778616385066,-0.08,-0.12,-0.67,-62.07,-47.97,57.01
578,1778616385082,-0.08,-0.12,-0.67,-62.07,-47.97,57.01
579,1778616385099,0.05,0.15,0.27,-28.56,-154.72,47.24
580,1778616385099,0.05,0.15,0.27,-28.56,-154.72,47.24
581,1778616385115,0.05,0.15,0.27,-28.56,-154.72,47.24
582,1778616385115,0.05,0.15,0.27,-28.56,-154.72,47.24
583,1778616385132,0.07,0.05,0.65,-12.45,-115.6,52.43
584,1778616385148,0.07,0.05,0.65,-12.45,-115.6,52.43
585,1778616385148,0.07,0.05,0.65,-12.45,-115.6,52.43
586,1778616385164,0.07,0.05,0.65,-12.45,-115.6,52.43
587,1778616385180,0.07,0.05,0.65,-12.45,-115.6,52.43
588,1778616385180,0.07,0.05,0.65,-12.45,-115.6,52.43
589,1778616385196,0.07,0.05,0.65,-12.45,-115.6,52.43
590,1778616385196,0.07,0.05,0.65,-12.45,-115.6,52.43
591,1778616385212,0.07,0.05,0.65,-12.45,-115.6,52.43
592,1778616385229,0.07,0.05,0.65,-12.45,-115.6,52.43
593,1778616385229,0.07,0.05,0.65,-12.45,-115.6,52.43
594,1778616385245,0.07,0.05,0.65,-12.45,-115.6,52.43
595,1778616385245,0.07,0.05,0.65,-12.45,-115.6,52.43
596,1778616385261,0.07,0.05,0.65,-12.45,-115.6,52.43
597,1778616385278,0.07,0.05,0.65,-12.45,-115.6,52.43
598,1778616385278,0.07,0.05,0.65,-12.45,-115.6,52.43
599,1778616385294,0.07,0.05,0.65,-12.45,-115.6,52.43
600,1778616385310,0.07,0.05,0.65,-12.45,-115.6,52.43
601,1778616385310,0.07,0.05,0.65,-12.45,-115.6,52.43
602,1778616385327,0.33,-0.81,1.83,146.0,-15.99,9.58
603,1778616385327,0.33,-0.81,1.83,146.0,-15.99,9.58
604,1778616385343,0.33,-0.81,1.83,146.0,-15.99,9.58
605,1778616385360,0.33,-0.81,1.83,146.0,-15.99,9.58
606,1778616385360,0.33,-0.81,1.83,146.0,-15.99,9.58
607,1778616385376,0.33,-0.81,1.83,146.0,-15.99,9.58
608,1778616385376,0.33,-0.81,1.83,146.0,-15.99,9.58
609,1778616385392,0.33,-0.81,1.83,146.0,-15.99,9.58
610,1778616385408,0.33,-0.81,1.83,146.0,-15.99,9.58
611,1778616385408,0.33,-0.81,1.83,146.0,-15.99,9.58
612,1778616385424,0.33,-0.81,1.83,146.0,-15.99,9.58
613,1778616385441,0.33,-0.81,1.83,146.0,-15.99,9.58
614,1778616385441,0.33,-0.81,1.83,146.0,-15.99,9.58
615,1778616385457,-0.14,-0.04,0.06,32.1,19.53,-31.19
616,1778616385457,-0.14,-0.04,0.06,32.1,19.53,-31.19
617,1778616385473,-0.14,-0.04,0.06,32.1,19.53,-31.19
618,1778616385489,-0.14,-0.04,0.06,32.1,19.53,-31.19
619,1778616385489,-0.14,-0.04,0.06,32.1,19.53,-31.19
620,1778616385505,-0.14,-0.04,0.06,32.1,19.53,-31.19
621,1778616385505,-0.14,-0.04,0.06,32.1,19.53,-31.19
622,1778616385520,-0.34,-0.31,-0.01,47.67,-11.66,2.2
623,1778616385536,-0.34,-0.31,-0.01,47.67,-11.66,2.2
624,1778616385536,-0.34,-0.31,-0.01,47.67,-11.66,2.2
625,1778616385553,-0.02,-0.08,0.46,124.82,-28.93,-8.18
626,1778616385569,-0.02,-0.08,0.46,124.82,-28.93,-8.18
627,1778616385569,-0.02,-0.08,0.46,124.82,-28.93,-8.18
628,1778616385585,-0.02,-0.08,0.46,124.82,-28.93,-8.18
629,1778616385585,-0.02,-0.08,0.46,124.82,-28.93,-8.18
630,1778616385601,0.47,0.2,0.01,79.77,33.39,-47.97
631,1778616385617,0.01,0.26,-0.01,37.35,16.17,-32.1
632,1778616385617,0.01,0.26,-0.01,37.35,16.17,-32.1
633,1778616385633,0.01,0.26,-0.01,37.35,16.17,-32.1
634,1778616385649,-0.24,-0.07,0.45,51.33,-6.35,15.99
635,1778616385649,-0.24,-0.07,0.45,51.33,-6.35,15.99
636,1778616385665,-0.24,-0.07,0.45,51.33,-6.35,15.99
637,1778616385665,-0.24,-0.07,0.45,51.33,-6.35,15.99
638,1778616385682,-0.24,-0.07,0.45,51.33,-6.35,15.99
639,1778616385698,-0.24,-0.07,0.45,51.33,-6.35,15.99
640,1778616385698,-0.24,-0.07,0.45,51.33,-6.35,15.99
641,1778616385714,-0.24,-0.07,0.45,51.33,-6.35,15.99
642,1778616385731,-0.24,-0.07,0.45,51.33,-6.35,15.99
643,1778616385731,-0.24,-0.07,0.45,51.33,-6.35,15.99
644,1778616385746,0.53,-0.72,0.52,95.52,118.41,75.44
645,1778616385746,0.53,-0.72,0.52,95.52,118.41,75.44
646,1778616385763,0.48,-2.63,0.38,-21.0,142.58,-59.2
647,1778616385779,0.48,-2.63,0.38,-21.0,142.58,-59.2
648,1778616385779,0.48,-2.63,0.38,-21.0,142.58,-59.2
649,1778616385795,0.48,-2.63,0.38,-21.0,142.58,-59.2
650,1778616385795,0.48,-2.63,0.38,-21.0,142.58,-59.2
651,1778616385812,0.48,-2.63,0.38,-21.0,142.58,-59.2
652,1778616385828,0.48,-2.63,0.38,-21.0,142.58,-59.2
653,1778616385828,0.48,-2.63,0.38,-21.0,142.58,-59.2
654,1778616385844,0.48,-2.63,0.38,-21.0,142.58,-59.2
655,1778616385861,0.48,-2.63,0.38,-21.0,142.58,-59.2
656,1778616385861,0.48,-2.63,0.38,-21.0,142.58,-59.2
657,1778616385877,-0.1,-3.18,1.22,-27.89,-114.75,-13.0
658,1778616385877,-0.1,-3.18,1.22,-27.89,-114.75,-13.0
659,1778616385893,-0.1,-3.18,1.22,-27.89,-114.75,-13.0
660,1778616385909,0.02,-0.74,0.63,-101.01,-147.4,-10.93
661,1778616385909,0.02,-0.74,0.63,-101.01,-147.4,-10.93
662,1778616385926,0.02,-0.74,0.63,-115.23,-81.97,-41.26
663,1778616385926,0.02,-0.74,0.63,-115.23,-81.97,-41.26
664,1778616385942,0.02,-0.74,0.63,-115.23,-81.97,-41.26
665,1778616385958,-0.23,0.23,-0.02,-115.23,-81.97,-41.26
666,1778616385958,-0.23,0.23,-0.02,-115.23,-81.97,-41.26
667,1778616385974,-0.23,0.23,-0.02,-115.23,-81.97,-41.26
668,1778616385990,-0.23,0.23,-0.02,-115.23,-81.97,-41.26
669,1778616385990,-0.23,0.23,-0.02,-115.23,-81.97,-41.26
670,1778616386006,0.49,0.44,0.26,-44.74,-118.47,58.84
671,1778616386006,0.49,0.44,0.26,-44.74,-118.47,58.84
672,1778616386022,0.23,-0.25,0.71,-44.74,-118.47,58.84
673,1778616386039,0.23,-0.25,0.71,-20.39,-40.89,40.1
674,1778616386039,0.23,-0.25,0.71,-20.39,-40.89,40.1
675,1778616386055,0.23,-0.25,0.71,-20.39,-40.89,40.1
676,1778616386055,0.23,-0.25,0.71,-20.39,-40.89,40.1
677,1778616386071,-0.06,-0.37,-0.39,-50.72,131.59,29.54
678,1778616386087,-0.06,-0.37,-0.39,-50.72,131.59,29.54
679,1778616386087,-0.06,-0.37,-0.39,-50.72,131.59,29.54
680,1778616386104,-0.13,-0.12,-0.21,-9.58,-86.12,55.3
681,1778616386120,-0.13,-0.12,-0.21,-9.58,-86.12,55.3
682,1778616386120,-0.13,-0.12,-0.21,-9.58,-86.12,55.3
683,1778616386136,-0.13,-0.12,-0.21,-9.58,-86.12,55.3
684,1778616386136,-0.13,-0.12,-0.21,-9.58,-86.12,55.3
685,1778616386153,-0.13,-0.12,-0.21,-9.58,-86.12,55.3
686,1778616386169,-0.17,0.09,0.14,-6.53,-54.2,110.72
687,1778616386169,-0.17,0.09,0.14,-6.53,-54.2,110.72
688,1778616386185,-0.17,0.09,0.14,-6.53,-54.2,110.72
689,1778616386185,-0.17,0.09,0.14,-6.53,-54.2,110.72
690,1778616386201,0.16,0.18,0.16,6.9,-98.02,100.22
691,1778616386218,0.16,0.18,0.16,6.9,-98.02,100.22
692,1778616386218,0.16,0.18,0.16,6.9,-98.02,100.22
693,1778616386234,0.16,0.18,0.16,6.9,-98.02,100.22
694,1778616386250,0.16,0.18,0.16,6.9,-98.02,100.22
695,1778616386250,0.16,0.18,0.16,6.9,-98.02,100.22
696,1778616386267,0.16,0.18,0.16,6.9,-98.02,100.22
697,1778616386267,0.16,0.18,0.16,6.9,-98.02,100.22
698,1778616386283,0.16,0.18,0.16,6.9,-98.02,100.22
699,1778616386299,0.16,0.18,0.16,6.9,-98.02,100.22
700,1778616386299,0.16,0.18,0.16,6.9,-98.02,100.22
701,1778616386317,0.16,0.18,0.16,6.9,-98.02,100.22
702,1778616386317,0.16,0.18,0.16,6.9,-98.02,100.22
703,1778616386332,0.16,0.18,0.16,6.9,-98.02,100.22
704,1778616386348,0.16,0.18,0.16,6.9,-98.02,100.22
705,1778616386348,0.16,0.18,0.16,6.9,-98.02,100.22
706,1778616386364,0.16,0.18,0.16,6.9,-98.02,100.22
707,1778616386380,0.16,0.18,0.16,6.9,-98.02,100.22
708,1778616386380,0.16,0.18,0.16,6.9,-98.02,100.22
709,1778616386397,0.16,0.18,0.16,6.9,-98.02,100.22
710,1778616386397,0.16,0.18,0.16,6.9,-98.02,100.22
711,1778616386413,0.16,0.18,0.16,6.9,-98.02,100.22
712,1778616386429,0.16,0.18,0.16,6.9,-98.02,100.22
713,1778616386429,0.16,0.18,0.16,6.9,-98.02,100.22
714,1778616386445,0.16,0.18,0.16,6.9,-98.02,100.22
715,1778616386445,0.16,0.18,0.16,6.9,-98.02,100.22
716,1778616386461,0.16,0.18,0.16,6.9,-98.02,100.22
717,1778616386477,0.0,0.38,-0.25,-6.1,31.74,-76.23
718,1778616386477,0.0,0.38,-0.25,-6.1,31.74,-76.23
719,1778616386493,0.0,0.38,-0.25,-6.1,31.74,-76.23
720,1778616386509,0.0,0.38,-0.25,-4.7,79.1,-121.22
721,1778616386509,0.0,0.38,-0.25,-4.7,79.1,-121.22
722,1778616386526,-0.1,-0.22,0.0,-25.57,-11.84,-56.95
723,1778616386526,-0.1,-0.22,0.0,-25.57,-11.84,-56.95
724,1778616386542,-0.1,-0.22,0.0,-25.57,-11.84,-56.95
725,1778616386558,-0.1,-0.22,0.0,-25.57,-11.84,-56.95
726,1778616386558,-0.1,-0.22,0.0,-25.57,-11.84,-56.95
727,1778616386574,-0.1,-0.22,0.0,-25.57,-11.84,-56.95
728,1778616386591,-0.12,-0.2,0.53,9.89,27.4,-14.83
729,1778616386591,-0.12,-0.2,0.53,9.89,27.4,-14.83
730,1778616386607,-0.03,-0.24,0.07,128.54,131.71,-36.8
731,1778616386607,-0.03,-0.24,0.07,128.54,131.71,-36.8
732,1778616386623,-0.03,-0.24,0.07,128.54,131.71,-36.8
733,1778616386640,0.26,0.16,-0.11,96.86,13.12,-32.1
734,1778616386640,0.26,0.16,-0.11,96.86,13.12,-32.1
735,1778616386655,0.26,0.16,-0.11,96.86,13.12,-32.1
736,1778616386655,0.26,0.16,-0.11,96.86,13.12,-32.1
737,1778616386671,0.26,0.16,-0.11,96.86,13.12,-32.1
738,1778616386687,0.26,0.16,-0.11,96.86,13.12,-32.1
739,1778616386687,0.26,0.16,-0.11,96.86,13.12,-32.1
740,1778616386703,-0.14,0.04,0.27,27.4,58.11,-50.48
741,1778616386720,-0.14,0.04,0.27,27.4,58.11,-50.48
742,1778616386720,-0.14,0.04,0.27,27.4,58.11,-50.48
743,1778616386736,-0.14,0.04,0.27,27.4,58.11,-50.48
744,1778616386736,-0.14,0.04,0.27,27.4,58.11,-50.48
745,1778616386752,-0.14,0.04,0.27,27.4,58.11,-50.48
746,1778616386768,-0.3,-0.16,0.05,104.74,44.19,48.28
747,1778616386768,-0.3,-0.16,0.05,104.74,44.19,48.28
748,1778616386783,-0.17,-0.34,1.58,178.41,-30.58,62.07
749,1778616386800,-0.17,-0.34,1.58,178.41,-30.58,62.07
750,1778616386800,-0.17,-0.34,1.58,178.41,-30.58,62.07
751,1778616386816,-0.17,-0.34,1.58,178.41,-30.58,62.07
752,1778616386816,-0.17,-0.34,1.58,178.41,-30.58,62.07
753,1778616386832,-0.17,-0.34,1.58,178.41,-30.58,62.07
754,1778616386848,-0.17,-0.34,1.58,178.41,-30.58,62.07
755,1778616386848,-0.17,-0.34,1.58,178.41,-30.58,62.07
756,1778616386865,-0.17,-0.34,1.58,178.41,-30.58,62.07
757,1778616386865,-0.17,-0.34,1.58,178.41,-30.58,62.07
758,1778616386881,-0.17,-0.34,1.58,178.41,-30.58,62.07
759,1778616386898,-0.17,-0.34,1.58,178.41,-30.58,62.07
760,1778616386898,-0.17,-0.34,1.58,178.41,-30.58,62.07
761,1778616386914,-0.17,-0.34,1.58,178.41,-30.58,62.07
762,1778616386930,-0.17,-0.34,1.58,178.41,-30.58,62.07
763,1778616386930,-0.17,-0.34,1.58,178.41,-30.58,62.07
764,1778616386946,-0.17,-0.34,1.58,178.41,-30.58,62.07
765,1778616386946,-0.17,-0.34,1.58,178.41,-30.58,62.07
766,1778616386962,-0.17,-0.34,1.58,178.41,-30.58,62.07
767,1778616386979,-0.17,-0.34,1.58,178.41,-30.58,62.07
768,1778616386979,-0.17,-0.34,1.58,178.41,-30.58,62.07
769,1778616386995,-0.17,-0.34,1.58,178.41,-30.58,62.07
770,1778616386995,-0.17,-0.34,1.58,178.41,-30.58,62.07
771,1778616387011,-0.17,-0.34,1.58,178.41,-30.58,62.07
772,1778616387027,-0.17,-0.34,1.58,178.41,-30.58,62.07
773,1778616387027,-0.17,-0.34,1.58,178.41,-30.58,62.07
774,1778616387043,-0.17,-0.34,1.58,178.41,-30.58,62.07
775,1778616387060,-0.17,-0.34,1.58,178.41,-30.58,62.07
776,1778616387060,-0.17,-0.34,1.58,178.41,-30.58,62.07
777,1778616387076,0.56,0.61,0.13,18.68,-146.79,8.24
778,1778616387076,0.56,0.61,0.13,18.68,-146.79,8.24
779,1778616387092,0.01,0.24,0.57,-65.92,-23.44,-0.67
780,1778616387108,0.01,0.24,0.57,-65.92,-23.44,-0.67
781,1778616387108,0.01,0.24,0.57,-65.92,-23.44,-0.67
782,1778616387124,-0.14,-0.39,0.65,-30.15,88.81,35.22
783,1778616387141,-0.14,-0.39,0.65,-30.15,88.81,35.22
784,1778616387141,-0.14,-0.39,0.65,-30.15,88.81,35.22
785,1778616387157,-0.14,-0.39,0.65,-30.15,88.81,35.22
786,1778616387157,-0.14,-0.39,0.65,-30.15,88.81,35.22
787,1778616387173,-0.14,-0.39,0.65,-30.15,88.81,35.22
788,1778616387189,-0.14,-0.39,0.65,-30.15,88.81,35.22
789,1778616387189,-0.14,-0.39,0.65,-30.15,88.81,35.22
790,1778616387206,-0.14,-0.39,0.65,-30.15,88.81,35.22
791,1778616387206,-0.14,-0.39,0.65,-30.15,88.81,35.22
792,1778616387222,-0.14,-0.09,-0.25,-33.57,-125.67,74.89
793,1778616387239,-0.14,-0.09,-0.25,-33.57,-125.67,74.89
794,1778616387239,-0.14,-0.09,-0.25,-33.57,-125.67,74.89
795,1778616387255,-0.14,-0.09,-0.25,-33.57,-125.67,74.89
796,1778616387255,-0.14,-0.09,-0.25,-33.57,-125.67,74.89
797,1778616387272,-0.14,-0.09,-0.25,-33.57,-125.67,74.89
798,1778616387288,-0.14,-0.09,-0.25,-33.57,-125.67,74.89
799,1778616387288,-0.14,-0.09,-0.25,-33.57,-125.67,74.89
800,1778616387304,0.18,0.17,0.51,17.64,-69.09,64.39
801,1778616387320,0.18,0.17,0.51,17.64,-69.09,64.39
802,1778616387320,0.18,0.17,0.51,17.64,-69.09,64.39
803,1778616387337,0.18,0.17,0.51,17.64,-69.09,64.39
804,1778616387337,0.18,0.17,0.51,17.64,-69.09,64.39
805,1778616387353,-0.04,-0.28,2.25,108.64,55.42,18.37
806,1778616387369,0.02,-2.63,-2.17,-102.78,210.08,-30.03
807,1778616387369,0.02,-2.63,-2.17,-102.78,210.08,-30.03
808,1778616387385,0.02,-2.63,-2.17,-102.78,210.08,-30.03
809,1778616387385,0.02,-2.63,-2.17,-102.78,210.08,-30.03
810,1778616387401,0.61,-2.25,1.05,-43.82,94.97,-5.55
811,1778616387418,0.61,-2.25,1.05,-43.82,94.97,-5.55
812,1778616387418,0.61,-2.25,1.05,-43.82,94.97,-5.55
813,1778616387434,0.61,-2.25,1.05,-43.82,94.97,-5.55
814,1778616387450,0.61,-2.25,1.05,-43.82,94.97,-5.55
815,1778616387450,0.61,-2.25,1.05,-43.82,94.97,-5.55
816,1778616387466,0.38,-1.92,0.97,66.77,-79.35,-54.32
817,1778616387466,0.38,-1.92,0.97,66.77,-79.35,-54.32
818,1778616387483,0.38,-1.92,0.97,66.77,-79.35,-54.32
819,1778616387499,0.38,-1.92,0.97,66.77,-79.35,-54.32
820,1778616387499,0.38,-1.92,0.97,66.77,-79.35,-54.32
821,1778616387514,0.41,-0.94,0.55,-26.0,73.12,-89.54
822,1778616387531,0.41,-0.94,0.55,-26.0,73.12,-89.54
823,1778616387531,0.41,-0.94,0.55,-26.0,73.12,-89.54
824,1778616387547,0.41,-0.94,0.55,-26.0,73.12,-89.54
825,1778616387547,0.41,-0.94,0.55,-26.0,73.12,-89.54
826,1778616387564,0.41,-0.94,0.55,-26.0,73.12,-89.54
827,1778616387580,0.41,-0.94,0.55,-26.0,73.12,-89.54
828,1778616387580,0.41,-0.94,0.55,-26.0,73.12,-89.54
829,1778616387596,0.41,-0.94,0.55,-26.0,73.12,-89.54
830,1778616387596,0.41,-0.94,0.55,-26.0,73.12,-89.54
831,1778616387613,-0.64,-0.11,-0.41,-17.58,-4.58,-109.13
832,1778616387629,-0.3,-0.25,0.29,-17.58,-4.58,-109.13
833,1778616387629,-0.3,-0.25,0.29,-17.58,-4.58,-109.13
834,1778616387645,-0.3,-0.25,0.29,-23.32,-32.84,10.31
835,1778616387645,-0.3,-0.25,0.29,-23.32,-32.84,10.31
836,1778616387662,0.19,0.21,1.13,124.94,-68.54,28.69
837,1778616387678,0.19,0.21,1.13,124.94,-68.54,28.69
838,1778616387678,0.19,0.21,1.13,124.94,-68.54,28.69
839,1778616387695,0.19,0.21,1.13,124.94,-68.54,28.69
840,1778616387695,0.19,0.21,1.13,124.94,-68.54,28.69
841,1778616387711,0.19,0.21,1.13,124.94,-68.54,28.69
842,1778616387727,0.19,0.21,1.13,124.94,-68.54,28.69
843,1778616387727,0.19,0.21,1.13,124.94,-68.54,28.69
844,1778616387744,0.19,0.21,1.13,124.94,-68.54,28.69
845,1778616387760,0.19,0.21,1.13,124.94,-68.54,28.69
846,1778616387760,0.19,0.21,1.13,124.94,-68.54,28.69
847,1778616387776,0.19,0.21,1.13,124.94,-68.54,28.69
848,1778616387776,0.19,0.21,1.13,124.94,-68.54,28.69
849,1778616387792,0.19,0.21,1.13,124.94,-68.54,28.69
850,1778616387809,0.19,0.21,1.13,124.94,-68.54,28.69
851,1778616387809,0.19,0.21,1.13,124.94,-68.54,28.69
852,1778616387825,0.19,0.21,1.13,124.94,-68.54,28.69
853,1778616387825,0.19,0.21,1.13,124.94,-68.54,28.69
854,1778616387842,0.19,0.21,1.13,124.94,-68.54,28.69
855,1778616387858,0.19,0.21,1.13,124.94,-68.54,28.69
856,1778616387858,0.19,0.21,1.13,124.94,-68.54,28.69
857,1778616387874,0.19,0.21,1.13,124.94,-68.54,28.69
858,1778616387889,0.19,0.21,1.13,124.94,-68.54,28.69
859,1778616387889,0.19,0.21,1.13,124.94,-68.54,28.69
860,1778616387906,0.14,-1.22,-0.09,36.25,157.9,-37.96
861,1778616387906,0.14,-1.22,-0.09,36.25,157.9,-37.96
862,1778616387922,0.14,-1.22,-0.09,36.25,157.9,-37.96
863,1778616387938,-0.52,-3.41,0.71,-19.17,272.64,-6.9
864,1778616387938,-0.52,-3.41,0.71,-19.17,272.64,-6.9
865,1778616387955,-0.52,-3.41,0.71,-19.17,272.64,-6.9
866,1778616387955,-0.52,-3.41,0.71,-19.17,272.64,-6.9
867,1778616387971,-0.15,-3.74,1.31,27.53,-18.86,62.5
868,1778616387988,-0.15,-3.74,1.31,27.53,-18.86,62.5
869,1778616387988,-0.15,-3.74,1.31,27.53,-18.86,62.5
870,1778616388004,0.58,-2.58,1.56,6.53,-107.73,-31.19
871,1778616388020,0.58,-2.58,1.56,6.53,-107.73,-31.19
872,1778616388020,0.58,-2.58,1.56,6.53,-107.73,-31.19
873,1778616388036,0.58,-2.58,1.56,6.53,-107.73,-31.19
874,1778616388036,0.58,-2.58,1.56,6.53,-107.73,-31.19
875,1778616388052,0.58,-2.58,1.56,6.53,-107.73,-31.19
876,1778616388069,0.58,-2.58,1.56,6.53,-107.73,-31.19
877,1778616388069,0.58,-2.58,1.56,6.53,-107.73,-31.19
878,1778616388086,0.58,-2.58,1.56,6.53,-107.73,-31.19
879,1778616388086,0.58,-2.58,1.56,6.53,-107.73,-31.19
880,1778616388102,0.58,-2.58,1.56,6.53,-107.73,-31.19
881,1778616388118,0.58,-2.58,1.56,6.53,-107.73,-31.19
882,1778616388118,0.58,-2.58,1.56,6.53,-107.73,-31.19
883,1778616388134,0.58,-2.58,1.56,6.53,-107.73,-31.19
884,1778616388151,0.58,-2.58,1.56,6.53,-107.73,-31.19
885,1778616388151,0.58,-2.58,1.56,6.53,-107.73,-31.19
886,1778616388167,0.58,-2.58,1.56,6.53,-107.73,-31.19
887,1778616388167,0.58,-2.58,1.56,6.53,-107.73,-31.19
888,1778616388182,0.58,-2.58,1.56,6.53,-107.73,-31.19
889,1778616388198,0.58,-2.58,1.56,6.53,-107.73,-31.19
890,1778616388198,0.58,-2.58,1.56,6.53,-107.73,-31.19
891,1778616388214,0.58,-2.58,1.56,6.53,-107.73,-31.19
892,1778616388230,0.58,-2.58,1.56,6.53,-107.73,-31.19
893,1778616388230,0.58,-2.58,1.56,6.53,-107.73,-31.19
894,1778616388247,0.58,-2.58,1.56,6.53,-107.73,-31.19
895,1778616388247,0.58,-2.58,1.56,6.53,-107.73,-31.19
896,1778616388263,0.58,-2.58,1.56,6.53,-107.73,-31.19
897,1778616388279,0.58,-2.58,1.56,6.53,-107.73,-31.19
898,1778616388279,0.58,-2.58,1.56,6.53,-107.73,-31.19
899,1778616388296,0.58,-2.58,1.56,6.53,-107.73,-31.19
900,1778616388296,0.58,-2.58,1.56,6.53,-107.73,-31.19
901,1778616388312,0.58,-2.58,1.56,6.53,-107.73,-31.19
902,1778616388328,0.58,-2.58,1.56,6.53,-107.73,-31.19
903,1778616388328,0.58,-2.58,1.56,6.53,-107.73,-31.19
904,1778616388344,0.58,-2.58,1.56,6.53,-107.73,-31.19
905,1778616388360,0.58,-2.58,1.56,6.53,-107.73,-31.19
906,1778616388360,0.58,-2.58,1.56,6.53,-107.73,-31.19
907,1778616388376,0.18,-0.23,-0.02,-2.62,-112.85,70.62
908,1778616388376,0.18,-0.23,-0.02,-2.62,-112.85,70.62
909,1778616388392,0.18,-0.23,-0.02,-2.62,-112.85,70.62
910,1778616388408,0.18,-0.23,-0.02,-2.62,-112.85,70.62
911,1778616388408,0.18,-0.23,-0.02,-2.62,-112.85,70.62
912,1778616388424,0.18,-0.23,-0.02,-2.62,-112.85,70.62
913,1778616388440,0.18,-0.23,-0.02,-2.62,-112.85,70.62
914,1778616388440,0.18,-0.23,-0.02,-2.62,-112.85,70.62
915,1778616388456,0.18,-0.23,-0.02,-2.62,-112.85,70.62
916,1778616388456,0.18,-0.23,-0.02,-2.62,-112.85,70.62
917,1778616388473,0.18,-0.23,-0.02,-2.62,-112.85,70.62
918,1778616388489,0.18,-0.23,-0.02,-2.62,-112.85,70.62
919,1778616388489,0.18,-0.23,-0.02,-2.62,-112.85,70.62
920,1778616388505,0.18,-0.23,-0.02,-2.62,-112.85,70.62
921,1778616388505,0.18,-0.23,-0.02,-2.62,-112.85,70.62
922,1778616388521,0.18,-0.23,-0.02,-2.62,-112.85,70.62
923,1778616388537,0.18,-0.23,-0.02,-2.62,-112.85,70.62
924,1778616388537,0.18,-0.23,-0.02,-2.62,-112.85,70.62
925,1778616388553,0.18,-0.23,-0.02,-2.62,-112.85,70.62
926,1778616388570,0.18,-0.23,-0.02,-2.62,-112.85,70.62
927,1778616388570,0.18,-0.23,-0.02,-2.62,-112.85,70.62
928,1778616388586,0.18,-0.23,-0.02,-2.62,-112.85,70.62
929,1778616388586,0.18,-0.23,-0.02,-2.62,-112.85,70.62
930,1778616388602,0.18,-0.23,-0.02,-2.62,-112.85,70.62
931,1778616388618,0.18,-0.23,-0.02,-2.62,-112.85,70.62
932,1778616388618,0.18,-0.23,-0.02,-2.62,-112.85,70.62
933,1778616388635,0.18,-0.23,-0.02,-2.62,-112.85,70.62
934,1778616388651,0.18,-0.23,-0.02,-2.62,-112.85,70.62
935,1778616388651,0.18,-0.23,-0.02,-2.62,-112.85,70.62
936,1778616388667,0.18,-0.23,-0.02,-2.62,-112.85,70.62
937,1778616388667,0.18,-0.23,-0.02,-2.62,-112.85,70.62
938,1778616388683,0.18,-0.23,-0.02,-2.62,-112.85,70.62
939,1778616388699,0.18,-0.23,-0.02,-2.62,-112.85,70.62
940,1778616388699,0.18,-0.23,-0.02,-2.62,-112.85,70.62
941,1778616388716,0.18,-0.23,-0.02,-2.62,-112.85,70.62
942,1778616388716,0.18,-0.23,-0.02,-2.62,-112.85,70.62
943,1778616388732,0.18,-0.23,-0.02,-2.62,-112.85,70.62
944,1778616388747,0.18,-0.23,-0.02,-2.62,-112.85,70.62
945,1778616388747,0.18,-0.23,-0.02,-2.62,-112.85,70.62
946,1778616388763,0.18,-0.23,-0.02,-2.62,-112.85,70.62
947,1778616388780,0.18,-0.23,-0.02,-2.62,-112.85,70.62
948,1778616388780,0.18,-0.23,-0.02,-2.62,-112.85,70.62
949,1778616388796,0.18,-0.23,-0.02,-2.62,-112.85,70.62
950,1778616388796,0.18,-0.23,-0.02,-2.62,-112.85,70.62
951,1778616388812,0.18,-0.23,-0.02,-2.62,-112.85,70.62
952,1778616388828,0.18,-0.23,-0.02,-2.62,-112.85,70.62
953,1778616388828,0.18,-0.23,-0.02,-2.62,-112.85,70.62
954,1778616388845,0.18,-0.23,-0.02,-2.62,-112.85,70.62
955,1778616388845,0.18,-0.23,-0.02,-2.62,-112.85,70.62
956,1778616388861,0.18,-0.23,-0.02,-2.62,-112.85,70.62
957,1778616388877,0.18,-0.23,-0.02,-2.62,-112.85,70.62
958,1778616388877,0.18,-0.23,-0.02,-2.62,-112.85,70.62
959,1778616388893,0.18,-0.23,-0.02,-2.62,-112.85,70.62
960,1778616388909,0.39,0.0,0.1,80.51,140.2,-104.68
961,1778616388909,0.39,0.0,0.1,80.51,140.2,-104.68
962,1778616388925,-0.43,-0.38,0.57,139.16,38.21,45.29
963,1778616388925,-0.43,-0.38,0.57,139.16,38.21,45.29
964,1778616388942,-0.55,-1.02,-0.72,-36.38,247.01,60.42
965,1778616388958,-0.55,-1.02,-0.72,-36.38,247.01,60.42
966,1778616388958,-0.55,-1.02,-0.72,-36.38,247.01,60.42
967,1778616388975,-0.55,-1.02,-0.72,-36.38,247.01,60.42
968,1778616388991,0.7,-1.75,-0.86,-45.78,194.27,-19.23
969,1778616388991,0.7,-1.75,-0.86,-45.78,194.27,-19.23
970,1778616389007,0.7,-1.75,-0.86,-45.78,194.27,-19.23
971,1778616389007,0.7,-1.75,-0.86,-45.78,194.27,-19.23
972,1778616389023,-1.29,-5.77,2.38,-121.89,214.84,69.27
973,1778616389039,-1.29,-5.77,2.38,-121.89,214.84,69.27
974,1778616389039,-1.29,-5.77,2.38,-121.89,214.84,69.27
975,1778616389056,-1.29,-5.77,2.38,-121.89,214.84,69.27
976,1778616389056,-1.29,-5.77,2.38,-121.89,214.84,69.27
977,1778616389072,-1.29,-5.77,2.38,-121.89,214.84,69.27
978,1778616389089,-1.29,-5.77,2.38,-121.89,214.84,69.27
979,1778616389089,-1.29,-5.77,2.38,-121.89,214.84,69.27
980,1778616389105,-1.29,-5.77,2.38,-121.89,214.84,69.27
981,1778616389105,-1.29,-5.77,2.38,-121.89,214.84,69.27
982,1778616389121,-1.29,-5.77,2.38,-121.89,214.84,69.27
983,1778616389137,-1.29,-5.77,2.38,-121.89,214.84,69.27
984,1778616389137,-1.29,-5.77,2.38,-121.89,214.84,69.27
985,1778616389153,-1.29,-5.77,2.38,-121.89,214.84,69.27
986,1778616389169,-1.29,-5.77,2.38,-121.89,214.84,69.27
987,1778616389169,-1.29,-5.77,2.38,-121.89,214.84,69.27
988,1778616389185,-1.29,-5.77,2.38,-121.89,214.84,69.27
989,1778616389185,-1.29,-5.77,2.38,-121.89,214.84,69.27
990,1778616389202,-1.29,-5.77,2.38,-121.89,214.84,69.27
991,1778616389218,-1.29,-5.77,2.38,-121.89,214.84,69.27
992,1778616389218,-1.29,-5.77,2.38,-121.89,214.84,69.27
993,1778616389234,-1.29,-5.77,2.38,-121.89,214.84,69.27
994,1778616389250,-1.29,-5.77,2.38,-121.89,214.84,69.27
995,1778616389250,-1.29,-5.77,2.38,-121.89,214.84,69.27
996,1778616389267,-1.29,-5.77,2.38,-121.89,214.84,69.27
997,1778616389267,-1.29,-5.77,2.38,-121.89,214.84,69.27
998,1778616389283,-1.29,-5.77,2.38,-121.89,214.84,69.27
