id,timestamp,acc_x,acc_y,acc_z,gyro_x,gyro_y,gyro_z
0,1778615338381,-1.18,-0.12,3.88,-476.26,-77.09,-116.64
1,1778615338397,-1.18,-0.12,3.88,-476.26,-77.09,-116.64
2,1778615338413,-0.84,-0.83,3.48,-462.65,-69.46,-166.14
3,1778615338413,-0.84,-0.83,3.48,-462.65,-69.46,-166.14
4,1778615338429,-0.84,-0.83,3.48,-462.65,-69.46,-166.14
5,1778615338445,-0.29,-0.07,5.24,-400.82,-169.49,-55.24
6,1778615338445,-0.29,-0.07,5.24,-400.82,-169.49,-55.24
7,1778615338461,-0.29,-0.07,5.24,-400.82,-169.49,-55.24
8,1778615338477,-0.12,1.13,4.14,-400.82,-169.49,-55.24
9,1778615338477,-0.12,1.13,4.14,-400.82,-169.49,-55.24
10,1778615338493,-0.12,1.13,4.14,-357.6,61.4,-175.23
11,1778615338493,-0.12,1.13,4.14,-357.6,61.4,-175.23
12,1778615338509,-0.12,1.13,4.14,-357.6,61.4,-175.23
13,1778615338526,-0.01,2.57,3.81,-357.6,61.4,-175.23
14,1778615338526,-0.01,2.57,3.81,-357.6,61.4,-175.23
15,1778615338542,-0.01,2.57,3.81,-176.15,-31.62,-51.64
16,1778615338542,-0.01,2.57,3.81,-176.15,-31.62,-51.64
17,1778615338558,0.06,2.35,3.06,-52.06,38.7,-23.19
18,1778615338575,0.06,2.35,3.06,-52.06,38.7,-23.19
19,1778615338575,0.06,2.35,3.06,-52.06,38.7,-23.19
20,1778615338591,0.4,2.69,2.38,57.43,1.83,13.43
21,1778615338607,0.4,2.69,2.38,57.43,1.83,13.43
22,1778615338607,0.4,2.69,2.38,57.43,1.83,13.43
23,1778615338623,-0.23,1.8,2.83,57.43,1.83,13.43
24,1778615338623,-0.23,1.8,2.83,57.43,1.83,13.43
25,1778615338639,-0.23,1.8,2.83,174.26,-7.69,-79.04
26,1778615338655,-0.23,1.8,2.83,174.26,-7.69,-79.04
27,1778615338655,-0.23,1.8,2.83,174.26,-7.69,-79.04
28,1778615338671,-1.46,0.49,2.9,287.41,25.88,-22.4
29,1778615338671,-1.46,0.49,2.9,287.41,25.88,-22.4
30,1778615338688,-1.46,0.49,2.9,287.41,25.88,-22.4
31,1778615338704,-1.36,0.43,3.46,370.67,62.81,121.22
32,1778615338704,-1.36,0.43,3.46,370.67,62.81,121.22
33,1778615338720,-1.36,0.43,3.46,370.67,62.81,121.22
34,1778615338736,-1.36,0.43,3.46,370.67,62.81,121.22
35,1778615338736,-1.36,0.43,3.46,370.67,62.81,121.22
36,1778615338753,-1.36,0.32,4.08,442.81,93.14,122.68
37,1778615338753,-1.36,0.32,4.08,442.81,93.14,122.68
38,1778615338769,-1.36,0.32,4.08,442.81,93.14,122.68
39,1778615338786,-1.39,-0.2,4.1,502.2,191.22,117.68
40,1778615338786,-1.39,-0.2,4.1,502.2,191.22,117.68
41,1778615338801,-1.39,-0.2,4.1,502.2,191.22,117.68
42,1778615338801,-1.39,-0.2,4.1,502.2,191.22,117.68
43,1778615338818,-1.02,-0.62,3.13,511.47,197.57,187.62
44,1778615338834,-1.02,-0.62,3.13,511.47,197.57,187.62
45,1778615338834,-1.02,-0.62,3.13,511.47,197.57,187.62
46,1778615338850,-1.02,-0.62,3.13,511.47,197.57,187.62
47,1778615338866,-0.64,-0.45,2.2,449.83,145.51,229.19
48,1778615338866,-0.64,-0.45,2.2,449.83,145.51,229.19
49,1778615338882,-0.64,-0.45,2.2,449.83,145.51,229.19
50,1778615338882,-0.64,-0.45,2.2,449.83,145.51,229.19
51,1778615338898,-0.53,-0.37,1.66,378.54,95.09,209.41
52,1778615338914,-0.53,-0.37,1.66,378.54,95.09,209.41
53,1778615338914,-0.53,-0.37,1.66,378.54,95.09,209.41
54,1778615338929,-0.53,-0.37,1.66,378.54,95.09,209.41
55,1778615338946,-0.47,-0.31,1.42,346.07,77.15,202.09
56,1778615338946,-0.47,-0.31,1.42,346.07,77.15,202.09
57,1778615338962,-0.47,-0.31,1.42,346.07,77.15,202.09
58,1778615338962,-0.47,-0.31,1.42,346.07,77.15,202.09
59,1778615338978,-0.23,-0.31,1.11,320.92,51.94,211.06
60,1778615338994,-0.23,-0.31,1.11,320.92,51.94,211.06
61,1778615338994,-0.23,-0.31,1.11,320.92,51.94,211.06
62,1778615339010,0.08,-0.63,0.55,299.07,31.25,190.0
63,1778615339026,0.08,-0.63,0.55,299.07,31.25,190.0
64,1778615339026,0.08,-0.63,0.55,299.07,31.25,190.0
65,1778615339042,0.08,-0.63,0.55,299.07,31.25,190.0
66,1778615339042,0.08,-0.63,0.55,299.07,31.25,190.0
67,1778615339058,0.46,-0.36,0.65,290.16,36.44,167.18
68,1778615339074,0.46,-0.36,0.65,290.16,36.44,167.18
69,1778615339074,0.46,-0.36,0.65,290.16,36.44,167.18
70,1778615339090,0.76,-0.53,0.31,246.15,51.03,73.3
71,1778615339107,0.76,-0.53,0.31,246.15,51.03,73.3
72,1778615339107,0.76,-0.53,0.31,246.15,51.03,73.3
73,1778615339122,1.04,-0.71,0.11,208.37,60.3,12.45
74,1778615339122,1.04,-0.71,0.11,208.37,60.3,12.45
75,1778615339139,1.04,-0.71,0.11,208.37,60.3,12.45
76,1778615339155,1.04,-0.71,0.11,208.37,60.3,12.45
77,1778615339155,1.04,-0.71,0.11,208.37,60.3,12.45
78,1778615339172,0.98,-0.98,-0.25,154.24,48.89,-46.69
79,1778615339172,0.98,-0.98,-0.25,154.24,48.89,-46.69
80,1778615339188,0.98,-0.98,-0.25,154.24,48.89,-46.69
81,1778615339204,1.75,0.61,-2.62,-185.0,169.8,6.59
82,1778615339204,1.75,0.61,-2.62,-185.0,169.8,6.59
83,1778615339220,1.75,0.61,-2.62,-185.0,169.8,6.59
84,1778615339237,1.75,0.61,-2.62,-185.0,169.8,6.59
85,1778615339237,1.75,0.61,-2.62,-185.0,169.8,6.59
86,1778615339252,0.88,-1.27,0.29,25.88,-16.05,-45.17
87,1778615339252,0.88,-1.27,0.29,25.88,-16.05,-45.17
88,1778615339268,0.88,-0.98,-0.21,-67.38,0.61,-21.42
89,1778615339285,0.88,-0.98,-0.21,-67.38,0.61,-21.42
90,1778615339285,0.88,-0.98,-0.21,-67.38,0.61,-21.42
91,1778615339301,0.88,-0.98,-0.21,-67.38,0.61,-21.42
92,1778615339317,0.86,-0.96,-0.06,-116.46,-5.98,-24.9
93,1778615339317,0.86,-0.96,-0.06,-116.46,-5.98,-24.9
94,1778615339333,0.86,-0.96,-0.06,-116.46,-5.98,-24.9
95,1778615339333,0.86,-0.96,-0.06,-116.46,-5.98,-24.9
96,1778615339349,0.8,-0.87,0.14,-162.48,-35.16,-29.85
97,1778615339366,0.8,-0.87,0.14,-162.48,-35.16,-29.85
98,1778615339366,0.8,-0.87,0.14,-162.48,-35.16,-29.85
99,1778615339381,0.61,-0.67,0.41,-195.98,-48.95,-79.59
100,1778615339381,0.61,-0.67,0.41,-195.98,-48.95,-79.59
101,1778615339397,0.61,-0.67,0.41,-195.98,-48.95,-79.59
102,1778615339413,0.61,-0.67,0.41,-195.98,-48.95,-79.59
103,1778615339413,0.61,-0.67,0.41,-195.98,-48.95,-79.59
104,1778615339430,0.44,-0.53,0.69,-212.59,-54.93,-124.51
105,1778615339446,0.44,-0.53,0.69,-212.59,-54.93,-124.51
106,1778615339446,0.44,-0.53,0.69,-212.59,-54.93,-124.51
107,1778615339462,0.3,-0.36,0.91,-260.25,-71.11,-167.79
108,1778615339462,0.3,-0.36,0.91,-260.25,-71.11,-167.79
109,1778615339478,0.3,-0.36,0.91,-260.25,-71.11,-167.79
110,1778615339494,-0.07,-0.39,1.32,-285.03,-62.07,-231.26
111,1778615339494,-0.07,-0.39,1.32,-285.03,-62.07,-231.26
112,1778615339510,-0.07,-0.39,1.32,-285.03,-62.07,-231.26
113,1778615339526,-0.07,-0.39,1.32,-285.03,-62.07,-231.26
114,1778615339526,-0.07,-0.39,1.32,-285.03,-62.07,-231.26
115,1778615339543,-0.36,-0.4,1.34,-308.59,-66.41,-331.67
116,1778615339543,-0.36,-0.4,1.34,-308.59,-66.41,-331.67
117,1778615339559,-0.36,-0.4,1.34,-308.59,-66.41,-331.67
118,1778615339575,-1.82,-0.99,2.4,-348.27,-288.33,-210.33
119,1778615339575,-1.82,-0.99,2.4,-348.27,-288.33,-210.33
120,1778615339591,-1.82,-0.99,2.4,-348.27,-288.33,-210.33
121,1778615339607,-1.82,-0.99,2.4,-348.27,-288.33,-210.33
122,1778615339607,-1.82,-0.99,2.4,-348.27,-288.33,-210.33
123,1778615339623,-1.96,0.52,3.48,-431.21,-129.88,-212.16
124,1778615339623,-1.96,0.52,3.48,-431.21,-129.88,-212.16
125,1778615339639,-1.96,0.52,3.48,-431.21,-129.88,-212.16
126,1778615339656,-1.96,0.52,3.48,-431.21,-129.88,-212.16
127,1778615339656,-1.96,0.52,3.48,-431.21,-129.88,-212.16
128,1778615339672,-2.43,0.26,3.11,-382.39,-142.27,-339.9
129,1778615339672,-2.43,0.26,3.11,-382.39,-142.27,-339.9
130,1778615339688,-2.4,1.03,3.53,-362.43,-162.35,-157.47
131,1778615339704,-2.4,1.03,3.53,-362.43,-162.35,-157.47
132,1778615339704,-2.4,1.03,3.53,-362.43,-162.35,-157.47
133,1778615339720,-2.4,1.03,3.53,-362.43,-162.35,-157.47
134,1778615339737,-1.78,1.77,2.91,-305.24,-102.84,-228.82
135,1778615339737,-1.78,1.77,2.91,-305.24,-102.84,-228.82
136,1778615339753,-1.78,1.77,2.91,-305.24,-102.84,-228.82
137,1778615339753,-1.78,1.77,2.91,-305.24,-102.84,-228.82
138,1778615339768,-1.78,1.77,2.91,-305.24,-102.84,-228.82
139,1778615339784,-1.82,1.65,2.14,-255.0,-71.23,-255.37
140,1778615339784,-1.82,1.65,2.14,-255.0,-71.23,-255.37
141,1778615339800,-1.99,1.9,1.58,-220.83,-44.31,-164.92
142,1778615339817,-1.99,1.9,1.58,-220.83,-44.31,-164.92
143,1778615339817,-1.99,1.9,1.58,-220.83,-44.31,-164.92
144,1778615339832,-1.99,1.9,1.58,-220.83,-44.31,-164.92
145,1778615339832,-1.99,1.9,1.58,-220.83,-44.31,-164.92
146,1778615339848,-1.38,2.98,1.98,-154.42,-77.7,103.94
147,1778615339864,-1.38,2.98,1.98,-154.42,-77.7,103.94
148,1778615339864,-1.38,2.98,1.98,-154.42,-77.7,103.94
149,1778615339880,-1.0,3.19,2.22,11.78,44.13,-21.06
150,1778615339896,-1.0,3.19,2.22,11.78,44.13,-21.06
151,1778615339896,-1.0,3.19,2.22,11.78,44.13,-21.06
152,1778615339912,-1.0,3.19,2.22,11.78,44.13,-21.06
153,1778615339912,-1.0,3.19,2.22,11.78,44.13,-21.06
154,1778615339928,-1.73,1.87,2.27,160.03,64.09,-7.63
155,1778615339944,-1.73,1.87,2.27,160.03,64.09,-7.63
156,1778615339944,-1.73,1.87,2.27,160.03,64.09,-7.63
157,1778615339960,-1.73,1.87,2.27,160.03,64.09,-7.63
158,1778615339976,-1.73,1.87,2.27,160.03,64.09,-7.63
159,1778615339976,-1.73,1.87,2.27,160.03,64.09,-7.63
160,1778615339992,-1.52,1.05,2.5,281.25,126.04,200.99
161,1778615339992,-1.52,1.05,2.5,281.25,126.04,200.99
162,1778615340008,-1.52,1.05,2.5,281.25,126.04,200.99
163,1778615340024,-1.52,1.05,2.5,281.25,126.04,200.99
164,1778615340024,-1.52,1.05,2.5,281.25,126.04,200.99
165,1778615340041,-1.75,0.68,2.93,345.83,130.8,211.0
166,1778615340057,-1.75,0.68,2.93,345.83,130.8,211.0
167,1778615340057,-1.75,0.68,2.93,345.83,130.8,211.0
168,1778615340073,-1.81,0.29,2.66,352.6,136.11,252.08
169,1778615340073,-1.81,0.29,2.66,352.6,136.11,252.08
170,1778615340090,-1.81,0.29,2.66,352.6,136.11,252.08
171,1778615340106,-1.62,0.58,2.64,368.23,131.9,289.67
172,1778615340106,-1.62,0.58,2.64,368.23,131.9,289.67
173,1778615340122,-1.62,0.58,2.64,368.23,131.9,289.67
174,1778615340122,-1.62,0.58,2.64,368.23,131.9,289.67
175,1778615340138,-1.51,0.34,2.34,368.1,148.44,252.56
176,1778615340154,-1.51,0.34,2.34,368.1,148.44,252.56
177,1778615340154,-1.51,0.34,2.34,368.1,148.44,252.56
178,1778615340170,-1.3,-0.09,1.57,368.1,148.44,252.56
179,1778615340187,-1.3,-0.09,1.57,355.83,148.56,294.25
180,1778615340187,-1.3,-0.09,1.57,355.83,148.56,294.25
181,1778615340203,-1.3,-0.09,1.57,355.83,148.56,294.25
182,1778615340203,-1.3,-0.09,1.57,355.83,148.56,294.25
183,1778615340219,-0.82,0.07,1.33,331.05,110.41,319.7
184,1778615340236,-0.82,0.07,1.33,331.05,110.41,319.7
185,1778615340236,-0.82,0.07,1.33,331.05,110.41,319.7
186,1778615340252,-0.36,-0.28,0.74,271.67,133.06,264.59
187,1778615340252,-0.36,-0.28,0.74,271.67,133.06,264.59
188,1778615340268,-0.36,-0.28,0.74,271.67,133.06,264.59
189,1778615340285,0.16,-0.3,0.56,243.65,60.42,262.82
190,1778615340285,0.16,-0.3,0.56,243.65,60.42,262.82
191,1778615340301,0.16,-0.3,0.56,243.65,60.42,262.82
192,1778615340317,0.16,-0.3,0.56,243.65,60.42,262.82
193,1778615340317,0.16,-0.3,0.56,243.65,60.42,262.82
194,1778615340333,0.7,-0.1,0.71,227.78,54.38,163.76
195,1778615340333,0.7,-0.1,0.71,227.78,54.38,163.76
196,1778615340350,0.7,-0.1,0.71,227.78,54.38,163.76
197,1778615340366,0.57,-0.52,0.34,168.21,51.21,58.96
198,1778615340366,0.57,-0.52,0.34,168.21,51.21,58.96
199,1778615340382,0.57,-0.52,0.34,168.21,51.21,58.96
200,1778615340382,0.57,-0.52,0.34,168.21,51.21,58.96
201,1778615340398,0.78,-0.42,0.43,167.42,-3.36,83.37
202,1778615340414,0.78,-0.42,0.43,167.42,-3.36,83.37
203,1778615340414,0.78,-0.42,0.43,167.42,-3.36,83.37
204,1778615340430,0.78,-0.42,0.43,167.42,-3.36,83.37
205,1778615340445,0.79,-0.55,0.19,133.97,32.96,-29.17
206,1778615340445,0.79,-0.55,0.19,133.97,32.96,-29.17
207,1778615340461,0.79,-0.55,0.19,133.97,32.96,-29.17
208,1778615340477,1.18,-4.34,0.93,100.46,22.58,3.3
209,1778615340477,1.18,-4.34,0.93,100.46,22.58,3.3
210,1778615340494,1.18,-4.34,0.93,100.46,22.58,3.3
211,1778615340494,1.18,-4.34,0.93,100.46,22.58,3.3
212,1778615340510,1.18,-4.34,0.93,100.46,22.58,3.3
213,1778615340526,1.09,-0.7,-0.72,77.58,-32.17,-113.77
214,1778615340526,1.09,-0.7,-0.72,77.58,-32.17,-113.77
215,1778615340542,1.09,-0.7,-0.72,77.58,-32.17,-113.77
216,1778615340542,1.09,-0.7,-0.72,77.58,-32.17,-113.77
217,1778615340559,0.64,-0.72,-0.08,-28.08,-2.93,4.64
218,1778615340575,0.64,-0.72,-0.08,-28.08,-2.93,4.64
219,1778615340575,0.64,-0.72,-0.08,-28.08,-2.93,4.64
220,1778615340591,0.89,-0.8,-0.2,-51.09,5.19,-13.18
221,1778615340608,0.89,-0.8,-0.2,-51.09,5.19,-13.18
222,1778615340608,0.89,-0.8,-0.2,-51.09,5.19,-13.18
223,1778615340624,0.89,-0.8,-0.2,-51.09,5.19,-13.18
224,1778615340624,0.89,-0.8,-0.2,-51.09,5.19,-13.18
225,1778615340640,0.99,-1.06,-0.13,-89.36,-4.76,-39.55
226,1778615340656,0.99,-1.06,-0.13,-89.36,-4.76,-39.55
227,1778615340656,0.99,-1.06,-0.13,-89.36,-4.76,-39.55
228,1778615340672,0.98,-0.99,0.31,-157.71,-43.52,-24.05
229,1778615340672,0.98,-0.99,0.31,-157.71,-43.52,-24.05
230,1778615340689,0.98,-0.99,0.31,-157.71,-43.52,-24.05
231,1778615340705,0.92,-0.55,0.63,-204.77,-50.29,-91.98
232,1778615340705,0.92,-0.55,0.63,-204.77,-50.29,-91.98
233,1778615340721,0.92,-0.55,0.63,-204.77,-50.29,-91.98
234,1778615340737,0.92,-0.55,0.63,-204.77,-50.29,-91.98
235,1778615340737,0.92,-0.55,0.63,-204.77,-50.29,-91.98
236,1778615340754,0.63,-0.56,0.67,-237.61,-89.6,-157.59
237,1778615340754,0.63,-0.56,0.67,-237.61,-89.6,-157.59
238,1778615340769,0.63,-0.56,0.67,-237.61,-89.6,-157.59
239,1778615340785,-0.08,-0.36,1.22,-279.66,-156.68,-145.69
240,1778615340785,-0.08,-0.36,1.22,-279.66,-156.68,-145.69
241,1778615340802,-0.08,-0.36,1.22,-279.66,-156.68,-145.69
242,1778615340802,-0.08,-0.36,1.22,-279.66,-156.68,-145.69
243,1778615340818,-0.08,-0.36,1.22,-279.66,-156.68,-145.69
244,1778615340834,-0.79,0.02,1.56,-329.59,-114.56,-203.19
245,1778615340834,-0.79,0.02,1.56,-329.59,-114.56,-203.19
246,1778615340851,-0.79,0.02,1.56,-329.59,-114.56,-203.19
247,1778615340867,-1.47,-0.27,1.75,-369.32,-188.6,-179.2
248,1778615340867,-1.47,-0.27,1.75,-369.32,-188.6,-179.2
249,1778615340883,-1.47,-0.27,1.75,-369.32,-188.6,-179.2
250,1778615340883,-1.47,-0.27,1.75,-369.32,-188.6,-179.2
251,1778615340899,-1.47,-0.27,1.75,-369.32,-188.6,-179.2
252,1778615340915,-1.65,0.79,2.88,-418.4,-126.28,-121.64
253,1778615340915,-1.65,0.79,2.88,-418.4,-126.28,-121.64
254,1778615340931,-1.65,0.79,2.88,-418.4,-126.28,-121.64
255,1778615340946,-1.84,0.6,2.54,-426.03,-32.47,-240.23
256,1778615340946,-1.84,0.6,2.54,-426.03,-32.47,-240.23
257,1778615340962,-1.84,0.6,2.54,-426.03,-32.47,-240.23
258,1778615340962,-1.84,0.6,2.54,-426.03,-32.47,-240.23
259,1778615340978,-1.48,1.07,3.08,-426.03,-32.47,-240.23
260,1778615340995,-1.48,1.07,3.08,-426.03,-32.47,-240.23
261,1778615340995,-1.48,1.07,3.08,-426.03,-32.47,-240.23
262,1778615341011,-1.48,1.07,3.08,-412.41,-88.32,-145.32
263,1778615341027,-1.05,1.67,3.11,-379.82,-59.14,-224.73
264,1778615341027,-1.05,1.67,3.11,-379.82,-59.14,-224.73
265,1778615341043,-1.05,1.67,3.11,-379.82,-59.14,-224.73
266,1778615341043,-1.05,1.67,3.11,-379.82,-59.14,-224.73
267,1778615341059,-1.01,1.82,2.98,-310.61,-91.25,-199.46
268,1778615341076,-1.01,1.82,2.98,-310.61,-91.25,-199.46
269,1778615341076,-1.01,1.82,2.98,-310.61,-91.25,-199.46
270,1778615341092,-0.85,2.4,2.48,-229.98,-13.92,-230.41
271,1778615341092,-0.85,2.4,2.48,-229.98,-13.92,-230.41
272,1778615341108,-0.85,2.4,2.48,-229.98,-13.92,-230.41
273,1778615341124,-0.85,2.4,2.48,-229.98,-13.92,-230.41
274,1778615341124,-0.85,2.4,2.48,-229.98,-13.92,-230.41
275,1778615341140,-1.16,1.96,1.62,-150.7,-15.08,-104.13
276,1778615341156,-1.16,1.96,1.62,-150.7,-15.08,-104.13
277,1778615341156,-1.16,1.96,1.62,-150.7,-15.08,-104.13
278,1778615341172,-0.5,2.89,2.07,-55.66,-43.88,121.46
279,1778615341172,-0.5,2.89,2.07,-55.66,-43.88,121.46
280,1778615341189,-0.5,2.89,2.07,-55.66,-43.88,121.46
281,1778615341204,-0.5,2.89,2.07,-55.66,-43.88,121.46
282,1778615341204,-0.5,2.89,2.07,-55.66,-43.88,121.46
283,1778615341220,-0.3,3.12,2.24,88.5,21.67,3.91
284,1778615341237,-0.3,3.12,2.24,88.5,21.67,3.91
285,1778615341237,-0.3,3.12,2.24,88.5,21.67,3.91
286,1778615341253,-1.09,1.53,2.2,206.91,64.58,-36.93
287,1778615341253,-1.09,1.53,2.2,206.91,64.58,-36.93
288,1778615341269,-1.09,1.53,2.2,206.91,64.58,-36.93
289,1778615341286,-1.34,1.3,2.39,268.43,97.05,81.24
290,1778615341286,-1.34,1.3,2.39,268.43,97.05,81.24
291,1778615341302,-1.34,1.3,2.39,268.43,97.05,81.24
292,1778615341302,-1.34,1.3,2.39,268.43,97.05,81.24
293,1778615341318,-1.49,1.16,2.6,317.93,100.1,124.08
294,1778615341334,-1.49,1.16,2.6,317.93,100.1,124.08
295,1778615341334,-1.49,1.16,2.6,317.93,100.1,124.08
296,1778615341350,-1.89,0.99,2.89,376.95,97.96,189.58
297,1778615341366,-1.89,0.99,2.89,376.95,97.96,189.58
298,1778615341366,-1.89,0.99,2.89,376.95,97.96,189.58
299,1778615341382,-1.89,0.99,2.89,376.95,97.96,189.58
300,1778615341382,-1.89,0.99,2.89,376.95,97.96,189.58
301,1778615341398,-1.82,1.06,3.19,376.95,97.96,189.58
302,1778615341414,-1.82,1.06,3.19,421.45,149.96,200.62
303,1778615341414,-1.82,1.06,3.19,421.45,149.96,200.62
304,1778615341430,-1.56,0.48,3.03,451.05,182.19,249.82
305,1778615341446,-1.56,0.48,3.03,451.05,182.19,249.82
306,1778615341446,-1.56,0.48,3.03,451.05,182.19,249.82
307,1778615341462,-1.06,0.05,2.17,451.05,182.19,249.82
308,1778615341462,-1.06,0.05,2.17,451.05,182.19,249.82
309,1778615341478,-1.06,0.05,2.17,438.9,191.59,236.57
310,1778615341494,-1.06,0.05,2.17,438.9,191.59,236.57
311,1778615341494,-1.06,0.05,2.17,438.9,191.59,236.57
312,1778615341511,-1.06,0.05,2.17,438.9,191.59,236.57
313,1778615341527,-1.06,0.05,2.17,438.9,191.59,236.57
314,1778615341527,-1.06,0.05,2.17,438.9,191.59,236.57
315,1778615341544,-0.36,-0.07,1.07,322.69,117.68,231.93
316,1778615341544,-0.36,-0.07,1.07,322.69,117.68,231.93
317,1778615341560,-0.36,-0.07,1.07,322.69,117.68,231.93
318,1778615341576,-0.1,-0.13,0.72,252.99,132.39,162.72
319,1778615341576,-0.1,-0.13,0.72,252.99,132.39,162.72
320,1778615341593,-0.1,-0.13,0.72,252.99,132.39,162.72
321,1778615341593,-0.1,-0.13,0.72,252.99,132.39,162.72
322,1778615341609,-0.1,-0.13,0.72,252.99,132.39,162.72
323,1778615341625,0.05,-0.4,0.62,209.47,100.95,138.0
324,1778615341625,0.05,-0.4,0.62,209.47,100.95,138.0
325,1778615341641,0.05,-0.4,0.62,209.47,100.95,138.0
326,1778615341657,0.69,0.08,1.05,191.65,124.51,76.72
327,1778615341657,0.69,0.08,1.05,191.65,124.51,76.72
328,1778615341673,0.69,0.08,1.05,191.65,124.51,76.72
329,1778615341673,0.69,0.08,1.05,191.65,124.51,76.72
330,1778615341690,0.75,-0.64,0.38,174.68,99.98,-0.31
331,1778615341706,0.75,-0.64,0.38,174.68,99.98,-0.31
332,1778615341706,0.75,-0.64,0.38,174.68,99.98,-0.31
333,1778615341722,0.75,-0.64,0.38,174.68,99.98,-0.31
334,1778615341722,0.75,-0.64,0.38,174.68,99.98,-0.31
335,1778615341738,1.1,-0.53,0.31,166.69,56.15,48.77
336,1778615341754,1.1,-0.53,0.31,166.69,56.15,48.77
337,1778615341754,1.1,-0.53,0.31,166.69,56.15,48.77
338,1778615341770,1.12,-0.79,0.06,124.33,50.96,-42.24
339,1778615341787,1.12,-0.79,0.06,124.33,50.96,-42.24
340,1778615341787,1.12,-0.79,0.06,124.33,50.96,-42.24
341,1778615341803,1.12,-0.79,0.06,124.33,50.96,-42.24
342,1778615341803,1.12,-0.79,0.06,124.33,50.96,-42.24
343,1778615341820,0.93,-0.8,-0.28,64.09,30.7,-30.58
344,1778615341836,0.93,-0.8,-0.28,64.09,30.7,-30.58
345,1778615341836,0.93,-0.8,-0.28,64.09,30.7,-30.58
346,1778615341852,0.93,-0.56,-0.5,12.39,7.08,5.13
347,1778615341852,0.93,-0.56,-0.5,12.39,7.08,5.13
348,1778615341868,0.93,-0.56,-0.5,12.39,7.08,5.13
349,1778615341884,0.92,-0.35,-0.16,-14.34,-3.91,2.99
350,1778615341884,0.92,-0.35,-0.16,-14.34,-3.91,2.99
351,1778615341900,0.92,-0.35,-0.16,-14.34,-3.91,2.99
352,1778615341916,0.94,-0.5,-0.13,-14.34,-3.91,2.99
353,1778615341916,0.94,-0.5,-0.13,-14.34,-3.91,2.99
354,1778615341932,0.94,-0.5,-0.13,-36.44,9.95,-21.55
355,1778615341932,0.94,-0.5,-0.13,-36.44,9.95,-21.55
356,1778615341948,0.94,-0.5,-0.13,-36.44,9.95,-21.55
357,1778615341964,0.93,-0.79,-0.05,-80.26,-22.83,-0.55
358,1778615341964,0.93,-0.79,-0.05,-80.26,-22.83,-0.55
359,1778615341980,0.93,-0.79,-0.05,-80.26,-22.83,-0.55
360,1778615341996,1.13,-0.78,0.38,-119.45,-27.4,-24.54
361,1778615341996,1.13,-0.78,0.38,-119.45,-27.4,-24.54
362,1778615342012,1.13,-0.78,0.38,-119.45,-27.4,-24.54
363,1778615342012,1.13,-0.78,0.38,-119.45,-27.4,-24.54
364,1778615342028,1.13,-0.78,0.38,-119.45,-27.4,-24.54
365,1778615342043,1.11,-0.78,0.39,-178.28,-52.86,-81.91
366,1778615342043,1.11,-0.78,0.39,-178.28,-52.86,-81.91
367,1778615342059,1.11,-0.78,0.39,-178.28,-52.86,-81.91
368,1778615342075,0.88,-0.84,0.64,-211.55,-103.09,-139.95
369,1778615342075,0.88,-0.84,0.64,-211.55,-103.09,-139.95
370,1778615342091,0.88,-0.84,0.64,-211.55,-103.09,-139.95
371,1778615342108,0.88,-0.84,0.64,-211.55,-103.09,-139.95
372,1778615342108,0.88,-0.84,0.64,-211.55,-103.09,-139.95
373,1778615342124,0.77,-0.73,0.97,-255.0,-141.72,-190.61
374,1778615342124,0.77,-0.73,0.97,-255.0,-141.72,-190.61
375,1778615342140,0.77,-0.73,0.97,-255.0,-141.72,-190.61
376,1778615342157,0.24,-0.59,1.46,-296.87,-187.93,-244.75
377,1778615342157,0.24,-0.59,1.46,-296.87,-187.93,-244.75
378,1778615342173,0.24,-0.59,1.46,-296.87,-187.93,-244.75
379,1778615342173,0.24,-0.59,1.46,-296.87,-187.93,-244.75
380,1778615342189,-0.91,-0.43,2.3,-301.76,-240.05,-284.18
381,1778615342205,-0.91,-0.43,2.3,-301.76,-240.05,-284.18
382,1778615342205,-0.91,-0.43,2.3,-301.76,-240.05,-284.18
383,1778615342221,-0.91,-0.43,2.3,-301.76,-240.05,-284.18
384,1778615342238,-1.84,0.15,2.85,-321.11,-258.36,-207.21
385,1778615342238,-1.84,0.15,2.85,-321.11,-258.36,-207.21
386,1778615342254,-1.84,0.15,2.85,-321.11,-258.36,-207.21
387,1778615342254,-1.84,0.15,2.85,-321.11,-258.36,-207.21
388,1778615342271,-2.12,0.24,2.72,-341.61,-219.42,-152.89
389,1778615342286,-2.12,0.24,2.72,-341.61,-219.42,-152.89
390,1778615342286,-2.12,0.24,2.72,-341.61,-219.42,-152.89
391,1778615342303,-1.97,0.4,2.89,-371.15,-193.97,-187.13
392,1778615342303,-1.97,0.4,2.89,-371.15,-193.97,-187.13
393,1778615342319,-1.97,0.4,2.89,-371.15,-193.97,-187.13
394,1778615342335,-1.97,0.4,2.89,-371.15,-193.97,-187.13
395,1778615342335,-1.97,0.4,2.89,-371.15,-193.97,-187.13
396,1778615342351,-2.09,0.53,3.36,-377.75,-205.44,-176.88
397,1778615342367,-2.09,0.53,3.36,-377.75,-205.44,-176.88
398,1778615342367,-2.09,0.53,3.36,-377.75,-205.44,-176.88
399,1778615342383,-1.47,1.8,3.5,-361.51,-153.93,-153.44
400,1778615342383,-1.47,1.8,3.5,-361.51,-153.93,-153.44
401,1778615342399,-1.47,1.8,3.5,-361.51,-153.93,-153.44
402,1778615342414,-1.47,1.8,3.5,-361.51,-153.93,-153.44
403,1778615342414,-1.47,1.8,3.5,-361.51,-153.93,-153.44
404,1778615342430,-1.65,1.97,2.06,-312.13,-59.2,-316.47
405,1778615342446,-1.65,1.97,2.06,-312.13,-59.2,-316.47
406,1778615342446,-1.65,1.97,2.06,-312.13,-59.2,-316.47
407,1778615342462,-1.52,2.39,2.05,-249.15,-94.54,-90.33
408,1778615342462,-1.52,2.39,2.05,-249.15,-94.54,-90.33
409,1778615342478,-1.52,2.39,2.05,-249.15,-94.54,-90.33
410,1778615342494,-0.98,3.9,2.3,-135.93,10.86,-71.17
411,1778615342494,-0.98,3.9,2.3,-135.93,10.86,-71.17
412,1778615342510,-0.98,3.9,2.3,-135.93,10.86,-71.17
413,1778615342526,-0.98,3.9,2.3,-135.93,10.86,-71.17
414,1778615342526,-0.98,3.9,2.3,-135.93,10.86,-71.17
415,1778615342543,-1.33,3.31,2.02,39.49,33.94,-52.49
416,1778615342543,-1.33,3.31,2.02,39.49,33.94,-52.49
417,1778615342559,-1.33,3.31,2.02,39.49,33.94,-52.49
418,1778615342575,-1.66,2.09,2.14,171.87,82.21,25.02
419,1778615342575,-1.66,2.09,2.14,171.87,82.21,25.02
420,1778615342590,-1.66,2.09,2.14,171.87,82.21,25.02
421,1778615342606,-1.53,1.54,2.07,227.97,126.89,134.16
422,1778615342606,-1.53,1.54,2.07,227.97,126.89,134.16
423,1778615342623,-1.53,1.54,2.07,227.97,126.89,134.16
424,1778615342623,-1.53,1.54,2.07,227.97,126.89,134.16
425,1778615342639,-1.53,1.54,2.07,227.97,126.89,134.16
426,1778615342655,-1.87,1.07,2.51,294.74,127.01,162.11
427,1778615342655,-1.87,1.07,2.51,294.74,127.01,162.11
428,1778615342671,-1.87,1.07,2.51,294.74,127.01,162.11
429,1778615342687,-1.94,0.89,2.95,347.96,183.17,212.16
430,1778615342687,-1.94,0.89,2.95,347.96,183.17,212.16
431,1778615342703,-1.94,0.89,2.95,347.96,183.17,212.16
432,1778615342703,-1.94,0.89,2.95,347.96,183.17,212.16
433,1778615342720,-1.99,0.55,2.6,347.96,183.17,212.16
434,1778615342735,-1.99,0.55,2.6,347.96,183.17,212.16
435,1778615342735,-1.99,0.55,2.6,347.96,183.17,212.16
436,1778615342752,-1.99,0.55,2.6,347.96,183.17,212.16
437,1778615342752,-1.99,0.55,2.6,347.96,183.17,212.16
438,1778615342768,-1.6,0.43,2.41,372.56,187.26,278.56
439,1778615342784,-1.6,0.43,2.41,372.56,187.26,278.56
440,1778615342784,-1.6,0.43,2.41,372.56,187.26,278.56
441,1778615342800,-1.22,0.29,1.79,346.44,185.91,268.19
442,1778615342815,-1.22,0.29,1.79,346.44,185.91,268.19
443,1778615342815,-1.22,0.29,1.79,346.44,185.91,268.19
444,1778615342831,-1.22,0.29,1.79,346.44,185.91,268.19
445,1778615342847,-1.15,0.01,1.45,311.22,122.44,264.1
446,1778615342847,-1.15,0.01,1.45,311.22,122.44,264.1
447,1778615342863,-1.15,0.01,1.45,311.22,122.44,264.1
448,1778615342863,-1.15,0.01,1.45,311.22,122.44,264.1
449,1778615342879,-0.6,0.03,1.61,288.94,137.21,305.48
450,1778615342895,-0.6,0.03,1.61,288.94,137.21,305.48
451,1778615342895,-0.6,0.03,1.61,288.94,137.21,305.48
452,1778615342911,-0.09,-0.05,1.08,248.11,129.03,248.47
453,1778615342928,-0.09,-0.05,1.08,248.11,129.03,248.47
454,1778615342928,-0.09,-0.05,1.08,248.11,129.03,248.47
455,1778615342944,-0.09,-0.05,1.08,248.11,129.03,248.47
456,1778615342944,-0.09,-0.05,1.08,248.11,129.03,248.47
457,1778615342960,0.34,-0.44,0.91,231.99,105.04,186.95
458,1778615342976,0.34,-0.44,0.91,231.99,105.04,186.95
459,1778615342976,0.34,-0.44,0.91,231.99,105.04,186.95
460,1778615342992,1.11,-0.3,0.7,209.78,86.73,164.37
461,1778615342992,1.11,-0.3,0.7,209.78,86.73,164.37
462,1778615343008,1.11,-0.3,0.7,209.78,86.73,164.37
463,1778615343024,1.14,-0.76,0.17,163.02,71.11,-3.66
464,1778615343024,1.14,-0.76,0.17,163.02,71.11,-3.66
465,1778615343041,1.14,-0.76,0.17,163.02,71.11,-3.66
466,1778615343057,1.14,-0.76,0.17,163.02,71.11,-3.66
467,1778615343057,1.14,-0.76,0.17,163.02,71.11,-3.66
468,1778615343072,1.0,-0.66,0.21,147.4,-6.41,17.64
469,1778615343072,1.0,-0.66,0.21,147.4,-6.41,17.64
470,1778615343088,1.0,-0.66,0.21,147.4,-6.41,17.64
471,1778615343104,0.8,-0.7,0.01,105.16,21.48,-80.38
472,1778615343104,0.8,-0.7,0.01,105.16,21.48,-80.38
473,1778615343120,0.8,-0.7,0.01,105.16,21.48,-80.38
474,1778615343137,0.64,-0.89,-0.26,61.89,4.88,-23.25
475,1778615343137,0.64,-0.89,-0.26,61.89,4.88,-23.25
476,1778615343152,0.64,-0.89,-0.26,61.89,4.88,-23.25
477,1778615343152,0.64,-0.89,-0.26,61.89,4.88,-23.25
478,1778615343168,0.64,-0.89,-0.26,61.89,4.88,-23.25
479,1778615343184,0.89,-0.5,-0.04,24.17,-1.04,21.24
480,1778615343184,0.89,-0.5,-0.04,24.17,-1.04,21.24
481,1778615343200,0.89,-0.5,-0.04,24.17,-1.04,21.24
482,1778615343216,1.11,-0.65,-0.04,-19.17,19.53,-18.43
483,1778615343216,1.11,-0.65,-0.04,-19.17,19.53,-18.43
484,1778615343232,1.11,-0.65,-0.04,-19.17,19.53,-18.43
485,1778615343232,1.11,-0.65,-0.04,-19.17,19.53,-18.43
486,1778615343248,1.11,-0.65,-0.04,-19.17,19.53,-18.43
487,1778615343264,1.28,-0.96,0.14,-71.72,1.77,-3.54
488,1778615343264,1.28,-0.96,0.14,-71.72,1.77,-3.54
489,1778615343280,1.28,-0.96,0.14,-71.72,1.77,-3.54
490,1778615343296,1.69,-1.21,0.2,-130.37,-17.21,-28.81
491,1778615343296,1.69,-1.21,0.2,-130.37,-17.21,-28.81
492,1778615343312,1.69,-1.21,0.2,-130.37,-17.21,-28.81
493,1778615343312,1.69,-1.21,0.2,-130.37,-17.21,-28.81
494,1778615343328,1.69,-1.21,0.2,-130.37,-17.21,-28.81
495,1778615343345,1.69,-1.21,0.2,-130.37,-17.21,-28.81
496,1778615343345,1.69,-1.21,0.2,-130.37,-17.21,-28.81
497,1778615343361,1.62,-0.98,0.56,-206.67,-106.81,-96.62
498,1778615343377,0.74,-0.72,1.2,-256.71,-155.03,-183.96
499,1778615343377,0.74,-0.72,1.2,-256.71,-155.03,-183.96
500,1778615343393,0.74,-0.72,1.2,-256.71,-155.03,-183.96
501,1778615343393,0.74,-0.72,1.2,-256.71,-155.03,-183.96
502,1778615343410,-0.45,-0.41,1.58,-283.57,-178.47,-180.36
503,1778615343426,-0.45,-0.41,1.58,-283.57,-178.47,-180.36
504,1778615343426,-0.45,-0.41,1.58,-283.57,-178.47,-180.36
505,1778615343442,-0.45,-0.41,1.58,-283.57,-178.47,-180.36
506,1778615343442,-0.45,-0.41,1.58,-283.57,-178.47,-180.36
507,1778615343459,-0.8,0.05,1.79,-307.37,-159.36,-135.8
508,1778615343475,-0.8,0.05,1.79,-307.37,-159.36,-135.8
509,1778615343475,-0.8,0.05,1.79,-307.37,-159.36,-135.8
510,1778615343491,-1.21,0.23,1.94,-335.57,-185.24,-158.39
511,1778615343507,-1.21,0.23,1.94,-335.57,-185.24,-158.39
512,1778615343507,-1.21,0.23,1.94,-335.57,-185.24,-158.39
513,1778615343523,-1.7,0.43,2.39,-351.87,-179.57,-165.04
514,1778615343523,-1.7,0.43,2.39,-351.87,-179.57,-165.04
515,1778615343539,-1.7,0.43,2.39,-351.87,-179.57,-165.04
516,1778615343555,-1.7,0.43,2.39,-351.87,-179.57,-165.04
517,1778615343555,-1.7,0.43,2.39,-351.87,-179.57,-165.04
518,1778615343571,-1.76,0.63,2.47,-391.05,-136.9,-130.49
519,1778615343587,-1.76,0.63,2.47,-391.05,-136.9,-130.49
520,1778615343587,-1.76,0.63,2.47,-391.05,-136.9,-130.49
521,1778615343604,-1.63,1.32,2.8,-381.65,-91.25,-194.15
522,1778615343604,-1.63,1.32,2.8,-381.65,-91.25,-194.15
523,1778615343620,-1.63,1.32,2.8,-381.65,-91.25,-194.15
524,1778615343636,-1.55,1.62,2.68,-337.1,-80.99,-232.42
525,1778615343636,-1.55,1.62,2.68,-337.1,-80.99,-232.42
526,1778615343652,-1.55,1.62,2.68,-337.1,-80.99,-232.42
527,1778615343652,-1.55,1.62,2.68,-337.1,-80.99,-232.42
528,1778615343668,-1.55,1.62,2.68,-337.1,-80.99,-232.42
529,1778615343684,-1.13,2.67,2.18,-264.22,-45.29,-251.34
530,1778615343684,-1.13,2.67,2.18,-264.22,-45.29,-251.34
531,1778615343699,-1.13,2.67,2.18,-264.22,-45.29,-251.34
532,1778615343715,-1.11,2.8,1.2,-174.38,-0.79,-264.53
533,1778615343715,-1.11,2.8,1.2,-174.38,-0.79,-264.53
534,1778615343731,-1.11,2.8,1.2,-174.38,-0.79,-264.53
535,1778615343731,-1.11,2.8,1.2,-174.38,-0.79,-264.53
536,1778615343748,-1.11,2.8,1.2,-174.38,-0.79,-264.53
537,1778615343764,-1.46,2.9,0.62,-119.45,-29.72,-145.45
538,1778615343764,-1.46,2.9,0.62,-119.45,-29.72,-145.45
539,1778615343780,-1.46,2.9,0.62,-119.45,-29.72,-145.45
540,1778615343796,-1.46,3.2,1.71,-44.98,-35.83,40.1
541,1778615343796,-1.46,3.2,1.71,-44.98,-35.83,40.1
542,1778615343812,-1.46,3.2,1.71,-44.98,-35.83,40.1
543,1778615343812,-1.46,3.2,1.71,-44.98,-35.83,40.1
544,1778615343828,-1.56,3.11,2.37,128.72,61.34,5.92
545,1778615343845,-1.56,3.11,2.37,128.72,61.34,5.92
546,1778615343845,-1.56,3.11,2.37,128.72,61.34,5.92
547,1778615343861,-1.56,3.11,2.37,128.72,61.34,5.92
548,1778615343877,-1.73,1.37,1.73,220.52,129.21,56.82
549,1778615343877,-1.73,1.37,1.73,220.52,129.21,56.82
550,1778615343893,-1.73,1.37,1.73,220.52,129.21,56.82
551,1778615343893,-1.73,1.37,1.73,220.52,129.21,56.82
552,1778615343910,-1.71,1.18,1.97,248.84,136.78,169.49
553,1778615343926,-1.71,1.18,1.97,248.84,136.78,169.49
554,1778615343926,-1.71,1.18,1.97,248.84,136.78,169.49
555,1778615343941,-1.82,1.18,2.13,300.54,170.35,162.35
556,1778615343957,-1.82,1.18,2.13,300.54,170.35,162.35
557,1778615343957,-1.82,1.18,2.13,300.54,170.35,162.35
558,1778615343973,-1.9,0.94,2.18,324.16,181.95,174.07
559,1778615343973,-1.9,0.94,2.18,324.16,181.95,174.07
560,1778615343989,-1.9,0.94,2.18,324.16,181.95,174.07
561,1778615344004,-1.5,0.9,2.21,334.23,202.33,220.09
562,1778615344004,-1.5,0.9,2.21,334.23,202.33,220.09
563,1778615344021,-1.5,0.9,2.21,334.23,202.33,220.09
564,1778615344037,-1.5,0.9,2.21,334.23,202.33,220.09
565,1778615344037,-1.5,0.9,2.21,334.23,202.33,220.09
566,1778615344053,-1.17,0.54,1.82,322.63,221.56,202.15
567,1778615344053,-1.17,0.54,1.82,322.63,221.56,202.15
568,1778615344069,-1.17,0.54,1.82,322.63,221.56,202.15
569,1778615344085,-0.84,0.36,1.33,289.86,182.37,226.01
570,1778615344085,-0.84,0.36,1.33,289.86,182.37,226.01
571,1778615344101,-0.84,0.36,1.33,289.86,182.37,226.01
572,1778615344117,-0.44,0.32,1.26,263.85,136.54,230.53
573,1778615344117,-0.44,0.32,1.26,263.85,136.54,230.53
574,1778615344132,-0.44,0.32,1.26,263.85,136.54,230.53
575,1778615344132,-0.44,0.32,1.26,263.85,136.54,230.53
576,1778615344148,-0.44,0.32,1.26,263.85,136.54,230.53
577,1778615344164,-0.09,-0.02,0.95,231.2,160.58,173.95
578,1778615344164,-0.09,-0.02,0.95,231.2,160.58,173.95
579,1778615344180,-0.09,-0.02,0.95,231.2,160.58,173.95
580,1778615344197,0.17,-0.32,0.4,178.16,117.8,175.84
581,1778615344197,0.17,-0.32,0.4,178.16,117.8,175.84
582,1778615344213,0.17,-0.32,0.4,178.16,117.8,175.84
583,1778615344213,0.17,-0.32,0.4,178.16,117.8,175.84
584,1778615344229,0.54,0.12,0.69,178.16,117.8,175.84
585,1778615344245,0.54,0.12,0.69,178.22,89.42,146.24
586,1778615344245,0.54,0.12,0.69,178.22,89.42,146.24
587,1778615344261,0.54,0.12,0.69,178.22,89.42,146.24
588,1778615344277,0.83,-0.26,0.51,167.24,99.67,69.46
589,1778615344277,0.83,-0.26,0.51,167.24,99.67,69.46
590,1778615344294,0.83,-0.26,0.51,167.24,99.67,69.46
591,1778615344294,0.83,-0.26,0.51,167.24,99.67,69.46
592,1778615344309,1.04,-0.22,0.2,139.53,71.41,41.87
593,1778615344326,1.04,-0.22,0.2,139.53,71.41,41.87
594,1778615344326,1.04,-0.22,0.2,139.53,71.41,41.87
595,1778615344342,1.04,-0.22,0.2,139.53,71.41,41.87
596,1778615344342,1.04,-0.22,0.2,139.53,71.41,41.87
597,1778615344358,0.98,-0.58,0.09,124.51,67.87,-25.02
598,1778615344375,0.98,-0.58,0.09,124.51,67.87,-25.02
599,1778615344375,0.98,-0.58,0.09,124.51,67.87,-25.02
600,1778615344391,1.0,-0.48,-0.13,84.41,41.56,9.16
601,1778615344407,1.0,-0.48,-0.13,84.41,41.56,9.16
602,1778615344407,1.0,-0.48,-0.13,84.41,41.56,9.16
603,1778615344423,1.02,-0.43,-0.21,44.13,33.33,-9.95
604,1778615344423,1.02,-0.43,-0.21,44.13,33.33,-9.95
605,1778615344440,1.02,-0.43,-0.21,44.13,33.33,-9.95
606,1778615344456,1.02,-0.43,-0.21,44.13,33.33,-9.95
607,1778615344456,1.02,-0.43,-0.21,44.13,33.33,-9.95
608,1778615344472,1.13,-0.46,-0.01,24.23,8.18,-1.71
609,1778615344472,1.13,-0.46,-0.01,24.23,8.18,-1.71
610,1778615344488,1.13,-0.46,-0.01,24.23,8.18,-1.71
611,1778615344504,1.19,-0.4,0.09,-11.47,-0.98,-14.77
612,1778615344504,1.19,-0.4,0.09,-11.47,-0.98,-14.77
613,1778615344520,1.19,-0.4,0.09,-11.47,-0.98,-14.77
614,1778615344537,1.22,-0.64,0.09,-11.47,-0.98,-14.77
615,1778615344537,1.22,-0.64,0.09,-11.47,-0.98,-14.77
616,1778615344553,1.22,-0.64,0.09,-51.45,-18.92,-58.9
617,1778615344553,1.22,-0.64,0.09,-51.45,-18.92,-58.9
618,1778615344569,1.22,-0.64,0.09,-51.45,-18.92,-58.9
619,1778615344585,1.05,-0.65,0.23,-89.11,-60.73,-66.1
620,1778615344585,1.05,-0.65,0.23,-89.11,-60.73,-66.1
621,1778615344601,1.05,-0.65,0.23,-89.11,-60.73,-66.1
622,1778615344617,0.85,-0.58,0.47,-124.63,-88.99,-90.82
623,1778615344617,0.85,-0.58,0.47,-124.63,-88.99,-90.82
624,1778615344633,0.85,-0.58,0.47,-124.63,-88.99,-90.82
625,1778615344633,0.85,-0.58,0.47,-124.63,-88.99,-90.82
626,1778615344648,0.85,-0.58,0.47,-124.63,-88.99,-90.82
627,1778615344664,0.48,-0.46,0.69,-158.14,-108.22,-136.35
628,1778615344664,0.48,-0.46,0.69,-158.14,-108.22,-136.35
629,1778615344680,0.48,-0.46,0.69,-158.14,-108.22,-136.35
630,1778615344697,-0.04,-0.41,0.91,-196.78,-120.42,-155.76
631,1778615344697,-0.04,-0.41,0.91,-196.78,-120.42,-155.76
632,1778615344713,-0.04,-0.41,0.91,-196.78,-120.42,-155.76
633,1778615344713,-0.04,-0.41,0.91,-196.78,-120.42,-155.76
634,1778615344729,-0.04,-0.41,0.91,-196.78,-120.42,-155.76
635,1778615344746,-0.56,-0.33,0.89,-251.59,-141.97,-135.01
636,1778615344746,-0.56,-0.33,0.89,-251.59,-141.97,-135.01
637,1778615344762,-0.9,0.14,1.41,-251.59,-141.97,-135.01
638,1778615344762,-0.9,0.14,1.41,-251.59,-141.97,-135.01
639,1778615344778,-0.9,0.14,1.41,-251.59,-141.97,-135.01
640,1778615344795,-0.9,0.14,1.41,-303.47,-185.91,-125.18
641,1778615344795,-0.9,0.14,1.41,-303.47,-185.91,-125.18
642,1778615344811,-1.32,0.47,2.05,-367.43,-171.39,-166.14
643,1778615344827,-1.32,0.47,2.05,-367.43,-171.39,-166.14
644,1778615344827,-1.32,0.47,2.05,-367.43,-171.39,-166.14
645,1778615344843,-1.32,0.47,2.05,-367.43,-171.39,-166.14
646,1778615344843,-1.32,0.47,2.05,-367.43,-171.39,-166.14
647,1778615344860,-1.65,1.05,2.3,-367.43,-171.39,-166.14
648,1778615344876,-1.65,1.05,2.3,-367.43,-171.39,-166.14
649,1778615344876,-1.65,1.05,2.3,-367.43,-171.39,-166.14
650,1778615344892,-1.65,1.05,2.3,-367.43,-171.39,-166.14
651,1778615344892,-1.65,1.05,2.3,-367.43,-171.39,-166.14
652,1778615344909,-1.78,1.28,2.54,-366.21,-150.15,-244.26
653,1778615344925,-1.62,2.07,2.47,-332.76,-149.6,-182.25
654,1778615344925,-1.62,2.07,2.47,-332.76,-149.6,-182.25
655,1778615344941,-1.62,2.07,2.47,-332.76,-149.6,-182.25
656,1778615344957,-1.22,2.97,2.39,-250.37,-77.76,-231.75
657,1778615344957,-1.22,2.97,2.39,-250.37,-77.76,-231.75
658,1778615344973,-1.22,2.97,2.39,-250.37,-77.76,-231.75
659,1778615344973,-1.22,2.97,2.39,-250.37,-77.76,-231.75
660,1778615344990,-1.25,3.06,1.41,-143.31,-49.62,-194.82
661,1778615345006,-1.25,3.06,1.41,-143.31,-49.62,-194.82
662,1778615345006,-1.25,3.06,1.41,-143.31,-49.62,-194.82
663,1778615345022,-1.25,3.06,1.41,-143.31,-49.62,-194.82
664,1778615345022,-1.25,3.06,1.41,-143.31,-49.62,-194.82
665,1778615345038,-1.6,2.64,0.44,-64.88,17.64,-158.39
666,1778615345054,-1.6,2.64,0.44,-64.88,17.64,-158.39
667,1778615345054,-1.6,2.64,0.44,-64.88,17.64,-158.39
668,1778615345071,-1.24,2.52,0.5,-20.32,-4.33,114.5
669,1778615345087,-1.24,2.52,0.5,-20.32,-4.33,114.5
670,1778615345087,-1.24,2.52,0.5,-20.32,-4.33,114.5
671,1778615345103,-0.7,3.1,1.09,50.72,14.83,148.44
672,1778615345103,-0.7,3.1,1.09,50.72,14.83,148.44
673,1778615345119,-0.7,3.1,1.09,50.72,14.83,148.44
674,1778615345135,-1.04,2.12,1.08,154.24,46.63,68.12
675,1778615345135,-1.04,2.12,1.08,154.24,46.63,68.12
676,1778615345151,-1.04,2.12,1.08,154.24,46.63,68.12
677,1778615345167,-1.04,2.12,1.08,154.24,46.63,68.12
678,1778615345167,-1.04,2.12,1.08,154.24,46.63,68.12
679,1778615345182,-1.56,1.57,1.54,214.97,83.68,97.11
680,1778615345182,-1.56,1.57,1.54,214.97,83.68,97.11
681,1778615345198,-1.56,1.57,1.54,214.97,83.68,97.11
682,1778615345214,-1.66,1.45,1.63,248.35,154.36,142.46
683,1778615345214,-1.66,1.45,1.63,248.35,154.36,142.46
684,1778615345231,-1.66,1.45,1.63,248.35,154.36,142.46
685,1778615345247,-1.6,1.19,1.5,271.67,171.81,174.38
686,1778615345247,-1.6,1.19,1.5,271.67,171.81,174.38
687,1778615345263,-1.6,1.19,1.5,271.67,171.81,174.38
688,1778615345263,-1.6,1.19,1.5,271.67,171.81,174.38
689,1778615345279,-1.6,1.19,1.5,271.67,171.81,174.38
690,1778615345295,-1.5,1.01,1.5,286.62,159.42,230.53
691,1778615345295,-1.5,1.01,1.5,286.62,159.42,230.53
692,1778615345311,-1.5,1.01,1.5,286.62,159.42,230.53
693,1778615345327,-1.19,0.89,1.53,289.12,181.7,232.36
694,1778615345327,-1.19,0.89,1.53,289.12,181.7,232.36
695,1778615345344,-1.19,0.89,1.53,289.12,181.7,232.36
696,1778615345344,-1.19,0.89,1.53,289.12,181.7,232.36
697,1778615345360,-0.8,0.7,1.31,279.6,163.76,247.38
698,1778615345376,-0.8,0.7,1.31,279.6,163.76,247.38
699,1778615345376,-0.8,0.7,1.31,279.6,163.76,247.38
700,1778615345391,-0.8,0.7,1.31,279.6,163.76,247.38
701,1778615345391,-0.8,0.7,1.31,279.6,163.76,247.38
702,1778615345407,-0.43,0.67,1.12,269.84,145.75,216.61
703,1778615345424,-0.43,0.67,1.12,269.84,145.75,216.61
704,1778615345424,-0.43,0.67,1.12,269.84,145.75,216.61
705,1778615345440,-0.09,0.27,0.9,253.54,135.62,181.21
706,1778615345456,-0.09,0.27,0.9,253.54,135.62,181.21
707,1778615345456,-0.09,0.27,0.9,253.54,135.62,181.21
708,1778615345473,-0.09,0.27,0.9,253.54,135.62,181.21
709,1778615345473,-0.09,0.27,0.9,253.54,135.62,181.21
710,1778615345489,0.25,0.03,0.77,230.59,133.0,147.89
711,1778615345505,0.25,0.03,0.77,230.59,133.0,147.89
712,1778615345505,0.25,0.03,0.77,230.59,133.0,147.89
713,1778615345521,0.69,-0.1,0.51,179.69,129.7,84.47
714,1778615345537,0.69,-0.1,0.51,179.69,129.7,84.47
715,1778615345537,0.69,-0.1,0.51,179.69,129.7,84.47
716,1778615345553,0.72,-0.25,0.44,144.9,89.9,46.33
717,1778615345553,0.72,-0.25,0.44,144.9,89.9,46.33
718,1778615345569,0.72,-0.25,0.44,144.9,89.9,46.33
719,1778615345585,0.72,-0.25,0.44,144.9,89.9,46.33
720,1778615345585,0.72,-0.25,0.44,144.9,89.9,46.33
721,1778615345602,1.0,-0.13,0.54,133.85,71.04,28.14
722,1778615345602,1.0,-0.13,0.54,133.85,71.04,28.14
723,1778615345617,1.0,-0.13,0.54,133.85,71.04,28.14
724,1778615345633,1.08,-0.32,0.13,110.66,52.19,-34.67
725,1778615345633,1.08,-0.32,0.13,110.66,52.19,-34.67
726,1778615345649,1.08,-0.32,0.13,110.66,52.19,-34.67
727,1778615345665,1.08,-0.32,0.13,110.66,52.19,-34.67
728,1778615345665,1.08,-0.32,0.13,110.66,52.19,-34.67
729,1778615345682,1.0,-0.39,-0.03,70.98,26.18,-39.92
730,1778615345682,1.0,-0.39,-0.03,70.98,26.18,-39.92
731,1778615345698,1.0,-0.39,-0.03,70.98,26.18,-39.92
732,1778615345714,0.93,-0.33,-0.1,33.51,16.66,-23.32
733,1778615345714,0.93,-0.33,-0.1,33.51,16.66,-23.32
734,1778615345730,0.93,-0.33,-0.1,33.51,16.66,-23.32
735,1778615345746,1.03,-0.35,-0.05,-6.71,16.78,-0.37
736,1778615345746,1.03,-0.35,-0.05,-6.71,16.78,-0.37
737,1778615345762,1.03,-0.35,-0.05,-6.71,16.78,-0.37
738,1778615345762,1.03,-0.35,-0.05,-6.71,16.78,-0.37
739,1778615345778,1.03,-0.35,-0.05,-6.71,16.78,-0.37
740,1778615345795,1.14,-0.34,0.06,-42.6,-8.12,18.86
741,1778615345795,1.14,-0.34,0.06,-42.6,-8.12,18.86
742,1778615345811,1.14,-0.34,0.06,-42.6,-8.12,18.86
743,1778615345827,1.25,-0.32,0.33,-79.1,-29.3,22.4
744,1778615345827,1.25,-0.32,0.33,-79.1,-29.3,22.4
745,1778615345843,1.25,-0.32,0.33,-79.1,-29.3,22.4
746,1778615345843,1.25,-0.32,0.33,-79.1,-29.3,22.4
747,1778615345859,1.28,-0.41,0.41,-126.4,-60.06,-4.7
748,1778615345876,1.28,-0.41,0.41,-126.4,-60.06,-4.7
749,1778615345876,1.28,-0.41,0.41,-126.4,-60.06,-4.7
750,1778615345892,1.28,-0.41,0.41,-126.4,-60.06,-4.7
751,1778615345892,1.28,-0.41,0.41,-126.4,-60.06,-4.7
752,1778615345908,1.01,-0.4,0.58,-161.07,-100.16,-50.35
753,1778615345925,1.01,-0.4,0.58,-161.07,-100.16,-50.35
754,1778615345925,1.01,-0.4,0.58,-161.07,-100.16,-50.35
755,1778615345941,0.5,-0.38,0.87,-182.86,-144.35,-71.11
756,1778615345957,0.5,-0.38,0.87,-182.86,-144.35,-71.11
757,1778615345957,0.5,-0.38,0.87,-182.86,-144.35,-71.11
758,1778615345973,-0.06,-0.44,1.1,-228.33,-169.74,-68.91
759,1778615345973,-0.06,-0.44,1.1,-228.33,-169.74,-68.91
760,1778615345990,-0.06,-0.44,1.1,-228.33,-169.74,-68.91
761,1778615346006,-0.06,-0.44,1.1,-228.33,-169.74,-68.91
762,1778615346006,-0.06,-0.44,1.1,-228.33,-169.74,-68.91
763,1778615346021,-0.74,-0.22,1.47,-282.35,-166.63,-95.89
764,1778615346037,-0.74,-0.22,1.47,-282.35,-166.63,-95.89
765,1778615346037,-0.74,-0.22,1.47,-282.35,-166.63,-95.89
766,1778615346054,-1.17,-0.18,1.48,-356.08,-120.0,-182.68
767,1778615346054,-1.17,-0.18,1.48,-356.08,-120.0,-182.68
768,1778615346070,-1.17,-0.18,1.48,-356.08,-120.0,-182.68
769,1778615346086,-1.53,0.19,2.19,-416.38,-194.64,-164.06
770,1778615346086,-1.53,0.19,2.19,-416.38,-194.64,-164.06
771,1778615346101,-1.53,0.19,2.19,-416.38,-194.64,-164.06
772,1778615346101,-1.53,0.19,2.19,-416.38,-194.64,-164.06
773,1778615346117,-1.53,0.19,2.19,-416.38,-194.64,-164.06
774,1778615346133,-1.89,1.38,3.39,-448.97,-120.61,-243.29
775,1778615346133,-1.89,1.38,3.39,-448.97,-120.61,-243.29
776,1778615346149,-1.89,1.38,3.39,-448.97,-120.61,-243.29
777,1778615346165,-1.83,2.13,3.22,-418.82,-94.06,-227.05
778,1778615346165,-1.83,2.13,3.22,-418.82,-94.06,-227.05
779,1778615346181,-1.83,2.13,3.22,-418.82,-94.06,-227.05
780,1778615346197,-1.83,2.13,3.22,-418.82,-94.06,-227.05
781,1778615346197,-1.83,2.13,3.22,-418.82,-94.06,-227.05
782,1778615346214,-1.14,3.42,2.98,-340.45,-57.86,-228.03
783,1778615346214,-1.14,3.42,2.98,-340.45,-57.86,-228.03
784,1778615346230,-1.14,3.42,2.98,-340.45,-57.86,-228.03
785,1778615346246,-0.99,3.26,1.77,-225.46,-40.22,-261.66
786,1778615346247,-0.99,3.26,1.77,-225.46,-40.22,-261.66
787,1778615346263,-0.99,3.26,1.77,-225.46,-40.22,-261.66
788,1778615346263,-0.99,3.26,1.77,-225.46,-40.22,-261.66
789,1778615346279,-1.03,3.19,0.46,-148.07,25.09,-164.43
790,1778615346295,-1.03,3.19,0.46,-148.07,25.09,-164.43
791,1778615346295,-1.03,3.19,0.46,-148.07,25.09,-164.43
792,1778615346311,-1.03,3.19,0.46,-148.07,25.09,-164.43
793,1778615346327,-0.52,3.14,0.48,-58.04,-0.43,25.63
794,1778615346327,-0.52,3.14,0.48,-58.04,-0.43,25.63
795,1778615346343,-0.52,3.14,0.48,-58.04,-0.43,25.63
796,1778615346343,-0.52,3.14,0.48,-58.04,-0.43,25.63
797,1778615346359,-0.34,3.16,1.15,58.04,10.31,45.53
798,1778615346375,-0.34,3.16,1.15,58.04,10.31,45.53
799,1778615346375,-0.34,3.16,1.15,58.04,10.31,45.53
800,1778615346391,-0.92,2.12,1.28,161.25,2.32,56.21
801,1778615346407,-0.92,2.12,1.28,161.25,2.32,56.21
802,1778615346407,-0.92,2.12,1.28,161.25,2.32,56.21
803,1778615346423,-0.92,2.12,1.28,161.25,2.32,56.21
804,1778615346423,-0.92,2.12,1.28,161.25,2.32,56.21
805,1778615346440,-1.22,1.76,1.72,217.83,54.32,114.38
806,1778615346456,-1.22,1.76,1.72,217.83,54.32,114.38
807,1778615346456,-1.22,1.76,1.72,217.83,54.32,114.38
808,1778615346472,-1.33,1.61,1.74,254.33,110.53,135.07
809,1778615346472,-1.33,1.61,1.74,254.33,110.53,135.07
810,1778615346489,-1.33,1.61,1.74,254.33,110.53,135.07
811,1778615346505,-1.36,1.42,1.73,279.79,99.37,191.53
812,1778615346505,-1.36,1.42,1.73,279.79,99.37,191.53
813,1778615346521,-1.36,1.42,1.73,279.79,99.37,191.53
814,1778615346537,-1.15,1.54,1.86,279.79,99.37,191.53
815,1778615346537,-1.15,1.54,1.86,279.79,99.37,191.53
816,1778615346553,-1.15,1.54,1.86,320.5,133.06,178.28
817,1778615346553,-1.15,1.54,1.86,320.5,133.06,178.28
818,1778615346568,-1.15,1.54,1.86,320.5,133.06,178.28
819,1778615346584,-1.25,1.17,1.59,342.77,134.52,178.71
820,1778615346584,-1.25,1.17,1.59,342.77,134.52,178.71
821,1778615346600,-1.25,1.17,1.59,342.77,134.52,178.71
822,1778615346616,-1.25,1.17,1.59,342.77,134.52,178.71
823,1778615346616,-1.25,1.17,1.59,342.77,134.52,178.71
824,1778615346632,-1.25,1.17,1.59,342.77,134.52,178.71
825,1778615346632,-1.25,1.17,1.59,342.77,134.52,178.71
826,1778615346649,-1.1,0.8,1.43,340.58,136.78,221.13
827,1778615346665,-0.7,0.43,1.15,310.3,139.89,231.2
828,1778615346665,-0.7,0.43,1.15,310.3,139.89,231.2
829,1778615346681,-0.7,0.43,1.15,310.3,139.89,231.2
830,1778615346697,-0.03,0.09,0.69,251.53,127.26,222.29
831,1778615346697,-0.03,0.09,0.69,251.53,127.26,222.29
832,1778615346713,-0.03,0.09,0.69,251.53,127.26,222.29
833,1778615346713,-0.03,0.09,0.69,251.53,127.26,222.29
834,1778615346729,-0.03,0.09,0.69,251.53,127.26,222.29
835,1778615346745,0.35,0.1,0.5,208.37,97.53,128.6
836,1778615346745,0.35,0.1,0.5,208.37,97.53,128.6
837,1778615346761,0.35,0.1,0.5,208.37,97.53,128.6
838,1778615346777,0.53,-0.01,0.64,181.34,85.45,34.79
839,1778615346777,0.53,-0.01,0.64,181.34,85.45,34.79
840,1778615346793,0.53,-0.01,0.64,181.34,85.45,34.79
841,1778615346793,0.53,-0.01,0.64,181.34,85.45,34.79
842,1778615346810,0.73,-0.26,0.36,127.93,81.73,22.22
843,1778615346826,0.73,-0.26,0.36,127.93,81.73,22.22
844,1778615346826,0.73,-0.26,0.36,127.93,81.73,22.22
845,1778615346842,0.73,-0.26,0.36,127.93,81.73,22.22
846,1778615346842,0.73,-0.26,0.36,127.93,81.73,22.22
847,1778615346858,0.77,-0.01,0.4,106.2,39.18,18.68
848,1778615346874,0.77,-0.01,0.4,106.2,39.18,18.68
849,1778615346874,0.77,-0.01,0.4,106.2,39.18,18.68
850,1778615346890,1.02,-0.22,0.3,95.09,50.05,-23.8
851,1778615346906,1.02,-0.22,0.3,95.09,50.05,-23.8
852,1778615346906,1.02,-0.22,0.3,95.09,50.05,-23.8
853,1778615346922,1.02,-0.22,0.3,95.09,50.05,-23.8
854,1778615346922,1.02,-0.22,0.3,95.09,50.05,-23.8
855,1778615346939,1.09,-0.38,-0.03,60.12,14.04,-9.28
856,1778615346955,1.09,-0.38,-0.03,60.12,14.04,-9.28
857,1778615346955,1.09,-0.38,-0.03,60.12,14.04,-9.28
858,1778615346971,0.98,-0.27,0.06,40.16,-27.47,9.83
859,1778615346987,0.98,-0.27,0.06,40.16,-27.47,9.83
860,1778615346987,0.98,-0.27,0.06,40.16,-27.47,9.83
861,1778615347003,0.96,-0.31,0.19,20.87,-15.99,-15.26
862,1778615347003,0.96,-0.31,0.19,20.87,-15.99,-15.26
863,1778615347018,0.96,-0.31,0.19,20.87,-15.99,-15.26
864,1778615347034,0.97,-0.5,0.02,-10.07,-30.7,-13.92
865,1778615347034,0.97,-0.5,0.02,-10.07,-30.7,-13.92
866,1778615347050,0.97,-0.5,0.02,-10.07,-30.7,-13.92
867,1778615347066,1.08,-0.59,0.17,-54.26,-49.13,-5.98
868,1778615347066,1.08,-0.59,0.17,-54.26,-49.13,-5.98
869,1778615347082,1.08,-0.59,0.17,-54.26,-49.13,-5.98
870,1778615347082,1.08,-0.59,0.17,-54.26,-49.13,-5.98
871,1778615347099,1.08,-0.59,0.17,-54.26,-49.13,-5.98
872,1778615347115,0.96,-0.57,0.32,-54.26,-49.13,-5.98
873,1778615347115,0.96,-0.57,0.32,-54.26,-49.13,-5.98
874,1778615347131,0.96,-0.57,0.32,-89.11,-68.48,-25.51
875,1778615347148,0.96,-0.57,0.32,-89.11,-68.48,-25.51
876,1778615347148,0.96,-0.57,0.32,-89.11,-68.48,-25.51
877,1778615347164,0.86,-0.44,0.47,-128.6,-66.28,-46.26
878,1778615347164,0.86,-0.44,0.47,-128.6,-66.28,-46.26
879,1778615347181,0.86,-0.44,0.47,-128.6,-66.28,-46.26
880,1778615347197,0.7,-0.42,0.51,-160.95,-83.31,-83.31
881,1778615347197,0.7,-0.42,0.51,-160.95,-83.31,-83.31
882,1778615347213,0.06,-0.33,0.91,-211.61,-112.92,-110.41
883,1778615347213,0.06,-0.33,0.91,-211.61,-112.92,-110.41
884,1778615347229,0.06,-0.33,0.91,-211.61,-112.92,-110.41
885,1778615347246,0.06,-0.33,0.91,-211.61,-112.92,-110.41
886,1778615347246,0.06,-0.33,0.91,-211.61,-112.92,-110.41
887,1778615347262,-0.18,-0.17,1.01,-282.23,-118.41,-99.37
888,1778615347262,-0.18,-0.17,1.01,-282.23,-118.41,-99.37
889,1778615347278,-0.18,-0.17,1.01,-282.23,-118.41,-99.37
890,1778615347294,-0.42,-0.37,0.98,-355.16,-172.24,-201.66
891,1778615347294,-0.42,-0.37,0.98,-355.16,-172.24,-201.66
892,1778615347310,-0.42,-0.37,0.98,-355.16,-172.24,-201.66
893,1778615347326,-0.42,-0.37,0.98,-355.16,-172.24,-201.66
894,1778615347326,-0.42,-0.37,0.98,-355.16,-172.24,-201.66
895,1778615347342,-1.24,-0.77,2.15,-406.68,-281.07,-247.74
896,1778615347342,-1.24,-0.77,2.15,-406.68,-281.07,-247.74
897,1778615347359,-1.24,-0.77,2.15,-406.68,-281.07,-247.74
898,1778615347375,-1.96,-0.21,3.39,-506.9,-219.42,-218.87
899,1778615347375,-1.96,-0.21,3.39,-506.9,-219.42,-218.87
900,1778615347391,-1.96,-0.21,3.39,-506.9,-219.42,-218.87
901,1778615347391,-1.96,-0.21,3.39,-506.9,-219.42,-218.87
902,1778615347407,-2.31,0.19,4.37,-506.9,-219.42,-218.87
903,1778615347423,-2.31,0.19,4.37,-529.24,-181.03,-181.64
904,1778615347423,-2.31,0.19,4.37,-529.24,-181.03,-181.64
905,1778615347439,-2.31,0.19,4.37,-529.24,-181.03,-181.64
906,1778615347456,-1.64,0.63,3.74,-501.95,-79.16,-218.14
907,1778615347456,-1.64,0.63,3.74,-501.95,-79.16,-218.14
908,1778615347472,-1.64,0.63,3.74,-501.95,-79.16,-218.14
909,1778615347472,-1.64,0.63,3.74,-501.95,-79.16,-218.14
910,1778615347488,-1.1,1.13,3.67,-425.6,-177.61,-155.03
911,1778615347504,-1.1,1.13,3.67,-425.6,-177.61,-155.03
912,1778615347504,-1.1,1.13,3.67,-425.6,-177.61,-155.03
913,1778615347520,-0.67,2.38,3.82,-342.22,-70.13,-161.68
914,1778615347536,-0.67,2.38,3.82,-342.22,-70.13,-161.68
915,1778615347536,-0.67,2.38,3.82,-342.22,-70.13,-161.68
916,1778615347551,-0.67,2.38,3.82,-342.22,-70.13,-161.68
917,1778615347567,-0.68,2.3,2.67,-251.46,-18.25,-161.99
918,1778615347567,-0.68,2.3,2.67,-251.46,-18.25,-161.99
919,1778615347583,-0.68,2.3,2.67,-251.46,-18.25,-161.99
920,1778615347583,-0.68,2.3,2.67,-251.46,-18.25,-161.99
921,1778615347599,-0.65,2.61,2.65,-87.16,-23.32,-24.23
922,1778615347615,-0.65,2.61,2.65,-87.16,-23.32,-24.23
923,1778615347615,-0.65,2.61,2.65,-87.16,-23.32,-24.23
924,1778615347631,-0.65,2.61,2.65,-87.16,-23.32,-24.23
925,1778615347647,-0.65,2.61,2.65,-87.16,-23.32,-24.23
926,1778615347647,-0.65,2.61,2.65,-87.16,-23.32,-24.23
927,1778615347663,-1.03,1.62,2.25,61.28,48.95,-47.24
928,1778615347663,-1.03,1.62,2.25,61.28,48.95,-47.24
929,1778615347680,-1.03,1.62,2.25,173.71,72.81,-51.03
930,1778615347696,-1.03,1.62,2.25,173.71,72.81,-51.03
931,1778615347696,-1.03,1.62,2.25,173.71,72.81,-51.03
932,1778615347712,-1.43,0.96,2.42,263.98,104.86,58.78
933,1778615347712,-1.43,0.96,2.42,263.98,104.86,58.78
934,1778615347729,-1.43,0.96,2.42,263.98,104.86,58.78
935,1778615347745,-1.43,0.96,2.42,263.98,104.86,58.78
936,1778615347745,-1.43,0.96,2.42,263.98,104.86,58.78
937,1778615347761,-1.77,0.99,2.94,356.51,128.6,134.46
938,1778615347777,-1.77,0.99,2.94,356.51,128.6,134.46
939,1778615347777,-1.91,0.61,3.23,380.25,164.31,157.9
940,1778615347794,-1.91,0.61,3.23,380.25,164.31,157.9
941,1778615347794,-1.91,0.61,3.23,380.25,164.31,157.9
942,1778615347810,-1.91,0.61,3.23,380.25,164.31,157.9
943,1778615347826,-1.78,0.41,3.39,407.1,157.41,201.23
944,1778615347826,-1.78,0.41,3.39,407.1,157.41,201.23
945,1778615347842,-1.78,0.41,3.39,407.1,157.41,201.23
946,1778615347842,-1.78,0.41,3.39,407.1,157.41,201.23
947,1778615347859,-1.78,0.41,3.39,407.1,157.41,201.23
948,1778615347875,-1.78,0.41,3.39,407.1,157.41,201.23
949,1778615347875,-1.78,0.41,3.39,407.1,157.41,201.23
950,1778615347891,-1.78,0.41,3.39,407.1,157.41,201.23
951,1778615347907,-0.98,0.06,2.65,405.21,261.35,129.27
952,1778615347907,-0.98,0.06,2.65,405.21,261.35,129.27
953,1778615347923,-1.23,-0.38,1.56,405.21,261.35,129.27
954,1778615347923,-1.23,-0.38,1.56,405.21,261.35,129.27
955,1778615347939,-1.23,-0.38,1.56,309.51,149.54,221.86
956,1778615347955,-1.23,-0.38,1.56,309.51,149.54,221.86
957,1778615347955,-1.23,-0.38,1.56,309.51,149.54,221.86
958,1778615347971,-0.78,-0.03,1.99,319.7,114.93,254.15
959,1778615347987,-0.78,-0.03,1.99,319.7,114.93,254.15
960,1778615347987,-0.78,-0.03,1.99,319.7,114.93,254.15
961,1778615348002,-0.78,-0.03,1.99,319.7,114.93,254.15
962,1778615348002,-0.78,-0.03,1.99,319.7,114.93,254.15
963,1778615348018,-0.24,-0.35,1.4,307.86,162.96,216.92
964,1778615348034,-0.24,-0.35,1.4,307.86,162.96,216.92
965,1778615348034,-0.24,-0.35,1.4,307.86,162.96,216.92
966,1778615348050,0.36,-0.34,1.06,297.61,118.84,216.31
967,1778615348066,0.36,-0.34,1.06,297.61,118.84,216.31
968,1778615348066,0.36,-0.34,1.06,297.61,118.84,216.31
969,1778615348081,0.72,-0.2,1.0,262.33,109.99,162.6
970,1778615348097,0.72,-0.2,1.0,262.33,109.99,162.6
971,1778615348097,0.72,-0.2,1.0,262.33,109.99,162.6
972,1778615348113,1.2,-0.61,0.69,219.91,114.2,87.16
973,1778615348113,1.2,-0.61,0.69,219.91,114.2,87.16
974,1778615348130,1.2,-0.61,0.69,219.91,114.2,87.16
975,1778615348146,1.2,-0.61,0.69,219.91,114.2,87.16
976,1778615348146,1.2,-0.61,0.69,219.91,114.2,87.16
977,1778615348162,1.24,-0.8,0.07,137.76,88.5,36.56
978,1778615348162,1.24,-0.8,0.07,137.76,88.5,36.56
979,1778615348178,1.24,-0.8,0.07,137.76,88.5,36.56
980,1778615348194,1.13,-1.04,0.06,125.79,10.38,27.95
981,1778615348194,1.13,-1.04,0.06,125.79,10.38,27.95
982,1778615348210,1.13,-1.04,0.06,125.79,10.38,27.95
983,1778615348226,0.94,-0.15,-0.78,5.37,51.03,75.26
984,1778615348226,0.94,-0.15,-0.78,5.37,51.03,75.26
985,1778615348242,0.94,-0.15,-0.78,5.37,51.03,75.26
986,1778615348242,0.94,-0.15,-0.78,5.37,51.03,75.26
987,1778615348258,0.94,-0.15,-0.78,5.37,51.03,75.26
988,1778615348274,1.04,-1.56,0.43,80.02,-39.55,-48.28
989,1778615348274,1.04,-1.56,0.43,80.02,-39.55,-48.28
990,1778615348291,1.04,-1.56,0.43,80.02,-39.55,-48.28
991,1778615348308,0.82,-1.1,-0.07,-94.36,-14.16,21.12
992,1778615348308,0.82,-1.1,-0.07,-94.36,-14.16,21.12
993,1778615348324,0.82,-1.1,-0.07,-94.36,-14.16,21.12
994,1778615348324,0.82,-1.1,-0.07,-94.36,-14.16,21.12
995,1778615348340,0.83,-0.79,0.07,-129.88,-32.96,-4.76
996,1778615348356,0.83,-0.79,0.07,-129.88,-32.96,-4.76
997,1778615348356,0.83,-0.79,0.07,-129.88,-32.96,-4.76
998,1778615348372,0.75,-0.82,0.29,-129.88,-32.96,-4.76
999,1778615348372,0.75,-0.82,0.29,-129.88,-32.96,-4.76
