id,timestamp,acc_x,acc_y,acc_z,gyro_x,gyro_y,gyro_z
0,1778616232018,-0.74,-0.12,-0.27,-88.26,63.96,17.88
1,1778616232083,-0.74,-0.12,-0.27,-88.26,63.96,17.88
2,1778616232131,-0.27,-0.19,-0.05,47.12,95.28,-122.62
3,1778616232179,-0.0,-0.02,0.43,89.66,-59.33,-13.31
4,1778616232228,-0.02,0.04,0.51,148.56,-17.88,45.04
5,1778616232275,-0.27,-0.34,0.31,130.37,19.29,81.42
6,1778616232323,-0.27,-0.34,0.31,130.37,19.29,81.42
7,1778616232371,-0.27,-0.34,0.31,130.37,19.29,81.42
8,1778616232419,-0.27,-0.34,0.31,130.37,19.29,81.42
9,1778616232484,-0.27,-0.34,0.31,130.37,19.29,81.42
10,1778616232533,-0.27,-0.34,0.31,130.37,19.29,81.42
11,1778616232581,-0.27,-0.34,0.31,130.37,19.29,81.42
12,1778616232630,-0.27,-0.34,0.31,130.37,19.29,81.42
13,1778616232677,0.03,-0.07,-0.18,-107.06,68.18,-3.54
14,1778616232726,-0.41,-0.3,-0.1,-75.01,51.57,1.71
15,1778616232773,0.33,0.09,0.53,-51.57,-94.79,70.98
16,1778616232821,0.33,0.09,0.53,-51.57,-94.79,70.98
17,1778616232870,-0.13,-1.14,1.05,137.33,-234.01,76.23
18,1778616232934,-0.38,-3.35,0.26,0.49,187.56,-70.07
19,1778616232982,-0.38,-3.35,0.26,0.49,187.56,-70.07
20,1778616233031,-0.2,0.14,0.05,21.73,76.97,-109.44
21,1778616233079,-0.08,0.62,0.05,67.63,37.05,-163.7
22,1778616233126,-0.08,0.62,0.05,67.63,37.05,-163.7
23,1778616233175,-0.08,0.62,0.05,67.63,37.05,-163.7
24,1778616233223,-0.08,0.62,0.05,67.63,37.05,-163.7
25,1778616233272,-0.08,0.62,0.05,67.63,37.05,-163.7
26,1778616233320,-0.34,0.19,0.78,124.63,-52.43,34.18
27,1778616233385,1.0,-1.44,2.22,19.23,-80.75,89.36
28,1778616233433,1.0,-1.44,2.22,19.23,-80.75,89.36
29,1778616233481,0.36,-3.0,1.49,-57.07,-146.91,20.45
30,1778616233529,0.57,-1.51,0.86,-41.87,-67.2,-63.17
31,1778616233578,0.57,-1.51,0.86,-41.87,-67.2,-63.17
32,1778616233626,0.26,0.34,-0.34,6.53,21.0,-14.16
33,1778616233674,-0.55,0.08,0.53,-51.27,86.85,39.18
34,1778616233724,-0.55,0.08,0.53,-51.27,86.85,39.18
35,1778616233772,-0.55,0.08,0.53,-51.27,86.85,39.18
36,1778616233821,-0.55,0.08,0.53,-51.27,86.85,39.18
37,1778616233869,0.12,-0.29,1.08,50.48,-64.21,61.1
38,1778616233933,-0.23,-3.22,1.03,-6.59,60.42,-99.12
39,1778616233981,-0.65,-3.25,0.65,-72.57,169.31,-17.76
40,1778616234029,-0.65,-3.25,0.65,-72.57,169.31,-17.76
41,1778616234076,-0.65,-3.25,0.65,-72.57,169.31,-17.76
42,1778616234125,-0.65,-3.25,0.65,-72.57,169.31,-17.76
43,1778616234173,-0.01,0.24,0.08,-9.4,10.74,-29.17
44,1778616234222,-0.01,0.24,0.08,-9.4,10.74,-29.17
45,1778616234270,-0.01,0.24,0.08,-9.4,10.74,-29.17
46,1778616234334,-0.01,0.24,0.08,-9.4,10.74,-29.17
47,1778616234382,-0.43,-1.34,0.51,54.2,113.28,106.57
48,1778616234430,0.55,-1.39,2.25,152.28,15.75,-45.65
49,1778616234479,0.25,-2.77,1.54,-53.89,-14.65,44.37
50,1778616234527,0.11,-2.19,1.31,-81.6,-13.92,-29.48
51,1778616234575,0.07,-1.28,0.26,-83.74,31.56,-29.91
52,1778616234624,0.07,-1.28,0.26,-83.74,31.56,-29.91
53,1778616234672,-0.18,0.5,0.23,-33.14,15.38,-46.14
54,1778616234720,-0.05,-0.15,0.26,-80.02,95.52,48.58
55,1778616234785,-0.31,-0.19,0.25,-19.59,103.94,36.44
56,1778616234833,0.06,0.0,0.15,-64.27,-187.56,66.04
57,1778616234882,0.05,0.22,0.54,32.53,-234.74,111.82
58,1778616234930,0.05,0.22,0.54,32.53,-234.74,111.82
59,1778616234979,0.05,0.22,0.54,32.53,-234.74,111.82
60,1778616235027,0.05,0.22,0.54,32.53,-234.74,111.82
61,1778616235076,0.05,0.22,0.54,32.53,-234.74,111.82
62,1778616235124,0.05,0.22,0.54,32.53,-234.74,111.82
63,1778616235172,-0.05,0.13,0.06,-0.73,31.01,-19.1
64,1778616235220,0.02,-0.08,-0.12,-18.01,47.49,-48.65
65,1778616235285,-0.05,-0.13,0.31,16.97,84.05,-62.62
66,1778616235333,-0.15,-0.13,0.41,127.26,-110.11,46.08
67,1778616235381,0.1,0.03,0.92,151.25,-6.84,56.58
68,1778616235429,0.73,-2.03,3.24,110.78,94.67,54.02
69,1778616235477,0.15,-3.15,1.55,21.67,156.43,22.09
70,1778616235526,-0.37,-3.26,1.62,-51.09,32.9,-58.96
71,1778616235575,-0.35,-2.52,1.16,-93.51,-58.78,3.42
72,1778616235623,0.29,0.01,-0.08,-87.65,-42.91,22.52
73,1778616235671,0.76,0.89,0.32,-11.78,-137.57,-24.05
74,1778616235720,-0.45,-0.09,0.29,-24.23,-2.69,15.26
75,1778616235784,-0.03,0.0,-0.6,-152.71,222.47,19.29
76,1778616235833,0.04,0.0,-0.01,-48.83,-150.02,93.44
77,1778616235881,-0.19,-0.04,0.71,20.26,-221.98,67.99
78,1778616235929,-0.07,-0.5,0.19,39.79,-142.58,43.27
79,1778616235977,0.18,-3.29,0.69,30.4,-9.22,-64.45
80,1778616236025,-0.17,-3.53,1.11,-26.86,163.76,-92.29
81,1778616236073,-0.16,-2.95,0.5,-9.4,54.14,-30.88
82,1778616236121,-0.22,-0.28,0.01,-0.92,22.16,-99.73
83,1778616236169,-0.03,0.63,0.21,17.7,20.94,-57.37
84,1778616236234,0.08,-0.02,-0.09,21.42,66.71,-43.33
85,1778616236282,0.08,-0.02,-0.09,21.42,66.71,-43.33
86,1778616236331,0.08,-0.02,-0.09,21.42,66.71,-43.33
87,1778616236380,0.08,-0.02,-0.09,21.42,66.71,-43.33
88,1778616236428,0.25,-0.58,0.35,106.87,-53.71,102.84
89,1778616236476,0.78,-1.98,1.17,63.17,81.97,-114.44
90,1778616236524,0.58,-3.83,3.05,16.24,86.73,30.33
91,1778616236573,-0.27,-2.88,1.25,-102.6,-55.11,33.57
92,1778616236621,-0.11,-1.47,0.54,-88.32,-83.19,6.84
93,1778616236669,0.12,-0.1,-0.04,-25.09,-54.2,-39.61
94,1778616236734,-0.37,-0.15,0.12,-91.13,10.13,-14.28
95,1778616236782,-0.24,-0.36,0.28,-80.99,111.39,39.55
96,1778616236830,-0.36,-0.26,-1.39,-4.52,63.72,80.08
97,1778616236878,0.28,0.05,-0.3,-18.92,-250.79,116.03
98,1778616236926,0.16,0.24,1.09,-9.4,-281.25,65.12
99,1778616236974,0.16,0.24,1.09,-9.4,-281.25,65.12
100,1778616237022,0.16,0.24,1.09,-9.4,-281.25,65.12
101,1778616237071,0.16,0.24,1.09,-9.4,-281.25,65.12
102,1778616237119,0.16,0.24,1.09,-9.4,-281.25,65.12
103,1778616237184,0.16,0.24,1.09,-9.4,-281.25,65.12
104,1778616237232,0.14,0.12,-0.02,-1.95,-14.71,15.5
105,1778616237281,0.28,-0.05,-0.0,-3.66,-18.92,-55.54
106,1778616237329,0.14,0.03,0.09,38.82,64.88,-85.63
107,1778616237377,0.14,0.03,0.09,38.82,64.88,-85.63
108,1778616237425,0.32,0.03,0.63,211.91,-79.22,74.77
109,1778616237473,-0.24,-0.72,1.86,201.17,197.39,27.89
110,1778616237521,-0.24,-0.72,1.86,201.17,197.39,27.89
111,1778616237570,-0.17,-2.4,1.48,-25.45,76.78,21.36
112,1778616237634,-0.45,-1.99,0.73,-112.49,-67.26,-0.49
113,1778616237683,-0.45,-1.99,0.73,-112.49,-67.26,-0.49
114,1778616237731,0.41,0.44,0.72,-150.51,-112.98,34.0
115,1778616237780,0.41,0.44,0.72,-150.51,-112.98,34.0
116,1778616237828,0.41,0.44,0.72,-150.51,-112.98,34.0
117,1778616237877,0.41,0.44,0.72,-150.51,-112.98,34.0
118,1778616237926,0.41,0.44,0.72,-150.51,-112.98,34.0
119,1778616237974,0.41,0.44,0.72,-150.51,-112.98,34.0
120,1778616238022,0.96,-0.98,2.16,38.7,156.74,46.02
121,1778616238070,-0.04,-3.03,1.76,77.03,-261.66,-2.62
122,1778616238119,-0.74,-3.32,1.07,-6.1,44.92,-12.21
123,1778616238184,0.31,0.14,0.27,23.86,32.41,-126.53
124,1778616238232,0.31,0.14,0.27,23.86,32.41,-126.53
125,1778616238281,0.31,0.14,0.27,23.86,32.41,-126.53
126,1778616238330,-0.09,-0.17,0.11,-22.64,-9.28,-0.98
127,1778616238378,-0.25,-0.05,-0.23,69.95,18.86,-51.64
128,1778616238426,-0.25,-0.05,-0.23,69.95,18.86,-51.64
129,1778616238475,-0.25,-0.05,-0.23,69.95,18.86,-51.64
130,1778616238523,-0.46,-1.1,0.49,78.61,34.91,30.7
131,1778616238571,1.09,-2.06,0.04,57.86,168.64,-57.92
132,1778616238635,-0.63,-3.25,1.81,-64.33,28.32,55.24
133,1778616238683,-0.18,-1.29,0.76,-93.2,-65.92,-32.04
134,1778616238731,-0.18,-1.29,0.76,-93.2,-65.92,-32.04
135,1778616238780,-0.18,-1.29,0.76,-93.2,-65.92,-32.04
136,1778616238829,-0.18,-1.29,0.76,-93.2,-65.92,-32.04
137,1778616238877,-0.09,-0.32,-0.01,-76.78,17.52,32.53
138,1778616238925,-0.39,-0.07,0.19,-27.59,-53.1,81.79
139,1778616238973,-0.39,-0.07,0.19,-27.59,-53.1,81.79
140,1778616239021,0.08,-0.08,0.14,11.11,-78.37,46.63
141,1778616239085,0.1,-2.4,-3.28,-24.9,284.12,-66.04
142,1778616239133,0.1,-3.18,0.57,59.51,57.98,-91.67
143,1778616239181,-0.36,-3.45,0.21,-75.38,87.28,-26.49
144,1778616239229,0.02,-0.88,0.72,31.86,-25.27,-47.18
145,1778616239278,0.14,0.32,0.17,24.84,66.65,-136.29
146,1778616239326,0.14,0.32,0.17,24.84,66.65,-136.29
147,1778616239375,0.14,0.32,0.17,24.84,66.65,-136.29
148,1778616239423,0.14,0.32,0.17,24.84,66.65,-136.29
149,1778616239471,-0.25,-0.02,0.08,59.33,-82.64,4.94
150,1778616239535,0.03,-0.22,0.25,128.6,-43.95,74.34
151,1778616239583,0.03,-0.22,0.25,128.6,-43.95,74.34
152,1778616239631,0.55,-3.7,-0.92,-26.37,87.89,-188.6
153,1778616239679,-0.67,-3.42,0.19,-87.1,188.35,-9.34
154,1778616239727,-0.88,-3.31,1.25,-151.43,77.82,-18.68
155,1778616239776,-0.37,-1.14,0.65,-107.67,-14.77,66.22
156,1778616239824,1.23,0.91,-0.01,-18.8,-250.85,-10.07
157,1778616239872,-0.15,-0.26,0.29,-9.7,-101.32,-39.98
158,1778616239921,-0.15,-0.26,0.29,-9.7,-101.32,-39.98
159,1778616239969,-0.06,-0.47,0.49,-70.8,102.11,0.24
160,1778616240033,-0.37,-0.15,-0.11,32.78,-91.06,108.09
161,1778616240081,0.13,-0.36,0.16,-73.79,-270.63,116.33
162,1778616240129,0.68,-3.09,0.63,9.89,-59.57,-36.87
163,1778616240177,-0.77,-3.8,-0.03,-30.52,186.46,-96.74
164,1778616240225,-0.77,-3.8,-0.03,-30.52,186.46,-96.74
165,1778616240274,-0.77,-3.8,-0.03,-30.52,186.46,-96.74
166,1778616240322,-0.77,-3.8,-0.03,-30.52,186.46,-96.74
167,1778616240371,-0.77,-3.8,-0.03,-30.52,186.46,-96.74
168,1778616240420,-0.77,-3.8,-0.03,-30.52,186.46,-96.74
169,1778616240483,-0.77,-3.8,-0.03,-30.52,186.46,-96.74
170,1778616240532,-0.77,-3.8,-0.03,-30.52,186.46,-96.74
171,1778616240580,-0.77,-3.8,-0.03,-30.52,186.46,-96.74
172,1778616240628,-0.12,-2.86,-1.05,-81.6,242.86,-130.68
173,1778616240677,-1.17,-3.71,0.69,-79.71,83.31,47.97
174,1778616240725,-0.31,-2.73,1.61,-66.53,-65.37,55.36
175,1778616240772,-0.12,-1.94,0.79,-83.44,-36.93,4.7
176,1778616240821,0.56,0.43,-0.28,27.34,-147.83,-81.18
177,1778616240869,-0.13,0.23,0.32,-31.13,-94.91,-14.34
178,1778616240934,-0.17,-0.08,-0.01,-23.74,119.51,24.11
179,1778616240983,-0.12,-0.01,0.03,-46.26,26.37,5.68
180,1778616241032,-0.12,-0.01,0.03,-46.26,26.37,5.68
181,1778616241079,-0.03,-0.1,0.02,-32.78,-64.64,74.28
182,1778616241128,0.31,0.01,-0.02,-15.32,-182.74,104.25
183,1778616241176,0.31,0.01,-0.02,-15.32,-182.74,104.25
184,1778616241225,-0.63,-3.64,0.78,-12.76,157.65,-35.77
185,1778616241274,-0.45,-2.9,0.19,-15.14,90.03,-21.18
186,1778616241323,0.01,0.2,0.03,21.0,-11.54,-53.28
187,1778616241371,0.01,0.2,0.03,21.0,-11.54,-53.28
188,1778616241419,0.36,0.27,-0.02,20.08,77.88,-13.06
189,1778616241484,0.0,-0.2,0.02,-15.38,17.27,-76.35
190,1778616241533,-0.28,-0.25,0.1,80.44,38.02,-28.75
191,1778616241582,-0.02,0.17,0.46,131.71,-83.44,40.71
192,1778616241630,0.11,-1.32,0.45,88.68,90.52,39.12
193,1778616241678,-0.37,-2.3,0.26,3.66,214.42,-101.81
194,1778616241726,-0.46,-3.44,1.32,-51.27,77.15,6.1
195,1778616241774,-0.18,-2.58,1.05,-77.21,-88.93,11.23
196,1778616241823,0.13,-0.82,0.64,-32.84,-18.74,10.31
197,1778616241871,0.79,0.98,0.03,-35.58,-25.27,-67.2
198,1778616241935,-0.37,-0.1,0.32,-43.33,51.21,87.71
199,1778616241983,-0.1,-0.43,-0.13,-109.86,211.67,10.07
