id,timestamp,acc_x,acc_y,acc_z,gyro_x,gyro_y,gyro_z
0,1778615378020,-1.4,0.49,2.85,-343.99,-82.09,-163.45
1,1778615378036,-1.02,0.88,2.68,-343.99,-82.09,-163.45
2,1778615378052,-1.02,0.88,2.68,-373.6,20.87,-285.1
3,1778615378052,-1.02,0.88,2.68,-373.6,20.87,-285.1
4,1778615378068,-1.02,0.88,2.68,-373.6,20.87,-285.1
5,1778615378084,-1.01,0.31,2.44,-369.57,-104.19,-353.33
6,1778615378084,-1.01,0.31,2.44,-369.57,-104.19,-353.33
7,1778615378100,-1.01,0.31,2.44,-369.57,-104.19,-353.33
8,1778615378100,-1.01,0.31,2.44,-369.57,-104.19,-353.33
9,1778615378116,-1.32,0.56,3.46,-365.05,-137.27,-355.35
10,1778615378132,-1.32,0.56,3.46,-365.05,-137.27,-355.35
11,1778615378132,-1.32,0.56,3.46,-365.05,-137.27,-355.35
12,1778615378148,-1.32,0.56,3.46,-365.05,-137.27,-355.35
13,1778615378164,-1.85,0.47,3.2,-282.17,-155.7,-427.92
14,1778615378164,-1.85,0.47,3.2,-282.17,-155.7,-427.92
15,1778615378180,-1.85,0.47,3.2,-282.17,-155.7,-427.92
16,1778615378180,-1.85,0.47,3.2,-282.17,-155.7,-427.92
17,1778615378196,-2.56,0.7,2.1,-248.17,-64.33,-322.27
18,1778615378212,-2.56,0.7,2.1,-248.17,-64.33,-322.27
19,1778615378212,-2.56,0.7,2.1,-248.17,-64.33,-322.27
20,1778615378229,-1.88,2.16,2.83,-152.89,-115.3,-13.37
21,1778615378245,-1.88,2.16,2.83,-152.89,-115.3,-13.37
22,1778615378245,-1.88,2.16,2.83,-152.89,-115.3,-13.37
23,1778615378261,-1.88,2.16,2.83,-152.89,-115.3,-13.37
24,1778615378261,-1.88,2.16,2.83,-152.89,-115.3,-13.37
25,1778615378277,-1.03,3.46,2.42,-30.88,-15.44,-32.41
26,1778615378293,-1.03,3.46,2.42,-30.88,-15.44,-32.41
27,1778615378293,-1.03,3.46,2.42,-30.88,-15.44,-32.41
28,1778615378309,-1.51,2.02,2.1,90.94,43.7,-117.86
29,1778615378325,-1.51,2.02,2.1,90.94,43.7,-117.86
30,1778615378325,-1.51,2.02,2.1,90.94,43.7,-117.86
31,1778615378341,-1.63,1.02,1.82,155.58,81.73,-3.17
32,1778615378341,-1.63,1.02,1.82,155.58,81.73,-3.17
33,1778615378358,-1.63,1.02,1.82,155.58,81.73,-3.17
34,1778615378374,-1.63,1.02,1.82,155.58,81.73,-3.17
35,1778615378374,-1.63,1.02,1.82,155.58,81.73,-3.17
36,1778615378391,-1.62,0.58,1.88,205.75,90.45,84.47
37,1778615378391,-1.62,0.58,1.88,205.75,90.45,84.47
38,1778615378407,-1.62,0.58,1.88,205.75,90.45,84.47
39,1778615378423,-1.74,0.35,2.56,265.08,77.33,143.13
40,1778615378423,-1.74,0.35,2.56,265.08,77.33,143.13
41,1778615378439,-1.74,0.35,2.56,265.08,77.33,143.13
42,1778615378456,-1.91,0.16,2.82,265.08,77.33,143.13
43,1778615378456,-1.91,0.16,2.82,265.08,77.33,143.13
44,1778615378472,-1.91,0.16,2.82,293.27,160.58,184.57
45,1778615378472,-1.91,0.16,2.82,293.27,160.58,184.57
46,1778615378488,-1.91,0.16,2.82,293.27,160.58,184.57
47,1778615378504,-1.86,-0.03,2.96,343.51,125.61,281.68
48,1778615378504,-1.86,-0.03,2.96,343.51,125.61,281.68
49,1778615378520,-1.86,-0.03,2.96,343.51,125.61,281.68
50,1778615378520,-1.86,-0.03,2.96,343.51,125.61,281.68
51,1778615378537,-1.38,0.23,3.06,378.36,177.8,271.48
52,1778615378553,-1.38,0.23,3.06,378.36,177.8,271.48
53,1778615378553,-1.38,0.23,3.06,378.36,177.8,271.48
54,1778615378569,-1.38,0.23,3.06,378.36,177.8,271.48
55,1778615378585,-1.09,-0.05,2.41,382.14,174.07,231.14
56,1778615378585,-1.09,-0.05,2.41,382.14,174.07,231.14
57,1778615378601,-1.09,-0.05,2.41,382.14,174.07,231.14
58,1778615378601,-1.09,-0.05,2.41,382.14,174.07,231.14
59,1778615378617,-0.73,-0.12,1.95,354.74,131.23,214.42
60,1778615378633,-0.73,-0.12,1.95,354.74,131.23,214.42
61,1778615378633,-0.73,-0.12,1.95,354.74,131.23,214.42
62,1778615378649,-0.3,-0.14,1.6,344.36,189.58,210.75
63,1778615378665,-0.3,-0.14,1.6,344.36,189.58,210.75
64,1778615378665,-0.3,-0.14,1.6,344.36,189.58,210.75
65,1778615378681,-0.3,-0.14,1.6,344.36,189.58,210.75
66,1778615378681,-0.3,-0.14,1.6,344.36,189.58,210.75
67,1778615378697,-0.07,-0.23,0.86,303.1,134.77,234.86
68,1778615378713,-0.07,-0.23,0.86,303.1,134.77,234.86
69,1778615378713,-0.07,-0.23,0.86,303.1,134.77,234.86
70,1778615378729,0.36,0.06,1.24,339.78,114.56,177.92
71,1778615378744,0.36,0.06,1.24,339.78,114.56,177.92
72,1778615378744,0.36,0.06,1.24,339.78,114.56,177.92
73,1778615378760,0.63,-0.32,0.49,228.64,205.63,49.19
74,1778615378760,0.63,-0.32,0.49,228.64,205.63,49.19
75,1778615378776,0.63,-0.32,0.49,228.64,205.63,49.19
76,1778615378793,0.63,-0.32,0.49,228.64,205.63,49.19
77,1778615378793,0.63,-0.32,0.49,228.64,205.63,49.19
78,1778615378809,0.77,-0.63,0.17,224.55,90.52,85.75
79,1778615378825,0.77,-0.63,0.17,224.55,90.52,85.75
80,1778615378825,0.77,-0.63,0.17,224.55,90.52,85.75
81,1778615378841,1.1,-0.19,0.59,245.67,36.99,108.7
82,1778615378841,1.1,-0.19,0.59,245.67,36.99,108.7
83,1778615378858,1.1,-0.19,0.59,245.67,36.99,108.7
84,1778615378874,1.1,-0.19,0.59,245.67,36.99,108.7
85,1778615378874,1.1,-0.19,0.59,245.67,36.99,108.7
86,1778615378890,1.1,-0.19,0.59,245.67,36.99,108.7
87,1778615378890,1.1,-0.19,0.59,245.67,36.99,108.7
88,1778615378906,1.25,-0.56,-0.03,172.79,69.34,-22.64
89,1778615378922,1.04,-0.79,-0.11,125.92,14.22,-50.96
90,1778615378922,1.04,-0.79,-0.11,125.92,14.22,-50.96
91,1778615378939,1.51,-0.07,-0.3,125.92,14.22,-50.96
92,1778615378955,1.51,-0.07,-0.3,111.76,25.88,-72.27
93,1778615378955,1.51,-0.07,-0.3,111.76,25.88,-72.27
94,1778615378971,1.51,-0.07,-0.3,111.76,25.88,-72.27
95,1778615378971,1.51,-0.07,-0.3,111.76,25.88,-72.27
96,1778615378988,1.51,-0.07,-0.3,111.76,25.88,-72.27
97,1778615379004,1.51,-0.07,-0.3,111.76,25.88,-72.27
98,1778615379004,1.51,-0.07,-0.3,111.76,25.88,-72.27
99,1778615379020,0.96,-0.7,-0.21,-42.6,-27.59,1.65
100,1778615379020,0.96,-0.7,-0.21,-42.6,-27.59,1.65
101,1778615379036,0.96,-0.7,-0.21,-42.6,-27.59,1.65
102,1778615379052,0.98,-0.81,-0.32,-87.28,-16.6,-43.95
103,1778615379052,0.98,-0.81,-0.32,-87.28,-16.6,-43.95
104,1778615379068,0.98,-0.81,-0.32,-87.28,-16.6,-43.95
105,1778615379085,0.98,-0.81,-0.32,-87.28,-16.6,-43.95
106,1778615379085,0.98,-0.81,-0.32,-87.28,-16.6,-43.95
107,1778615379101,0.97,-0.8,-0.23,-125.37,-73.12,-22.71
108,1778615379101,0.97,-0.8,-0.23,-125.37,-73.12,-22.71
109,1778615379117,0.97,-0.8,-0.23,-125.37,-73.12,-22.71
110,1778615379133,0.89,-0.68,0.06,-167.11,-88.5,-34.3
111,1778615379133,0.89,-0.68,0.06,-167.11,-88.5,-34.3
112,1778615379149,0.89,-0.68,0.06,-167.11,-88.5,-34.3
113,1778615379165,0.67,-0.52,0.33,-226.62,-67.75,-92.1
114,1778615379165,0.67,-0.52,0.33,-226.62,-67.75,-92.1
115,1778615379181,0.67,-0.52,0.33,-226.62,-67.75,-92.1
116,1778615379181,0.67,-0.52,0.33,-226.62,-67.75,-92.1
117,1778615379197,0.67,-0.52,0.33,-226.62,-67.75,-92.1
118,1778615379213,0.24,-0.54,0.53,-299.93,-87.52,-167.36
119,1778615379213,0.24,-0.54,0.53,-299.93,-87.52,-167.36
120,1778615379229,0.24,-0.54,0.53,-299.93,-87.52,-167.36
121,1778615379244,-0.41,-0.9,1.0,-295.78,-145.63,-137.33
122,1778615379244,-0.41,-0.9,1.0,-295.78,-145.63,-137.33
123,1778615379260,-0.41,-0.9,1.0,-295.78,-145.63,-137.33
124,1778615379260,-0.41,-0.9,1.0,-295.78,-145.63,-137.33
125,1778615379276,-0.41,-0.9,1.0,-295.78,-145.63,-137.33
126,1778615379292,-0.49,-0.27,1.76,-333.68,-146.0,-108.03
127,1778615379292,-0.49,-0.27,1.76,-333.68,-146.0,-108.03
128,1778615379308,-0.49,-0.27,1.76,-333.68,-146.0,-108.03
129,1778615379324,-0.85,-0.55,2.04,-391.17,-127.87,-226.32
130,1778615379324,-0.85,-0.55,2.04,-391.17,-127.87,-226.32
131,1778615379340,-0.85,-0.55,2.04,-391.17,-127.87,-226.32
132,1778615379340,-0.85,-0.55,2.04,-391.17,-127.87,-226.32
133,1778615379356,-1.13,-0.73,2.93,-408.69,-192.99,-121.22
134,1778615379373,-1.13,-0.73,2.93,-408.69,-192.99,-121.22
135,1778615379373,-1.13,-0.73,2.93,-408.69,-192.99,-121.22
136,1778615379389,-1.13,-0.73,2.93,-408.69,-192.99,-121.22
137,1778615379405,-1.08,0.01,3.53,-454.83,-129.52,-155.33
138,1778615379405,-1.08,0.01,3.53,-454.83,-129.52,-155.33
139,1778615379422,-1.08,0.01,3.53,-454.83,-129.52,-155.33
140,1778615379422,-1.08,0.01,3.53,-454.83,-129.52,-155.33
141,1778615379438,-1.29,-0.13,4.05,-436.34,-151.0,-164.79
142,1778615379454,-1.29,-0.13,4.05,-436.34,-151.0,-164.79
143,1778615379454,-1.29,-0.13,4.05,-436.34,-151.0,-164.79
144,1778615379471,-1.13,1.04,4.57,-402.47,-127.38,-150.82
145,1778615379471,-1.13,1.04,4.57,-402.47,-127.38,-150.82
146,1778615379487,-1.13,1.04,4.57,-402.47,-127.38,-150.82
147,1778615379503,-1.12,2.06,3.78,-402.47,-127.38,-150.82
148,1778615379503,-1.12,2.06,3.78,-402.47,-127.38,-150.82
149,1778615379519,-1.12,2.06,3.78,-331.48,-13.92,-305.11
150,1778615379536,-1.12,2.06,3.78,-331.48,-13.92,-305.11
151,1778615379536,-1.12,2.06,3.78,-331.48,-13.92,-305.11
152,1778615379552,-1.28,2.33,3.05,-187.13,-2.93,-344.48
153,1778615379552,-1.28,2.33,3.05,-187.13,-2.93,-344.48
154,1778615379568,-1.28,2.33,3.05,-187.13,-2.93,-344.48
155,1778615379584,-1.88,1.83,1.61,-113.83,51.03,-265.5
156,1778615379584,-1.88,1.83,1.61,-113.83,51.03,-265.5
157,1778615379601,-1.88,1.83,1.61,-113.83,51.03,-265.5
158,1778615379601,-1.88,1.83,1.61,-113.83,51.03,-265.5
159,1778615379617,-1.58,2.33,1.56,-14.28,-1.77,-22.95
160,1778615379633,-1.58,2.33,1.56,-14.28,-1.77,-22.95
161,1778615379633,-1.58,2.33,1.56,-14.28,-1.77,-22.95
162,1778615379649,-1.04,2.71,1.81,66.65,26.18,22.52
163,1778615379664,-1.04,2.71,1.81,66.65,26.18,22.52
164,1778615379664,-1.04,2.71,1.81,66.65,26.18,22.52
165,1778615379680,-1.04,2.71,1.81,66.65,26.18,22.52
166,1778615379680,-1.04,2.71,1.81,66.65,26.18,22.52
167,1778615379697,-1.3,1.6,1.8,139.71,63.11,4.09
168,1778615379712,-1.3,1.6,1.8,139.71,63.11,4.09
169,1778615379712,-1.3,1.6,1.8,139.71,63.11,4.09
170,1778615379728,-1.42,1.09,1.88,193.24,82.15,47.55
171,1778615379744,-1.42,1.09,1.88,193.24,82.15,47.55
172,1778615379744,-1.42,1.09,1.88,193.24,82.15,47.55
173,1778615379760,-1.49,0.81,2.17,255.37,81.73,120.91
174,1778615379760,-1.49,0.81,2.17,255.37,81.73,120.91
175,1778615379776,-1.49,0.81,2.17,255.37,81.73,120.91
176,1778615379792,-1.49,0.81,2.17,255.37,81.73,120.91
177,1778615379792,-1.49,0.81,2.17,255.37,81.73,120.91
178,1778615379809,-1.44,0.65,2.54,283.26,122.44,131.23
179,1778615379824,-1.44,0.65,2.54,283.26,122.44,131.23
180,1778615379824,-1.44,0.65,2.54,283.26,122.44,131.23
181,1778615379841,-1.69,0.53,2.64,308.41,142.88,136.23
182,1778615379841,-1.69,0.53,2.64,308.41,142.88,136.23
183,1778615379857,-1.69,0.53,2.64,308.41,142.88,136.23
184,1778615379873,-1.69,0.32,2.69,329.53,158.14,200.68
185,1778615379873,-1.69,0.32,2.69,329.53,158.14,200.68
186,1778615379889,-1.69,0.32,2.69,329.53,158.14,200.68
187,1778615379905,-1.32,0.61,2.64,329.04,220.89,184.02
188,1778615379905,-1.32,0.61,2.64,329.04,220.89,184.02
189,1778615379921,-1.32,0.61,2.64,329.04,220.89,184.02
190,1778615379921,-1.32,0.61,2.64,329.04,220.89,184.02
191,1778615379937,-1.26,0.19,2.09,323.43,190.86,188.35
192,1778615379953,-1.26,0.19,2.09,323.43,190.86,188.35
193,1778615379953,-1.26,0.19,2.09,323.43,190.86,188.35
194,1778615379970,-1.26,0.19,2.09,323.43,190.86,188.35
195,1778615379986,-1.05,0.19,2.27,351.38,195.19,209.66
196,1778615379986,-1.05,0.19,2.27,351.38,195.19,209.66
197,1778615380002,-1.05,0.19,2.27,351.38,195.19,209.66
198,1778615380002,-1.05,0.19,2.27,351.38,195.19,209.66
199,1778615380018,-0.63,-0.26,1.76,326.48,191.71,225.59
200,1778615380034,-0.63,-0.26,1.76,326.48,191.71,225.59
201,1778615380034,-0.63,-0.26,1.76,326.48,191.71,225.59
202,1778615380050,0.01,-0.27,1.43,293.33,170.04,224.3
203,1778615380050,0.01,-0.27,1.43,293.33,170.04,224.3
204,1778615380067,0.01,-0.27,1.43,293.33,170.04,224.3
205,1778615380083,0.01,-0.27,1.43,293.33,170.04,224.3
206,1778615380083,0.01,-0.27,1.43,293.33,170.04,224.3
207,1778615380100,0.45,-0.45,0.88,242.0,181.76,134.7
208,1778615380115,0.45,-0.45,0.88,242.0,181.76,134.7
209,1778615380115,0.45,-0.45,0.88,242.0,181.76,134.7
210,1778615380131,0.83,-0.43,0.34,194.89,124.08,98.45
211,1778615380131,0.83,-0.43,0.34,194.89,124.08,98.45
212,1778615380147,0.83,-0.43,0.34,194.89,124.08,98.45
213,1778615380162,0.83,-0.43,0.34,194.89,124.08,98.45
214,1778615380162,0.83,-0.43,0.34,194.89,124.08,98.45
215,1778615380178,1.08,-0.46,0.35,190.55,91.86,40.41
216,1778615380194,1.08,-0.46,0.35,190.55,91.86,40.41
217,1778615380194,1.08,-0.46,0.35,190.55,91.86,40.41
218,1778615380210,1.34,-0.41,0.09,163.82,74.28,-13.37
219,1778615380210,1.34,-0.41,0.09,163.82,74.28,-13.37
220,1778615380226,1.34,-0.41,0.09,163.82,74.28,-13.37
221,1778615380242,1.15,-0.59,-0.11,163.82,74.28,-13.37
222,1778615380242,1.15,-0.59,-0.11,163.82,74.28,-13.37
223,1778615380259,1.15,-0.59,-0.11,113.71,41.2,-54.57
224,1778615380275,1.15,-0.59,-0.11,113.71,41.2,-54.57
225,1778615380275,1.15,-0.59,-0.11,113.71,41.2,-54.57
226,1778615380291,1.12,-0.53,-0.06,79.1,26.0,-35.83
227,1778615380291,1.12,-0.53,-0.06,79.1,26.0,-35.83
228,1778615380307,1.12,-0.53,-0.06,79.1,26.0,-35.83
229,1778615380323,1.06,-0.59,-0.23,39.86,22.46,-25.21
230,1778615380323,1.06,-0.59,-0.23,39.86,22.46,-25.21
231,1778615380340,1.06,-0.59,-0.23,39.86,22.46,-25.21
232,1778615380340,1.06,-0.59,-0.23,39.86,22.46,-25.21
233,1778615380356,1.06,-0.59,-0.23,39.86,22.46,-25.21
234,1778615380372,1.25,-0.73,-0.31,-3.3,-16.85,29.05
235,1778615380372,1.25,-0.73,-0.31,-3.3,-16.85,29.05
236,1778615380388,1.25,-0.73,-0.31,-3.3,-16.85,29.05
237,1778615380405,1.46,-0.69,-0.29,-69.4,-16.72,1.4
238,1778615380405,1.46,-0.69,-0.29,-69.4,-16.72,1.4
239,1778615380421,1.46,-0.69,-0.29,-69.4,-16.72,1.4
240,1778615380421,1.46,-0.69,-0.29,-69.4,-16.72,1.4
241,1778615380437,1.46,-0.69,-0.29,-69.4,-16.72,1.4
242,1778615380453,1.43,-0.78,-0.2,-120.73,-70.25,4.09
243,1778615380453,1.43,-0.78,-0.2,-120.73,-70.25,4.09
244,1778615380469,1.38,-0.67,0.29,-120.73,-70.25,4.09
245,1778615380486,1.38,-0.67,0.29,-176.51,-111.63,-1.53
246,1778615380486,1.38,-0.67,0.29,-176.51,-111.63,-1.53
247,1778615380502,1.38,-0.67,0.29,-176.51,-111.63,-1.53
248,1778615380502,1.38,-0.67,0.29,-176.51,-111.63,-1.53
249,1778615380518,1.15,-0.56,0.5,-237.37,-131.35,-66.96
250,1778615380534,1.15,-0.56,0.5,-237.37,-131.35,-66.96
251,1778615380534,1.15,-0.56,0.5,-237.37,-131.35,-66.96
252,1778615380551,0.58,-0.88,0.78,-278.2,-174.8,-124.08
253,1778615380551,0.58,-0.88,0.78,-278.2,-174.8,-124.08
254,1778615380567,0.58,-0.88,0.78,-278.2,-174.8,-124.08
255,1778615380583,-0.1,-0.76,1.47,-295.1,-215.58,-130.55
256,1778615380583,-0.1,-0.76,1.47,-295.1,-215.58,-130.55
257,1778615380599,-0.1,-0.76,1.47,-295.1,-215.58,-130.55
258,1778615380615,-0.1,-0.76,1.47,-295.1,-215.58,-130.55
259,1778615380615,-0.1,-0.76,1.47,-295.1,-215.58,-130.55
260,1778615380631,-0.88,-0.59,2.32,-331.54,-161.13,-204.1
261,1778615380631,-0.88,-0.59,2.32,-331.54,-161.13,-204.1
262,1778615380647,-0.88,-0.59,2.32,-331.54,-161.13,-204.1
263,1778615380663,-1.73,-0.93,2.01,-368.9,-161.74,-199.65
264,1778615380663,-1.73,-0.93,2.01,-368.9,-161.74,-199.65
265,1778615380679,-1.73,-0.93,2.01,-368.9,-161.74,-199.65
266,1778615380695,-1.61,-0.16,3.32,-368.9,-161.74,-199.65
267,1778615380695,-1.61,-0.16,3.32,-368.9,-161.74,-199.65
268,1778615380711,-1.61,-0.16,3.32,-340.52,-194.27,-56.58
269,1778615380711,-1.61,-0.16,3.32,-340.52,-194.27,-56.58
270,1778615380727,-1.61,-0.16,3.32,-340.52,-194.27,-56.58
271,1778615380743,-1.16,0.6,3.05,-377.44,-47.49,-158.87
272,1778615380743,-1.16,0.6,3.05,-377.44,-47.49,-158.87
273,1778615380759,-1.16,0.6,3.05,-377.44,-47.49,-158.87
274,1778615380776,-1.05,1.37,3.1,-346.62,-133.42,-209.17
275,1778615380776,-1.05,1.37,3.1,-346.62,-133.42,-209.17
276,1778615380792,-1.05,1.37,3.1,-346.62,-133.42,-209.17
277,1778615380792,-1.05,1.37,3.1,-346.62,-133.42,-209.17
278,1778615380808,-1.05,1.37,3.1,-346.62,-133.42,-209.17
279,1778615380824,-1.05,1.37,3.1,-346.62,-133.42,-209.17
280,1778615380824,-1.05,1.37,3.1,-346.62,-133.42,-209.17
281,1778615380840,-1.28,1.54,3.46,-275.02,-126.04,-443.79
282,1778615380840,-1.28,1.54,3.46,-275.02,-126.04,-443.79
283,1778615380857,-1.89,0.9,2.58,-164.61,-127.38,-397.71
284,1778615380873,-1.89,0.9,2.58,-164.61,-127.38,-397.71
285,1778615380873,-1.89,0.9,2.58,-164.61,-127.38,-397.71
286,1778615380889,-2.38,0.79,0.93,-155.52,-39.12,-348.02
287,1778615380905,-2.38,0.79,0.93,-155.52,-39.12,-348.02
288,1778615380905,-2.38,0.79,0.93,-155.52,-39.12,-348.02
289,1778615380921,-2.38,0.79,0.93,-155.52,-39.12,-348.02
290,1778615380921,-2.38,0.79,0.93,-155.52,-39.12,-348.02
291,1778615380937,-2.38,1.35,1.76,-114.38,-180.91,-16.72
292,1778615380953,-2.38,1.35,1.76,-114.38,-180.91,-16.72
293,1778615380953,-2.38,1.35,1.76,-114.38,-180.91,-16.72
294,1778615380969,-2.11,2.58,1.89,-53.16,11.96,-25.7
295,1778615380985,-2.11,2.58,1.89,-53.16,11.96,-25.7
296,1778615380985,-2.11,2.58,1.89,-53.16,11.96,-25.7
297,1778615381001,-2.11,2.58,1.89,-53.16,11.96,-25.7
298,1778615381001,-2.77,1.56,1.33,-53.16,11.96,-25.7
299,1778615381017,-2.77,1.56,1.33,49.01,77.21,-51.33
300,1778615381034,-2.77,1.56,1.33,49.01,77.21,-51.33
301,1778615381034,-2.77,1.56,1.33,49.01,77.21,-51.33
302,1778615381050,-2.74,1.06,1.81,100.95,140.44,160.22
303,1778615381066,-2.74,1.06,1.81,100.95,140.44,160.22
304,1778615381066,-2.74,1.06,1.81,100.95,140.44,160.22
305,1778615381082,-2.64,0.85,2.52,177.8,214.42,219.79
306,1778615381082,-2.64,0.85,2.52,177.8,214.42,219.79
307,1778615381098,-2.64,0.85,2.52,177.8,214.42,219.79
308,1778615381114,-2.64,0.85,2.52,177.8,214.42,219.79
309,1778615381114,-2.64,0.85,2.52,177.8,214.42,219.79
310,1778615381129,-2.39,0.4,2.73,177.8,214.42,219.79
311,1778615381145,-2.39,0.4,2.73,177.8,214.42,219.79
312,1778615381145,-2.39,0.4,2.73,177.8,214.42,219.79
313,1778615381161,-2.01,0.11,2.91,276.31,275.82,287.6
314,1778615381161,-2.01,0.11,2.91,276.31,275.82,287.6
315,1778615381178,-2.01,0.11,2.91,276.31,275.82,287.6
316,1778615381193,-1.92,0.39,2.97,320.68,297.67,254.88
317,1778615381193,-1.92,0.39,2.97,320.68,297.67,254.88
318,1778615381210,-1.92,0.39,2.97,320.68,297.67,254.88
319,1778615381226,-1.92,0.39,2.97,320.68,297.67,254.88
320,1778615381226,-1.92,0.39,2.97,320.68,297.67,254.88
321,1778615381242,-1.37,-0.18,2.45,338.75,291.81,264.95
322,1778615381242,-1.37,-0.18,2.45,338.75,291.81,264.95
323,1778615381258,-1.37,-0.18,2.45,338.75,291.81,264.95
324,1778615381274,-0.7,-0.18,2.01,334.66,258.3,235.11
325,1778615381274,-0.7,-0.18,2.01,334.66,258.3,235.11
326,1778615381289,-0.7,-0.18,2.01,334.66,258.3,235.11
327,1778615381305,-0.33,-0.37,1.32,334.66,258.3,235.11
328,1778615381305,-0.33,-0.37,1.32,334.66,258.3,235.11
329,1778615381321,-0.33,-0.37,1.32,280.82,274.29,166.87
330,1778615381321,-0.33,-0.37,1.32,280.82,274.29,166.87
331,1778615381337,-0.33,-0.37,1.32,280.82,274.29,166.87
332,1778615381353,-0.07,-0.49,0.94,216.67,200.81,218.93
333,1778615381353,-0.07,-0.49,0.94,216.67,200.81,218.93
334,1778615381369,-0.07,-0.49,0.94,216.67,200.81,218.93
335,1778615381385,0.46,-0.08,1.07,224.73,166.5,204.04
336,1778615381385,0.46,-0.08,1.07,224.73,166.5,204.04
337,1778615381401,0.46,-0.08,1.07,224.73,166.5,204.04
338,1778615381401,0.46,-0.08,1.07,224.73,166.5,204.04
339,1778615381417,0.46,-0.08,1.07,224.73,166.5,204.04
340,1778615381433,0.46,-0.08,1.07,224.73,166.5,204.04
341,1778615381433,0.46,-0.08,1.07,224.73,166.5,204.04
342,1778615381449,0.46,-0.08,1.07,224.73,166.5,204.04
343,1778615381466,1.02,-0.09,0.5,149.84,127.93,86.49
344,1778615381466,1.02,-0.09,0.5,149.84,127.93,86.49
345,1778615381481,1.02,-0.09,0.5,149.84,127.93,86.49
346,1778615381481,1.02,-0.09,0.5,149.84,127.93,86.49
347,1778615381497,1.1,-0.27,0.1,149.84,127.93,86.49
348,1778615381513,1.1,-0.27,0.1,121.77,76.48,27.77
349,1778615381513,1.1,-0.27,0.1,121.77,76.48,27.77
350,1778615381529,1.1,-0.27,0.1,121.77,76.48,27.77
351,1778615381545,1.1,-0.27,0.1,121.77,76.48,27.77
352,1778615381545,1.1,-0.27,0.1,121.77,76.48,27.77
353,1778615381561,1.06,-0.46,0.05,106.51,45.78,-2.14
354,1778615381561,1.06,-0.46,0.05,106.51,45.78,-2.14
355,1778615381577,0.94,-0.47,-0.16,71.17,21.48,-10.25
356,1778615381594,0.94,-0.47,-0.16,71.17,21.48,-10.25
357,1778615381594,0.94,-0.47,-0.16,71.17,21.48,-10.25
358,1778615381610,0.96,-0.42,-0.45,23.5,18.43,6.59
359,1778615381610,0.96,-0.42,-0.45,23.5,18.43,6.59
360,1778615381626,0.96,-0.42,-0.45,23.5,18.43,6.59
361,1778615381642,0.96,-0.42,-0.45,23.5,18.43,6.59
362,1778615381642,0.96,-0.42,-0.45,23.5,18.43,6.59
363,1778615381659,1.05,-0.31,-0.35,-5.13,-5.49,13.49
364,1778615381675,1.05,-0.31,-0.35,-5.13,-5.49,13.49
365,1778615381675,1.05,-0.31,-0.35,-5.13,-5.49,13.49
366,1778615381691,1.21,-0.29,-0.04,-21.48,0.92,-3.3
367,1778615381691,1.21,-0.29,-0.04,-21.48,0.92,-3.3
368,1778615381707,1.21,-0.29,-0.04,-21.48,0.92,-3.3
369,1778615381724,1.25,-0.66,-0.09,-71.17,-8.61,-25.21
370,1778615381724,1.25,-0.66,-0.09,-71.17,-8.61,-25.21
371,1778615381740,1.25,-0.66,-0.09,-71.17,-8.61,-25.21
372,1778615381740,1.25,-0.66,-0.09,-71.17,-8.61,-25.21
373,1778615381756,1.25,-0.66,-0.09,-71.17,-8.61,-25.21
374,1778615381772,1.32,-0.65,0.18,-112.67,-66.35,3.11
375,1778615381772,1.32,-0.65,0.18,-112.67,-66.35,3.11
376,1778615381789,1.32,-0.65,0.18,-112.67,-66.35,3.11
377,1778615381804,1.33,-0.39,0.74,-138.06,-63.23,-48.83
378,1778615381804,1.33,-0.39,0.74,-138.06,-63.23,-48.83
379,1778615381820,1.33,-0.39,0.74,-138.06,-63.23,-48.83
380,1778615381820,1.33,-0.39,0.74,-138.06,-63.23,-48.83
381,1778615381836,1.33,-0.39,0.74,-138.06,-63.23,-48.83
382,1778615381852,1.33,-0.39,0.74,-138.06,-63.23,-48.83
383,1778615381852,1.33,-0.39,0.74,-138.06,-63.23,-48.83
384,1778615381867,0.74,-0.57,0.42,-200.81,-108.15,-139.04
385,1778615381884,0.33,-0.79,1.4,-239.26,-187.68,-147.4
386,1778615381884,0.33,-0.79,1.4,-239.26,-187.68,-147.4
387,1778615381899,0.33,-0.79,1.4,-239.26,-187.68,-147.4
388,1778615381915,-0.23,-0.98,1.09,-294.98,-214.84,-205.14
389,1778615381915,-0.23,-0.98,1.09,-294.98,-214.84,-205.14
390,1778615381931,-0.23,-0.98,1.09,-294.98,-214.84,-205.14
391,1778615381931,-0.23,-0.98,1.09,-294.98,-214.84,-205.14
392,1778615381947,-0.23,-0.98,1.09,-294.98,-214.84,-205.14
393,1778615381963,-0.98,-1.32,1.45,-369.93,-295.59,-259.52
394,1778615381963,-0.98,-1.32,1.45,-369.93,-295.59,-259.52
395,1778615381978,-0.98,-1.32,1.45,-369.93,-295.59,-259.52
396,1778615381994,-1.83,-1.07,3.26,-432.07,-323.24,-206.42
397,1778615381994,-1.83,-1.07,3.26,-432.07,-323.24,-206.42
398,1778615382010,-1.83,-1.07,3.26,-432.07,-323.24,-206.42
399,1778615382010,-1.83,-1.07,3.26,-432.07,-323.24,-206.42
400,1778615382025,-1.82,-0.51,3.63,-432.07,-323.24,-206.42
401,1778615382041,-1.82,-0.51,3.63,-461.49,-235.05,-165.1
402,1778615382041,-1.82,-0.51,3.63,-461.49,-235.05,-165.1
403,1778615382057,-1.82,-0.51,3.63,-461.49,-235.05,-165.1
404,1778615382073,-1.61,-0.16,3.94,-431.52,-208.68,-176.27
405,1778615382073,-1.61,-0.16,3.94,-431.52,-208.68,-176.27
406,1778615382089,-1.61,-0.16,3.94,-431.52,-208.68,-176.27
407,1778615382105,-1.24,0.64,4.58,-388.98,-184.33,-141.48
408,1778615382105,-1.24,0.64,4.58,-388.98,-184.33,-141.48
409,1778615382121,-1.24,0.64,4.58,-388.98,-184.33,-141.48
410,1778615382121,-1.24,0.64,4.58,-388.98,-184.33,-141.48
411,1778615382137,-1.24,0.64,4.58,-388.98,-184.33,-141.48
412,1778615382153,-1.16,1.24,4.03,-330.81,-80.93,-300.6
413,1778615382153,-1.16,1.24,4.03,-330.81,-80.93,-300.6
414,1778615382169,-1.16,1.24,4.03,-330.81,-80.93,-300.6
415,1778615382185,-1.42,1.55,3.63,-244.02,-102.91,-290.89
416,1778615382185,-1.42,1.55,3.63,-244.02,-102.91,-290.89
417,1778615382201,-1.42,1.55,3.63,-244.02,-102.91,-290.89
418,1778615382201,-1.42,1.55,3.63,-244.02,-102.91,-290.89
419,1778615382217,-2.08,1.37,1.97,-195.07,-13.61,-287.66
420,1778615382233,-2.08,1.37,1.97,-195.07,-13.61,-287.66
421,1778615382233,-2.08,1.37,1.97,-195.07,-13.61,-287.66
422,1778615382248,-1.5,2.1,2.01,-113.95,-96.8,43.4
423,1778615382264,-1.5,2.1,2.01,-113.95,-96.8,43.4
424,1778615382264,-1.5,2.1,2.01,-113.95,-96.8,43.4
425,1778615382280,-0.86,3.18,2.05,-37.66,-43.03,19.35
426,1778615382280,-0.86,3.18,2.05,-37.66,-43.03,19.35
427,1778615382296,-0.86,3.18,2.05,-37.66,-43.03,19.35
428,1778615382312,-1.4,2.19,2.06,118.47,28.75,-163.88
429,1778615382312,-1.4,2.19,2.06,118.47,28.75,-163.88
430,1778615382328,-1.4,2.19,2.06,118.47,28.75,-163.88
431,1778615382344,-1.85,0.68,1.53,118.47,28.75,-163.88
432,1778615382344,-1.85,0.68,1.53,118.47,28.75,-163.88
433,1778615382360,-1.85,0.68,1.53,151.18,118.9,-68.05
434,1778615382360,-1.85,0.68,1.53,151.18,118.9,-68.05
435,1778615382376,-1.67,0.55,1.63,177.0,93.14,78.12
436,1778615382393,-1.67,0.55,1.63,177.0,93.14,78.12
437,1778615382393,-1.67,0.55,1.63,177.0,93.14,78.12
438,1778615382409,-1.67,0.55,1.63,177.0,93.14,78.12
439,1778615382425,-1.67,0.55,1.63,177.0,93.14,78.12
440,1778615382425,-1.67,0.55,1.63,177.0,93.14,78.12
441,1778615382441,-1.45,0.68,2.03,207.76,105.29,125.37
442,1778615382441,-1.45,0.68,2.03,207.76,105.29,125.37
443,1778615382457,-1.72,0.44,2.45,261.72,140.81,108.7
444,1778615382473,-1.86,0.34,2.51,261.72,140.81,108.7
445,1778615382473,-1.86,0.34,2.51,261.72,140.81,108.7
446,1778615382490,-1.86,0.34,2.51,268.25,180.11,130.31
447,1778615382506,-1.86,0.34,2.51,268.25,180.11,130.31
448,1778615382506,-1.86,0.34,2.51,268.25,180.11,130.31
449,1778615382522,-2.1,0.44,3.08,320.37,199.65,160.46
450,1778615382522,-2.1,0.44,3.08,320.37,199.65,160.46
451,1778615382539,-2.1,0.44,3.08,320.37,199.65,160.46
452,1778615382555,-2.1,0.44,3.08,320.37,199.65,160.46
453,1778615382555,-2.1,0.44,3.08,320.37,199.65,160.46
454,1778615382571,-1.81,0.43,3.26,344.67,277.04,177.73
455,1778615382571,-1.81,0.43,3.26,344.67,277.04,177.73
456,1778615382587,-1.81,0.43,3.26,344.67,277.04,177.73
457,1778615382603,-1.55,-0.17,2.66,342.29,310.91,202.76
458,1778615382603,-1.55,-0.17,2.66,342.29,310.91,202.76
459,1778615382619,-1.55,-0.17,2.66,342.29,310.91,202.76
460,1778615382635,-1.08,-0.24,2.11,312.62,263.0,269.59
461,1778615382635,-1.08,-0.24,2.11,312.62,263.0,269.59
462,1778615382651,-1.08,-0.24,2.11,312.62,263.0,269.59
463,1778615382651,-1.08,-0.24,2.11,312.62,263.0,269.59
464,1778615382667,-0.4,-0.23,2.02,298.4,249.82,250.79
465,1778615382683,-0.4,-0.23,2.02,298.4,249.82,250.79
466,1778615382683,-0.4,-0.23,2.02,298.4,249.82,250.79
467,1778615382699,-0.4,-0.23,2.02,298.4,249.82,250.79
468,1778615382715,0.12,-0.35,1.35,253.85,256.47,197.51
469,1778615382715,0.12,-0.35,1.35,253.85,256.47,197.51
470,1778615382730,0.12,-0.35,1.35,253.85,256.47,197.51
471,1778615382730,0.12,-0.35,1.35,253.85,256.47,197.51
472,1778615382746,0.5,-0.22,1.01,232.18,180.11,192.02
473,1778615382762,0.5,-0.22,1.01,232.18,180.11,192.02
474,1778615382762,0.5,-0.22,1.01,232.18,180.11,192.02
475,1778615382778,0.89,-0.15,0.74,192.87,186.16,96.62
476,1778615382795,0.89,-0.15,0.74,192.87,186.16,96.62
477,1778615382795,0.89,-0.15,0.74,192.87,186.16,96.62
478,1778615382811,0.89,-0.15,0.74,192.87,186.16,96.62
479,1778615382811,0.89,-0.15,0.74,192.87,186.16,96.62
480,1778615382827,0.99,-0.19,0.42,154.3,127.87,46.57
481,1778615382843,0.99,-0.19,0.42,154.3,127.87,46.57
482,1778615382843,0.99,-0.19,0.42,154.3,127.87,46.57
483,1778615382860,1.25,-0.12,0.62,161.56,94.36,46.94
484,1778615382876,1.25,-0.12,0.62,161.56,94.36,46.94
485,1778615382876,1.25,-0.12,0.62,161.56,94.36,46.94
486,1778615382892,1.32,-0.31,0.06,114.69,91.25,-45.04
487,1778615382892,1.32,-0.31,0.06,114.69,91.25,-45.04
488,1778615382908,1.32,-0.31,0.06,114.69,91.25,-45.04
489,1778615382924,1.32,-0.31,0.06,114.69,91.25,-45.04
490,1778615382924,1.32,-0.31,0.06,114.69,91.25,-45.04
491,1778615382941,1.05,-0.45,0.08,107.18,49.13,-51.45
492,1778615382941,1.05,-0.45,0.08,107.18,49.13,-51.45
493,1778615382957,1.05,-0.45,0.08,107.18,49.13,-51.45
494,1778615382972,1.2,-1.24,0.17,54.44,63.17,-36.56
495,1778615382972,1.2,-1.24,0.17,54.44,63.17,-36.56
496,1778615382988,1.2,-1.24,0.17,54.44,63.17,-36.56
497,1778615383004,0.96,-0.51,-1.38,-67.32,43.33,-59.75
498,1778615383004,0.96,-0.51,-1.38,-67.32,43.33,-59.75
499,1778615383020,0.96,-0.51,-1.38,-67.32,43.33,-59.75
500,1778615383020,0.96,-0.51,-1.38,-67.32,43.33,-59.75
501,1778615383036,0.96,-0.51,-1.38,-67.32,43.33,-59.75
502,1778615383053,0.89,-0.26,0.24,-22.58,-44.98,24.78
503,1778615383053,0.89,-0.26,0.24,-22.58,-44.98,24.78
504,1778615383069,0.89,-0.26,0.24,-22.58,-44.98,24.78
505,1778615383085,0.89,-0.26,0.24,-22.58,-44.98,24.78
506,1778615383085,0.89,-0.26,0.24,-22.58,-44.98,24.78
507,1778615383101,1.07,-0.31,0.04,-62.62,0.61,12.94
508,1778615383101,1.07,-0.31,0.04,-62.62,0.61,12.94
509,1778615383117,1.07,-0.31,0.04,-62.62,0.61,12.94
510,1778615383133,1.25,-0.59,0.24,-88.93,-12.88,-22.16
511,1778615383133,1.25,-0.59,0.24,-88.93,-12.88,-22.16
512,1778615383149,1.25,-0.59,0.24,-88.93,-12.88,-22.16
513,1778615383165,1.42,-0.52,0.63,-118.41,-71.17,-12.57
514,1778615383165,1.42,-0.52,0.63,-118.41,-71.17,-12.57
515,1778615383181,1.42,-0.52,0.63,-118.41,-71.17,-12.57
516,1778615383181,1.42,-0.52,0.63,-118.41,-71.17,-12.57
517,1778615383197,1.25,-0.35,0.76,-118.41,-71.17,-12.57
518,1778615383213,1.25,-0.35,0.76,-156.56,-70.07,-110.78
519,1778615383213,1.25,-0.35,0.76,-156.56,-70.07,-110.78
520,1778615383229,1.25,-0.35,0.76,-156.56,-70.07,-110.78
521,1778615383245,0.76,-0.34,0.79,-170.9,-132.02,-205.93
522,1778615383245,0.76,-0.34,0.79,-170.9,-132.02,-205.93
523,1778615383262,0.76,-0.34,0.79,-170.9,-132.02,-205.93
524,1778615383262,0.76,-0.34,0.79,-170.9,-132.02,-205.93
525,1778615383278,0.76,-0.34,0.79,-170.9,-132.02,-205.93
526,1778615383294,0.17,-0.59,1.17,-182.37,-230.53,-242.49
527,1778615383294,0.17,-0.59,1.17,-182.37,-230.53,-242.49
528,1778615383310,-0.48,-0.45,1.38,-182.37,-230.53,-242.49
529,1778615383310,-0.48,-0.45,1.38,-182.37,-230.53,-242.49
530,1778615383327,-0.48,-0.45,1.38,-242.68,-268.98,-290.47
531,1778615383343,-0.48,-0.45,1.38,-242.68,-268.98,-290.47
532,1778615383343,-0.48,-0.45,1.38,-242.68,-268.98,-290.47
533,1778615383359,-1.46,-0.89,2.25,-258.91,-365.05,-280.94
534,1778615383375,-1.46,-0.89,2.25,-258.91,-365.05,-280.94
535,1778615383375,-1.46,-0.89,2.25,-258.91,-365.05,-280.94
536,1778615383390,-2.02,-0.29,2.65,-258.91,-365.05,-280.94
537,1778615383390,-2.02,-0.29,2.65,-258.91,-365.05,-280.94
538,1778615383407,-2.02,-0.29,2.65,-331.6,-322.2,-231.02
539,1778615383422,-2.02,-0.29,2.65,-331.6,-322.2,-231.02
540,1778615383422,-2.02,-0.29,2.65,-331.6,-322.2,-231.02
541,1778615383439,-2.24,-0.72,2.24,-347.23,-240.66,-315.98
542,1778615383455,-2.24,-0.72,2.24,-347.23,-240.66,-315.98
543,1778615383455,-2.24,-0.72,2.24,-347.23,-240.66,-315.98
544,1778615383471,-2.04,-0.48,3.24,-325.62,-344.06,-177.73
545,1778615383471,-2.04,-0.48,3.24,-325.62,-344.06,-177.73
546,1778615383487,-2.04,-0.48,3.24,-325.62,-344.06,-177.73
547,1778615383503,-2.04,-0.48,3.24,-325.62,-344.06,-177.73
548,1778615383503,-2.04,-0.48,3.24,-325.62,-344.06,-177.73
549,1778615383519,-1.75,0.1,3.16,-330.51,-253.48,-190.25
550,1778615383536,-1.75,0.1,3.16,-330.51,-253.48,-190.25
551,1778615383536,-1.75,0.1,3.16,-330.51,-253.48,-190.25
552,1778615383552,-1.75,1.23,3.89,-255.98,-212.16,-222.05
553,1778615383552,-1.75,1.23,3.89,-255.98,-212.16,-222.05
554,1778615383568,-1.75,1.23,3.89,-255.98,-212.16,-222.05
555,1778615383584,-2.01,0.96,2.56,-156.8,-44.13,-371.7
556,1778615383584,-2.01,0.96,2.56,-156.8,-44.13,-371.7
557,1778615383599,-2.01,0.96,2.56,-156.8,-44.13,-371.7
558,1778615383615,-2.01,0.96,2.56,-156.8,-44.13,-371.7
559,1778615383615,-2.01,0.96,2.56,-156.8,-44.13,-371.7
560,1778615383631,-2.31,0.91,1.27,-129.64,-76.78,-110.53
561,1778615383631,-2.31,0.91,1.27,-129.64,-76.78,-110.53
562,1778615383647,-2.31,0.91,1.27,-129.64,-76.78,-110.53
563,1778615383663,-1.7,2.48,2.21,-71.23,-61.46,45.59
564,1778615383663,-1.7,2.48,2.21,-71.23,-61.46,45.59
565,1778615383679,-1.7,2.48,2.21,-71.23,-61.46,45.59
566,1778615383695,-1.72,2.07,1.84,46.57,47.12,-43.33
567,1778615383695,-1.72,2.07,1.84,46.57,47.12,-43.33
568,1778615383711,-1.72,2.07,1.84,46.57,47.12,-43.33
569,1778615383711,-1.72,2.07,1.84,46.57,47.12,-43.33
570,1778615383728,-1.72,2.07,1.84,46.57,47.12,-43.33
571,1778615383744,-1.9,1.12,1.7,116.64,92.16,21.85
572,1778615383744,-1.9,1.12,1.7,116.64,92.16,21.85
573,1778615383760,-1.9,1.12,1.7,116.64,92.16,21.85
574,1778615383760,-1.9,1.12,1.7,116.64,92.16,21.85
575,1778615383776,-1.93,0.81,2.06,163.21,127.87,107.73
576,1778615383793,-1.93,0.81,2.06,163.21,127.87,107.73
577,1778615383793,-1.93,0.81,2.06,163.21,127.87,107.73
578,1778615383808,-2.1,0.24,2.28,212.77,171.87,154.11
579,1778615383825,-2.1,0.24,2.28,212.77,171.87,154.11
580,1778615383825,-2.1,0.24,2.28,212.77,171.87,154.11
581,1778615383841,-2.1,0.24,2.28,212.77,171.87,154.11
582,1778615383841,-2.1,0.24,2.28,212.77,171.87,154.11
583,1778615383857,-2.13,-0.08,2.54,236.39,212.59,238.71
584,1778615383873,-2.13,-0.08,2.54,236.39,212.59,238.71
585,1778615383873,-2.13,-0.08,2.54,236.39,212.59,238.71
586,1778615383889,-2.13,-0.08,2.54,236.39,212.59,238.71
587,1778615383905,-2.05,0.13,2.9,287.9,239.07,265.69
588,1778615383905,-2.05,0.13,2.9,287.9,239.07,265.69
589,1778615383921,-2.05,0.13,2.9,287.9,239.07,265.69
590,1778615383921,-2.05,0.13,2.9,287.9,239.07,265.69
591,1778615383938,-1.99,0.1,2.76,307.31,262.02,282.29
592,1778615383954,-1.99,0.1,2.76,307.31,262.02,282.29
593,1778615383954,-1.99,0.1,2.76,307.31,262.02,282.29
594,1778615383970,-1.71,-0.12,2.58,317.44,260.68,271.12
595,1778615383970,-1.71,-0.12,2.58,317.44,260.68,271.12
596,1778615383986,-1.71,-0.12,2.58,317.44,260.68,271.12
597,1778615384002,-1.71,-0.12,2.58,317.44,260.68,271.12
598,1778615384002,-1.71,-0.12,2.58,317.44,260.68,271.12
599,1778615384018,-1.71,-0.12,2.58,317.44,260.68,271.12
600,1778615384034,-1.71,-0.12,2.58,317.44,260.68,271.12
601,1778615384034,-1.71,-0.12,2.58,317.44,260.68,271.12
602,1778615384050,-0.48,-0.28,1.86,293.95,285.16,255.07
603,1778615384050,-0.48,-0.28,1.86,293.95,285.16,255.07
604,1778615384066,-0.48,-0.28,1.86,293.95,285.16,255.07
605,1778615384082,-0.13,-0.31,1.21,259.77,199.34,232.3
606,1778615384082,-0.13,-0.31,1.21,259.77,199.34,232.3
607,1778615384098,-0.13,-0.31,1.21,259.77,199.34,232.3
608,1778615384114,0.25,-0.26,1.18,237.49,168.88,191.16
609,1778615384114,0.25,-0.26,1.18,237.49,168.88,191.16
610,1778615384130,0.25,-0.26,1.18,237.49,168.88,191.16
611,1778615384130,0.25,-0.26,1.18,237.49,168.88,191.16
612,1778615384146,0.25,-0.26,1.18,237.49,168.88,191.16
613,1778615384162,0.79,-0.44,0.37,171.51,189.15,124.76
614,1778615384162,0.79,-0.44,0.37,171.51,189.15,124.76
615,1778615384178,0.79,-0.44,0.37,171.51,189.15,124.76
616,1778615384194,1.08,-0.1,0.53,190.8,48.77,138.55
617,1778615384194,1.08,-0.1,0.53,190.8,48.77,138.55
618,1778615384210,1.08,-0.1,0.53,190.8,48.77,138.55
619,1778615384210,1.08,-0.1,0.53,190.8,48.77,138.55
620,1778615384226,1.1,-0.08,0.45,148.62,112.24,-20.87
621,1778615384242,1.1,-0.08,0.45,148.62,112.24,-20.87
622,1778615384242,1.1,-0.08,0.45,148.62,112.24,-20.87
623,1778615384258,1.1,-0.08,0.45,148.62,112.24,-20.87
624,1778615384275,1.04,-0.38,0.13,134.34,44.13,-2.14
625,1778615384275,1.04,-0.38,0.13,134.34,44.13,-2.14
626,1778615384291,1.04,-0.38,0.13,134.34,44.13,-2.14
627,1778615384291,1.04,-0.38,0.13,134.34,44.13,-2.14
628,1778615384307,1.07,-0.19,0.06,105.77,51.57,-31.68
629,1778615384323,1.07,-0.19,0.06,105.77,51.57,-31.68
630,1778615384323,1.07,-0.19,0.06,105.77,51.57,-31.68
631,1778615384339,1.07,-0.19,0.06,105.77,51.57,-31.68
632,1778615384355,0.93,-0.39,-0.34,64.82,50.11,-34.42
633,1778615384355,0.93,-0.39,-0.34,64.82,50.11,-34.42
634,1778615384372,0.93,-0.39,-0.34,64.82,50.11,-34.42
635,1778615384372,0.93,-0.39,-0.34,64.82,50.11,-34.42
636,1778615384388,1.03,-0.37,-0.32,27.1,-3.6,19.84
637,1778615384404,1.03,-0.37,-0.32,27.1,-3.6,19.84
638,1778615384404,1.03,-0.37,-0.32,27.1,-3.6,19.84
639,1778615384420,1.16,-0.42,-0.27,-21.91,3.85,6.59
640,1778615384420,1.16,-0.42,-0.27,-21.91,3.85,6.59
641,1778615384436,1.16,-0.42,-0.27,-21.91,3.85,6.59
642,1778615384452,1.16,-0.42,-0.27,-21.91,3.85,6.59
643,1778615384452,1.16,-0.42,-0.27,-21.91,3.85,6.59
644,1778615384468,1.28,-0.43,-0.15,-53.28,-28.26,10.56
645,1778615384484,1.28,-0.43,-0.15,-53.28,-28.26,10.56
646,1778615384484,1.28,-0.43,-0.15,-53.28,-28.26,10.56
647,1778615384500,1.36,-0.59,-0.17,-103.94,-34.48,-35.77
648,1778615384500,1.36,-0.59,-0.17,-103.94,-34.48,-35.77
649,1778615384516,1.36,-0.59,-0.17,-103.94,-34.48,-35.77
650,1778615384531,1.23,-0.65,0.11,-156.92,-109.44,-41.81
651,1778615384531,1.23,-0.65,0.11,-156.92,-109.44,-41.81
652,1778615384548,1.23,-0.65,0.11,-156.92,-109.44,-41.81
653,1778615384564,1.23,-0.65,0.11,-156.92,-109.44,-41.81
654,1778615384564,1.23,-0.65,0.11,-156.92,-109.44,-41.81
655,1778615384580,1.04,-0.55,0.46,-190.73,-140.2,-70.62
656,1778615384596,1.04,-0.55,0.46,-190.73,-140.2,-70.62
657,1778615384596,1.04,-0.55,0.46,-190.73,-140.2,-70.62
658,1778615384613,1.04,-0.55,0.46,-190.73,-140.2,-70.62
659,1778615384613,1.04,-0.55,0.46,-190.73,-140.2,-70.62
660,1778615384629,0.74,-0.53,0.7,-234.37,-152.83,-142.58
661,1778615384645,0.06,-0.63,1.19,-259.28,-179.75,-191.77
662,1778615384645,0.06,-0.63,1.19,-259.28,-179.75,-191.77
663,1778615384661,0.06,-0.63,1.19,-259.28,-179.75,-191.77
664,1778615384661,0.06,-0.63,1.19,-259.28,-179.75,-191.77
665,1778615384677,0.06,-0.63,1.19,-259.28,-179.75,-191.77
666,1778615384694,-0.36,-0.71,1.66,-281.98,-238.04,-133.0
667,1778615384694,-0.36,-0.71,1.66,-281.98,-238.04,-133.0
668,1778615384710,-0.36,-0.71,1.66,-281.98,-238.04,-133.0
669,1778615384710,-0.36,-0.71,1.66,-281.98,-238.04,-133.0
670,1778615384726,-0.72,-0.38,2.38,-324.77,-248.54,-172.61
671,1778615384743,-0.72,-0.38,2.38,-324.77,-248.54,-172.61
672,1778615384743,-0.72,-0.38,2.38,-324.77,-248.54,-172.61
673,1778615384759,-1.06,-0.72,2.9,-364.14,-264.89,-196.9
674,1778615384775,-1.06,-0.72,2.9,-364.14,-264.89,-196.9
675,1778615384775,-1.06,-0.72,2.9,-364.14,-264.89,-196.9
676,1778615384792,-1.06,-0.72,2.9,-364.14,-264.89,-196.9
677,1778615384792,-1.06,-0.72,2.9,-364.14,-264.89,-196.9
678,1778615384808,-0.93,-0.14,3.9,-400.94,-320.56,-128.23
679,1778615384824,-0.93,-0.14,3.9,-400.94,-320.56,-128.23
680,1778615384824,-0.93,-0.14,3.9,-400.94,-320.56,-128.23
681,1778615384840,-0.91,-0.12,4.15,-390.81,-236.76,-303.89
682,1778615384840,-0.91,-0.12,4.15,-390.81,-236.76,-303.89
683,1778615384856,-0.91,-0.12,4.15,-390.81,-236.76,-303.89
684,1778615384873,-1.76,0.3,4.69,-324.1,-232.06,-354.31
685,1778615384873,-1.76,0.3,4.69,-324.1,-232.06,-354.31
686,1778615384889,-1.76,0.3,4.69,-324.1,-232.06,-354.31
687,1778615384904,-1.76,0.3,4.69,-324.1,-232.06,-354.31
688,1778615384904,-1.76,0.3,4.69,-324.1,-232.06,-354.31
689,1778615384920,-1.76,0.3,4.69,-324.1,-232.06,-354.31
690,1778615384920,-1.76,0.3,4.69,-324.1,-232.06,-354.31
691,1778615384936,-2.03,0.5,3.7,-246.89,-152.71,-354.86
692,1778615384953,-2.44,0.63,2.0,-216.25,-110.66,-313.35
693,1778615384953,-2.44,0.63,2.0,-216.25,-110.66,-313.35
694,1778615384969,-2.44,0.63,2.0,-216.25,-110.66,-313.35
695,1778615384985,-2.53,1.09,1.91,-159.79,-179.57,-104.31
696,1778615384985,-2.53,1.09,1.91,-159.79,-179.57,-104.31
697,1778615385001,-2.53,1.09,1.91,-159.79,-179.57,-104.31
698,1778615385001,-2.53,1.09,1.91,-159.79,-179.57,-104.31
699,1778615385017,-2.53,1.09,1.91,-159.79,-179.57,-104.31
700,1778615385033,-2.53,1.09,1.91,-159.79,-179.57,-104.31
701,1778615385033,-2.53,1.09,1.91,-159.79,-179.57,-104.31
702,1778615385049,-2.34,2.02,2.0,-109.99,-87.89,-29.36
703,1778615385065,-2.18,1.74,1.55,-16.91,29.97,-36.5
704,1778615385065,-2.18,1.74,1.55,-16.91,29.97,-36.5
705,1778615385081,-2.18,1.74,1.55,-16.91,29.97,-36.5
706,1778615385081,-2.18,1.74,1.55,-16.91,29.97,-36.5
707,1778615385097,-2.18,1.74,1.55,-16.91,29.97,-36.5
708,1778615385113,-2.05,0.96,1.2,53.65,84.78,22.58
709,1778615385113,-2.05,0.96,1.2,53.65,84.78,22.58
710,1778615385129,-2.05,0.96,1.2,53.65,84.78,22.58
711,1778615385145,-1.81,0.51,1.35,80.51,102.42,133.42
712,1778615385145,-1.81,0.51,1.35,80.51,102.42,133.42
713,1778615385161,-1.81,0.51,1.35,80.51,102.42,133.42
714,1778615385161,-1.81,0.51,1.35,80.51,102.42,133.42
715,1778615385177,-1.83,0.45,1.91,118.84,145.32,163.57
716,1778615385194,-1.83,0.45,1.91,118.84,145.32,163.57
717,1778615385194,-1.83,0.45,1.91,118.84,145.32,163.57
718,1778615385210,-1.83,0.45,1.91,118.84,145.32,163.57
719,1778615385226,-1.98,-0.09,2.34,173.1,193.91,167.11
720,1778615385226,-1.98,-0.09,2.34,173.1,193.91,167.11
721,1778615385242,-2.02,-0.02,2.74,210.39,221.19,201.9
722,1778615385242,-2.02,-0.02,2.74,210.39,221.19,201.9
723,1778615385258,-2.02,-0.02,2.74,210.39,221.19,201.9
724,1778615385275,-2.02,-0.02,2.74,210.39,221.19,201.9
725,1778615385275,-2.02,-0.02,2.74,210.39,221.19,201.9
726,1778615385291,-2.16,0.03,3.34,256.53,271.79,223.08
727,1778615385291,-2.16,0.03,3.34,256.53,271.79,223.08
728,1778615385307,-2.16,0.03,3.34,256.53,271.79,223.08
729,1778615385323,-1.95,0.23,3.24,278.63,292.3,244.75
730,1778615385323,-1.95,0.23,3.24,278.63,292.3,244.75
731,1778615385339,-1.95,0.23,3.24,278.63,292.3,244.75
732,1778615385355,-1.56,0.26,3.16,286.01,282.41,253.85
733,1778615385355,-1.56,0.26,3.16,286.01,282.41,253.85
734,1778615385371,-1.56,0.26,3.16,286.01,282.41,253.85
735,1778615385371,-1.56,0.26,3.16,286.01,282.41,253.85
736,1778615385387,-0.93,0.26,2.91,330.14,344.18,245.73
737,1778615385403,-0.93,0.26,2.91,330.14,344.18,245.73
738,1778615385403,-0.93,0.26,2.91,330.14,344.18,245.73
739,1778615385419,-0.65,-0.23,1.62,330.14,344.18,245.73
740,1778615385435,-0.65,-0.23,1.62,286.38,294.13,283.14
741,1778615385435,-0.65,-0.23,1.62,286.38,294.13,283.14
742,1778615385450,-0.65,-0.23,1.62,286.38,294.13,283.14
743,1778615385451,-0.65,-0.23,1.62,286.38,294.13,283.14
744,1778615385467,-0.4,0.33,1.83,303.77,170.78,328.61
745,1778615385482,-0.4,0.33,1.83,303.77,170.78,328.61
746,1778615385482,-0.4,0.33,1.83,303.77,170.78,328.61
747,1778615385498,-0.1,-0.19,1.77,283.69,180.05,265.87
748,1778615385514,-0.1,-0.19,1.77,283.69,180.05,265.87
749,1778615385514,-0.1,-0.19,1.77,283.69,180.05,265.87
750,1778615385531,-0.1,-0.19,1.77,283.69,180.05,265.87
751,1778615385531,-0.1,-0.19,1.77,283.69,180.05,265.87
752,1778615385547,0.4,-0.37,1.2,252.62,159.12,280.4
753,1778615385564,0.4,-0.37,1.2,252.62,159.12,280.4
754,1778615385564,0.4,-0.37,1.2,252.62,159.12,280.4
755,1778615385580,0.67,-0.36,0.79,237.06,98.57,236.88
756,1778615385596,0.67,-0.36,0.79,237.06,98.57,236.88
757,1778615385596,0.67,-0.36,0.79,237.06,98.57,236.88
758,1778615385612,1.08,-0.62,0.39,237.06,98.57,236.88
759,1778615385612,1.08,-0.62,0.39,237.06,98.57,236.88
760,1778615385628,1.08,-0.62,0.39,175.42,113.71,140.99
761,1778615385644,1.08,-0.62,0.39,175.42,113.71,140.99
762,1778615385644,1.08,-0.62,0.39,175.42,113.71,140.99
763,1778615385661,1.11,-0.89,-0.06,131.96,41.08,84.72
764,1778615385661,1.11,-0.89,-0.06,131.96,41.08,84.72
765,1778615385677,1.11,-0.89,-0.06,131.96,41.08,84.72
766,1778615385693,0.99,-0.81,0.02,98.02,13.61,30.21
767,1778615385693,0.99,-0.81,0.02,98.02,13.61,30.21
768,1778615385709,0.99,-0.81,0.02,98.02,13.61,30.21
769,1778615385725,0.83,-1.02,-0.17,43.52,18.68,-41.32
770,1778615385725,0.83,-1.02,-0.17,43.52,18.68,-41.32
771,1778615385741,0.83,-1.02,-0.17,43.52,18.68,-41.32
772,1778615385741,0.83,-1.02,-0.17,43.52,18.68,-41.32
773,1778615385757,0.78,-1.08,-0.23,19.35,-21.85,-12.08
774,1778615385773,0.78,-1.08,-0.23,19.35,-21.85,-12.08
775,1778615385773,0.78,-1.08,-0.23,19.35,-21.85,-12.08
776,1778615385789,0.78,-1.08,-0.23,19.35,-21.85,-12.08
777,1778615385805,0.91,-1.03,-0.13,-36.68,-19.84,-20.02
778,1778615385805,0.91,-1.03,-0.13,-36.68,-19.84,-20.02
779,1778615385821,0.91,-1.03,-0.13,-36.68,-19.84,-20.02
780,1778615385821,0.91,-1.03,-0.13,-36.68,-19.84,-20.02
781,1778615385837,1.05,-1.03,-0.21,-96.37,-26.49,-22.89
782,1778615385853,1.05,-1.03,-0.21,-96.37,-26.49,-22.89
783,1778615385853,1.05,-1.03,-0.21,-96.37,-26.49,-22.89
784,1778615385869,1.14,-0.83,0.17,-125.55,-59.69,-19.35
785,1778615385885,1.14,-0.83,0.17,-125.55,-59.69,-19.35
786,1778615385885,1.14,-0.83,0.17,-125.55,-59.69,-19.35
787,1778615385901,1.14,-0.83,0.17,-125.55,-59.69,-19.35
788,1778615385901,1.14,-0.83,0.17,-125.55,-59.69,-19.35
789,1778615385917,1.2,-0.68,0.35,-181.46,-39.98,-94.12
790,1778615385932,1.2,-0.68,0.35,-181.46,-39.98,-94.12
791,1778615385932,1.2,-0.68,0.35,-181.46,-39.98,-94.12
792,1778615385948,1.07,-0.7,0.51,-224.85,-117.98,-98.88
793,1778615385964,1.07,-0.7,0.51,-224.85,-117.98,-98.88
794,1778615385964,1.07,-0.7,0.51,-224.85,-117.98,-98.88
795,1778615385981,1.07,-0.7,0.51,-224.85,-117.98,-98.88
796,1778615385981,1.07,-0.7,0.51,-224.85,-117.98,-98.88
797,1778615385996,0.86,-0.41,1.04,-263.43,-154.54,-157.78
798,1778615386013,0.86,-0.41,1.04,-263.43,-154.54,-157.78
799,1778615386013,0.86,-0.41,1.04,-263.43,-154.54,-157.78
800,1778615386029,-0.01,-0.56,1.65,-290.04,-195.19,-241.52
801,1778615386045,-0.01,-0.56,1.65,-290.04,-195.19,-241.52
802,1778615386045,-0.01,-0.56,1.65,-290.04,-195.19,-241.52
803,1778615386061,-0.01,-0.56,1.65,-290.04,-195.19,-241.52
804,1778615386061,-0.01,-0.56,1.65,-290.04,-195.19,-241.52
805,1778615386077,-0.76,-0.66,2.06,-319.89,-266.91,-162.41
806,1778615386094,-0.76,-0.66,2.06,-319.89,-266.91,-162.41
807,1778615386094,-0.76,-0.66,2.06,-319.89,-266.91,-162.41
808,1778615386109,-1.32,-0.12,3.25,-343.63,-269.71,-161.99
809,1778615386126,-1.32,-0.12,3.25,-343.63,-269.71,-161.99
810,1778615386126,-1.32,-0.12,3.25,-343.63,-269.71,-161.99
811,1778615386142,-1.32,-0.12,3.25,-343.63,-269.71,-161.99
812,1778615386142,-1.32,-0.12,3.25,-343.63,-269.71,-161.99
813,1778615386158,-1.64,-0.51,2.78,-365.17,-225.16,-201.78
814,1778615386174,-1.57,0.4,3.78,-365.17,-225.16,-201.78
815,1778615386174,-1.57,0.4,3.78,-365.17,-225.16,-201.78
816,1778615386191,-1.57,0.4,3.78,-366.76,-269.04,-158.08
817,1778615386191,-1.57,0.4,3.78,-366.76,-269.04,-158.08
818,1778615386207,-1.57,0.4,3.78,-366.76,-269.04,-158.08
819,1778615386223,-1.98,0.77,3.33,-374.51,-174.26,-303.89
820,1778615386223,-1.98,0.77,3.33,-374.51,-174.26,-303.89
821,1778615386239,-1.98,0.77,3.33,-374.51,-174.26,-303.89
822,1778615386254,-2.36,1.87,3.4,-279.66,-179.57,-312.62
823,1778615386254,-2.36,1.87,3.4,-279.66,-179.57,-312.62
824,1778615386270,-2.36,1.87,3.4,-279.66,-179.57,-312.62
825,1778615386270,-2.36,1.87,3.4,-279.66,-179.57,-312.62
826,1778615386286,-2.36,1.87,3.4,-279.66,-179.57,-312.62
827,1778615386303,-2.75,1.78,1.81,-214.84,-51.39,-369.81
828,1778615386303,-2.75,1.78,1.81,-214.84,-51.39,-369.81
829,1778615386318,-2.75,1.78,1.81,-214.84,-51.39,-369.81
830,1778615386334,-2.95,1.54,1.17,-127.56,-93.57,-125.55
831,1778615386334,-2.95,1.54,1.17,-127.56,-93.57,-125.55
832,1778615386350,-2.95,1.54,1.17,-127.56,-93.57,-125.55
833,1778615386350,-2.95,1.54,1.17,-127.56,-93.57,-125.55
834,1778615386366,-2.2,2.54,1.73,-127.56,-93.57,-125.55
835,1778615386382,-2.2,2.54,1.73,-46.08,-2.08,-44.19
836,1778615386382,-2.2,2.54,1.73,-46.08,-2.08,-44.19
837,1778615386399,-2.2,2.54,1.73,-46.08,-2.08,-44.19
838,1778615386415,-2.24,1.67,1.44,30.15,65.61,-37.17
839,1778615386415,-2.24,1.67,1.44,30.15,65.61,-37.17
840,1778615386431,-2.24,1.67,1.44,30.15,65.61,-37.17
841,1778615386431,-2.24,1.67,1.44,30.15,65.61,-37.17
842,1778615386447,-2.24,1.67,1.44,30.15,65.61,-37.17
843,1778615386464,-2.15,0.97,1.64,90.15,103.94,70.56
844,1778615386464,-2.15,0.97,1.64,90.15,103.94,70.56
845,1778615386480,-1.68,0.95,1.76,90.15,103.94,70.56
846,1778615386480,-1.68,0.95,1.76,90.15,103.94,70.56
847,1778615386496,-1.68,0.95,1.76,108.83,181.03,142.15
848,1778615386512,-1.68,0.95,1.76,108.83,181.03,142.15
849,1778615386512,-1.68,0.95,1.76,108.83,181.03,142.15
850,1778615386529,-1.95,0.61,1.91,164.86,196.04,107.67
851,1778615386545,-1.95,0.61,1.91,164.86,196.04,107.67
852,1778615386545,-1.95,0.61,1.91,164.86,196.04,107.67
853,1778615386561,-2.32,0.17,2.07,192.99,228.64,179.32
854,1778615386561,-2.32,0.17,2.07,192.99,228.64,179.32
855,1778615386577,-2.32,0.17,2.07,192.99,228.64,179.32
856,1778615386593,-2.32,0.17,2.07,192.99,228.64,179.32
857,1778615386593,-2.32,0.17,2.07,192.99,228.64,179.32
858,1778615386610,-2.32,0.17,2.07,192.99,228.64,179.32
859,1778615386626,-2.32,0.17,2.07,192.99,228.64,179.32
860,1778615386626,-2.32,0.17,2.07,192.99,228.64,179.32
861,1778615386642,-2.19,0.03,2.19,238.59,260.01,254.33
862,1778615386642,-2.19,0.03,2.19,238.59,260.01,254.33
863,1778615386659,-2.19,0.03,2.19,238.59,260.01,254.33
864,1778615386675,-1.71,0.17,2.44,254.33,291.81,247.07
865,1778615386675,-1.71,0.17,2.44,254.33,291.81,247.07
866,1778615386691,-1.71,0.17,2.44,254.33,291.81,247.07
867,1778615386691,-1.71,0.17,2.44,254.33,291.81,247.07
868,1778615386707,-1.12,-0.1,2.07,245.61,288.76,274.29
869,1778615386723,-1.12,-0.1,2.07,245.61,288.76,274.29
870,1778615386723,-1.12,-0.1,2.07,245.61,288.76,274.29
871,1778615386739,-1.12,-0.1,2.07,245.61,288.76,274.29
872,1778615386755,-0.36,0.1,1.95,280.58,266.66,268.25
873,1778615386755,-0.36,0.1,1.95,280.58,266.66,268.25
874,1778615386771,-0.36,0.1,1.95,280.58,266.66,268.25
875,1778615386771,-0.36,0.1,1.95,280.58,266.66,268.25
876,1778615386787,0.01,-0.22,1.27,243.23,258.79,205.81
877,1778615386803,0.01,-0.22,1.27,243.23,258.79,205.81
878,1778615386803,0.01,-0.22,1.27,243.23,258.79,205.81
879,1778615386819,0.01,-0.22,1.27,243.23,258.79,205.81
880,1778615386835,0.52,-0.37,0.76,212.22,203.12,217.1
881,1778615386835,0.52,-0.37,0.76,212.22,203.12,217.1
882,1778615386851,0.52,-0.37,0.76,212.22,203.12,217.1
883,1778615386851,0.52,-0.37,0.76,212.22,203.12,217.1
884,1778615386867,0.93,-0.04,0.78,199.52,162.96,165.65
885,1778615386883,0.93,-0.04,0.78,199.52,162.96,165.65
886,1778615386883,0.93,-0.04,0.78,199.52,162.96,165.65
887,1778615386899,1.11,-0.36,0.42,152.22,139.4,71.29
888,1778615386915,1.11,-0.36,0.42,152.22,139.4,71.29
889,1778615386915,1.11,-0.36,0.42,152.22,139.4,71.29
890,1778615386931,1.11,-0.36,0.42,152.22,139.4,71.29
891,1778615386931,1.11,-0.36,0.42,152.22,139.4,71.29
892,1778615386947,1.2,-0.47,0.11,136.35,67.63,74.22
893,1778615386964,1.2,-0.47,0.11,136.35,67.63,74.22
894,1778615386964,1.2,-0.47,0.11,136.35,67.63,74.22
895,1778615386980,1.13,-0.47,0.25,131.47,59.63,3.54
896,1778615386980,1.13,-0.47,0.25,131.47,59.63,3.54
897,1778615386996,1.13,-0.47,0.25,131.47,59.63,3.54
898,1778615387012,1.15,-0.61,-0.06,87.95,30.94,-8.79
899,1778615387012,1.15,-0.61,-0.06,87.95,30.94,-8.79
900,1778615387028,1.15,-0.61,-0.06,87.95,30.94,-8.79
901,1778615387044,1.15,-0.61,-0.06,87.95,30.94,-8.79
902,1778615387044,1.15,-0.61,-0.06,87.95,30.94,-8.79
903,1778615387060,1.17,-0.63,-0.07,33.75,6.84,4.39
904,1778615387060,1.17,-0.63,-0.07,33.75,6.84,4.39
905,1778615387076,1.17,-0.63,-0.07,33.75,6.84,4.39
906,1778615387092,1.36,-0.72,-0.05,1.65,5.43,-10.93
907,1778615387092,1.36,-0.72,-0.05,1.65,5.43,-10.93
908,1778615387108,1.36,-0.72,-0.05,1.65,5.43,-10.93
909,1778615387124,1.49,-0.79,-0.05,1.65,5.43,-10.93
910,1778615387124,1.49,-0.79,-0.05,1.65,5.43,-10.93
911,1778615387140,1.49,-0.79,-0.05,-53.71,-39.98,-10.01
912,1778615387140,1.49,-0.79,-0.05,-53.71,-39.98,-10.01
913,1778615387156,1.49,-0.79,-0.05,-53.71,-39.98,-10.01
914,1778615387172,1.49,-0.79,-0.05,-53.71,-39.98,-10.01
915,1778615387172,1.49,-0.79,-0.05,-53.71,-39.98,-10.01
916,1778615387188,1.52,-0.69,0.3,-100.52,-78.31,-40.16
917,1778615387205,1.25,-0.77,0.44,-143.07,-122.5,-103.45
918,1778615387205,1.25,-0.77,0.44,-143.07,-122.5,-103.45
919,1778615387221,1.25,-0.77,0.44,-143.07,-122.5,-103.45
920,1778615387221,1.25,-0.77,0.44,-143.07,-122.5,-103.45
921,1778615387237,1.25,-0.77,0.44,-143.07,-122.5,-103.45
922,1778615387253,0.75,-0.73,0.76,-192.93,-175.9,-132.26
923,1778615387253,0.75,-0.73,0.76,-192.93,-175.9,-132.26
924,1778615387269,0.75,-0.73,0.76,-192.93,-175.9,-132.26
925,1778615387284,0.75,-0.73,0.76,-192.93,-175.9,-132.26
926,1778615387284,0.75,-0.73,0.76,-192.93,-175.9,-132.26
927,1778615387301,0.75,-0.73,0.76,-192.93,-175.9,-132.26
928,1778615387301,0.75,-0.73,0.76,-192.93,-175.9,-132.26
929,1778615387317,-0.48,-0.48,1.34,-276.92,-274.35,-91.55
930,1778615387333,-0.48,-0.48,1.34,-276.92,-274.35,-91.55
931,1778615387333,-0.48,-0.48,1.34,-276.92,-274.35,-91.55
932,1778615387349,-0.48,-0.48,1.34,-276.92,-274.35,-91.55
933,1778615387365,-1.08,0.21,2.52,-303.71,-279.6,-190.92
934,1778615387365,-1.08,0.21,2.52,-303.71,-279.6,-190.92
935,1778615387381,-1.08,0.21,2.52,-303.71,-279.6,-190.92
936,1778615387381,-1.08,0.21,2.52,-303.71,-279.6,-190.92
937,1778615387398,-1.86,-0.41,2.26,-338.26,-263.24,-160.95
938,1778615387413,-1.86,-0.41,2.26,-338.26,-263.24,-160.95
939,1778615387413,-1.86,-0.41,2.26,-338.26,-263.24,-160.95
940,1778615387430,-1.34,0.76,2.98,-368.16,-271.85,-61.58
941,1778615387446,-1.34,0.76,2.98,-368.16,-271.85,-61.58
942,1778615387446,-1.34,0.76,2.98,-368.16,-271.85,-61.58
943,1778615387462,-1.34,0.76,2.98,-368.16,-271.85,-61.58
944,1778615387462,-1.34,0.76,2.98,-368.16,-271.85,-61.58
945,1778615387478,-1.31,0.53,2.92,-380.98,-233.4,-229.68
946,1778615387494,-1.31,0.53,2.92,-380.98,-233.4,-229.68
947,1778615387494,-1.31,0.53,2.92,-380.98,-233.4,-229.68
948,1778615387510,-1.08,1.23,3.68,-338.38,-314.82,-172.42
949,1778615387510,-1.08,1.23,3.68,-338.38,-314.82,-172.42
950,1778615387527,-1.08,1.23,3.68,-338.38,-314.82,-172.42
951,1778615387543,-1.08,1.23,3.68,-338.38,-314.82,-172.42
952,1778615387543,-1.08,1.23,3.68,-338.38,-314.82,-172.42
953,1778615387559,-1.54,1.26,3.32,-303.22,-198.73,-435.91
954,1778615387575,-1.54,1.26,3.32,-303.22,-198.73,-435.91
955,1778615387575,-1.54,1.26,3.32,-303.22,-198.73,-435.91
956,1778615387591,-2.52,0.47,1.69,-238.71,-226.5,-299.87
957,1778615387591,-2.52,0.47,1.69,-238.71,-226.5,-299.87
958,1778615387607,-2.52,0.47,1.69,-238.71,-226.5,-299.87
959,1778615387623,-2.4,1.4,2.28,-207.4,-219.36,-95.83
960,1778615387623,-2.4,1.4,2.28,-207.4,-219.36,-95.83
961,1778615387639,-2.4,1.4,2.28,-207.4,-219.36,-95.83
962,1778615387656,-1.88,2.57,2.31,-207.4,-219.36,-95.83
963,1778615387656,-1.88,2.57,2.31,-207.4,-219.36,-95.83
964,1778615387672,-1.88,2.57,2.31,-129.82,-98.94,-66.96
965,1778615387672,-1.88,2.57,2.31,-129.82,-98.94,-66.96
966,1778615387687,-1.88,2.57,2.31,-129.82,-98.94,-66.96
967,1778615387703,-2.34,1.77,1.56,12.02,-4.33,-127.5
968,1778615387703,-2.34,1.77,1.56,12.02,-4.33,-127.5
969,1778615387719,-2.34,1.77,1.56,12.02,-4.33,-127.5
970,1778615387735,-2.48,1.15,1.5,12.02,-4.33,-127.5
971,1778615387735,-2.48,1.15,1.5,12.02,-4.33,-127.5
972,1778615387751,-2.48,1.15,1.5,75.13,84.23,24.9
973,1778615387751,-2.48,1.15,1.5,75.13,84.23,24.9
974,1778615387767,-2.48,1.15,1.5,75.13,84.23,24.9
975,1778615387783,-2.11,0.9,1.55,114.07,146.61,104.68
976,1778615387783,-2.11,0.9,1.55,114.07,146.61,104.68
977,1778615387800,-2.05,0.55,1.79,152.89,169.31,137.76
978,1778615387816,-2.05,0.55,1.79,152.89,169.31,137.76
979,1778615387816,-2.05,0.55,1.79,152.89,169.31,137.76
980,1778615387832,-2.05,0.55,1.79,152.89,169.31,137.76
981,1778615387832,-2.05,0.55,1.79,152.89,169.31,137.76
982,1778615387848,-1.98,0.29,2.24,197.51,201.11,193.18
983,1778615387865,-1.98,0.29,2.24,197.51,201.11,193.18
984,1778615387865,-1.98,0.29,2.24,197.51,201.11,193.18
985,1778615387881,-2.05,0.37,2.52,221.37,257.26,201.17
986,1778615387881,-2.05,0.37,2.52,221.37,257.26,201.17
987,1778615387897,-2.05,0.37,2.52,221.37,257.26,201.17
988,1778615387913,-2.24,0.43,2.74,247.56,272.09,211.12
989,1778615387913,-2.24,0.43,2.74,247.56,272.09,211.12
990,1778615387929,-2.24,0.43,2.74,247.56,272.09,211.12
991,1778615387945,-2.02,0.17,2.98,285.34,302.31,250.73
992,1778615387945,-2.02,0.17,2.98,285.34,302.31,250.73
993,1778615387962,-2.02,0.17,2.98,285.34,302.31,250.73
994,1778615387962,-2.02,0.17,2.98,285.34,302.31,250.73
995,1778615387978,-2.02,0.17,2.98,285.34,302.31,250.73
996,1778615387994,-2.02,0.17,2.98,285.34,302.31,250.73
997,1778615387994,-2.02,0.17,2.98,285.34,302.31,250.73
998,1778615388010,-1.44,0.29,2.69,297.91,310.36,289.98
999,1778615388010,-1.44,0.29,2.69,297.91,310.36,289.98
