id,timestamp,acc_x,acc_y,acc_z,gyro_x,gyro_y,gyro_z
0,1778615358412,-0.36,-0.3,4.8,-414.06,-216.0,-95.21
1,1778615358428,-0.12,0.61,4.0,-451.23,-18.55,-88.5
2,1778615358444,-0.12,0.61,4.0,-451.23,-18.55,-88.5
3,1778615358444,-0.12,0.61,4.0,-451.23,-18.55,-88.5
4,1778615358460,-0.12,0.61,4.0,-451.23,-18.55,-88.5
5,1778615358476,0.46,2.19,4.35,-366.82,-128.3,-52.49
6,1778615358476,0.46,2.19,4.35,-366.82,-128.3,-52.49
7,1778615358492,0.46,2.19,4.35,-366.82,-128.3,-52.49
8,1778615358508,0.28,3.18,3.48,-318.79,68.12,-52.19
9,1778615358508,0.28,3.18,3.48,-318.79,68.12,-52.19
10,1778615358525,0.28,3.18,3.48,-318.79,68.12,-52.19
11,1778615358525,0.28,3.18,3.48,-318.79,68.12,-52.19
12,1778615358541,0.29,3.44,2.02,-66.89,1.04,113.71
13,1778615358557,0.29,3.44,2.02,-66.89,1.04,113.71
14,1778615358557,0.29,3.44,2.02,-66.89,1.04,113.71
15,1778615358573,0.29,3.44,2.02,-66.89,1.04,113.71
16,1778615358573,0.29,3.44,2.02,-66.89,1.04,113.71
17,1778615358589,1.34,4.2,1.55,98.94,4.94,81.12
18,1778615358605,1.34,4.2,1.55,98.94,4.94,81.12
19,1778615358605,1.34,4.2,1.55,98.94,4.94,81.12
20,1778615358621,0.48,2.89,2.32,160.83,-19.59,-140.93
21,1778615358637,0.48,2.89,2.32,160.83,-19.59,-140.93
22,1778615358637,0.48,2.89,2.32,160.83,-19.59,-140.93
23,1778615358653,-0.92,1.34,2.97,160.83,-19.59,-140.93
24,1778615358653,-0.92,1.34,2.97,160.83,-19.59,-140.93
25,1778615358669,-0.92,1.34,2.97,278.87,7.2,-125.61
26,1778615358686,-0.92,1.34,2.97,278.87,7.2,-125.61
27,1778615358686,-0.92,1.34,2.97,278.87,7.2,-125.61
28,1778615358701,-0.94,1.14,3.46,278.87,7.2,-125.61
29,1778615358717,-0.94,1.14,3.46,386.96,44.98,-6.04
30,1778615358717,-0.94,1.14,3.46,386.96,44.98,-6.04
31,1778615358734,-0.77,1.11,3.86,444.82,51.94,20.81
32,1778615358734,-0.77,1.11,3.86,444.82,51.94,20.81
33,1778615358750,-0.77,1.11,3.86,444.82,51.94,20.81
34,1778615358766,-0.51,0.8,4.22,478.76,86.79,-1.95
35,1778615358766,-0.51,0.8,4.22,478.76,86.79,-1.95
36,1778615358782,-0.51,0.8,4.22,478.76,86.79,-1.95
37,1778615358798,-0.51,0.8,4.22,478.76,86.79,-1.95
38,1778615358798,-0.51,0.8,4.22,478.76,86.79,-1.95
39,1778615358814,-0.38,0.36,4.05,473.82,134.77,-3.85
40,1778615358814,-0.38,0.36,4.05,473.82,134.77,-3.85
41,1778615358829,-0.38,0.36,4.05,473.82,134.77,-3.85
42,1778615358845,-0.26,0.02,3.08,467.41,135.19,32.04
43,1778615358845,-0.26,0.02,3.08,467.41,135.19,32.04
44,1778615358861,-0.26,0.02,3.08,467.41,135.19,32.04
45,1778615358877,0.09,0.09,2.68,466.86,115.54,29.42
46,1778615358877,0.09,0.09,2.68,466.86,115.54,29.42
47,1778615358893,0.09,0.09,2.68,466.86,115.54,29.42
48,1778615358893,0.09,0.09,2.68,466.86,115.54,29.42
49,1778615358909,0.16,-0.28,1.79,466.86,115.54,29.42
50,1778615358926,0.16,-0.28,1.79,386.29,164.73,25.76
51,1778615358926,0.16,-0.28,1.79,386.29,164.73,25.76
52,1778615358942,0.16,-0.28,1.79,386.29,164.73,25.76
53,1778615358958,0.52,-0.19,1.19,362.85,145.69,61.65
54,1778615358958,0.52,-0.19,1.19,362.85,145.69,61.65
55,1778615358974,0.52,-0.19,1.19,362.85,145.69,61.65
56,1778615358974,0.52,-0.19,1.19,362.85,145.69,61.65
57,1778615358990,0.77,-0.13,0.82,305.48,112.06,-16.24
58,1778615359006,0.77,-0.13,0.82,305.48,112.06,-16.24
59,1778615359006,0.77,-0.13,0.82,305.48,112.06,-16.24
60,1778615359022,0.78,-0.67,0.39,230.1,118.35,-42.11
61,1778615359037,0.78,-0.67,0.39,230.1,118.35,-42.11
62,1778615359037,0.78,-0.67,0.39,230.1,118.35,-42.11
63,1778615359054,0.78,-0.67,0.39,230.1,118.35,-42.11
64,1778615359054,0.78,-0.67,0.39,230.1,118.35,-42.11
65,1778615359070,0.91,-0.63,0.12,227.78,63.35,16.24
66,1778615359086,0.91,-0.63,0.12,227.78,63.35,16.24
67,1778615359086,0.91,-0.63,0.12,227.78,63.35,16.24
68,1778615359102,1.06,-0.89,-0.19,176.27,61.28,-4.82
69,1778615359102,1.06,-0.89,-0.19,176.27,61.28,-4.82
70,1778615359119,1.06,-0.89,-0.19,176.27,61.28,-4.82
71,1778615359135,1.06,-0.89,-0.19,176.27,61.28,-4.82
72,1778615359135,1.06,-0.89,-0.19,176.27,61.28,-4.82
73,1778615359151,1.17,-1.39,-0.73,96.5,62.26,-12.02
74,1778615359167,1.17,-1.39,-0.73,96.5,62.26,-12.02
75,1778615359167,1.17,-1.39,-0.73,96.5,62.26,-12.02
76,1778615359184,1.14,-1.29,-0.64,26.79,-14.28,46.75
77,1778615359184,1.14,-1.29,-0.64,26.79,-14.28,46.75
78,1778615359200,1.14,-1.29,-0.64,26.79,-14.28,46.75
79,1778615359216,1.2,-1.21,-0.1,-27.65,-19.1,66.71
80,1778615359216,1.2,-1.21,-0.1,-27.65,-19.1,66.71
81,1778615359232,1.2,-1.21,-0.1,-27.65,-19.1,66.71
82,1778615359249,1.2,-1.21,-0.1,-27.65,-19.1,66.71
83,1778615359249,1.2,-1.21,-0.1,-27.65,-19.1,66.71
84,1778615359265,1.22,-1.08,-0.1,-87.95,0.98,57.86
85,1778615359265,1.22,-1.08,-0.1,-87.95,0.98,57.86
86,1778615359281,1.22,-1.08,-0.1,-87.95,0.98,57.86
87,1778615359297,1.14,-1.06,0.01,-135.68,-34.24,41.93
88,1778615359297,1.14,-1.06,0.01,-135.68,-34.24,41.93
89,1778615359313,1.14,-1.06,0.01,-135.68,-34.24,41.93
90,1778615359313,1.14,-1.06,0.01,-135.68,-34.24,41.93
91,1778615359330,0.99,-0.76,0.35,-186.34,-23.93,-10.99
92,1778615359345,0.99,-0.76,0.35,-186.34,-23.93,-10.99
93,1778615359345,0.99,-0.76,0.35,-186.34,-23.93,-10.99
94,1778615359361,0.99,-0.76,0.35,-186.34,-23.93,-10.99
95,1778615359377,0.66,-0.74,0.48,-258.79,-55.73,-69.27
96,1778615359377,0.66,-0.74,0.48,-258.79,-55.73,-69.27
97,1778615359393,0.66,-0.74,0.48,-258.79,-55.73,-69.27
98,1778615359393,0.66,-0.74,0.48,-258.79,-55.73,-69.27
99,1778615359409,0.28,-0.66,1.21,-305.54,-82.82,-48.58
100,1778615359425,0.28,-0.66,1.21,-305.54,-82.82,-48.58
101,1778615359425,0.28,-0.66,1.21,-305.54,-82.82,-48.58
102,1778615359442,0.28,-0.66,1.21,-305.54,-82.82,-48.58
103,1778615359458,-0.08,-0.69,1.4,-400.82,-12.21,-159.42
104,1778615359458,-0.08,-0.69,1.4,-400.82,-12.21,-159.42
105,1778615359474,-0.08,-0.69,1.4,-400.82,-12.21,-159.42
106,1778615359474,-0.08,-0.69,1.4,-400.82,-12.21,-159.42
107,1778615359490,-0.37,-1.42,1.78,-446.78,-156.74,-28.08
108,1778615359506,-0.37,-1.42,1.78,-446.78,-156.74,-28.08
109,1778615359506,-0.37,-1.42,1.78,-446.78,-156.74,-28.08
110,1778615359522,-0.37,-1.42,1.78,-446.78,-156.74,-28.08
111,1778615359538,-1.03,-0.82,3.22,-563.72,-183.23,-164.98
112,1778615359538,-1.03,-0.82,3.22,-563.72,-183.23,-164.98
113,1778615359554,-1.83,-1.13,5.15,-563.72,-183.23,-164.98
114,1778615359554,-1.83,-1.13,5.15,-563.72,-183.23,-164.98
115,1778615359570,-1.83,-1.13,5.15,-531.86,-169.98,-93.99
116,1778615359585,-1.83,-1.13,5.15,-531.86,-169.98,-93.99
117,1778615359585,-1.83,-1.13,5.15,-531.86,-169.98,-93.99
118,1778615359602,-1.32,0.16,4.78,-522.03,-86.91,-46.39
119,1778615359618,-1.32,0.16,4.78,-522.03,-86.91,-46.39
120,1778615359618,-1.32,0.16,4.78,-522.03,-86.91,-46.39
121,1778615359634,-0.97,0.32,4.48,-448.0,-103.03,-41.14
122,1778615359634,-0.97,0.32,4.48,-448.0,-103.03,-41.14
123,1778615359650,-0.97,0.32,4.48,-448.0,-103.03,-41.14
124,1778615359666,-0.97,0.32,4.48,-448.0,-103.03,-41.14
125,1778615359666,-0.97,0.32,4.48,-448.0,-103.03,-41.14
126,1778615359682,-0.2,1.21,5.02,-397.09,-150.7,-64.58
127,1778615359698,-0.2,1.21,5.02,-397.09,-150.7,-64.58
128,1778615359698,-0.2,1.21,5.02,-397.09,-150.7,-64.58
129,1778615359714,-0.06,2.48,3.95,-381.35,24.54,-82.46
130,1778615359714,-0.06,2.48,3.95,-381.35,24.54,-82.46
131,1778615359729,-0.06,2.48,3.95,-381.35,24.54,-82.46
132,1778615359746,-0.06,2.48,3.95,-381.35,24.54,-82.46
133,1778615359746,-0.06,2.48,3.95,-381.35,24.54,-82.46
134,1778615359761,-0.48,2.76,2.87,-230.35,10.25,-73.43
135,1778615359777,-0.48,2.76,2.87,-230.35,10.25,-73.43
136,1778615359777,-0.48,2.76,2.87,-230.35,10.25,-73.43
137,1778615359794,0.59,4.36,2.87,-10.62,34.67,165.53
138,1778615359794,0.59,4.36,2.87,-10.62,34.67,165.53
139,1778615359809,0.59,4.36,2.87,-10.62,34.67,165.53
140,1778615359826,0.59,4.36,2.87,-10.62,34.67,165.53
141,1778615359826,0.59,4.36,2.87,-10.62,34.67,165.53
142,1778615359842,0.93,4.63,2.6,122.62,48.77,-38.88
143,1778615359858,-0.75,1.63,3.18,122.62,48.77,-38.88
144,1778615359858,-0.75,1.63,3.18,122.62,48.77,-38.88
145,1778615359874,-0.75,1.63,3.18,242.19,22.4,-87.1
146,1778615359874,-0.75,1.63,3.18,242.19,22.4,-87.1
147,1778615359890,-0.75,1.63,3.18,242.19,22.4,-87.1
148,1778615359907,-1.0,1.07,3.65,391.85,81.54,128.42
149,1778615359907,-1.0,1.07,3.65,391.85,81.54,128.42
150,1778615359923,-1.0,1.07,3.65,391.85,81.54,128.42
151,1778615359923,-1.0,1.07,3.65,391.85,81.54,128.42
152,1778615359939,-0.86,1.28,4.08,490.72,55.42,119.69
153,1778615359955,-0.86,1.28,4.08,490.72,55.42,119.69
154,1778615359955,-0.86,1.28,4.08,490.72,55.42,119.69
155,1778615359971,-0.86,1.28,4.08,490.72,55.42,119.69
156,1778615359988,-0.85,0.97,5.01,529.3,109.07,43.76
157,1778615359988,-0.85,0.97,5.01,529.3,109.07,43.76
158,1778615360004,-0.85,0.97,5.01,529.3,109.07,43.76
159,1778615360004,-0.85,0.97,5.01,529.3,109.07,43.76
160,1778615360020,-0.94,-0.07,4.23,533.45,166.2,66.16
161,1778615360036,-0.94,-0.07,4.23,533.45,166.2,66.16
162,1778615360036,-0.94,-0.07,4.23,533.45,166.2,66.16
163,1778615360052,-0.7,-0.33,3.03,511.35,128.23,136.96
164,1778615360068,-0.7,-0.33,3.03,511.35,128.23,136.96
165,1778615360068,-0.7,-0.33,3.03,511.35,128.23,136.96
166,1778615360084,-0.7,-0.33,3.03,511.35,128.23,136.96
167,1778615360084,-0.7,-0.33,3.03,511.35,128.23,136.96
168,1778615360100,-0.36,-0.25,2.35,479.06,81.05,151.98
169,1778615360116,-0.36,-0.25,2.35,479.06,81.05,151.98
170,1778615360116,-0.36,-0.25,2.35,479.06,81.05,151.98
171,1778615360132,-0.36,-0.25,2.35,479.06,81.05,151.98
172,1778615360148,-0.36,-0.25,2.35,479.06,81.05,151.98
173,1778615360148,-0.36,-0.25,2.35,479.06,81.05,151.98
174,1778615360164,0.02,-0.33,1.15,321.35,96.25,20.14
175,1778615360164,0.02,-0.33,1.15,321.35,96.25,20.14
176,1778615360180,0.02,-0.33,1.15,321.35,96.25,20.14
177,1778615360196,0.02,-0.33,1.15,321.35,96.25,20.14
178,1778615360196,0.02,-0.33,1.15,321.35,96.25,20.14
179,1778615360212,0.36,-0.45,0.93,285.64,74.28,51.27
180,1778615360228,0.36,-0.45,0.93,285.64,74.28,51.27
181,1778615360228,0.36,-0.45,0.93,285.64,74.28,51.27
182,1778615360244,0.36,-0.45,0.93,285.64,74.28,51.27
183,1778615360244,0.36,-0.45,0.93,285.64,74.28,51.27
184,1778615360261,0.84,-0.35,0.74,249.88,73.85,18.31
185,1778615360277,0.84,-0.35,0.74,249.88,73.85,18.31
186,1778615360277,0.84,-0.35,0.74,249.88,73.85,18.31
187,1778615360293,1.07,-0.98,0.0,200.99,71.17,-10.8
188,1778615360293,1.07,-0.98,0.0,200.99,71.17,-10.8
189,1778615360309,1.07,-0.98,0.0,200.99,71.17,-10.8
190,1778615360326,1.07,-0.98,0.0,200.99,71.17,-10.8
191,1778615360326,1.07,-0.98,0.0,200.99,71.17,-10.8
192,1778615360342,1.07,-0.98,0.0,200.99,71.17,-10.8
193,1778615360358,1.07,-0.98,0.0,200.99,71.17,-10.8
194,1778615360358,1.07,-0.98,0.0,200.99,71.17,-10.8
195,1778615360375,1.07,-0.98,0.0,200.99,71.17,-10.8
196,1778615360375,1.07,-0.98,0.0,200.99,71.17,-10.8
197,1778615360391,1.07,-0.98,0.0,200.99,71.17,-10.8
198,1778615360407,1.07,-0.98,0.0,200.99,71.17,-10.8
199,1778615360407,1.07,-0.98,0.0,200.99,71.17,-10.8
200,1778615360423,1.07,-0.98,0.0,200.99,71.17,-10.8
201,1778615360423,1.07,-0.98,0.0,200.99,71.17,-10.8
202,1778615360439,0.99,-1.5,-0.46,-18.86,-22.22,40.53
203,1778615360456,0.99,-1.5,-0.46,-18.86,-22.22,40.53
204,1778615360456,0.99,-1.5,-0.46,-18.86,-22.22,40.53
205,1778615360472,0.95,-1.43,-0.17,-62.01,-43.76,39.49
206,1778615360488,0.95,-1.43,-0.17,-62.01,-43.76,39.49
207,1778615360488,0.95,-1.43,-0.17,-62.01,-43.76,39.49
208,1778615360504,0.76,-1.34,0.13,-136.05,-22.4,13.0
209,1778615360504,0.76,-1.34,0.13,-136.05,-22.4,13.0
210,1778615360520,0.76,-1.34,0.13,-136.05,-22.4,13.0
211,1778615360536,0.59,-1.27,0.23,-210.57,-22.95,11.66
212,1778615360536,0.59,-1.27,0.23,-210.57,-22.95,11.66
213,1778615360552,0.59,-1.27,0.23,-210.57,-22.95,11.66
214,1778615360568,0.42,-0.87,0.79,-248.29,-37.11,-4.21
215,1778615360568,0.42,-0.87,0.79,-248.29,-37.11,-4.21
216,1778615360585,0.42,-0.87,0.79,-248.29,-37.11,-4.21
217,1778615360585,0.42,-0.87,0.79,-248.29,-37.11,-4.21
218,1778615360601,0.42,-0.87,0.79,-248.29,-37.11,-4.21
219,1778615360617,0.1,-0.75,1.03,-248.29,-37.11,-4.21
220,1778615360617,0.1,-0.75,1.03,-248.29,-37.11,-4.21
221,1778615360633,0.1,-0.75,1.03,-326.66,-27.59,-52.98
222,1778615360633,0.1,-0.75,1.03,-326.66,-27.59,-52.98
223,1778615360649,0.1,-0.75,1.03,-326.66,-27.59,-52.98
224,1778615360666,-0.31,-0.68,1.47,-369.38,-91.61,-16.36
225,1778615360666,-0.31,-0.68,1.47,-369.38,-91.61,-16.36
226,1778615360682,-0.31,-0.68,1.47,-369.38,-91.61,-16.36
227,1778615360698,-0.54,-0.37,2.23,-471.68,-69.09,-97.11
228,1778615360698,-0.54,-0.37,2.23,-471.68,-69.09,-97.11
229,1778615360714,-0.54,-0.37,2.23,-471.68,-69.09,-97.11
230,1778615360714,-0.54,-0.37,2.23,-471.68,-69.09,-97.11
231,1778615360729,-0.92,-0.63,3.5,-474.3,-141.54,19.84
232,1778615360745,-0.92,-0.63,3.5,-474.3,-141.54,19.84
233,1778615360745,-0.92,-0.63,3.5,-474.3,-141.54,19.84
234,1778615360761,-0.92,-0.63,3.5,-474.3,-141.54,19.84
235,1778615360778,-0.59,0.65,4.55,-502.01,-73.3,16.72
236,1778615360778,-0.59,0.65,4.55,-502.01,-73.3,16.72
237,1778615360794,-0.59,0.65,4.55,-502.01,-73.3,16.72
238,1778615360794,-0.59,0.65,4.55,-502.01,-73.3,16.72
239,1778615360810,-0.42,0.48,4.96,-488.89,-63.66,90.45
240,1778615360826,-0.42,0.48,4.96,-488.89,-63.66,90.45
241,1778615360826,-0.42,0.48,4.96,-488.89,-63.66,90.45
242,1778615360842,0.54,2.25,5.21,-423.46,-4.64,141.42
243,1778615360858,0.54,2.25,5.21,-423.46,-4.64,141.42
244,1778615360858,0.54,2.25,5.21,-423.46,-4.64,141.42
245,1778615360875,1.18,2.16,4.21,-479.31,97.41,-40.83
246,1778615360875,1.18,2.16,4.21,-479.31,97.41,-40.83
247,1778615360891,1.18,2.16,4.21,-479.31,97.41,-40.83
248,1778615360907,1.08,2.83,3.28,-429.57,80.87,-125.92
249,1778615360907,1.08,2.83,3.28,-429.57,80.87,-125.92
250,1778615360923,1.08,2.83,3.28,-429.57,80.87,-125.92
251,1778615360923,1.08,2.83,3.28,-429.57,80.87,-125.92
252,1778615360940,0.26,2.14,2.72,-338.81,42.24,-147.03
253,1778615360956,0.26,2.14,2.72,-338.81,42.24,-147.03
254,1778615360956,0.26,2.14,2.72,-338.81,42.24,-147.03
255,1778615360972,0.54,2.73,2.69,-118.04,18.68,147.09
256,1778615360989,0.54,2.73,2.69,-118.04,18.68,147.09
257,1778615360989,0.54,2.73,2.69,-118.04,18.68,147.09
258,1778615361005,2.42,4.53,1.32,-118.04,18.68,147.09
259,1778615361005,2.42,4.53,1.32,-118.04,18.68,147.09
260,1778615361020,2.42,4.53,1.32,40.34,73.0,195.13
261,1778615361037,2.42,4.53,1.32,40.34,73.0,195.13
262,1778615361037,2.42,4.53,1.32,40.34,73.0,195.13
263,1778615361053,1.92,3.99,1.22,91.19,-32.84,10.44
264,1778615361053,1.92,3.99,1.22,91.19,-32.84,10.44
265,1778615361069,1.92,3.99,1.22,91.19,-32.84,10.44
266,1778615361085,0.52,2.41,3.27,228.94,-133.3,-125.18
267,1778615361085,0.52,2.41,3.27,228.94,-133.3,-125.18
268,1778615361101,0.52,2.41,3.27,228.94,-133.3,-125.18
269,1778615361118,-0.05,1.73,4.22,377.44,-26.18,-75.99
270,1778615361118,-0.05,1.73,4.22,377.44,-26.18,-75.99
271,1778615361133,-0.05,1.73,4.22,377.44,-26.18,-75.99
272,1778615361133,-0.05,1.73,4.22,377.44,-26.18,-75.99
273,1778615361149,-0.05,1.73,4.22,377.44,-26.18,-75.99
274,1778615361165,-0.18,1.3,4.62,493.96,4.94,-45.29
275,1778615361165,-0.18,1.3,4.62,493.96,4.94,-45.29
276,1778615361181,-0.18,1.3,4.62,493.96,4.94,-45.29
277,1778615361198,-0.36,1.02,4.87,587.1,-6.9,-8.36
278,1778615361198,-0.36,1.02,4.87,587.1,-6.9,-8.36
279,1778615361214,-0.36,1.02,4.87,587.1,-6.9,-8.36
280,1778615361214,-0.36,1.02,4.87,587.1,-6.9,-8.36
281,1778615361229,-0.38,0.67,4.61,583.31,43.64,-24.35
282,1778615361245,-0.38,0.67,4.61,583.31,43.64,-24.35
283,1778615361245,-0.38,0.67,4.61,583.31,43.64,-24.35
284,1778615361261,-0.38,0.67,4.61,583.31,43.64,-24.35
285,1778615361277,-0.38,-0.0,3.64,556.7,84.35,-6.29
286,1778615361277,-0.38,-0.0,3.64,556.7,84.35,-6.29
287,1778615361293,-0.38,-0.0,3.64,556.7,84.35,-6.29
288,1778615361293,-0.38,-0.0,3.64,556.7,84.35,-6.29
289,1778615361310,-0.19,-0.2,2.02,500.24,68.73,37.9
290,1778615361326,-0.19,-0.2,2.02,500.24,68.73,37.9
291,1778615361326,-0.19,-0.2,2.02,500.24,68.73,37.9
292,1778615361342,-0.19,-0.2,2.02,500.24,68.73,37.9
293,1778615361358,0.02,-0.12,0.96,425.72,30.82,19.84
294,1778615361358,0.02,-0.12,0.96,425.72,30.82,19.84
295,1778615361374,0.02,-0.12,0.96,425.72,30.82,19.84
296,1778615361374,0.02,-0.12,0.96,425.72,30.82,19.84
297,1778615361390,-0.11,-0.26,0.98,342.77,1.71,-25.15
298,1778615361407,-0.11,-0.26,0.98,342.77,1.71,-25.15
299,1778615361407,-0.11,-0.26,0.98,342.77,1.71,-25.15
300,1778615361423,0.54,-0.04,1.31,328.43,25.82,63.84
301,1778615361423,0.54,-0.04,1.31,328.43,25.82,63.84
302,1778615361439,0.54,-0.04,1.31,328.43,25.82,63.84
303,1778615361455,0.54,-0.04,1.31,328.43,25.82,63.84
304,1778615361455,0.54,-0.04,1.31,328.43,25.82,63.84
305,1778615361472,0.87,-0.12,0.62,215.64,65.92,-73.3
306,1778615361487,0.87,-0.12,0.62,215.64,65.92,-73.3
307,1778615361487,0.87,-0.12,0.62,215.64,65.92,-73.3
308,1778615361504,0.75,-1.46,0.53,191.35,62.13,-53.1
309,1778615361504,0.75,-1.46,0.53,191.35,62.13,-53.1
310,1778615361520,0.75,-1.46,0.53,191.35,62.13,-53.1
311,1778615361536,0.83,-1.03,0.3,148.99,44.92,15.26
312,1778615361536,0.83,-1.03,0.3,148.99,44.92,15.26
313,1778615361552,0.83,-1.03,0.3,148.99,44.92,15.26
314,1778615361568,0.83,-1.03,0.3,148.99,44.92,15.26
315,1778615361568,0.83,-1.03,0.3,148.99,44.92,15.26
316,1778615361585,0.8,-1.63,-0.11,78.06,42.79,-24.35
317,1778615361585,0.8,-1.63,-0.11,78.06,42.79,-24.35
318,1778615361601,0.8,-1.63,-0.11,78.06,42.79,-24.35
319,1778615361617,0.78,-1.79,-0.64,16.6,8.24,58.11
320,1778615361617,0.78,-1.79,-0.64,16.6,8.24,58.11
321,1778615361633,0.78,-1.79,-0.64,16.6,8.24,58.11
322,1778615361633,0.78,-1.79,-0.64,16.6,8.24,58.11
323,1778615361649,0.97,-1.5,-0.26,-41.2,20.32,56.09
324,1778615361666,0.97,-1.5,-0.26,-41.2,20.32,56.09
325,1778615361666,0.97,-1.5,-0.26,-41.2,20.32,56.09
326,1778615361682,1.01,-1.58,-0.47,-138.37,23.01,30.03
327,1778615361698,1.01,-1.58,-0.47,-138.37,23.01,30.03
328,1778615361698,1.01,-1.58,-0.47,-138.37,23.01,30.03
329,1778615361714,1.01,-1.58,-0.47,-138.37,23.01,30.03
330,1778615361714,1.01,-1.58,-0.47,-138.37,23.01,30.03
331,1778615361729,0.81,-1.25,-0.1,-203.86,-44.56,10.31
332,1778615361745,0.81,-1.25,-0.1,-203.86,-44.56,10.31
333,1778615361745,0.81,-1.25,-0.1,-203.86,-44.56,10.31
334,1778615361761,0.43,-0.75,0.57,-277.22,-43.52,-39.31
335,1778615361777,0.43,-0.75,0.57,-277.22,-43.52,-39.31
336,1778615361777,0.43,-0.75,0.57,-277.22,-43.52,-39.31
337,1778615361793,0.43,-0.75,0.57,-277.22,-43.52,-39.31
338,1778615361793,0.43,-0.75,0.57,-277.22,-43.52,-39.31
339,1778615361810,0.03,-0.59,0.87,-321.11,-60.67,-66.53
340,1778615361826,0.03,-0.59,0.87,-321.11,-60.67,-66.53
341,1778615361826,0.03,-0.59,0.87,-321.11,-60.67,-66.53
342,1778615361842,-0.37,-0.48,1.38,-347.17,-76.05,-49.62
343,1778615361842,-0.37,-0.48,1.38,-347.17,-76.05,-49.62
344,1778615361859,-0.37,-0.48,1.38,-347.17,-76.05,-49.62
345,1778615361875,-0.51,-0.24,1.66,-347.17,-76.05,-49.62
346,1778615361875,-0.51,-0.24,1.66,-347.17,-76.05,-49.62
347,1778615361891,-0.51,-0.24,1.66,-433.41,-26.49,-144.35
348,1778615361907,-0.51,-0.24,1.66,-433.41,-26.49,-144.35
349,1778615361907,-0.51,-0.24,1.66,-433.41,-26.49,-144.35
350,1778615361924,-0.83,-0.24,2.74,-423.95,-128.48,-53.34
351,1778615361924,-0.83,-0.24,2.74,-423.95,-128.48,-53.34
352,1778615361939,-0.83,-0.24,2.74,-423.95,-128.48,-53.34
353,1778615361956,-0.81,0.37,3.38,-482.73,-59.14,-86.36
354,1778615361956,-0.81,0.37,3.38,-482.73,-59.14,-86.36
355,1778615361972,-0.81,0.37,3.38,-482.73,-59.14,-86.36
356,1778615361988,-0.81,0.37,3.38,-482.73,-59.14,-86.36
357,1778615361988,-0.81,0.37,3.38,-482.73,-59.14,-86.36
358,1778615362005,-0.8,0.1,3.51,-491.21,-116.15,-79.22
359,1778615362005,-0.8,0.1,3.51,-491.21,-116.15,-79.22
360,1778615362020,-0.8,0.1,3.51,-491.21,-116.15,-79.22
361,1778615362036,-0.26,0.03,3.9,-525.51,-76.35,-35.95
362,1778615362036,-0.26,0.03,3.9,-525.51,-76.35,-35.95
363,1778615362053,-0.26,0.03,3.9,-525.51,-76.35,-35.95
364,1778615362053,-0.26,0.03,3.9,-525.51,-76.35,-35.95
365,1778615362069,0.58,0.76,4.7,-490.23,-167.66,43.52
366,1778615362086,0.58,0.76,4.7,-490.23,-167.66,43.52
367,1778615362086,0.58,0.76,4.7,-490.23,-167.66,43.52
368,1778615362102,0.59,2.29,4.72,-490.23,-167.66,43.52
369,1778615362118,0.59,2.29,4.72,-488.22,-94.79,-76.35
370,1778615362118,0.59,2.29,4.72,-488.22,-94.79,-76.35
371,1778615362133,0.59,2.29,4.72,-488.22,-94.79,-76.35
372,1778615362133,0.59,2.29,4.72,-488.22,-94.79,-76.35
373,1778615362150,-0.01,3.39,4.02,-340.58,-59.14,-124.76
374,1778615362165,-0.01,3.39,4.02,-340.58,-59.14,-124.76
375,1778615362165,-0.01,3.39,4.02,-340.58,-59.14,-124.76
376,1778615362181,-0.66,3.08,2.85,-340.58,-59.14,-124.76
377,1778615362197,-0.66,3.08,2.85,-155.15,57.8,-92.47
378,1778615362197,-0.66,3.08,2.85,-155.15,57.8,-92.47
379,1778615362213,-0.66,3.08,2.85,-155.15,57.8,-92.47
380,1778615362213,-0.66,3.08,2.85,-155.15,57.8,-92.47
381,1778615362229,0.29,3.75,1.69,74.28,48.83,191.04
382,1778615362245,0.29,3.75,1.69,74.28,48.83,191.04
383,1778615362245,0.29,3.75,1.69,74.28,48.83,191.04
384,1778615362261,0.36,3.6,2.2,175.23,23.74,-11.29
385,1778615362278,0.36,3.6,2.2,175.23,23.74,-11.29
386,1778615362278,0.36,3.6,2.2,175.23,23.74,-11.29
387,1778615362293,-0.75,1.6,3.47,284.91,51.82,-132.87
388,1778615362293,-0.75,1.6,3.47,284.91,51.82,-132.87
389,1778615362310,-0.75,1.6,3.47,284.91,51.82,-132.87
390,1778615362326,-0.75,1.6,3.47,284.91,51.82,-132.87
391,1778615362326,-0.75,1.6,3.47,284.91,51.82,-132.87
392,1778615362342,-0.89,0.97,3.63,379.64,148.44,33.51
393,1778615362358,-0.89,0.97,3.63,379.64,148.44,33.51
394,1778615362358,-0.89,0.97,3.63,379.64,148.44,33.51
395,1778615362375,-0.86,0.93,3.98,472.11,131.16,115.48
396,1778615362375,-0.86,0.93,3.98,472.11,131.16,115.48
397,1778615362391,-0.86,0.93,3.98,472.11,131.16,115.48
398,1778615362407,-0.85,0.8,4.0,553.53,118.84,178.22
399,1778615362407,-0.85,0.8,4.0,553.53,118.84,178.22
400,1778615362423,-0.85,0.8,4.0,553.53,118.84,178.22
401,1778615362423,-0.85,0.8,4.0,553.53,118.84,178.22
402,1778615362440,-0.85,0.8,4.0,553.53,118.84,178.22
403,1778615362456,-0.7,0.98,4.01,575.74,123.23,146.85
404,1778615362456,-0.7,0.98,4.01,575.74,123.23,146.85
405,1778615362472,-0.7,0.98,4.01,575.74,123.23,146.85
406,1778615362488,-0.7,0.98,4.01,575.74,123.23,146.85
407,1778615362488,-0.7,0.98,4.01,575.74,123.23,146.85
408,1778615362504,-0.53,0.05,3.0,558.35,131.59,130.25
409,1778615362504,-0.53,0.05,3.0,558.35,131.59,130.25
410,1778615362520,-0.53,0.05,3.0,558.35,131.59,130.25
411,1778615362536,-0.23,-0.05,1.91,517.4,81.05,158.94
412,1778615362536,-0.23,-0.05,1.91,517.4,81.05,158.94
413,1778615362553,-0.23,-0.05,1.91,517.4,81.05,158.94
414,1778615362553,-0.23,-0.05,1.91,517.4,81.05,158.94
415,1778615362569,-0.04,0.05,1.41,403.99,50.29,74.4
416,1778615362585,-0.04,0.05,1.41,403.99,50.29,74.4
417,1778615362585,-0.04,0.05,1.41,403.99,50.29,74.4
418,1778615362601,-0.07,-0.11,1.34,338.44,40.71,44.98
419,1778615362616,-0.07,-0.11,1.34,338.44,40.71,44.98
420,1778615362616,-0.07,-0.11,1.34,338.44,40.71,44.98
421,1778615362632,-0.07,-0.11,1.34,338.44,40.71,44.98
422,1778615362648,0.26,-0.32,0.95,295.47,66.89,34.0
423,1778615362648,0.26,-0.32,0.95,295.47,66.89,34.0
424,1778615362664,0.26,-0.32,0.95,295.47,66.89,34.0
425,1778615362664,0.26,-0.32,0.95,295.47,66.89,34.0
426,1778615362680,0.56,-0.8,0.65,243.59,42.6,-13.61
427,1778615362696,0.56,-0.8,0.65,243.59,42.6,-13.61
428,1778615362696,0.56,-0.8,0.65,243.59,42.6,-13.61
429,1778615362712,0.89,-1.12,0.29,193.73,81.67,-1.4
430,1778615362728,0.89,-1.12,0.29,193.73,81.67,-1.4
431,1778615362728,0.89,-1.12,0.29,193.73,81.67,-1.4
432,1778615362744,0.89,-1.12,0.29,193.73,81.67,-1.4
433,1778615362744,0.89,-1.12,0.29,193.73,81.67,-1.4
434,1778615362760,1.27,-1.39,-0.23,142.94,3.11,26.06
435,1778615362777,1.27,-1.39,-0.23,142.94,3.11,26.06
436,1778615362777,1.27,-1.39,-0.23,142.94,3.11,26.06
437,1778615362793,1.22,-1.51,-0.06,142.94,3.11,26.06
438,1778615362793,1.22,-1.51,-0.06,142.94,3.11,26.06
439,1778615362809,1.22,-1.51,-0.06,49.44,4.64,-17.88
440,1778615362825,1.01,-1.73,-0.29,49.44,4.64,-17.88
441,1778615362825,1.01,-1.73,-0.29,49.44,4.64,-17.88
442,1778615362841,1.01,-1.73,-0.29,-32.71,-16.3,9.89
443,1778615362857,1.01,-1.73,-0.29,-32.71,-16.3,9.89
444,1778615362857,1.01,-1.73,-0.29,-32.71,-16.3,9.89
445,1778615362874,0.91,-1.32,-0.09,-92.65,-56.21,42.11
446,1778615362874,0.91,-1.32,-0.09,-92.65,-56.21,42.11
447,1778615362890,0.91,-1.32,-0.09,-92.65,-56.21,42.11
448,1778615362906,0.91,-1.32,-0.09,-92.65,-56.21,42.11
449,1778615362906,0.91,-1.32,-0.09,-92.65,-56.21,42.11
450,1778615362922,0.63,-1.16,0.03,-173.34,-42.97,0.55
451,1778615362922,0.63,-1.16,0.03,-173.34,-42.97,0.55
452,1778615362939,0.63,-1.16,0.03,-173.34,-42.97,0.55
453,1778615362955,0.25,-1.02,0.25,-220.52,-61.89,7.14
454,1778615362955,0.25,-1.02,0.25,-220.52,-61.89,7.14
455,1778615362971,0.25,-1.02,0.25,-220.52,-61.89,7.14
456,1778615362988,-0.01,-0.61,0.66,-269.84,-40.41,-8.42
457,1778615362988,-0.01,-0.61,0.66,-269.84,-40.41,-8.42
458,1778615363004,-0.01,-0.61,0.66,-269.84,-40.41,-8.42
459,1778615363004,-0.01,-0.61,0.66,-269.84,-40.41,-8.42
460,1778615363019,-0.17,-0.5,0.86,-325.26,-10.56,-40.53
461,1778615363035,-0.17,-0.5,0.86,-325.26,-10.56,-40.53
462,1778615363035,-0.17,-0.5,0.86,-325.26,-10.56,-40.53
463,1778615363052,-0.17,-0.5,0.86,-325.26,-10.56,-40.53
464,1778615363068,-0.18,-0.48,1.19,-351.26,-36.56,-2.75
465,1778615363068,-0.18,-0.48,1.19,-351.26,-36.56,-2.75
466,1778615363084,-0.18,-0.48,1.19,-351.26,-36.56,-2.75
467,1778615363084,-0.18,-0.48,1.19,-351.26,-36.56,-2.75
468,1778615363100,-0.18,-0.48,1.19,-351.26,-36.56,-2.75
469,1778615363116,-0.03,0.18,1.65,-425.66,-7.75,-88.07
470,1778615363116,-0.03,0.18,1.65,-425.66,-7.75,-88.07
471,1778615363132,-0.36,-0.28,1.77,-467.9,-62.07,-134.77
472,1778615363148,-0.36,-0.28,1.77,-467.9,-62.07,-134.77
473,1778615363148,-0.36,-0.28,1.77,-467.9,-62.07,-134.77
474,1778615363164,-0.2,-0.71,2.73,-413.94,-178.47,47.85
475,1778615363164,-0.2,-0.71,2.73,-413.94,-178.47,47.85
476,1778615363180,-0.2,-0.71,2.73,-413.94,-178.47,47.85
477,1778615363196,-0.2,-0.71,2.73,-413.94,-178.47,47.85
478,1778615363196,-0.2,-0.71,2.73,-413.94,-178.47,47.85
479,1778615363212,0.45,0.73,4.44,-367.98,-187.93,185.18
480,1778615363228,0.45,0.73,4.44,-367.98,-187.93,185.18
481,1778615363228,0.45,0.73,4.44,-367.98,-187.93,185.18
482,1778615363244,0.16,1.26,3.93,-566.53,-0.43,-81.36
483,1778615363244,0.16,1.26,3.93,-566.53,-0.43,-81.36
484,1778615363260,0.16,1.26,3.93,-566.53,-0.43,-81.36
485,1778615363277,0.23,0.53,5.04,-497.44,-45.72,-55.66
486,1778615363277,0.23,0.53,5.04,-497.44,-45.72,-55.66
487,1778615363293,0.23,0.53,5.04,-497.44,-45.72,-55.66
488,1778615363293,0.23,0.53,5.04,-497.44,-45.72,-55.66
489,1778615363309,0.23,0.53,5.04,-497.44,-45.72,-55.66
490,1778615363326,0.23,0.53,5.04,-497.44,-45.72,-55.66
491,1778615363326,0.23,0.53,5.04,-497.44,-45.72,-55.66
492,1778615363341,1.33,3.05,4.08,-394.41,71.04,64.27
493,1778615363358,1.18,3.54,2.2,-371.7,51.76,-110.23
494,1778615363358,1.18,3.54,2.2,-371.7,51.76,-110.23
495,1778615363374,1.18,3.54,2.2,-371.7,51.76,-110.23
496,1778615363374,1.18,3.54,2.2,-371.7,51.76,-110.23
497,1778615363390,0.4,3.82,1.93,-182.86,-18.68,-52.12
498,1778615363406,0.4,3.82,1.93,-182.86,-18.68,-52.12
499,1778615363406,0.4,3.82,1.93,-182.86,-18.68,-52.12
500,1778615363423,0.4,3.82,1.93,-182.86,-18.68,-52.12
501,1778615363423,0.4,3.82,1.93,-182.86,-18.68,-52.12
502,1778615363439,0.99,4.69,1.93,39.0,1.71,56.58
503,1778615363455,0.66,3.71,2.29,122.62,-2.38,-110.23
504,1778615363455,0.66,3.71,2.29,122.62,-2.38,-110.23
505,1778615363471,0.66,3.71,2.29,122.62,-2.38,-110.23
506,1778615363487,0.66,3.71,2.29,122.62,-2.38,-110.23
507,1778615363487,0.66,3.71,2.29,122.62,-2.38,-110.23
508,1778615363504,-0.12,1.71,2.66,227.72,27.1,-140.5
509,1778615363504,-0.12,1.71,2.66,227.72,27.1,-140.5
510,1778615363520,-0.12,1.71,2.66,227.72,27.1,-140.5
511,1778615363536,-0.29,1.41,2.89,333.37,67.32,-22.4
512,1778615363536,-0.29,1.41,2.89,333.37,67.32,-22.4
513,1778615363552,-0.29,1.41,2.89,333.37,67.32,-22.4
514,1778615363568,-0.21,1.44,3.32,390.32,67.44,-33.63
515,1778615363568,-0.21,1.44,3.32,390.32,67.44,-33.63
516,1778615363584,-0.21,1.44,3.32,390.32,67.44,-33.63
517,1778615363584,-0.21,1.44,3.32,390.32,67.44,-33.63
518,1778615363600,-0.21,1.44,3.32,390.32,67.44,-33.63
519,1778615363616,-0.38,0.92,3.59,425.66,72.33,-44.25
520,1778615363616,-0.38,0.92,3.59,425.66,72.33,-44.25
521,1778615363632,-0.38,0.92,3.59,425.66,72.33,-44.25
522,1778615363648,-0.12,0.97,3.94,469.18,109.62,-24.29
523,1778615363648,-0.12,0.97,3.94,469.18,109.62,-24.29
524,1778615363664,-0.12,0.97,3.94,469.18,109.62,-24.29
525,1778615363664,-0.12,0.97,3.94,469.18,109.62,-24.29
526,1778615363680,-0.12,0.97,3.94,469.18,109.62,-24.29
527,1778615363696,0.01,0.23,3.29,430.73,186.71,-64.45
528,1778615363696,0.01,0.23,3.29,430.73,186.71,-64.45
529,1778615363712,0.01,0.23,3.29,430.73,186.71,-64.45
530,1778615363712,0.01,0.23,3.29,430.73,186.71,-64.45
531,1778615363728,0.01,-0.1,2.1,414.06,187.01,-8.42
532,1778615363744,0.01,-0.1,2.1,414.06,187.01,-8.42
533,1778615363744,0.01,-0.1,2.1,414.06,187.01,-8.42
534,1778615363761,-0.06,0.01,1.42,374.51,161.07,2.93
535,1778615363777,-0.06,0.01,1.42,374.51,161.07,2.93
536,1778615363777,-0.06,0.01,1.42,374.51,161.07,2.93
537,1778615363793,-0.06,0.01,1.42,374.51,161.07,2.93
538,1778615363793,-0.06,0.01,1.42,374.51,161.07,2.93
539,1778615363809,-0.06,0.01,1.42,374.51,161.07,2.93
540,1778615363825,-0.06,0.01,1.42,374.51,161.07,2.93
541,1778615363825,-0.06,0.01,1.42,374.51,161.07,2.93
542,1778615363842,0.17,0.13,1.2,322.51,146.55,16.24
543,1778615363858,0.17,0.13,1.2,322.51,146.55,16.24
544,1778615363858,0.17,0.13,1.2,322.51,146.55,16.24
545,1778615363874,0.43,-0.15,1.03,303.28,156.86,56.34
546,1778615363874,0.43,-0.15,1.03,303.28,156.86,56.34
547,1778615363890,0.43,-0.15,1.03,303.28,156.86,56.34
548,1778615363906,0.43,-0.15,1.03,303.28,156.86,56.34
549,1778615363906,0.43,-0.15,1.03,303.28,156.86,56.34
550,1778615363922,1.2,-0.48,0.42,302.31,115.48,81.85
551,1778615363938,1.2,-0.48,0.42,302.31,115.48,81.85
552,1778615363938,1.2,-0.48,0.42,302.31,115.48,81.85
553,1778615363955,1.66,-0.98,-0.21,241.09,54.63,-8.67
554,1778615363955,1.66,-0.98,-0.21,241.09,54.63,-8.67
555,1778615363971,1.66,-0.98,-0.21,241.09,54.63,-8.67
556,1778615363987,1.5,-1.3,-0.46,241.09,54.63,-8.67
557,1778615363987,1.5,-1.3,-0.46,241.09,54.63,-8.67
558,1778615364003,1.5,-1.3,-0.46,148.74,8.12,-77.45
559,1778615364003,1.5,-1.3,-0.46,148.74,8.12,-77.45
560,1778615364019,1.5,-1.3,-0.46,148.74,8.12,-77.45
561,1778615364035,0.95,-1.34,-0.34,90.94,-37.17,-48.89
562,1778615364035,0.95,-1.34,-0.34,90.94,-37.17,-48.89
563,1778615364052,0.95,-1.34,-0.34,90.94,-37.17,-48.89
564,1778615364068,0.86,-1.12,-0.22,28.87,-30.09,-3.3
565,1778615364068,0.86,-1.12,-0.22,28.87,-30.09,-3.3
566,1778615364084,0.86,-1.12,-0.22,28.87,-30.09,-3.3
567,1778615364084,0.86,-1.12,-0.22,28.87,-30.09,-3.3
568,1778615364099,0.82,-1.06,-0.3,28.87,-30.09,-3.3
569,1778615364115,0.82,-1.06,-0.3,-20.57,-22.58,11.72
570,1778615364115,0.82,-1.06,-0.3,-20.57,-22.58,11.72
571,1778615364132,0.82,-1.06,-0.3,-20.57,-22.58,11.72
572,1778615364148,0.76,-1.17,-0.3,-74.04,-29.79,17.15
573,1778615364148,0.76,-1.17,-0.3,-74.04,-29.79,17.15
574,1778615364163,0.76,-1.17,-0.3,-74.04,-29.79,17.15
575,1778615364163,0.76,-1.17,-0.3,-74.04,-29.79,17.15
576,1778615364180,0.72,-1.09,-0.1,-133.85,-32.47,34.48
577,1778615364196,0.72,-1.09,-0.1,-133.85,-32.47,34.48
578,1778615364196,0.72,-1.09,-0.1,-133.85,-32.47,34.48
579,1778615364212,0.71,-0.92,0.04,-133.85,-32.47,34.48
580,1778615364228,0.71,-0.92,0.04,-194.27,-33.33,20.14
581,1778615364228,0.71,-0.92,0.04,-194.27,-33.33,20.14
582,1778615364244,0.71,-0.92,0.04,-194.27,-33.33,20.14
583,1778615364244,0.71,-0.92,0.04,-194.27,-33.33,20.14
584,1778615364261,0.57,-0.85,0.21,-248.9,-69.03,5.62
585,1778615364277,0.57,-0.85,0.21,-248.9,-69.03,5.62
586,1778615364277,0.57,-0.85,0.21,-248.9,-69.03,5.62
587,1778615364293,0.4,-0.85,0.54,-300.9,-114.38,14.16
588,1778615364293,0.4,-0.85,0.54,-300.9,-114.38,14.16
589,1778615364310,0.4,-0.85,0.54,-300.9,-114.38,14.16
590,1778615364326,0.4,-0.85,0.54,-300.9,-114.38,14.16
591,1778615364326,0.4,-0.85,0.54,-300.9,-114.38,14.16
592,1778615364342,0.34,-1.02,0.96,-331.05,-175.54,40.77
593,1778615364358,0.34,-1.02,0.96,-331.05,-175.54,40.77
594,1778615364358,0.34,-1.02,0.96,-331.05,-175.54,40.77
595,1778615364374,0.45,-0.92,1.66,-398.74,-191.04,42.3
596,1778615364374,0.45,-0.92,1.66,-398.74,-191.04,42.3
597,1778615364391,0.45,-0.92,1.66,-398.74,-191.04,42.3
598,1778615364407,0.26,-0.5,3.51,-494.02,-198.06,-13.31
599,1778615364407,0.26,-0.5,3.51,-494.02,-198.06,-13.31
600,1778615364424,0.26,-0.5,3.51,-494.02,-198.06,-13.31
601,1778615364424,0.26,-0.5,3.51,-494.02,-198.06,-13.31
602,1778615364440,0.26,-0.5,3.51,-494.02,-198.06,-13.31
603,1778615364456,-0.01,-0.03,4.65,-521.12,-162.23,82.95
604,1778615364456,-0.01,-0.03,4.65,-521.12,-162.23,82.95
605,1778615364472,-0.01,-0.03,4.65,-521.12,-162.23,82.95
606,1778615364472,-0.01,-0.03,4.65,-521.12,-162.23,82.95
607,1778615364489,0.13,0.59,4.96,-489.32,-90.03,167.42
608,1778615364505,0.13,0.59,4.96,-489.32,-90.03,167.42
609,1778615364505,0.13,0.59,4.96,-489.32,-90.03,167.42
610,1778615364520,0.84,1.27,5.02,-443.73,-30.82,141.17
611,1778615364537,0.84,1.27,5.02,-443.73,-30.82,141.17
612,1778615364537,0.84,1.27,5.02,-443.73,-30.82,141.17
613,1778615364553,0.84,1.27,5.02,-443.73,-30.82,141.17
614,1778615364553,0.84,1.27,5.02,-443.73,-30.82,141.17
615,1778615364570,1.5,3.0,4.2,-382.63,2.26,84.23
616,1778615364586,1.5,3.0,4.2,-382.63,2.26,84.23
617,1778615364586,1.5,3.0,4.2,-382.63,2.26,84.23
618,1778615364602,1.28,3.06,2.3,-403.5,13.0,-78.98
619,1778615364618,1.28,3.06,2.3,-403.5,13.0,-78.98
620,1778615364618,1.28,3.06,2.3,-403.5,13.0,-78.98
621,1778615364634,1.28,3.06,2.3,-403.5,13.0,-78.98
622,1778615364634,1.28,3.06,2.3,-403.5,13.0,-78.98
623,1778615364650,0.9,3.83,1.84,-254.46,-91.13,16.24
624,1778615364666,0.9,3.83,1.84,-254.46,-91.13,16.24
625,1778615364666,0.9,3.83,1.84,-254.46,-91.13,16.24
626,1778615364682,0.85,5.58,2.39,-54.63,-90.39,17.7
627,1778615364698,0.85,5.58,2.39,-54.63,-90.39,17.7
628,1778615364698,0.85,5.58,2.39,-54.63,-90.39,17.7
629,1778615364714,0.15,3.5,2.58,128.36,-11.11,-101.62
630,1778615364714,0.15,3.5,2.58,128.36,-11.11,-101.62
631,1778615364730,0.15,3.5,2.58,128.36,-11.11,-101.62
632,1778615364746,0.15,3.5,2.58,128.36,-11.11,-101.62
633,1778615364746,0.15,3.5,2.58,128.36,-11.11,-101.62
634,1778615364762,-0.05,1.95,2.38,268.8,31.07,-25.7
635,1778615364762,-0.05,1.95,2.38,268.8,31.07,-25.7
636,1778615364779,-0.05,1.95,2.38,268.8,31.07,-25.7
637,1778615364795,0.11,1.74,2.88,346.5,42.42,-44.37
638,1778615364795,0.11,1.74,2.88,346.5,42.42,-44.37
639,1778615364811,0.11,1.74,2.88,346.5,42.42,-44.37
640,1778615364827,-0.22,1.18,3.2,382.02,68.36,-89.42
641,1778615364827,-0.22,1.18,3.2,382.02,68.36,-89.42
642,1778615364843,-0.22,1.18,3.2,382.02,68.36,-89.42
643,1778615364843,-0.22,1.18,3.2,382.02,68.36,-89.42
644,1778615364860,-0.22,1.18,3.2,382.02,68.36,-89.42
645,1778615364875,-0.27,0.86,3.56,451.23,103.94,17.15
646,1778615364875,-0.27,0.86,3.56,451.23,103.94,17.15
647,1778615364891,-0.27,0.86,3.56,451.23,103.94,17.15
648,1778615364907,-0.05,0.84,3.3,438.48,165.04,-18.98
649,1778615364907,-0.05,0.84,3.3,438.48,165.04,-18.98
650,1778615364923,-0.05,0.84,3.3,438.48,165.04,-18.98
651,1778615364923,-0.05,0.84,3.3,438.48,165.04,-18.98
652,1778615364940,-0.05,0.84,3.3,438.48,165.04,-18.98
653,1778615364956,0.05,0.42,2.28,444.76,158.26,38.09
654,1778615364956,0.05,0.42,2.28,444.76,158.26,38.09
655,1778615364972,0.05,0.42,2.28,444.76,158.26,38.09
656,1778615364988,0.27,0.71,1.94,432.92,117.61,29.6
657,1778615364988,0.27,0.71,1.94,432.92,117.61,29.6
658,1778615365004,0.27,0.71,1.94,432.92,117.61,29.6
659,1778615365004,0.27,0.71,1.94,432.92,117.61,29.6
660,1778615365020,0.24,0.35,1.64,432.92,117.61,29.6
661,1778615365036,0.24,0.35,1.64,394.84,96.86,-24.35
662,1778615365036,0.24,0.35,1.64,394.84,96.86,-24.35
663,1778615365052,0.24,0.35,1.64,394.84,96.86,-24.35
664,1778615365068,0.31,0.39,1.45,366.09,78.49,-25.7
665,1778615365068,0.31,0.39,1.45,366.09,78.49,-25.7
666,1778615365084,0.31,0.39,1.45,366.09,78.49,-25.7
667,1778615365084,0.31,0.39,1.45,366.09,78.49,-25.7
668,1778615365100,0.5,0.07,1.26,326.84,96.19,-69.21
669,1778615365116,0.5,0.07,1.26,326.84,96.19,-69.21
670,1778615365116,0.5,0.07,1.26,326.84,96.19,-69.21
671,1778615365132,0.85,-0.29,0.69,306.34,90.27,-25.51
672,1778615365148,0.85,-0.29,0.69,306.34,90.27,-25.51
673,1778615365148,0.85,-0.29,0.69,306.34,90.27,-25.51
674,1778615365164,0.85,-0.29,0.69,306.34,90.27,-25.51
675,1778615365164,0.85,-0.29,0.69,306.34,90.27,-25.51
676,1778615365180,1.19,-0.46,0.36,270.45,51.33,-34.67
677,1778615365196,1.19,-0.46,0.36,270.45,51.33,-34.67
678,1778615365196,1.19,-0.46,0.36,270.45,51.33,-34.67
679,1778615365212,1.28,-1.38,-0.28,168.58,51.03,-116.76
680,1778615365228,1.28,-1.38,-0.28,168.58,51.03,-116.76
681,1778615365228,1.28,-1.38,-0.28,168.58,51.03,-116.76
682,1778615365244,1.11,-1.15,-0.26,168.58,51.03,-116.76
683,1778615365244,1.11,-1.15,-0.26,168.58,51.03,-116.76
684,1778615365260,1.11,-1.15,-0.26,142.03,-2.69,-33.87
685,1778615365277,1.11,-1.15,-0.26,142.03,-2.69,-33.87
686,1778615365277,1.11,-1.15,-0.26,142.03,-2.69,-33.87
687,1778615365293,1.09,-1.09,-0.28,71.59,9.58,-24.41
688,1778615365293,1.09,-1.09,-0.28,71.59,9.58,-24.41
689,1778615365309,1.09,-1.09,-0.28,71.59,9.58,-24.41
690,1778615365325,1.05,-1.0,-0.25,17.7,-6.59,6.65
691,1778615365325,1.05,-1.0,-0.25,17.7,-6.59,6.65
692,1778615365342,1.05,-1.0,-0.25,17.7,-6.59,6.65
693,1778615365357,0.97,-1.01,-0.19,17.7,-6.59,6.65
694,1778615365357,0.97,-1.01,-0.19,17.7,-6.59,6.65
695,1778615365374,0.97,-1.01,-0.19,-30.94,-14.59,22.89
696,1778615365374,0.97,-1.01,-0.19,-30.94,-14.59,22.89
697,1778615365390,0.97,-1.01,-0.19,-30.94,-14.59,22.89
698,1778615365406,0.93,-1.0,-0.11,-82.89,-31.13,28.26
699,1778615365406,0.93,-1.0,-0.11,-82.89,-31.13,28.26
700,1778615365422,0.93,-1.0,-0.11,-82.89,-31.13,28.26
701,1778615365438,0.85,-0.99,-0.05,-143.31,-65.92,43.46
702,1778615365438,0.85,-0.99,-0.05,-143.31,-65.92,43.46
703,1778615365455,0.85,-0.99,-0.05,-143.31,-65.92,43.46
704,1778615365455,0.85,-0.99,-0.05,-143.31,-65.92,43.46
705,1778615365471,0.8,-0.8,0.2,-223.45,-64.88,10.38
706,1778615365487,0.8,-0.8,0.2,-223.45,-64.88,10.38
707,1778615365487,0.8,-0.8,0.2,-223.45,-64.88,10.38
708,1778615365503,0.8,-0.8,0.2,-223.45,-64.88,10.38
709,1778615365503,0.8,-0.8,0.2,-223.45,-64.88,10.38
710,1778615365519,0.58,-0.84,0.51,-301.76,-97.41,-20.51
711,1778615365535,0.58,-0.84,0.51,-301.76,-97.41,-20.51
712,1778615365535,0.58,-0.84,0.51,-301.76,-97.41,-20.51
713,1778615365551,0.2,-0.79,1.1,-373.17,-125.73,-26.92
714,1778615365567,0.2,-0.79,1.1,-373.17,-125.73,-26.92
715,1778615365567,0.2,-0.79,1.1,-373.17,-125.73,-26.92
716,1778615365582,0.2,-0.79,1.1,-373.17,-125.73,-26.92
717,1778615365582,0.2,-0.79,1.1,-373.17,-125.73,-26.92
718,1778615365599,0.2,-0.79,1.1,-373.17,-125.73,-26.92
719,1778615365614,0.2,-0.79,1.1,-373.17,-125.73,-26.92
720,1778615365614,0.2,-0.79,1.1,-373.17,-125.73,-26.92
721,1778615365630,-0.52,-0.3,2.62,-475.71,-136.78,-18.62
722,1778615365645,-0.52,-0.3,2.62,-475.71,-136.78,-18.62
723,1778615365645,-0.52,-0.3,2.62,-475.71,-136.78,-18.62
724,1778615365660,-0.52,-0.3,2.62,-475.71,-136.78,-18.62
725,1778615365676,-0.8,-0.06,3.39,-518.86,-135.99,-75.74
726,1778615365676,-0.8,-0.06,3.39,-518.86,-135.99,-75.74
727,1778615365692,-0.8,-0.06,3.39,-518.86,-135.99,-75.74
728,1778615365708,-0.83,-0.19,4.19,-500.37,-185.12,3.72
729,1778615365708,-0.83,-0.19,4.19,-500.37,-185.12,3.72
730,1778615365724,-0.83,-0.19,4.19,-500.37,-185.12,3.72
731,1778615365724,-0.83,-0.19,4.19,-500.37,-185.12,3.72
732,1778615365740,-0.35,0.91,4.89,-524.29,-76.54,18.68
733,1778615365755,-0.35,0.91,4.89,-524.29,-76.54,18.68
734,1778615365755,-0.35,0.91,4.89,-524.29,-76.54,18.68
735,1778615365771,-0.35,0.91,4.89,-524.29,-76.54,18.68
736,1778615365788,0.05,1.44,4.68,-483.58,-72.75,-4.52
737,1778615365788,0.05,1.44,4.68,-483.58,-72.75,-4.52
738,1778615365804,0.05,1.44,4.68,-483.58,-72.75,-4.52
739,1778615365804,0.05,1.44,4.68,-483.58,-72.75,-4.52
740,1778615365820,0.59,3.04,3.98,-404.36,-13.79,-99.85
741,1778615365836,0.59,3.04,3.98,-404.36,-13.79,-99.85
742,1778615365836,0.59,3.04,3.98,-404.36,-13.79,-99.85
743,1778615365852,-0.02,2.37,2.8,-317.14,-30.09,-213.01
744,1778615365867,-0.02,2.37,2.8,-317.14,-30.09,-213.01
745,1778615365867,-0.02,2.37,2.8,-317.14,-30.09,-213.01
746,1778615365883,-0.02,2.37,2.8,-317.14,-30.09,-213.01
747,1778615365883,-0.02,2.37,2.8,-317.14,-30.09,-213.01
748,1778615365899,-0.28,2.92,2.24,-133.48,-27.65,-29.54
749,1778615365915,-0.28,2.92,2.24,-133.48,-27.65,-29.54
750,1778615365915,-0.28,2.92,2.24,-133.48,-27.65,-29.54
751,1778615365931,0.48,3.77,1.71,18.92,-13.18,68.73
752,1778615365948,0.48,3.77,1.71,18.92,-13.18,68.73
753,1778615365948,0.48,3.77,1.71,18.92,-13.18,68.73
754,1778615365964,0.09,2.84,2.08,18.92,-13.18,68.73
755,1778615365964,0.09,2.84,2.08,18.92,-13.18,68.73
756,1778615365980,0.09,2.84,2.08,96.25,-37.66,-90.15
757,1778615365997,-0.45,1.71,2.5,169.98,23.5,-121.7
758,1778615365997,-0.45,1.71,2.5,169.98,23.5,-121.7
759,1778615366013,-0.45,1.71,2.5,169.98,23.5,-121.7
760,1778615366013,-0.45,1.71,2.5,169.98,23.5,-121.7
761,1778615366029,-0.6,1.26,2.48,263.18,61.89,-29.85
762,1778615366045,-0.6,1.26,2.48,263.18,61.89,-29.85
763,1778615366045,-0.6,1.26,2.48,263.18,61.89,-29.85
764,1778615366062,-0.6,1.26,2.48,263.18,61.89,-29.85
765,1778615366078,-0.66,1.16,3.08,319.52,78.92,-23.13
766,1778615366078,-0.66,1.16,3.08,319.52,78.92,-23.13
767,1778615366094,-0.66,1.16,3.08,319.52,78.92,-23.13
768,1778615366094,-0.66,1.16,3.08,319.52,78.92,-23.13
769,1778615366111,-0.66,1.16,3.08,319.52,78.92,-23.13
770,1778615366127,-0.66,1.16,3.08,319.52,78.92,-23.13
771,1778615366127,-0.66,1.16,3.08,319.52,78.92,-23.13
772,1778615366143,-0.8,1.1,3.94,455.69,157.65,55.11
773,1778615366143,-0.8,1.1,3.94,455.69,157.65,55.11
774,1778615366159,-0.8,1.1,3.94,455.69,157.65,55.11
775,1778615366176,-0.8,1.1,3.94,455.69,157.65,55.11
776,1778615366176,-0.8,1.1,3.94,455.69,157.65,55.11
777,1778615366192,-0.65,0.83,3.89,490.78,214.36,22.46
778,1778615366208,-0.65,0.83,3.89,490.78,214.36,22.46
779,1778615366209,-0.65,0.83,3.89,490.78,214.36,22.46
780,1778615366225,-0.42,0.28,3.01,492.92,235.11,67.14
781,1778615366225,-0.42,0.28,3.01,492.92,235.11,67.14
782,1778615366241,-0.42,0.28,3.01,492.92,235.11,67.14
783,1778615366257,-0.31,-0.07,2.2,471.44,190.61,98.75
784,1778615366257,-0.31,-0.07,2.2,471.44,190.61,98.75
785,1778615366273,-0.31,-0.07,2.2,471.44,190.61,98.75
786,1778615366273,-0.31,-0.07,2.2,471.44,190.61,98.75
787,1778615366289,-0.31,-0.07,2.2,471.44,190.61,98.75
788,1778615366305,-0.18,-0.22,1.76,429.99,167.72,98.57
789,1778615366305,-0.18,-0.22,1.76,429.99,167.72,98.57
790,1778615366321,-0.18,-0.22,1.76,429.99,167.72,98.57
791,1778615366337,-0.17,-0.32,1.57,368.1,144.47,52.06
792,1778615366337,-0.17,-0.32,1.57,368.1,144.47,52.06
793,1778615366353,-0.17,-0.32,1.57,368.1,144.47,52.06
794,1778615366353,-0.17,-0.32,1.57,368.1,144.47,52.06
795,1778615366369,-0.17,-0.32,1.57,368.1,144.47,52.06
796,1778615366385,0.5,-0.78,1.23,368.1,144.47,52.06
797,1778615366385,0.5,-0.78,1.23,368.1,144.47,52.06
798,1778615366401,0.5,-0.78,1.23,282.29,196.23,7.45
799,1778615366417,1.57,-0.41,0.06,287.41,115.54,59.94
800,1778615366417,1.57,-0.41,0.06,287.41,115.54,59.94
801,1778615366433,1.57,-0.41,0.06,287.41,115.54,59.94
802,1778615366433,1.57,-0.41,0.06,287.41,115.54,59.94
803,1778615366449,1.82,-0.48,-0.17,213.26,58.72,-86.79
804,1778615366466,1.82,-0.48,-0.17,213.26,58.72,-86.79
805,1778615366466,1.82,-0.48,-0.17,213.26,58.72,-86.79
806,1778615366482,1.82,-0.48,-0.17,213.26,58.72,-86.79
807,1778615366498,1.28,-0.82,-0.15,122.01,-7.08,-152.22
808,1778615366498,1.28,-0.82,-0.15,122.01,-7.08,-152.22
809,1778615366514,1.28,-0.82,-0.15,122.01,-7.08,-152.22
810,1778615366514,1.28,-0.82,-0.15,122.01,-7.08,-152.22
811,1778615366531,1.16,-1.01,0.19,94.79,-22.03,-83.92
812,1778615366547,1.16,-1.01,0.19,94.79,-22.03,-83.92
813,1778615366547,1.16,-1.01,0.19,94.79,-22.03,-83.92
814,1778615366563,1.29,-1.14,-0.36,41.75,-11.17,-14.22
815,1778615366563,1.29,-1.14,-0.36,41.75,-11.17,-14.22
816,1778615366579,1.29,-1.14,-0.36,41.75,-11.17,-14.22
817,1778615366595,1.29,-1.14,-0.36,41.75,-11.17,-14.22
818,1778615366595,1.29,-1.14,-0.36,41.75,-11.17,-14.22
819,1778615366611,1.25,-1.06,-0.39,-23.8,-47.61,-11.66
820,1778615366627,1.25,-1.06,-0.39,-23.8,-47.61,-11.66
821,1778615366627,1.25,-1.06,-0.39,-23.8,-47.61,-11.66
822,1778615366643,1.24,-1.0,-0.21,-73.91,-73.24,24.41
823,1778615366643,1.24,-1.0,-0.21,-73.91,-73.24,24.41
824,1778615366660,1.24,-1.0,-0.21,-73.91,-73.24,24.41
825,1778615366676,1.07,-0.75,-0.03,-73.91,-73.24,24.41
826,1778615366676,1.07,-0.75,-0.03,-73.91,-73.24,24.41
827,1778615366692,1.07,-0.75,-0.03,-144.78,-89.48,16.36
828,1778615366707,0.84,-0.75,0.13,-183.23,-109.99,-1.04
829,1778615366707,0.84,-0.75,0.13,-183.23,-109.99,-1.04
830,1778615366724,0.84,-0.75,0.13,-183.23,-109.99,-1.04
831,1778615366724,0.84,-0.75,0.13,-183.23,-109.99,-1.04
832,1778615366740,0.84,-0.75,0.13,-183.23,-109.99,-1.04
833,1778615366756,0.55,-0.7,0.42,-237.61,-123.41,13.12
834,1778615366756,0.55,-0.7,0.42,-237.61,-123.41,13.12
835,1778615366772,0.55,-0.7,0.42,-237.61,-123.41,13.12
836,1778615366788,0.37,-0.62,0.8,-237.61,-123.41,13.12
837,1778615366788,0.37,-0.62,0.8,-237.61,-123.41,13.12
838,1778615366804,0.37,-0.62,0.8,-237.61,-123.41,13.12
839,1778615366804,0.37,-0.62,0.8,-237.61,-123.41,13.12
840,1778615366820,0.06,-0.52,1.71,-372.5,-131.23,-7.32
841,1778615366836,0.06,-0.52,1.71,-372.5,-131.23,-7.32
842,1778615366836,0.06,-0.52,1.71,-372.5,-131.23,-7.32
843,1778615366851,0.06,-0.52,1.71,-372.5,-131.23,-7.32
844,1778615366867,-0.17,-0.94,1.94,-382.75,-83.56,10.07
845,1778615366867,-0.17,-0.94,1.94,-382.75,-83.56,10.07
846,1778615366883,-0.17,-0.94,1.94,-382.75,-83.56,10.07
847,1778615366883,-0.17,-0.94,1.94,-382.75,-83.56,10.07
848,1778615366899,-0.45,-0.52,2.9,-418.27,-175.96,89.23
849,1778615366915,-0.45,-0.52,2.9,-418.27,-175.96,89.23
850,1778615366915,-0.45,-0.52,2.9,-418.27,-175.96,89.23
851,1778615366931,-0.45,-0.52,2.9,-418.27,-175.96,89.23
852,1778615366947,-0.84,0.34,4.04,-506.9,-37.05,-32.35
853,1778615366947,-0.84,0.34,4.04,-506.9,-37.05,-32.35
854,1778615366964,-0.84,0.34,4.04,-506.9,-37.05,-32.35
855,1778615366964,-0.84,0.34,4.04,-506.9,-37.05,-32.35
856,1778615366980,-1.38,0.22,4.4,-514.47,-119.32,8.61
857,1778615366996,-1.38,0.22,4.4,-514.47,-119.32,8.61
858,1778615366996,-1.38,0.22,4.4,-514.47,-119.32,8.61
859,1778615367012,-1.21,1.25,4.91,-539.25,-20.94,-102.84
860,1778615367028,-1.21,1.25,4.91,-539.25,-20.94,-102.84
861,1778615367028,-1.21,1.25,4.91,-539.25,-20.94,-102.84
862,1778615367044,-1.21,1.25,4.91,-539.25,-20.94,-102.84
863,1778615367044,-1.21,1.25,4.91,-539.25,-20.94,-102.84
864,1778615367060,-0.67,1.94,4.42,-412.84,-40.83,-31.01
865,1778615367076,-0.67,1.94,4.42,-412.84,-40.83,-31.01
866,1778615367076,-0.67,1.94,4.42,-412.84,-40.83,-31.01
867,1778615367092,0.02,3.31,3.49,-320.37,13.79,-183.53
868,1778615367108,0.02,3.31,3.49,-320.37,13.79,-183.53
869,1778615367108,0.02,3.31,3.49,-320.37,13.79,-183.53
870,1778615367125,-0.3,2.66,2.53,-267.27,21.61,-271.18
871,1778615367125,-0.3,2.66,2.53,-267.27,21.61,-271.18
872,1778615367141,-0.3,2.66,2.53,-267.27,21.61,-271.18
873,1778615367157,-0.43,2.65,1.94,-129.33,12.76,-76.35
874,1778615367157,-0.43,2.65,1.94,-129.33,12.76,-76.35
875,1778615367174,-0.43,2.65,1.94,-129.33,12.76,-76.35
876,1778615367174,-0.43,2.65,1.94,-129.33,12.76,-76.35
877,1778615367190,-0.43,2.65,1.94,-129.33,12.76,-76.35
878,1778615367206,0.32,3.52,1.49,-2.56,21.73,82.58
879,1778615367206,0.32,3.52,1.49,-2.56,21.73,82.58
880,1778615367222,0.32,3.52,1.49,-2.56,21.73,82.58
881,1778615367239,0.24,3.38,1.62,112.18,-7.08,-36.56
882,1778615367239,0.24,3.38,1.62,112.18,-7.08,-36.56
883,1778615367255,0.24,3.38,1.62,112.18,-7.08,-36.56
884,1778615367255,0.24,3.38,1.62,112.18,-7.08,-36.56
885,1778615367271,-0.68,1.81,2.36,226.68,-4.76,-90.33
886,1778615367287,-0.68,1.81,2.36,226.68,-4.76,-90.33
887,1778615367287,-0.68,1.81,2.36,226.68,-4.76,-90.33
888,1778615367303,-0.68,1.81,2.36,226.68,-4.76,-90.33
889,1778615367303,-0.68,1.81,2.36,226.68,-4.76,-90.33
890,1778615367319,-1.06,1.48,2.74,307.43,44.25,40.65
891,1778615367336,-1.06,1.48,2.74,307.43,44.25,40.65
892,1778615367336,-1.06,1.48,2.74,307.43,44.25,40.65
893,1778615367351,-1.11,1.46,3.16,384.52,57.98,104.68
894,1778615367367,-1.11,1.46,3.16,384.52,57.98,104.68
895,1778615367367,-1.11,1.46,3.16,384.52,57.98,104.68
896,1778615367383,-1.25,1.13,3.24,427.19,70.13,130.68
897,1778615367383,-1.25,1.13,3.24,427.19,70.13,130.68
898,1778615367400,-1.25,1.13,3.24,427.19,70.13,130.68
899,1778615367416,-1.25,1.13,3.24,427.19,70.13,130.68
900,1778615367416,-1.25,1.13,3.24,427.19,70.13,130.68
901,1778615367432,-1.17,1.1,3.35,462.1,104.13,155.21
902,1778615367448,-1.17,1.1,3.35,462.1,104.13,155.21
903,1778615367448,-1.17,1.1,3.35,462.1,104.13,155.21
904,1778615367464,-1.08,1.08,3.25,479.13,121.4,127.38
905,1778615367464,-1.08,1.08,3.25,479.13,121.4,127.38
906,1778615367480,-1.08,1.08,3.25,479.13,121.4,127.38
907,1778615367496,-0.97,0.49,2.69,479.13,121.4,127.38
908,1778615367496,-0.97,0.49,2.69,479.13,121.4,127.38
909,1778615367512,-0.97,0.49,2.69,472.17,143.37,118.59
910,1778615367529,-0.65,0.32,2.2,455.87,131.65,145.51
911,1778615367529,-0.65,0.32,2.2,455.87,131.65,145.51
912,1778615367545,-0.65,0.32,2.2,455.87,131.65,145.51
913,1778615367545,-0.65,0.32,2.2,455.87,131.65,145.51
914,1778615367561,-0.14,-0.05,1.61,455.87,131.65,145.51
915,1778615367577,-0.14,-0.05,1.61,393.19,122.07,91.92
916,1778615367577,-0.14,-0.05,1.61,393.19,122.07,91.92
917,1778615367594,-0.14,-0.05,1.61,393.19,122.07,91.92
918,1778615367594,-0.14,-0.05,1.61,393.19,122.07,91.92
919,1778615367610,0.21,-0.15,1.45,357.97,133.48,27.71
920,1778615367626,0.21,-0.15,1.45,357.97,133.48,27.71
921,1778615367626,0.21,-0.15,1.45,357.97,133.48,27.71
922,1778615367642,0.5,-0.47,0.72,286.68,150.76,-21.18
923,1778615367658,0.5,-0.47,0.72,286.68,150.76,-21.18
924,1778615367658,0.5,-0.47,0.72,286.68,150.76,-21.18
925,1778615367675,0.5,-0.47,0.72,286.68,150.76,-21.18
926,1778615367675,0.5,-0.47,0.72,286.68,150.76,-21.18
927,1778615367691,0.9,-0.03,0.85,257.93,167.05,-94.42
928,1778615367707,0.9,-0.03,0.85,257.93,167.05,-94.42
929,1778615367707,0.9,-0.03,0.85,257.93,167.05,-94.42
930,1778615367724,1.46,-1.09,-0.04,151.37,179.02,-158.75
931,1778615367724,1.46,-1.09,-0.04,151.37,179.02,-158.75
932,1778615367740,1.46,-1.09,-0.04,151.37,179.02,-158.75
933,1778615367756,1.37,-0.58,0.33,124.82,34.0,1.77
934,1778615367756,1.37,-0.58,0.33,124.82,34.0,1.77
935,1778615367773,1.37,-0.58,0.33,124.82,34.0,1.77
936,1778615367773,1.37,-0.58,0.33,124.82,34.0,1.77
937,1778615367789,1.37,-0.58,0.33,124.82,34.0,1.77
938,1778615367804,1.46,-0.51,0.31,67.2,24.11,-42.18
939,1778615367804,1.46,-0.51,0.31,67.2,24.11,-42.18
940,1778615367820,1.46,-0.51,0.31,67.2,24.11,-42.18
941,1778615367836,1.23,-0.69,0.26,23.74,-15.93,-19.84
942,1778615367836,1.23,-0.69,0.26,23.74,-15.93,-19.84
943,1778615367852,1.23,-0.69,0.26,23.74,-15.93,-19.84
944,1778615367867,1.21,-0.83,0.06,23.74,-15.93,-19.84
945,1778615367867,1.21,-0.83,0.06,23.74,-15.93,-19.84
946,1778615367884,1.21,-0.83,0.06,-20.51,-32.23,30.64
947,1778615367884,1.21,-0.83,0.06,-20.51,-32.23,30.64
948,1778615367900,1.21,-0.83,0.06,-20.51,-32.23,30.64
949,1778615367916,1.27,-0.85,0.05,-20.51,-32.23,30.64
950,1778615367916,1.27,-0.85,0.05,-20.51,-32.23,30.64
951,1778615367932,1.27,-0.85,0.05,-87.71,-58.84,17.27
952,1778615367948,1.19,-0.74,0.33,-87.71,-58.84,17.27
953,1778615367948,1.19,-0.74,0.33,-87.71,-58.84,17.27
954,1778615367964,1.19,-0.74,0.33,-140.75,-95.58,7.32
955,1778615367964,1.19,-0.74,0.33,-140.75,-95.58,7.32
956,1778615367980,1.19,-0.74,0.33,-140.75,-95.58,7.32
957,1778615367996,1.04,-0.57,0.49,-198.97,-130.07,-13.31
958,1778615367996,1.04,-0.57,0.49,-198.97,-130.07,-13.31
959,1778615368012,1.04,-0.57,0.49,-198.97,-130.07,-13.31
960,1778615368028,1.04,-0.57,0.49,-198.97,-130.07,-13.31
961,1778615368028,1.04,-0.57,0.49,-198.97,-130.07,-13.31
962,1778615368044,0.68,-0.58,0.84,-237.24,-169.43,-38.09
963,1778615368044,0.68,-0.58,0.84,-237.24,-169.43,-38.09
964,1778615368060,0.06,-0.39,1.53,-237.24,-169.43,-38.09
965,1778615368076,0.06,-0.39,1.53,-246.46,-180.11,13.18
966,1778615368076,0.06,-0.39,1.53,-246.46,-180.11,13.18
967,1778615368093,0.06,-0.39,1.53,-246.46,-180.11,13.18
968,1778615368093,0.06,-0.39,1.53,-246.46,-180.11,13.18
969,1778615368109,-0.5,0.15,1.67,-340.52,-145.2,-74.1
970,1778615368125,-0.5,0.15,1.67,-340.52,-145.2,-74.1
971,1778615368125,-0.5,0.15,1.67,-340.52,-145.2,-74.1
972,1778615368141,-1.29,-0.27,2.28,-417.66,-271.36,-116.33
973,1778615368158,-1.29,-0.27,2.28,-417.66,-271.36,-116.33
974,1778615368158,-1.29,-0.27,2.28,-417.66,-271.36,-116.33
975,1778615368174,-1.68,0.11,3.53,-458.37,-237.06,-20.39
976,1778615368174,-1.68,0.11,3.53,-458.37,-237.06,-20.39
977,1778615368190,-1.68,0.11,3.53,-458.37,-237.06,-20.39
978,1778615368207,-1.68,0.11,3.53,-458.37,-237.06,-20.39
979,1778615368207,-1.68,0.11,3.53,-458.37,-237.06,-20.39
980,1778615368223,-1.24,1.37,4.11,-517.21,-110.78,28.26
981,1778615368223,-1.24,1.37,4.11,-517.21,-110.78,28.26
982,1778615368239,-1.24,1.37,4.11,-517.21,-110.78,28.26
983,1778615368255,-1.0,1.75,3.94,-525.82,-78.55,-35.77
984,1778615368255,-1.0,1.75,3.94,-525.82,-78.55,-35.77
985,1778615368271,-1.0,1.75,3.94,-525.82,-78.55,-35.77
986,1778615368288,-0.44,2.15,4.03,-460.08,-89.05,-40.04
987,1778615368288,-0.44,2.15,4.03,-460.08,-89.05,-40.04
988,1778615368304,-0.44,2.15,4.03,-460.08,-89.05,-40.04
989,1778615368304,-0.44,2.15,4.03,-460.08,-89.05,-40.04
990,1778615368320,-0.44,2.15,4.03,-460.08,-89.05,-40.04
991,1778615368336,-0.44,2.15,4.03,-460.08,-89.05,-40.04
992,1778615368336,-0.44,2.15,4.03,-460.08,-89.05,-40.04
993,1778615368352,-0.92,2.29,3.54,-414.31,-46.94,-172.24
994,1778615368368,-0.83,1.97,3.33,-292.6,12.02,17.58
995,1778615368368,-0.83,1.97,3.33,-292.6,12.02,17.58
996,1778615368384,-0.83,1.97,3.33,-292.6,12.02,17.58
997,1778615368384,-0.83,1.97,3.33,-292.6,12.02,17.58
998,1778615368401,0.12,3.32,1.87,-200.99,115.48,-50.48
