id,timestamp,acc_x,acc_y,acc_z,gyro_x,gyro_y,gyro_z
0,1778616413509,-0.39,-0.19,-0.28,-130.8,-108.34,-33.69
1,1778616413525,-0.39,-0.19,-0.28,-130.8,-108.34,-33.69
2,1778616413542,-0.39,-0.19,-0.28,-130.8,-108.34,-33.69
3,1778616413542,-0.39,-0.19,-0.28,-130.8,-108.34,-33.69
4,1778616413558,0.17,0.31,0.32,-73.67,-150.09,61.95
5,1778616413574,0.17,0.31,0.32,-73.67,-150.09,61.95
6,1778616413574,0.17,0.31,0.32,-73.67,-150.09,61.95
7,1778616413590,0.02,0.12,0.23,-102.72,-141.3,58.9
8,1778616413590,0.02,0.12,0.23,-102.72,-141.3,58.9
9,1778616413607,0.02,0.12,0.23,-102.72,-141.3,58.9
10,1778616413623,0.02,0.12,0.23,-102.72,-141.3,58.9
11,1778616413623,0.02,0.12,0.23,-102.72,-141.3,58.9
12,1778616413639,-0.01,-0.3,0.05,-63.17,-17.09,14.59
13,1778616413655,0.2,-0.16,0.07,-73.06,-98.08,40.41
14,1778616413655,0.2,-0.16,0.07,-73.06,-98.08,40.41
15,1778616413671,0.2,-0.16,0.07,-73.06,-98.08,40.41
16,1778616413671,0.2,-0.16,0.07,-73.06,-98.08,40.41
17,1778616413687,0.2,-0.16,0.07,-73.06,-98.08,40.41
18,1778616413704,0.2,-0.16,0.07,-73.06,-98.08,40.41
19,1778616413704,0.2,-0.16,0.07,-73.06,-98.08,40.41
20,1778616413720,-0.43,-0.09,-0.06,-17.88,-54.44,62.5
21,1778616413720,-0.43,-0.09,-0.06,-17.88,-54.44,62.5
22,1778616413737,-0.43,-0.09,-0.06,-17.88,-54.44,62.5
23,1778616413753,-0.43,-0.09,-0.06,-17.88,-54.44,62.5
24,1778616413753,-0.43,-0.09,-0.06,-17.88,-54.44,62.5
25,1778616413769,-0.43,-0.09,-0.06,-17.88,-54.44,62.5
26,1778616413785,0.47,-0.14,0.36,22.83,-171.63,103.45
27,1778616413785,0.47,-0.14,0.36,22.83,-171.63,103.45
28,1778616413801,0.47,-0.14,0.36,22.83,-171.63,103.45
29,1778616413801,0.47,-0.14,0.36,22.83,-171.63,103.45
30,1778616413817,0.47,-0.14,0.36,22.83,-171.63,103.45
31,1778616413834,1.24,-2.06,0.57,13.92,268.25,-89.6
32,1778616413834,1.24,-2.06,0.57,13.92,268.25,-89.6
33,1778616413850,1.24,-2.06,0.57,13.92,268.25,-89.6
34,1778616413850,1.24,-2.06,0.57,13.92,268.25,-89.6
35,1778616413866,0.51,-3.58,0.85,109.99,-227.29,-27.1
36,1778616413882,0.51,-3.58,0.85,109.99,-227.29,-27.1
37,1778616413882,0.51,-3.58,0.85,109.99,-227.29,-27.1
38,1778616413899,0.51,-3.58,0.85,109.99,-227.29,-27.1
39,1778616413915,-0.37,-4.32,1.07,33.33,57.86,-18.43
40,1778616413915,-0.37,-4.32,1.07,33.33,57.86,-18.43
41,1778616413931,-0.35,-2.59,-0.0,18.92,-30.7,-4.76
42,1778616413931,-0.35,-2.59,-0.0,18.92,-30.7,-4.76
43,1778616413947,-0.35,-2.59,-0.0,18.92,-30.7,-4.76
44,1778616413964,-0.35,-2.59,-0.0,18.92,-30.7,-4.76
45,1778616413964,-0.35,-2.59,-0.0,18.92,-30.7,-4.76
46,1778616413980,0.22,-0.54,0.21,4.09,83.25,26.25
47,1778616413980,0.22,-0.54,0.21,4.09,83.25,26.25
48,1778616413996,0.22,-0.54,0.21,4.09,83.25,26.25
49,1778616414013,0.22,-0.54,0.21,4.09,83.25,26.25
50,1778616414013,0.22,-0.54,0.21,4.09,83.25,26.25
51,1778616414029,0.0,0.97,0.05,90.76,-60.06,-28.14
52,1778616414045,-0.07,0.42,0.24,30.03,-1.59,-119.32
53,1778616414045,-0.07,0.42,0.24,30.03,-1.59,-119.32
54,1778616414061,-0.07,0.42,0.24,30.03,-1.59,-119.32
55,1778616414061,-0.07,0.42,0.24,30.03,-1.59,-119.32
56,1778616414078,0.01,-0.19,0.14,-44.31,34.3,-62.99
57,1778616414094,0.01,-0.19,0.14,-44.31,34.3,-62.99
58,1778616414094,0.01,-0.19,0.14,-44.31,34.3,-62.99
59,1778616414110,-0.03,-0.79,-0.17,-7.45,4.58,-67.02
60,1778616414110,-0.03,-0.79,-0.17,-7.45,4.58,-67.02
61,1778616414126,-0.03,-0.79,-0.17,-7.45,4.58,-67.02
62,1778616414143,0.13,0.23,0.6,116.52,57.56,-106.38
63,1778616414143,0.13,0.23,0.6,116.52,57.56,-106.38
64,1778616414159,0.13,0.23,0.6,116.52,57.56,-106.38
65,1778616414174,0.13,0.23,0.6,116.52,57.56,-106.38
66,1778616414174,0.13,0.23,0.6,116.52,57.56,-106.38
67,1778616414191,0.1,-0.29,0.11,76.05,57.25,-54.99
68,1778616414191,0.1,-0.29,0.11,76.05,57.25,-54.99
69,1778616414207,0.1,-0.29,0.11,76.05,57.25,-54.99
70,1778616414223,-0.43,-0.12,0.05,54.69,55.79,-4.58
71,1778616414223,-0.43,-0.12,0.05,54.69,55.79,-4.58
72,1778616414239,-0.43,-0.12,0.05,54.69,55.79,-4.58
73,1778616414255,-0.41,-0.17,0.36,135.62,-63.9,99.12
74,1778616414255,-0.41,-0.17,0.36,135.62,-63.9,99.12
75,1778616414272,-0.41,-0.17,0.36,135.62,-63.9,99.12
76,1778616414272,-0.41,-0.17,0.36,135.62,-63.9,99.12
77,1778616414288,-0.41,-0.17,0.36,135.62,-63.9,99.12
78,1778616414304,-0.06,-1.11,0.74,-1.4,95.21,59.51
79,1778616414304,-0.06,-1.11,0.74,-1.4,95.21,59.51
80,1778616414320,-0.06,-1.11,0.74,-1.4,95.21,59.51
81,1778616414320,-0.06,-1.11,0.74,-1.4,95.21,59.51
82,1778616414336,0.6,-1.06,0.69,76.6,25.94,-2.56
83,1778616414352,0.6,-1.06,0.69,76.6,25.94,-2.56
84,1778616414352,0.6,-1.06,0.69,76.6,25.94,-2.56
85,1778616414368,0.6,-1.06,0.69,76.6,25.94,-2.56
86,1778616414385,0.13,-2.64,1.63,10.8,-20.94,57.8
87,1778616414385,0.13,-2.64,1.63,10.8,-20.94,57.8
88,1778616414401,0.13,-2.64,1.63,10.8,-20.94,57.8
89,1778616414401,0.13,-2.64,1.63,10.8,-20.94,57.8
90,1778616414418,-0.05,-3.17,1.71,-31.43,-27.1,19.71
91,1778616414434,-0.05,-3.17,1.71,-31.43,-27.1,19.71
92,1778616414434,-0.05,-3.17,1.71,-31.43,-27.1,19.71
93,1778616414450,-0.05,-3.17,1.71,-31.43,-27.1,19.71
94,1778616414450,-0.05,-3.17,1.71,-31.43,-27.1,19.71
95,1778616414466,0.16,-2.14,0.86,-74.95,-55.05,-43.09
96,1778616414482,0.35,-0.7,0.53,-74.95,-55.05,-43.09
97,1778616414482,0.35,-0.7,0.53,-74.95,-55.05,-43.09
98,1778616414499,0.35,-0.7,0.53,-51.27,-19.9,-59.2
99,1778616414515,0.35,-0.7,0.53,-51.27,-19.9,-59.2
100,1778616414515,0.35,-0.7,0.53,-51.27,-19.9,-59.2
101,1778616414532,-0.23,0.1,-0.06,-76.84,-54.87,-68.18
102,1778616414532,-0.23,0.1,-0.06,-76.84,-54.87,-68.18
103,1778616414548,-0.23,0.1,-0.06,-76.84,-54.87,-68.18
104,1778616414564,-0.16,0.73,0.15,-93.69,-1.71,52.67
105,1778616414564,-0.16,0.73,0.15,-93.69,-1.71,52.67
106,1778616414581,-0.16,0.73,0.15,-93.69,-1.71,52.67
107,1778616414581,-0.16,0.73,0.15,-93.69,-1.71,52.67
108,1778616414597,-0.16,0.73,0.15,-93.69,-1.71,52.67
109,1778616414613,-0.57,-0.51,0.34,-68.12,-32.1,23.38
110,1778616414613,-0.57,-0.51,0.34,-68.12,-32.1,23.38
111,1778616414629,-0.57,-0.51,0.34,-68.12,-32.1,23.38
112,1778616414646,0.0,-0.35,0.22,26.18,-31.31,62.13
113,1778616414646,0.0,-0.35,0.22,26.18,-31.31,62.13
114,1778616414662,0.0,-0.35,0.22,26.18,-31.31,62.13
115,1778616414662,0.0,-0.35,0.22,26.18,-31.31,62.13
116,1778616414678,-0.05,0.07,-0.21,-19.96,29.85,89.05
117,1778616414694,-0.05,0.07,-0.21,-19.96,29.85,89.05
118,1778616414694,-0.05,0.07,-0.21,-19.96,29.85,89.05
119,1778616414711,0.01,0.1,-0.1,-59.94,-49.68,83.37
120,1778616414711,0.01,0.1,-0.1,-59.94,-49.68,83.37
121,1778616414727,0.01,0.1,-0.1,-59.94,-49.68,83.37
122,1778616414743,0.1,0.13,-0.18,-46.63,-93.38,71.72
123,1778616414743,0.1,0.13,-0.18,-46.63,-93.38,71.72
124,1778616414760,0.1,0.13,-0.18,-46.63,-93.38,71.72
125,1778616414760,0.1,0.13,-0.18,-46.63,-93.38,71.72
126,1778616414776,0.1,0.13,-0.18,-46.63,-93.38,71.72
127,1778616414792,0.27,-0.09,0.3,-9.77,-200.01,52.12
128,1778616414792,0.27,-0.09,0.3,-9.77,-200.01,52.12
129,1778616414808,0.27,-0.09,0.3,-9.77,-200.01,52.12
130,1778616414824,0.32,-0.37,3.3,70.56,-268.92,82.46
131,1778616414824,0.32,-0.37,3.3,70.56,-268.92,82.46
132,1778616414841,0.32,-0.37,3.3,70.56,-268.92,82.46
133,1778616414841,0.32,-0.37,3.3,70.56,-268.92,82.46
134,1778616414857,0.32,-0.37,3.3,70.56,-268.92,82.46
135,1778616414872,-0.24,-4.03,-0.1,-80.69,-138.49,-118.71
136,1778616414872,-0.24,-4.03,-0.1,-80.69,-138.49,-118.71
137,1778616414889,-0.24,-4.03,-0.1,-80.69,-138.49,-118.71
138,1778616414905,0.02,-4.67,-0.18,-90.03,347.66,-105.04
139,1778616414905,0.02,-4.67,-0.18,-90.03,347.66,-105.04
140,1778616414921,0.02,-4.67,-0.18,-90.03,347.66,-105.04
141,1778616414921,0.02,-4.67,-0.18,-90.03,347.66,-105.04
142,1778616414937,-1.51,-3.51,0.17,-12.63,-25.82,10.07
143,1778616414954,-1.51,-3.51,0.17,-12.63,-25.82,10.07
144,1778616414954,-1.51,-3.51,0.17,-12.63,-25.82,10.07
145,1778616414970,-1.51,-3.51,0.17,-12.63,-25.82,10.07
146,1778616414970,-1.51,-3.51,0.17,-12.63,-25.82,10.07
147,1778616414986,0.32,-0.58,0.21,101.2,-105.59,63.66
148,1778616415003,0.32,-0.58,0.21,101.2,-105.59,63.66
149,1778616415003,0.32,-0.58,0.21,101.2,-105.59,63.66
150,1778616415018,0.64,1.28,0.1,100.16,30.27,-57.37
151,1778616415035,0.64,1.28,0.1,100.16,30.27,-57.37
152,1778616415035,0.64,1.28,0.1,100.16,30.27,-57.37
153,1778616415051,0.64,1.28,0.1,100.16,30.27,-57.37
154,1778616415051,0.64,1.28,0.1,100.16,30.27,-57.37
155,1778616415067,0.64,1.28,0.1,100.16,30.27,-57.37
156,1778616415083,0.64,1.28,0.1,100.16,30.27,-57.37
157,1778616415083,0.64,1.28,0.1,100.16,30.27,-57.37
158,1778616415099,0.64,1.28,0.1,100.16,30.27,-57.37
159,1778616415115,0.64,1.28,0.1,100.16,30.27,-57.37
160,1778616415115,0.64,1.28,0.1,100.16,30.27,-57.37
161,1778616415132,0.64,1.28,0.1,100.16,30.27,-57.37
162,1778616415132,0.64,1.28,0.1,100.16,30.27,-57.37
163,1778616415148,0.64,1.28,0.1,100.16,30.27,-57.37
164,1778616415164,0.64,1.28,0.1,100.16,30.27,-57.37
165,1778616415164,0.64,1.28,0.1,100.16,30.27,-57.37
166,1778616415180,-0.16,-0.08,0.39,126.04,168.95,-72.14
167,1778616415180,-0.16,-0.08,0.39,126.04,168.95,-72.14
168,1778616415197,-0.14,-0.28,-0.12,119.57,173.4,-16.48
169,1778616415213,-0.14,-0.28,-0.12,119.57,173.4,-16.48
170,1778616415213,-0.14,-0.28,-0.12,119.57,173.4,-16.48
171,1778616415229,-0.14,-0.28,-0.12,119.57,173.4,-16.48
172,1778616415244,-0.37,0.08,-0.1,119.57,173.4,-16.48
173,1778616415244,-0.37,0.08,-0.1,119.57,173.4,-16.48
174,1778616415261,-0.37,0.08,-0.1,119.57,173.4,-16.48
175,1778616415261,-0.37,0.08,-0.1,119.57,173.4,-16.48
176,1778616415277,-0.37,0.08,-0.1,119.57,173.4,-16.48
177,1778616415293,-0.37,0.08,-0.1,119.57,173.4,-16.48
178,1778616415293,-0.37,0.08,-0.1,119.57,173.4,-16.48
179,1778616415309,-0.37,0.08,-0.1,119.57,173.4,-16.48
180,1778616415325,-0.37,0.08,-0.1,91.55,89.36,34.36
181,1778616415325,-0.37,0.08,-0.1,91.55,89.36,34.36
182,1778616415341,-0.37,0.08,-0.1,91.55,89.36,34.36
183,1778616415341,-0.37,0.08,-0.1,91.55,89.36,34.36
184,1778616415357,-0.19,-0.02,0.33,100.52,-169.37,90.15
185,1778616415373,-0.19,-0.02,0.33,100.52,-169.37,90.15
186,1778616415373,-0.19,-0.02,0.33,100.52,-169.37,90.15
187,1778616415388,-0.84,-2.05,1.95,-5.31,-43.09,-4.58
188,1778616415404,-0.84,-2.05,1.95,-5.31,-43.09,-4.58
189,1778616415404,-0.84,-2.05,1.95,-5.31,-43.09,-4.58
190,1778616415420,-0.83,-3.34,1.53,-115.84,199.04,-2.5
191,1778616415420,-0.83,-3.34,1.53,-115.84,199.04,-2.5
192,1778616415436,-0.83,-3.34,1.53,-115.84,199.04,-2.5
193,1778616415452,-0.83,-3.34,1.53,-115.84,199.04,-2.5
194,1778616415452,-0.83,-3.34,1.53,-115.84,199.04,-2.5
195,1778616415469,-0.25,-3.22,1.53,-53.22,-68.54,3.17
196,1778616415485,-0.25,-3.22,1.53,-53.22,-68.54,3.17
197,1778616415485,-0.25,-3.22,1.53,-53.22,-68.54,3.17
198,1778616415501,0.53,-2.14,1.26,-76.78,-130.92,-44.56
199,1778616415501,0.53,-2.14,1.26,-76.78,-130.92,-44.56
200,1778616415517,0.53,-2.14,1.26,-76.78,-130.92,-44.56
201,1778616415533,0.53,-2.14,1.26,-76.78,-130.92,-44.56
202,1778616415533,0.53,-2.14,1.26,-76.78,-130.92,-44.56
203,1778616415549,0.53,-2.14,1.26,-76.78,-130.92,-44.56
204,1778616415565,0.53,-2.14,1.26,-76.78,-130.92,-44.56
205,1778616415565,0.53,-2.14,1.26,-76.78,-130.92,-44.56
206,1778616415581,0.21,-0.57,0.34,-76.78,-130.92,-44.56
207,1778616415581,0.21,-0.57,0.34,-76.78,-130.92,-44.56
208,1778616415598,-0.3,0.1,-0.31,-46.69,12.88,-58.11
209,1778616415614,-0.45,0.49,-0.2,-88.44,-45.65,81.48
210,1778616415614,-0.45,0.49,-0.2,-88.44,-45.65,81.48
211,1778616415630,-0.45,0.49,-0.2,-88.44,-45.65,81.48
212,1778616415630,-0.45,0.49,-0.2,-88.44,-45.65,81.48
213,1778616415647,-0.35,-0.56,0.37,-100.89,-112.0,1.16
214,1778616415663,-0.35,-0.56,0.37,-100.89,-112.0,1.16
215,1778616415663,-0.35,-0.56,0.37,-100.89,-112.0,1.16
216,1778616415679,-0.35,-0.56,0.37,-100.89,-112.0,1.16
217,1778616415695,-0.35,-0.56,0.37,-100.89,-112.0,1.16
218,1778616415695,-0.35,-0.56,0.37,-100.89,-112.0,1.16
219,1778616415710,-0.35,-0.56,0.37,-100.89,-112.0,1.16
220,1778616415710,-0.35,-0.56,0.37,-100.89,-112.0,1.16
221,1778616415727,-0.35,-0.56,0.37,-100.89,-112.0,1.16
222,1778616415743,-0.35,-0.56,0.37,-100.89,-112.0,1.16
223,1778616415743,-0.35,-0.56,0.37,-100.89,-112.0,1.16
224,1778616415759,-0.35,-0.56,0.37,-100.89,-112.0,1.16
225,1778616415775,0.04,0.13,-0.55,-60.0,-21.61,126.83
226,1778616415775,0.04,0.13,-0.55,-60.0,-21.61,126.83
227,1778616415791,0.04,0.13,-0.55,-60.0,-21.61,126.83
228,1778616415791,0.04,0.13,-0.55,-60.0,-21.61,126.83
229,1778616415808,0.04,0.06,0.33,-29.72,-133.79,65.25
230,1778616415824,0.04,0.06,0.33,-29.72,-133.79,65.25
231,1778616415824,0.04,0.06,0.33,-29.72,-133.79,65.25
232,1778616415840,0.04,0.06,0.33,-29.72,-133.79,65.25
233,1778616415840,0.04,0.06,0.33,-29.72,-133.79,65.25
234,1778616415857,0.04,0.06,0.33,-29.72,-133.79,65.25
235,1778616415873,0.04,0.06,0.33,-29.72,-133.79,65.25
236,1778616415873,0.04,0.06,0.33,-29.72,-133.79,65.25
237,1778616415889,0.04,0.06,0.33,-29.72,-133.79,65.25
238,1778616415906,0.04,0.06,0.33,-29.72,-133.79,65.25
239,1778616415906,0.04,0.06,0.33,-29.72,-133.79,65.25
240,1778616415922,0.04,0.06,0.33,-29.72,-133.79,65.25
241,1778616415922,0.04,0.06,0.33,-29.72,-133.79,65.25
242,1778616415938,0.04,0.06,0.33,-29.72,-133.79,65.25
243,1778616415954,0.04,0.06,0.33,-29.72,-133.79,65.25
244,1778616415954,0.04,0.06,0.33,-29.72,-133.79,65.25
245,1778616415971,0.04,0.06,0.33,-29.72,-133.79,65.25
246,1778616415971,0.04,0.06,0.33,-29.72,-133.79,65.25
247,1778616415987,0.04,0.06,0.33,-29.72,-133.79,65.25
248,1778616416003,0.04,0.06,0.33,-29.72,-133.79,65.25
249,1778616416003,0.04,0.06,0.33,-29.72,-133.79,65.25
250,1778616416019,0.04,0.06,0.33,-29.72,-133.79,65.25
251,1778616416036,0.04,0.06,0.33,-29.72,-133.79,65.25
252,1778616416036,0.04,0.06,0.33,-29.72,-133.79,65.25
253,1778616416052,-0.02,-1.22,0.17,51.15,-94.73,-10.62
254,1778616416052,-0.02,-1.22,0.17,51.15,-94.73,-10.62
255,1778616416069,0.54,0.67,0.46,15.44,-4.7,-6.84
256,1778616416085,0.54,0.67,0.46,15.44,-4.7,-6.84
257,1778616416085,0.54,0.67,0.46,15.44,-4.7,-6.84
258,1778616416100,-0.13,0.34,0.0,61.89,20.26,-74.4
259,1778616416100,-0.13,0.34,0.0,61.89,20.26,-74.4
260,1778616416118,-0.13,0.34,0.0,61.89,20.26,-74.4
261,1778616416133,-0.13,0.34,0.0,61.89,20.26,-74.4
262,1778616416133,-0.13,0.34,0.0,61.89,20.26,-74.4
263,1778616416149,-0.13,0.34,0.0,61.89,20.26,-74.4
264,1778616416165,-0.13,-0.15,0.16,-102.66,12.94,-31.01
265,1778616416165,-0.13,-0.15,0.16,-102.66,12.94,-31.01
266,1778616416181,0.07,-0.11,-0.19,14.71,7.69,-78.31
267,1778616416181,0.07,-0.11,-0.19,14.71,7.69,-78.31
268,1778616416198,0.07,-0.11,-0.19,14.71,7.69,-78.31
269,1778616416214,0.07,-0.11,-0.19,14.71,7.69,-78.31
270,1778616416214,0.07,-0.11,-0.19,14.71,7.69,-78.31
271,1778616416230,-0.09,-0.12,0.51,81.67,84.78,-44.92
272,1778616416230,-0.09,-0.12,0.51,81.67,84.78,-44.92
273,1778616416246,-0.09,-0.12,0.51,81.67,84.78,-44.92
274,1778616416262,-0.12,-0.17,0.04,59.39,167.36,-18.25
275,1778616416262,-0.12,-0.17,0.04,59.39,167.36,-18.25
276,1778616416278,-0.12,-0.17,0.04,59.39,167.36,-18.25
277,1778616416295,-0.12,-0.17,0.04,59.39,167.36,-18.25
278,1778616416295,-0.12,-0.17,0.04,59.39,167.36,-18.25
279,1778616416311,-0.12,-0.17,0.04,59.39,167.36,-18.25
280,1778616416311,-0.12,-0.17,0.04,59.39,167.36,-18.25
281,1778616416327,-0.12,-0.17,0.04,59.39,167.36,-18.25
282,1778616416343,-0.12,-0.17,0.04,59.39,167.36,-18.25
283,1778616416343,-0.12,-0.17,0.04,59.39,167.36,-18.25
284,1778616416359,-0.12,-0.17,0.04,59.39,167.36,-18.25
285,1778616416375,-0.12,-0.17,0.04,59.39,167.36,-18.25
286,1778616416375,-0.12,-0.17,0.04,59.39,167.36,-18.25
287,1778616416391,-0.12,-0.17,0.04,59.39,167.36,-18.25
288,1778616416391,-0.12,-0.17,0.04,59.39,167.36,-18.25
289,1778616416407,-0.12,-0.17,0.04,59.39,167.36,-18.25
290,1778616416424,-0.12,-0.17,0.04,59.39,167.36,-18.25
291,1778616416424,-0.12,-0.17,0.04,59.39,167.36,-18.25
292,1778616416440,-0.12,-0.17,0.04,59.39,167.36,-18.25
293,1778616416440,-0.12,-0.17,0.04,59.39,167.36,-18.25
294,1778616416456,-0.12,-0.17,0.04,59.39,167.36,-18.25
295,1778616416473,-0.12,-0.17,0.04,59.39,167.36,-18.25
296,1778616416473,-0.12,-0.17,0.04,59.39,167.36,-18.25
297,1778616416489,-0.12,-0.17,0.04,59.39,167.36,-18.25
298,1778616416505,-0.12,-0.17,0.04,59.39,167.36,-18.25
299,1778616416505,-0.12,-0.17,0.04,59.39,167.36,-18.25
300,1778616416521,-0.12,-0.17,0.04,59.39,167.36,-18.25
301,1778616416521,-0.12,-0.17,0.04,59.39,167.36,-18.25
302,1778616416538,-0.12,-0.17,0.04,59.39,167.36,-18.25
303,1778616416554,-0.12,-0.17,0.04,59.39,167.36,-18.25
304,1778616416554,-0.12,-0.17,0.04,59.39,167.36,-18.25
305,1778616416571,-0.12,-0.17,0.04,59.39,167.36,-18.25
306,1778616416571,-0.12,-0.17,0.04,59.39,167.36,-18.25
307,1778616416587,-0.12,-0.17,0.04,59.39,167.36,-18.25
308,1778616416603,-0.12,-0.17,0.04,59.39,167.36,-18.25
309,1778616416603,-0.12,-0.17,0.04,59.39,167.36,-18.25
310,1778616416620,0.52,-0.75,0.66,-69.7,-98.57,-5.55
311,1778616416620,0.52,-0.75,0.66,-69.7,-98.57,-5.55
312,1778616416636,0.52,-0.75,0.66,-69.7,-98.57,-5.55
313,1778616416652,0.52,-0.75,0.66,-69.7,-98.57,-5.55
314,1778616416652,0.52,-0.75,0.66,-69.7,-98.57,-5.55
315,1778616416669,0.52,-0.75,0.66,-69.7,-98.57,-5.55
316,1778616416685,0.26,0.27,-0.04,-63.84,-108.7,34.67
317,1778616416685,0.26,0.27,-0.04,-63.84,-108.7,34.67
318,1778616416701,0.26,0.27,-0.04,-63.84,-108.7,34.67
319,1778616416701,0.26,0.27,-0.04,-63.84,-108.7,34.67
320,1778616416717,-0.13,-0.35,0.16,-27.34,-100.95,45.9
321,1778616416733,-0.13,-0.35,0.16,-27.34,-100.95,45.9
322,1778616416733,-0.13,-0.35,0.16,-27.34,-100.95,45.9
323,1778616416750,-0.36,-0.13,0.73,-18.13,43.95,72.08
324,1778616416750,-0.36,-0.13,0.73,-18.13,43.95,72.08
325,1778616416766,-0.36,-0.13,0.73,-18.13,43.95,72.08
326,1778616416782,-0.06,0.14,-0.39,-18.13,43.95,72.08
327,1778616416782,-0.06,0.14,-0.39,-18.13,43.95,72.08
328,1778616416798,-0.06,0.14,-0.39,-79.41,161.32,101.32
329,1778616416815,-0.06,0.14,-0.39,-79.41,161.32,101.32
330,1778616416815,-0.06,0.14,-0.39,-79.41,161.32,101.32
331,1778616416831,-0.06,0.14,-0.39,-79.41,161.32,101.32
332,1778616416831,-0.06,0.14,-0.39,-79.41,161.32,101.32
333,1778616416847,0.09,0.07,-0.18,33.02,-89.78,65.49
334,1778616416864,0.09,0.07,-0.18,33.02,-89.78,65.49
335,1778616416864,0.09,0.07,-0.18,33.02,-89.78,65.49
336,1778616416880,-0.1,-0.05,0.0,14.34,-125.37,65.19
337,1778616416880,-0.1,-0.05,0.0,14.34,-125.37,65.19
338,1778616416896,0.19,-0.28,-0.1,14.34,-125.37,65.19
339,1778616416912,0.19,-0.28,-0.1,14.34,-125.37,65.19
340,1778616416912,0.19,-0.28,-0.1,14.34,-125.37,65.19
341,1778616416929,0.19,-0.28,-0.1,14.34,-125.37,65.19
342,1778616416945,0.19,-0.28,-0.1,14.34,-125.37,65.19
343,1778616416945,0.19,-0.28,-0.1,14.34,-125.37,65.19
344,1778616416961,0.19,-0.28,-0.1,14.34,-125.37,65.19
345,1778616416961,0.19,-0.28,-0.1,14.34,-125.37,65.19
346,1778616416977,0.19,-0.28,-0.1,14.34,-125.37,65.19
347,1778616416993,0.19,-0.28,-0.1,14.34,-125.37,65.19
348,1778616416993,0.19,-0.28,-0.1,14.34,-125.37,65.19
349,1778616417010,0.19,-0.28,-0.1,14.34,-125.37,65.19
350,1778616417010,0.19,-0.28,-0.1,14.34,-125.37,65.19
351,1778616417026,0.19,-0.28,-0.1,14.34,-125.37,65.19
352,1778616417042,0.19,-0.28,-0.1,14.34,-125.37,65.19
353,1778616417042,0.19,-0.28,-0.1,14.34,-125.37,65.19
354,1778616417058,0.19,-0.28,-0.1,14.34,-125.37,65.19
355,1778616417074,0.19,-0.28,-0.1,14.34,-125.37,65.19
356,1778616417074,0.19,-0.28,-0.1,14.34,-125.37,65.19
357,1778616417090,0.19,-0.28,-0.1,14.34,-125.37,65.19
358,1778616417090,0.19,-0.28,-0.1,14.34,-125.37,65.19
359,1778616417107,0.19,-0.28,-0.1,14.34,-125.37,65.19
360,1778616417122,0.19,-0.28,-0.1,14.34,-125.37,65.19
361,1778616417122,0.19,-0.28,-0.1,14.34,-125.37,65.19
362,1778616417139,0.19,-0.28,-0.1,14.34,-125.37,65.19
363,1778616417155,0.19,-0.28,-0.1,14.34,-125.37,65.19
364,1778616417155,0.19,-0.28,-0.1,14.34,-125.37,65.19
365,1778616417171,0.19,-0.28,-0.1,14.34,-125.37,65.19
366,1778616417171,0.19,-0.28,-0.1,14.34,-125.37,65.19
367,1778616417187,0.19,-0.28,-0.1,14.34,-125.37,65.19
368,1778616417204,0.19,-0.28,-0.1,14.34,-125.37,65.19
369,1778616417204,0.19,-0.28,-0.1,14.34,-125.37,65.19
370,1778616417220,-0.13,-0.05,0.07,-42.18,34.12,-48.16
371,1778616417220,-0.13,-0.05,0.07,-42.18,34.12,-48.16
372,1778616417236,-0.13,-0.05,0.07,-42.18,34.12,-48.16
373,1778616417252,0.25,-0.47,0.33,86.0,167.91,-120.0
374,1778616417252,0.25,-0.47,0.33,86.0,167.91,-120.0
375,1778616417268,0.25,-0.47,0.33,86.0,167.91,-120.0
376,1778616417284,-0.1,0.02,-0.29,79.04,134.4,0.0
377,1778616417284,-0.1,0.02,-0.29,79.04,134.4,0.0
378,1778616417301,-0.1,0.02,-0.29,79.04,134.4,0.0
379,1778616417301,-0.1,0.02,-0.29,79.04,134.4,0.0
380,1778616417317,-0.1,0.02,-0.29,79.04,134.4,0.0
381,1778616417333,-0.31,-0.04,-0.17,142.76,39.37,-4.15
382,1778616417333,-0.31,-0.04,-0.17,142.76,39.37,-4.15
383,1778616417349,-0.31,-0.04,-0.17,142.76,39.37,-4.15
384,1778616417366,-0.31,-0.04,-0.17,142.76,39.37,-4.15
385,1778616417366,-0.31,-0.04,-0.17,142.76,39.37,-4.15
386,1778616417382,-0.31,-0.04,-0.17,142.76,39.37,-4.15
387,1778616417382,-0.31,-0.04,-0.17,142.76,39.37,-4.15
388,1778616417398,-0.31,-0.04,-0.17,142.76,39.37,-4.15
389,1778616417414,-0.31,-0.04,-0.17,142.76,39.37,-4.15
390,1778616417414,-0.31,-0.04,-0.17,142.76,39.37,-4.15
391,1778616417430,-0.31,-0.04,-0.17,142.76,39.37,-4.15
392,1778616417431,-0.31,-0.04,-0.17,142.76,39.37,-4.15
393,1778616417446,-0.31,-0.04,-0.17,142.76,39.37,-4.15
394,1778616417463,-0.31,-0.04,-0.17,142.76,39.37,-4.15
395,1778616417463,-0.31,-0.04,-0.17,142.76,39.37,-4.15
396,1778616417479,-0.31,-0.04,-0.17,142.76,39.37,-4.15
397,1778616417495,-0.31,-0.04,-0.17,142.76,39.37,-4.15
398,1778616417495,-0.31,-0.04,-0.17,142.76,39.37,-4.15
399,1778616417512,-0.31,-0.04,-0.17,142.76,39.37,-4.15
400,1778616417512,-0.31,-0.04,-0.17,142.76,39.37,-4.15
401,1778616417528,-0.31,-0.04,-0.17,142.76,39.37,-4.15
402,1778616417544,-0.31,-0.04,-0.17,142.76,39.37,-4.15
403,1778616417544,-0.31,-0.04,-0.17,142.76,39.37,-4.15
404,1778616417561,-0.31,-0.04,-0.17,142.76,39.37,-4.15
405,1778616417561,-0.31,-0.04,-0.17,142.76,39.37,-4.15
406,1778616417577,-0.31,-0.04,-0.17,142.76,39.37,-4.15
407,1778616417594,-0.31,-0.04,-0.17,142.76,39.37,-4.15
408,1778616417594,-0.31,-0.04,-0.17,142.76,39.37,-4.15
409,1778616417610,-0.31,-0.04,-0.17,142.76,39.37,-4.15
410,1778616417610,-0.31,-0.04,-0.17,142.76,39.37,-4.15
411,1778616417626,-0.31,-0.04,-0.17,142.76,39.37,-4.15
412,1778616417642,0.02,-0.63,0.46,-29.05,-181.09,20.45
413,1778616417642,0.02,-0.63,0.46,-29.05,-181.09,20.45
414,1778616417658,0.02,-0.63,0.46,-29.05,-181.09,20.45
415,1778616417674,0.02,-0.63,0.46,-29.05,-181.09,20.45
416,1778616417674,0.02,-0.63,0.46,-29.05,-181.09,20.45
417,1778616417690,0.02,-0.63,0.46,-29.05,-181.09,20.45
418,1778616417690,0.02,-0.63,0.46,-29.05,-181.09,20.45
419,1778616417707,0.02,-0.63,0.46,-29.05,-181.09,20.45
420,1778616417723,0.02,-0.63,0.46,-29.05,-181.09,20.45
421,1778616417723,0.02,-0.63,0.46,-29.05,-181.09,20.45
422,1778616417740,0.02,-0.63,0.46,-29.05,-181.09,20.45
423,1778616417740,0.02,-0.63,0.46,-29.05,-181.09,20.45
424,1778616417756,0.02,-0.63,0.46,-29.05,-181.09,20.45
425,1778616417772,0.02,-0.63,0.46,-29.05,-181.09,20.45
426,1778616417772,0.02,-0.63,0.46,-29.05,-181.09,20.45
427,1778616417790,0.02,-0.63,0.46,-29.05,-181.09,20.45
428,1778616417790,0.02,-0.63,0.46,-29.05,-181.09,20.45
429,1778616417807,0.02,-0.63,0.46,-29.05,-181.09,20.45
430,1778616417823,0.02,-0.63,0.46,-29.05,-181.09,20.45
431,1778616417823,0.02,-0.63,0.46,-29.05,-181.09,20.45
432,1778616417839,0.02,-0.63,0.46,-29.05,-181.09,20.45
433,1778616417839,0.02,-0.63,0.46,-29.05,-181.09,20.45
434,1778616417856,0.02,-0.63,0.46,-29.05,-181.09,20.45
435,1778616417872,0.02,-0.63,0.46,-29.05,-181.09,20.45
436,1778616417872,0.02,-0.63,0.46,-29.05,-181.09,20.45
437,1778616417888,0.02,-0.63,0.46,-29.05,-181.09,20.45
438,1778616417905,0.02,-0.63,0.46,-29.05,-181.09,20.45
439,1778616417905,0.02,-0.63,0.46,-29.05,-181.09,20.45
440,1778616417921,0.02,-0.63,0.46,-29.05,-181.09,20.45
441,1778616417921,0.02,-0.63,0.46,-29.05,-181.09,20.45
442,1778616417938,0.02,-0.63,0.46,-29.05,-181.09,20.45
443,1778616417955,0.02,-0.63,0.46,-29.05,-181.09,20.45
444,1778616417955,0.02,-0.63,0.46,-29.05,-181.09,20.45
445,1778616417971,0.02,-0.63,0.46,-29.05,-181.09,20.45
446,1778616417971,0.02,-0.63,0.46,-29.05,-181.09,20.45
447,1778616417987,0.02,-0.63,0.46,-29.05,-181.09,20.45
448,1778616418003,0.02,-0.63,0.46,-29.05,-181.09,20.45
449,1778616418003,0.02,-0.63,0.46,-29.05,-181.09,20.45
450,1778616418019,0.02,-0.63,0.46,-29.05,-181.09,20.45
451,1778616418035,0.02,-0.63,0.46,-29.05,-181.09,20.45
452,1778616418035,0.02,-0.63,0.46,-29.05,-181.09,20.45
453,1778616418051,0.02,-0.63,0.46,-29.05,-181.09,20.45
454,1778616418051,0.02,-0.63,0.46,-29.05,-181.09,20.45
455,1778616418067,0.02,-0.63,0.46,-29.05,-181.09,20.45
456,1778616418084,0.02,-0.63,0.46,-29.05,-181.09,20.45
457,1778616418084,0.02,-0.63,0.46,-29.05,-181.09,20.45
458,1778616418100,0.02,-0.63,0.46,-29.05,-181.09,20.45
459,1778616418100,0.02,-0.63,0.46,-29.05,-181.09,20.45
460,1778616418116,0.02,-0.63,0.46,-29.05,-181.09,20.45
461,1778616418132,0.02,-0.63,0.46,-29.05,-181.09,20.45
462,1778616418132,0.02,-0.63,0.46,-29.05,-181.09,20.45
463,1778616418148,-0.3,0.15,0.02,39.0,-12.08,-11.9
464,1778616418165,-0.25,0.7,0.28,114.07,-79.53,-99.0
465,1778616418165,-0.25,0.7,0.28,114.07,-79.53,-99.0
466,1778616418181,-0.25,0.7,0.28,114.07,-79.53,-99.0
467,1778616418181,-0.25,0.7,0.28,114.07,-79.53,-99.0
468,1778616418197,0.11,-0.12,0.22,-58.9,-20.94,4.21
469,1778616418213,0.11,-0.12,0.22,-58.9,-20.94,4.21
470,1778616418213,0.11,-0.12,0.22,-58.9,-20.94,4.21
471,1778616418229,0.11,-0.12,0.22,-58.9,-20.94,4.21
472,1778616418245,0.08,-0.23,0.24,-22.34,-11.05,-67.5
473,1778616418245,0.08,-0.23,0.24,-22.34,-11.05,-67.5
474,1778616418261,0.08,-0.23,0.24,-22.34,-11.05,-67.5
475,1778616418261,0.08,-0.23,0.24,-22.34,-11.05,-67.5
476,1778616418277,0.08,-0.23,0.24,-22.34,-11.05,-67.5
477,1778616418293,0.08,-0.23,0.24,-22.34,-11.05,-67.5
478,1778616418293,0.08,-0.23,0.24,-22.34,-11.05,-67.5
479,1778616418309,0.08,-0.23,0.24,-22.34,-11.05,-67.5
480,1778616418326,0.08,-0.23,0.24,-22.34,-11.05,-67.5
481,1778616418326,0.08,-0.23,0.24,-22.34,-11.05,-67.5
482,1778616418342,0.08,-0.23,0.24,-22.34,-11.05,-67.5
483,1778616418342,0.08,-0.23,0.24,-22.34,-11.05,-67.5
484,1778616418358,0.08,-0.23,0.24,-22.34,-11.05,-67.5
485,1778616418374,0.08,-0.23,0.24,-22.34,-11.05,-67.5
486,1778616418374,0.08,-0.23,0.24,-22.34,-11.05,-67.5
487,1778616418391,0.08,-0.23,0.24,-22.34,-11.05,-67.5
488,1778616418391,0.08,-0.23,0.24,-22.34,-11.05,-67.5
489,1778616418407,0.08,-0.23,0.24,-22.34,-11.05,-67.5
490,1778616418423,0.08,-0.23,0.24,-22.34,-11.05,-67.5
491,1778616418423,0.08,-0.23,0.24,-22.34,-11.05,-67.5
492,1778616418439,0.08,-0.23,0.24,-22.34,-11.05,-67.5
493,1778616418455,0.08,-0.23,0.24,-22.34,-11.05,-67.5
494,1778616418455,0.08,-0.23,0.24,-22.34,-11.05,-67.5
495,1778616418472,0.08,-0.23,0.24,-22.34,-11.05,-67.5
496,1778616418472,0.08,-0.23,0.24,-22.34,-11.05,-67.5
497,1778616418488,0.08,-0.23,0.24,-22.34,-11.05,-67.5
498,1778616418504,0.08,-0.23,0.24,-22.34,-11.05,-67.5
499,1778616418504,0.08,-0.23,0.24,-22.34,-11.05,-67.5
500,1778616418520,0.08,-0.23,0.24,-22.34,-11.05,-67.5
501,1778616418520,0.08,-0.23,0.24,-22.34,-11.05,-67.5
502,1778616418536,0.08,-0.23,0.24,-22.34,-11.05,-67.5
503,1778616418552,0.08,-0.23,0.24,-22.34,-11.05,-67.5
504,1778616418552,0.08,-0.23,0.24,-22.34,-11.05,-67.5
505,1778616418568,1.28,-2.81,0.5,44.74,-42.42,-5.19
506,1778616418585,1.28,-2.81,0.5,44.74,-42.42,-5.19
507,1778616418585,1.28,-2.81,0.5,44.74,-42.42,-5.19
508,1778616418601,1.28,-2.81,0.5,44.74,-42.42,-5.19
509,1778616418601,1.28,-2.81,0.5,44.74,-42.42,-5.19
510,1778616418617,1.28,-2.81,0.5,44.74,-42.42,-5.19
511,1778616418634,1.28,-2.81,0.5,44.74,-42.42,-5.19
512,1778616418634,1.28,-2.81,0.5,44.74,-42.42,-5.19
513,1778616418650,-0.26,-0.97,0.32,-36.5,-95.64,-33.02
514,1778616418650,-0.26,-0.97,0.32,-36.5,-95.64,-33.02
515,1778616418666,0.24,0.52,-0.26,-62.87,-110.96,-51.45
516,1778616418683,0.24,0.52,-0.26,-62.87,-110.96,-51.45
517,1778616418683,0.24,0.52,-0.26,-62.87,-110.96,-51.45
518,1778616418699,0.24,0.52,-0.26,-62.87,-110.96,-51.45
519,1778616418715,0.24,0.52,-0.26,-62.87,-110.96,-51.45
520,1778616418715,0.24,0.52,-0.26,-62.87,-110.96,-51.45
521,1778616418731,0.24,0.52,-0.26,-62.87,-110.96,-51.45
522,1778616418731,0.24,0.52,-0.26,-62.87,-110.96,-51.45
523,1778616418748,0.24,0.52,-0.26,-62.87,-110.96,-51.45
524,1778616418764,0.24,0.52,-0.26,-62.87,-110.96,-51.45
525,1778616418764,0.24,0.52,-0.26,-62.87,-110.96,-51.45
526,1778616418780,0.24,0.52,-0.26,-62.87,-110.96,-51.45
527,1778616418780,0.24,0.52,-0.26,-62.87,-110.96,-51.45
528,1778616418797,0.24,0.52,-0.26,-62.87,-110.96,-51.45
529,1778616418813,0.24,0.52,-0.26,-62.87,-110.96,-51.45
530,1778616418813,0.24,0.52,-0.26,-62.87,-110.96,-51.45
531,1778616418829,0.24,0.52,-0.26,-62.87,-110.96,-51.45
532,1778616418845,0.24,0.52,-0.26,-62.87,-110.96,-51.45
533,1778616418845,0.24,0.52,-0.26,-62.87,-110.96,-51.45
534,1778616418862,0.24,0.52,-0.26,-62.87,-110.96,-51.45
535,1778616418862,0.24,0.52,-0.26,-62.87,-110.96,-51.45
536,1778616418878,0.24,0.52,-0.26,-62.87,-110.96,-51.45
537,1778616418895,0.24,0.52,-0.26,-62.87,-110.96,-51.45
538,1778616418895,0.24,0.52,-0.26,-62.87,-110.96,-51.45
539,1778616418911,0.24,0.52,-0.26,-62.87,-110.96,-51.45
540,1778616418911,0.24,0.52,-0.26,-62.87,-110.96,-51.45
541,1778616418927,0.24,0.52,-0.26,-62.87,-110.96,-51.45
542,1778616418943,0.24,0.52,-0.26,-62.87,-110.96,-51.45
543,1778616418943,0.24,0.52,-0.26,-62.87,-110.96,-51.45
544,1778616418959,0.17,-0.33,0.47,-56.15,-178.71,78.92
545,1778616418975,0.2,-1.76,-0.41,5.74,269.17,-68.6
546,1778616418975,0.2,-1.76,-0.41,5.74,269.17,-68.6
547,1778616418991,0.2,-1.76,-0.41,5.74,269.17,-68.6
548,1778616418991,0.2,-1.76,-0.41,5.74,269.17,-68.6
549,1778616419008,0.68,-3.86,1.29,92.1,-160.22,-38.15
550,1778616419024,0.68,-3.86,1.29,92.1,-160.22,-38.15
551,1778616419024,0.68,-3.86,1.29,92.1,-160.22,-38.15
552,1778616419040,0.5,-4.16,-0.65,-10.86,142.58,-32.29
553,1778616419040,0.5,-4.16,-0.65,-10.86,142.58,-32.29
554,1778616419056,0.5,-4.16,-0.65,-10.86,142.58,-32.29
555,1778616419072,0.5,-4.16,-0.65,-10.86,142.58,-32.29
556,1778616419072,0.5,-4.16,-0.65,-10.86,142.58,-32.29
557,1778616419088,0.5,-4.16,-0.65,-10.86,142.58,-32.29
558,1778616419105,0.5,-4.16,-0.65,-10.86,142.58,-32.29
559,1778616419105,0.5,-4.16,-0.65,-10.86,142.58,-32.29
560,1778616419121,0.07,-0.52,0.02,63.6,38.39,-16.78
561,1778616419121,0.07,-0.52,0.02,63.6,38.39,-16.78
562,1778616419138,0.07,-0.52,0.02,63.6,38.39,-16.78
563,1778616419153,0.07,-0.52,0.02,63.6,38.39,-16.78
564,1778616419153,0.07,-0.52,0.02,63.6,38.39,-16.78
565,1778616419169,0.07,-0.52,0.02,63.6,38.39,-16.78
566,1778616419186,0.07,-0.52,0.02,63.6,38.39,-16.78
567,1778616419186,0.07,-0.52,0.02,63.6,38.39,-16.78
568,1778616419202,0.07,-0.52,0.02,63.6,38.39,-16.78
569,1778616419202,0.07,-0.52,0.02,63.6,38.39,-16.78
570,1778616419218,0.07,-0.52,0.02,63.6,38.39,-16.78
571,1778616419234,0.07,-0.52,0.02,63.6,38.39,-16.78
572,1778616419234,0.07,-0.52,0.02,63.6,38.39,-16.78
573,1778616419251,0.07,-0.52,0.02,63.6,38.39,-16.78
574,1778616419251,0.07,-0.52,0.02,63.6,38.39,-16.78
575,1778616419267,0.07,-0.52,0.02,63.6,38.39,-16.78
576,1778616419283,0.07,-0.52,0.02,63.6,38.39,-16.78
577,1778616419283,0.07,-0.52,0.02,63.6,38.39,-16.78
578,1778616419300,0.07,-0.52,0.02,63.6,38.39,-16.78
579,1778616419300,0.07,-0.52,0.02,63.6,38.39,-16.78
580,1778616419316,0.07,-0.52,0.02,63.6,38.39,-16.78
581,1778616419332,0.07,-0.52,0.02,63.6,38.39,-16.78
582,1778616419332,0.07,-0.52,0.02,63.6,38.39,-16.78
583,1778616419348,0.07,-0.52,0.02,63.6,38.39,-16.78
584,1778616419364,0.07,-0.52,0.02,63.6,38.39,-16.78
585,1778616419364,0.07,-0.52,0.02,63.6,38.39,-16.78
586,1778616419381,0.07,-0.52,0.02,63.6,38.39,-16.78
587,1778616419381,0.07,-0.52,0.02,63.6,38.39,-16.78
588,1778616419397,0.07,-0.52,0.02,63.6,38.39,-16.78
589,1778616419413,0.07,-0.52,0.02,63.6,38.39,-16.78
590,1778616419413,0.07,-0.52,0.02,63.6,38.39,-16.78
591,1778616419430,0.07,-0.52,0.02,63.6,38.39,-16.78
592,1778616419430,0.07,-0.52,0.02,63.6,38.39,-16.78
593,1778616419446,0.07,-0.52,0.02,63.6,38.39,-16.78
594,1778616419462,0.07,-0.52,0.02,63.6,38.39,-16.78
595,1778616419462,0.07,-0.52,0.02,63.6,38.39,-16.78
596,1778616419477,0.11,-0.3,0.06,33.81,-71.35,-112.3
597,1778616419494,-0.29,-0.03,1.89,117.74,193.42,56.09
598,1778616419494,-0.29,-0.03,1.89,117.74,193.42,56.09
599,1778616419509,2.25,-1.51,2.39,204.53,-177.61,67.5
600,1778616419509,2.25,-1.51,2.39,204.53,-177.61,67.5
601,1778616419526,2.25,-1.51,2.39,204.53,-177.61,67.5
602,1778616419542,-0.68,-4.9,2.1,18.92,88.13,86.06
603,1778616419542,-0.68,-4.9,2.1,18.92,88.13,86.06
604,1778616419558,-0.68,-4.9,2.1,18.92,88.13,86.06
605,1778616419574,-0.68,-4.9,2.1,18.92,88.13,86.06
606,1778616419574,-0.68,-4.9,2.1,18.92,88.13,86.06
607,1778616419590,0.02,-2.35,1.8,36.93,-101.26,9.52
608,1778616419590,0.02,-2.35,1.8,36.93,-101.26,9.52
609,1778616419607,0.02,-2.35,1.8,36.93,-101.26,9.52
610,1778616419623,0.15,-1.94,1.26,-66.89,-60.79,-55.18
611,1778616419623,0.15,-1.94,1.26,-66.89,-60.79,-55.18
612,1778616419639,0.15,-1.94,1.26,-66.89,-60.79,-55.18
613,1778616419655,0.15,-1.94,1.26,-66.89,-60.79,-55.18
614,1778616419655,0.15,-1.94,1.26,-66.89,-60.79,-55.18
615,1778616419671,0.15,-1.94,1.26,-66.89,-60.79,-55.18
616,1778616419671,0.15,-1.94,1.26,-66.89,-60.79,-55.18
617,1778616419687,-0.35,0.41,-0.25,-33.2,-189.94,-29.72
618,1778616419703,-0.35,0.41,-0.25,-33.2,-189.94,-29.72
619,1778616419703,-0.35,0.41,-0.25,-33.2,-189.94,-29.72
620,1778616419719,-0.35,0.41,-0.25,-33.2,-189.94,-29.72
621,1778616419736,0.33,0.29,0.39,-87.46,-115.48,67.44
622,1778616419736,0.33,0.29,0.39,-87.46,-115.48,67.44
623,1778616419752,-0.21,-0.17,0.7,-91.86,-147.03,89.36
624,1778616419752,-0.21,-0.17,0.7,-91.86,-147.03,89.36
625,1778616419768,-0.21,-0.17,0.7,-91.86,-147.03,89.36
626,1778616419784,-0.21,-0.17,0.7,-91.86,-147.03,89.36
627,1778616419784,-0.21,-0.17,0.7,-91.86,-147.03,89.36
628,1778616419800,0.19,-0.42,0.43,-23.99,-35.89,64.7
629,1778616419800,0.19,-0.42,0.43,-23.99,-35.89,64.7
630,1778616419817,0.19,-0.42,0.43,-23.99,-35.89,64.7
631,1778616419833,0.19,-0.42,0.43,-23.99,-35.89,64.7
632,1778616419833,0.19,-0.42,0.43,-23.99,-35.89,64.7
633,1778616419849,0.09,0.26,-0.72,55.91,90.27,118.77
634,1778616419866,0.09,0.26,-0.72,55.91,90.27,118.77
635,1778616419866,0.09,0.26,-0.72,55.91,90.27,118.77
636,1778616419882,0.09,0.26,-0.72,55.91,90.27,118.77
637,1778616419882,0.09,0.26,-0.72,55.91,90.27,118.77
638,1778616419898,0.09,0.26,-0.72,55.91,90.27,118.77
639,1778616419914,0.09,0.26,-0.72,55.91,90.27,118.77
640,1778616419914,0.09,0.26,-0.72,55.91,90.27,118.77
641,1778616419931,0.09,0.26,-0.72,55.91,90.27,118.77
642,1778616419931,0.09,0.26,-0.72,55.91,90.27,118.77
643,1778616419948,0.09,0.26,-0.72,55.91,90.27,118.77
644,1778616419964,0.09,0.26,-0.72,55.91,90.27,118.77
645,1778616419964,0.09,0.26,-0.72,55.91,90.27,118.77
646,1778616419980,0.33,-0.48,0.56,25.45,-265.08,99.98
647,1778616419980,0.33,-0.48,0.56,25.45,-265.08,99.98
648,1778616419997,0.96,-1.42,-0.4,-56.09,374.76,-79.28
649,1778616420013,0.96,-1.42,-0.4,-56.09,374.76,-79.28
650,1778616420013,0.96,-1.42,-0.4,-56.09,374.76,-79.28
651,1778616420029,1.14,-4.42,0.58,-56.09,374.76,-79.28
652,1778616420044,1.14,-4.42,0.58,-49.93,-8.48,-197.02
653,1778616420044,1.14,-4.42,0.58,-49.93,-8.48,-197.02
654,1778616420060,-0.68,-4.52,-0.55,-49.13,238.04,-46.81
655,1778616420060,-0.68,-4.52,-0.55,-49.13,238.04,-46.81
656,1778616420077,-0.68,-4.52,-0.55,-49.13,238.04,-46.81
657,1778616420093,-0.68,-4.52,-0.55,-49.13,238.04,-46.81
658,1778616420093,-0.68,-4.52,-0.55,-49.13,238.04,-46.81
659,1778616420109,-0.07,-2.25,0.05,43.09,-90.39,20.57
660,1778616420125,-0.07,-2.25,0.05,43.09,-90.39,20.57
661,1778616420125,-0.07,-2.25,0.05,43.09,-90.39,20.57
662,1778616420142,-0.07,-2.25,0.05,43.09,-90.39,20.57
663,1778616420142,-0.07,-2.25,0.05,43.09,-90.39,20.57
664,1778616420158,-0.07,-2.25,0.05,43.09,-90.39,20.57
665,1778616420174,-0.03,0.57,-0.05,143.86,3.05,-56.64
666,1778616420174,-0.03,0.57,-0.05,143.86,3.05,-56.64
667,1778616420191,-0.03,0.57,-0.05,143.86,3.05,-56.64
668,1778616420191,-0.03,0.57,-0.05,143.86,3.05,-56.64
669,1778616420207,-0.03,0.57,-0.05,143.86,3.05,-56.64
670,1778616420223,0.03,0.14,-0.37,-54.81,-95.58,91.31
671,1778616420223,0.03,0.14,-0.37,-54.81,-95.58,91.31
672,1778616420239,0.03,0.14,-0.37,-54.81,-95.58,91.31
673,1778616420255,0.32,-0.09,0.51,21.36,-28.32,-64.15
674,1778616420255,0.32,-0.09,0.51,21.36,-28.32,-64.15
675,1778616420271,0.32,-0.09,0.51,21.36,-28.32,-64.15
676,1778616420271,0.32,-0.09,0.51,21.36,-28.32,-64.15
677,1778616420288,0.32,-0.09,0.51,21.36,-28.32,-64.15
678,1778616420304,0.81,0.05,-0.15,-10.8,194.09,-73.85
679,1778616420304,0.81,0.05,-0.15,-10.8,194.09,-73.85
680,1778616420320,0.81,0.05,-0.15,-10.8,194.09,-73.85
681,1778616420320,0.81,0.05,-0.15,-10.8,194.09,-73.85
682,1778616420336,-0.96,0.23,-0.23,51.82,13.73,-19.96
683,1778616420352,-0.96,0.23,-0.23,51.82,13.73,-19.96
684,1778616420352,-0.96,0.23,-0.23,51.82,13.73,-19.96
685,1778616420368,-0.36,-0.18,-0.04,40.77,-58.65,-75.38
686,1778616420385,-0.36,-0.18,-0.04,40.77,-58.65,-75.38
687,1778616420385,-0.36,-0.18,-0.04,40.77,-58.65,-75.38
688,1778616420401,-0.36,-0.18,-0.04,40.77,-58.65,-75.38
689,1778616420401,-0.36,-0.18,-0.04,40.77,-58.65,-75.38
690,1778616420417,0.44,0.05,0.6,78.0,-35.03,17.52
691,1778616420434,0.44,0.05,0.6,78.0,-35.03,17.52
692,1778616420434,0.44,0.05,0.6,78.0,-35.03,17.52
693,1778616420450,0.06,-0.41,0.65,167.6,35.52,71.66
694,1778616420450,0.06,-0.41,0.65,167.6,35.52,71.66
695,1778616420466,0.06,-0.41,0.65,167.6,35.52,71.66
696,1778616420482,0.31,-0.41,2.19,311.83,96.5,68.97
697,1778616420482,0.31,-0.41,2.19,311.83,96.5,68.97
698,1778616420499,0.31,-0.41,2.19,311.83,96.5,68.97
699,1778616420515,0.31,-0.41,2.19,311.83,96.5,68.97
700,1778616420515,0.31,-0.41,2.19,311.83,96.5,68.97
701,1778616420531,0.31,-0.41,2.19,311.83,96.5,68.97
702,1778616420531,0.31,-0.41,2.19,311.83,96.5,68.97
703,1778616420547,0.31,-0.41,2.19,311.83,96.5,68.97
704,1778616420564,-0.55,-3.24,0.66,-51.7,54.08,44.98
705,1778616420564,-0.55,-3.24,0.66,-51.7,54.08,44.98
706,1778616420580,-0.55,-3.24,0.66,-51.7,54.08,44.98
707,1778616420580,-0.55,-3.24,0.66,-51.7,54.08,44.98
708,1778616420596,-0.55,-3.24,0.66,-51.7,54.08,44.98
709,1778616420612,-0.55,-3.24,0.66,-51.7,54.08,44.98
710,1778616420612,-0.55,-3.24,0.66,-51.7,54.08,44.98
711,1778616420628,0.42,-3.55,0.55,7.63,-154.66,-4.09
712,1778616420644,0.23,-1.62,1.31,-36.62,-100.89,10.56
713,1778616420644,0.23,-1.62,1.31,-36.62,-100.89,10.56
714,1778616420661,0.23,-1.62,1.31,-36.62,-100.89,10.56
715,1778616420661,0.23,-1.62,1.31,-36.62,-100.89,10.56
716,1778616420677,0.23,-1.62,1.31,-36.62,-100.89,10.56
717,1778616420693,-0.06,-0.52,0.33,-50.78,-30.27,-50.11
718,1778616420693,-0.06,-0.52,0.33,-50.78,-30.27,-50.11
719,1778616420709,-0.06,-0.52,0.33,-50.78,-30.27,-50.11
720,1778616420725,-0.41,0.54,-0.35,-39.92,-33.2,-3.3
721,1778616420725,-0.41,0.54,-0.35,-39.92,-33.2,-3.3
722,1778616420741,-0.41,0.54,-0.35,-39.92,-33.2,-3.3
723,1778616420741,-0.41,0.54,-0.35,-39.92,-33.2,-3.3
724,1778616420758,0.28,-0.34,0.43,-67.57,-128.6,12.63
725,1778616420774,0.28,-0.34,0.43,-67.57,-128.6,12.63
726,1778616420774,0.28,-0.34,0.43,-67.57,-128.6,12.63
727,1778616420790,-0.04,-0.08,0.31,-48.22,-85.88,66.16
728,1778616420790,-0.04,-0.08,0.31,-48.22,-85.88,66.16
729,1778616420806,-0.04,-0.08,0.31,-48.22,-85.88,66.16
730,1778616420822,-0.04,-0.08,0.31,-48.22,-85.88,66.16
731,1778616420822,-0.04,-0.08,0.31,-48.22,-85.88,66.16
732,1778616420838,0.03,0.08,0.37,55.48,6.65,65.92
733,1778616420854,0.03,0.08,0.37,55.48,6.65,65.92
734,1778616420854,0.03,0.08,0.37,55.48,6.65,65.92
735,1778616420871,-0.12,-0.15,-0.44,-95.64,135.74,44.8
736,1778616420871,-0.12,-0.15,-0.44,-95.64,135.74,44.8
737,1778616420887,-0.12,-0.15,-0.44,-95.64,135.74,44.8
738,1778616420902,0.04,0.12,-0.02,-35.46,-28.99,79.28
739,1778616420902,0.04,0.12,-0.02,-35.46,-28.99,79.28
740,1778616420919,0.04,0.12,-0.02,-35.46,-28.99,79.28
741,1778616420935,0.04,0.12,-0.02,-35.46,-28.99,79.28
742,1778616420935,0.04,0.12,-0.02,-35.46,-28.99,79.28
743,1778616420951,0.04,0.12,-0.02,-35.46,-28.99,79.28
744,1778616420951,0.04,0.12,-0.02,-35.46,-28.99,79.28
745,1778616420967,0.04,0.12,-0.02,-35.46,-28.99,79.28
746,1778616420983,0.04,0.12,-0.02,-35.46,-28.99,79.28
747,1778616420983,0.04,0.12,-0.02,-35.46,-28.99,79.28
748,1778616421000,0.04,0.12,-0.02,-35.46,-28.99,79.28
749,1778616421000,0.04,0.12,-0.02,-35.46,-28.99,79.28
750,1778616421016,0.04,0.12,-0.02,-35.46,-28.99,79.28
751,1778616421032,0.04,0.12,-0.02,-35.46,-28.99,79.28
752,1778616421032,0.04,0.12,-0.02,-35.46,-28.99,79.28
753,1778616421048,0.04,0.12,-0.02,-35.46,-28.99,79.28
754,1778616421064,0.04,0.12,-0.02,-35.46,-28.99,79.28
755,1778616421064,0.04,0.12,-0.02,-35.46,-28.99,79.28
756,1778616421080,0.04,0.12,-0.02,-35.46,-28.99,79.28
757,1778616421080,0.04,0.12,-0.02,-35.46,-28.99,79.28
758,1778616421096,0.04,0.12,-0.02,-35.46,-28.99,79.28
759,1778616421112,0.04,0.12,-0.02,-35.46,-28.99,79.28
760,1778616421112,0.04,0.12,-0.02,-35.46,-28.99,79.28
761,1778616421129,-0.02,-2.46,0.55,52.61,-104.61,18.01
762,1778616421145,-0.02,-2.46,0.55,52.61,-104.61,18.01
763,1778616421145,-0.02,-2.46,0.55,52.61,-104.61,18.01
764,1778616421161,-0.02,-2.46,0.55,52.61,-104.61,18.01
765,1778616421161,-0.02,-2.46,0.55,52.61,-104.61,18.01
766,1778616421177,0.62,-0.48,0.49,54.2,-2.69,-57.25
767,1778616421193,0.62,-0.48,0.49,54.2,-2.69,-57.25
768,1778616421193,0.62,-0.48,0.49,54.2,-2.69,-57.25
769,1778616421210,0.36,0.94,0.3,25.21,166.32,-118.65
770,1778616421210,0.36,0.94,0.3,25.21,166.32,-118.65
771,1778616421226,0.36,0.94,0.3,25.21,166.32,-118.65
772,1778616421242,0.36,0.94,0.3,25.21,166.32,-118.65
773,1778616421242,0.36,0.94,0.3,25.21,166.32,-118.65
774,1778616421259,0.36,0.94,0.3,25.21,166.32,-118.65
775,1778616421275,0.36,0.94,0.3,25.21,166.32,-118.65
776,1778616421275,0.36,0.94,0.3,25.21,166.32,-118.65
777,1778616421291,0.36,0.94,0.3,25.21,166.32,-118.65
778,1778616421291,0.36,0.94,0.3,25.21,166.32,-118.65
779,1778616421308,0.36,0.94,0.3,25.21,166.32,-118.65
780,1778616421324,0.36,0.94,0.3,25.21,166.32,-118.65
781,1778616421324,0.36,0.94,0.3,25.21,166.32,-118.65
782,1778616421340,0.36,0.94,0.3,25.21,166.32,-118.65
783,1778616421340,0.36,0.94,0.3,25.21,166.32,-118.65
784,1778616421356,0.36,0.94,0.3,25.21,166.32,-118.65
785,1778616421372,0.36,0.94,0.3,25.21,166.32,-118.65
786,1778616421372,0.36,0.94,0.3,25.21,166.32,-118.65
787,1778616421388,0.36,0.94,0.3,25.21,166.32,-118.65
788,1778616421403,0.36,0.94,0.3,25.21,166.32,-118.65
789,1778616421403,0.36,0.94,0.3,25.21,166.32,-118.65
790,1778616421419,0.36,0.94,0.3,25.21,166.32,-118.65
791,1778616421419,0.36,0.94,0.3,25.21,166.32,-118.65
792,1778616421435,0.36,0.94,0.3,25.21,166.32,-118.65
793,1778616421450,0.36,0.94,0.3,25.21,166.32,-118.65
794,1778616421450,0.36,0.94,0.3,25.21,166.32,-118.65
795,1778616421467,0.36,0.94,0.3,25.21,166.32,-118.65
796,1778616421483,0.36,0.94,0.3,25.21,166.32,-118.65
797,1778616421483,0.36,0.94,0.3,25.21,166.32,-118.65
798,1778616421499,0.36,0.94,0.3,25.21,166.32,-118.65
799,1778616421515,0.36,0.94,0.3,25.21,166.32,-118.65
800,1778616421515,0.36,0.94,0.3,25.21,166.32,-118.65
801,1778616421531,0.36,0.94,0.3,25.21,166.32,-118.65
802,1778616421531,0.36,0.94,0.3,25.21,166.32,-118.65
803,1778616421547,0.9,-2.03,1.38,16.85,270.08,-34.91
804,1778616421563,0.9,-2.03,1.38,16.85,270.08,-34.91
805,1778616421563,0.9,-2.03,1.38,16.85,270.08,-34.91
806,1778616421580,0.9,-2.03,1.38,16.85,270.08,-34.91
807,1778616421580,0.9,-2.03,1.38,16.85,270.08,-34.91
808,1778616421596,-1.17,-2.9,2.61,-29.48,-14.22,108.28
809,1778616421612,-1.17,-2.9,2.61,-29.48,-14.22,108.28
810,1778616421612,-1.17,-2.9,2.61,-29.48,-14.22,108.28
811,1778616421628,-0.2,-3.46,0.16,-23.8,-130.19,57.37
812,1778616421644,-0.2,-3.46,0.16,-23.8,-130.19,57.37
813,1778616421644,-0.2,-3.46,0.16,-23.8,-130.19,57.37
814,1778616421660,0.38,-1.99,1.23,-47.36,-133.36,8.3
815,1778616421660,0.38,-1.99,1.23,-47.36,-133.36,8.3
816,1778616421676,0.38,-1.99,1.23,-47.36,-133.36,8.3
817,1778616421692,0.38,-1.99,1.23,-47.36,-133.36,8.3
818,1778616421692,0.38,-1.99,1.23,-47.36,-133.36,8.3
819,1778616421708,0.38,-1.99,1.23,-47.36,-133.36,8.3
820,1778616421724,0.04,-0.28,0.37,-41.08,-10.8,-57.5
821,1778616421724,0.04,-0.28,0.37,-41.08,-10.8,-57.5
822,1778616421740,0.04,-0.28,0.37,-41.08,-10.8,-57.5
823,1778616421740,0.04,-0.28,0.37,-41.08,-10.8,-57.5
824,1778616421757,0.04,-0.28,0.37,-41.08,-10.8,-57.5
825,1778616421773,0.04,-0.28,0.37,-41.08,-10.8,-57.5
826,1778616421773,0.04,-0.28,0.37,-41.08,-10.8,-57.5
827,1778616421790,0.04,-0.28,0.37,-41.08,-10.8,-57.5
828,1778616421790,0.04,-0.28,0.37,-41.08,-10.8,-57.5
829,1778616421806,0.22,-0.08,0.28,-72.75,-52.49,1.71
830,1778616421822,0.22,-0.08,0.28,-72.75,-52.49,1.71
831,1778616421822,0.22,-0.08,0.28,-72.75,-52.49,1.71
832,1778616421838,0.22,-0.08,0.28,-72.75,-52.49,1.71
833,1778616421854,0.22,-0.08,0.28,-72.75,-52.49,1.71
834,1778616421854,0.22,-0.08,0.28,-72.75,-52.49,1.71
835,1778616421870,-0.11,-0.1,0.44,28.14,-68.73,71.72
836,1778616421870,-0.11,-0.1,0.44,28.14,-68.73,71.72
837,1778616421886,-0.11,-0.1,0.44,28.14,-68.73,71.72
838,1778616421903,-0.08,0.13,0.36,67.5,16.05,129.58
839,1778616421903,-0.08,0.13,0.36,67.5,16.05,129.58
840,1778616421919,-0.08,0.13,0.36,67.5,16.05,129.58
841,1778616421935,-0.08,0.13,0.36,67.5,16.05,129.58
842,1778616421935,-0.08,0.13,0.36,67.5,16.05,129.58
843,1778616421951,-0.08,0.13,0.36,67.5,16.05,129.58
844,1778616421951,-0.08,0.13,0.36,67.5,16.05,129.58
845,1778616421967,0.43,0.1,-0.11,40.41,-83.25,120.12
846,1778616421984,0.43,0.1,-0.11,40.41,-83.25,120.12
847,1778616421984,0.43,0.1,-0.11,40.41,-83.25,120.12
848,1778616422000,0.43,0.1,-0.11,40.41,-83.25,120.12
849,1778616422000,0.43,0.1,-0.11,40.41,-83.25,120.12
850,1778616422016,-0.01,-0.25,0.29,-73.49,-50.6,79.65
851,1778616422032,-0.01,-0.25,0.29,-73.49,-50.6,79.65
852,1778616422032,-0.01,-0.25,0.29,-73.49,-50.6,79.65
853,1778616422048,-0.01,-0.25,0.29,-73.49,-50.6,79.65
854,1778616422064,-0.01,-0.25,0.29,-73.49,-50.6,79.65
855,1778616422064,-0.01,-0.25,0.29,-73.49,-50.6,79.65
856,1778616422081,-0.01,-0.25,0.29,-64.64,-8.85,24.78
857,1778616422081,-0.01,-0.25,0.29,-64.64,-8.85,24.78
858,1778616422097,-0.32,-2.48,1.51,-30.46,41.87,44.86
859,1778616422113,-0.32,-2.48,1.51,-30.46,41.87,44.86
860,1778616422113,-0.32,-2.48,1.51,-30.46,41.87,44.86
861,1778616422129,-0.11,-4.34,-0.45,-30.46,41.87,44.86
862,1778616422145,-0.11,-4.34,-0.45,-20.75,91.8,-85.51
863,1778616422145,-0.11,-4.34,-0.45,-20.75,91.8,-85.51
864,1778616422161,-0.11,-4.34,-0.45,-20.75,91.8,-85.51
865,1778616422161,-0.11,-4.34,-0.45,-20.75,91.8,-85.51
866,1778616422178,-0.11,-4.34,-0.45,-20.75,91.8,-85.51
867,1778616422194,-0.11,-4.34,-0.45,-20.75,91.8,-85.51
868,1778616422194,-0.11,-4.34,-0.45,-20.75,91.8,-85.51
869,1778616422211,0.08,-1.0,0.61,70.68,-40.34,-19.84
870,1778616422211,0.08,-1.0,0.61,70.68,-40.34,-19.84
871,1778616422227,0.08,-1.0,0.61,70.68,-40.34,-19.84
872,1778616422243,0.32,0.37,0.38,70.68,-40.34,-19.84
873,1778616422243,0.32,0.37,0.38,70.68,-40.34,-19.84
874,1778616422260,0.32,0.37,0.38,40.04,79.77,-72.33
875,1778616422260,0.32,0.37,0.38,40.04,79.77,-72.33
876,1778616422276,0.32,0.37,0.38,40.04,79.77,-72.33
877,1778616422292,-0.26,0.5,-0.16,108.15,109.8,-104.61
878,1778616422292,-0.26,0.5,-0.16,108.15,109.8,-104.61
879,1778616422308,-0.26,0.5,-0.16,108.15,109.8,-104.61
880,1778616422324,0.07,-0.12,-0.11,-9.95,-60.79,13.37
881,1778616422324,0.07,-0.12,-0.11,-9.95,-60.79,13.37
882,1778616422340,0.07,-0.12,-0.11,-9.95,-60.79,13.37
883,1778616422340,0.07,-0.12,-0.11,-9.95,-60.79,13.37
884,1778616422356,-0.16,-0.14,0.11,-71.04,-0.06,-45.9
885,1778616422372,-0.16,-0.14,0.11,-71.04,-0.06,-45.9
886,1778616422372,-0.16,-0.14,0.11,-71.04,-0.06,-45.9
887,1778616422388,0.07,-0.04,0.24,7.08,37.41,-64.64
888,1778616422404,0.07,-0.04,0.24,7.08,37.41,-64.64
889,1778616422404,0.07,-0.04,0.24,7.08,37.41,-64.64
890,1778616422421,0.07,-0.16,0.05,11.96,80.81,-29.48
891,1778616422421,0.07,-0.16,0.05,11.96,80.81,-29.48
892,1778616422437,0.07,-0.16,0.05,11.96,80.81,-29.48
893,1778616422453,-0.35,0.12,0.15,65.8,27.53,-59.63
894,1778616422453,-0.35,0.12,0.15,65.8,27.53,-59.63
895,1778616422469,-0.35,0.12,0.15,65.8,27.53,-59.63
896,1778616422486,-0.35,0.12,0.15,65.8,27.53,-59.63
897,1778616422486,-0.35,0.12,0.15,65.8,27.53,-59.63
898,1778616422502,-0.35,0.12,0.15,65.8,27.53,-59.63
899,1778616422502,-0.35,0.12,0.15,65.8,27.53,-59.63
900,1778616422518,-0.35,0.12,0.15,65.8,27.53,-59.63
901,1778616422535,-0.16,-0.42,2.3,66.53,126.46,73.79
902,1778616422535,-0.16,-0.42,2.3,66.53,126.46,73.79
903,1778616422551,-0.16,-0.42,2.3,66.53,126.46,73.79
904,1778616422551,-0.16,-0.42,2.3,66.53,126.46,73.79
905,1778616422567,-0.16,-0.42,2.3,66.53,126.46,73.79
906,1778616422583,1.09,-1.92,0.71,-38.64,196.9,-40.53
907,1778616422583,1.09,-1.92,0.71,-38.64,196.9,-40.53
908,1778616422599,1.09,-1.92,0.71,-38.64,196.9,-40.53
909,1778616422615,1.09,-1.92,0.71,-38.64,196.9,-40.53
910,1778616422615,1.09,-1.92,0.71,-38.64,196.9,-40.53
911,1778616422632,1.09,-1.92,0.71,-38.64,196.9,-40.53
912,1778616422632,1.09,-1.92,0.71,-38.64,196.9,-40.53
913,1778616422648,0.02,-3.05,1.56,41.93,-168.82,224.91
914,1778616422664,0.02,-3.05,1.56,41.93,-168.82,224.91
915,1778616422664,0.02,-3.05,1.56,41.93,-168.82,224.91
916,1778616422681,0.02,-3.05,1.56,41.93,-168.82,224.91
917,1778616422681,0.02,-3.05,1.56,41.93,-168.82,224.91
918,1778616422697,-0.04,-2.37,1.12,0.85,-138.55,-33.14
919,1778616422712,-0.04,-2.37,1.12,0.85,-138.55,-33.14
920,1778616422712,-0.04,-2.37,1.12,0.85,-138.55,-33.14
921,1778616422729,-0.04,-2.37,1.12,0.85,-138.55,-33.14
922,1778616422745,-0.04,-2.37,1.12,0.85,-138.55,-33.14
923,1778616422745,-0.04,-2.37,1.12,0.85,-138.55,-33.14
924,1778616422761,-0.04,-2.37,1.12,0.85,-138.55,-33.14
925,1778616422761,-0.04,-2.37,1.12,0.85,-138.55,-33.14
926,1778616422777,-0.09,0.42,-0.23,-7.63,-34.12,-22.77
927,1778616422793,-0.09,0.42,-0.23,-7.63,-34.12,-22.77
928,1778616422793,-0.09,0.42,-0.23,-7.63,-34.12,-22.77
929,1778616422810,-0.09,0.42,-0.23,-7.63,-34.12,-22.77
930,1778616422810,-0.09,0.42,-0.23,-7.63,-34.12,-22.77
931,1778616422826,0.38,0.53,0.31,-124.51,-108.64,0.79
932,1778616422842,0.38,0.53,0.31,-124.51,-108.64,0.79
933,1778616422842,0.38,0.53,0.31,-124.51,-108.64,0.79
934,1778616422859,-0.11,-0.58,0.27,-53.77,-10.68,22.03
935,1778616422875,-0.07,0.05,0.43,-13.31,0.18,50.17
936,1778616422875,-0.07,0.05,0.43,-13.31,0.18,50.17
937,1778616422891,-0.07,0.05,0.43,-13.31,0.18,50.17
938,1778616422891,-0.07,0.05,0.43,-13.31,0.18,50.17
939,1778616422908,-0.07,0.05,0.43,-13.31,0.18,50.17
940,1778616422924,-0.27,-0.02,0.11,-5.86,28.08,53.59
941,1778616422924,-0.27,-0.02,0.11,-5.86,28.08,53.59
942,1778616422940,-0.27,-0.02,0.11,-5.86,28.08,53.59
943,1778616422940,-0.27,-0.02,0.11,-5.86,28.08,53.59
944,1778616422956,-0.27,-0.02,0.11,-5.86,28.08,53.59
945,1778616422973,-0.27,-0.02,0.11,-5.86,28.08,53.59
946,1778616422973,-0.27,-0.02,0.11,-5.86,28.08,53.59
947,1778616422989,-0.27,-0.02,0.11,-5.86,28.08,53.59
948,1778616423005,-0.27,-0.02,0.11,-5.86,28.08,53.59
949,1778616423005,-0.27,-0.02,0.11,-5.86,28.08,53.59
950,1778616423022,-0.27,-0.02,0.11,-5.86,28.08,53.59
951,1778616423022,-0.27,-0.02,0.11,-5.86,28.08,53.59
952,1778616423038,-0.27,-0.02,0.11,-5.86,28.08,53.59
953,1778616423054,-0.27,-0.02,0.11,-5.86,28.08,53.59
954,1778616423054,-0.27,-0.02,0.11,-5.86,28.08,53.59
955,1778616423070,-0.27,-0.02,0.11,-5.86,28.08,53.59
956,1778616423070,-0.27,-0.02,0.11,-5.86,28.08,53.59
957,1778616423087,-0.27,-0.02,0.11,-5.86,28.08,53.59
958,1778616423103,-0.27,-0.02,0.11,-5.86,28.08,53.59
959,1778616423103,-0.27,-0.02,0.11,-5.86,28.08,53.59
960,1778616423119,-0.27,-0.02,0.11,-5.86,28.08,53.59
961,1778616423135,-0.27,-0.02,0.11,-5.86,28.08,53.59
962,1778616423135,-0.27,-0.02,0.11,-5.86,28.08,53.59
963,1778616423151,-0.27,-0.02,0.11,-5.86,28.08,53.59
964,1778616423151,-0.27,-0.02,0.11,-5.86,28.08,53.59
965,1778616423167,-0.27,-0.02,0.11,-5.86,28.08,53.59
966,1778616423184,-0.27,-0.02,0.11,-5.86,28.08,53.59
967,1778616423184,-0.27,-0.02,0.11,-5.86,28.08,53.59
968,1778616423200,-0.27,-0.02,0.11,-5.86,28.08,53.59
969,1778616423200,-0.27,-0.02,0.11,-5.86,28.08,53.59
970,1778616423215,-0.27,-0.02,0.11,-5.86,28.08,53.59
971,1778616423231,-0.27,-0.02,0.11,-5.86,28.08,53.59
972,1778616423231,-0.27,-0.02,0.11,-5.86,28.08,53.59
973,1778616423247,-0.27,-0.02,0.11,-5.86,28.08,53.59
974,1778616423263,-0.27,-0.02,0.11,-5.86,28.08,53.59
975,1778616423263,-0.27,-0.02,0.11,-5.86,28.08,53.59
976,1778616423280,-0.27,-0.02,0.11,-5.86,28.08,53.59
977,1778616423280,-0.27,-0.02,0.11,-5.86,28.08,53.59
978,1778616423296,-0.27,-0.02,0.11,-5.86,28.08,53.59
979,1778616423313,-0.33,-0.03,-0.65,-43.76,1.28,61.1
980,1778616423313,-0.33,-0.03,-0.65,-43.76,1.28,61.1
981,1778616423328,-0.01,-0.35,-0.02,-99.43,13.85,-34.91
982,1778616423345,-0.01,-0.35,-0.02,21.73,61.58,-5.43
983,1778616423345,-0.01,-0.35,-0.02,21.73,61.58,-5.43
984,1778616423361,-0.01,-0.35,-0.02,21.73,61.58,-5.43
985,1778616423361,-0.01,-0.35,-0.02,21.73,61.58,-5.43
986,1778616423377,-0.09,-0.33,0.49,100.16,99.18,-35.58
987,1778616423394,-0.09,-0.33,0.49,100.16,99.18,-35.58
988,1778616423394,-0.09,-0.33,0.49,100.16,99.18,-35.58
989,1778616423410,0.31,0.24,0.36,125.24,172.97,-80.75
990,1778616423410,0.31,0.24,0.36,125.24,172.97,-80.75
991,1778616423426,0.31,0.24,0.36,125.24,172.97,-80.75
992,1778616423442,-0.4,0.11,-0.33,88.87,183.9,-16.36
993,1778616423442,-0.4,0.11,-0.33,88.87,183.9,-16.36
994,1778616423459,-0.4,0.11,-0.33,88.87,183.9,-16.36
995,1778616423475,-0.4,0.11,-0.33,88.87,183.9,-16.36
996,1778616423475,-0.4,0.11,-0.33,88.87,183.9,-16.36
997,1778616423491,-0.59,-0.1,-0.41,107.67,-65.92,27.71
998,1778616423491,-0.59,-0.1,-0.41,107.67,-65.92,27.71
999,1778616423507,-0.59,-0.1,-0.41,107.67,-65.92,27.71
