id,timestamp,acc_x,acc_y,acc_z,gyro_x,gyro_y,gyro_z
0,1778615592188,0.12,0.25,0.54,-35.1,-13.31,-101.01
1,1778615592204,-0.69,-0.57,0.45,-234.31,-75.32,-138.24
2,1778615592220,-0.69,-0.57,0.45,-234.31,-75.32,-138.24
3,1778615592220,-0.69,-0.57,0.45,-234.31,-75.32,-138.24
4,1778615592237,0.32,-0.2,0.29,77.03,-78.0,-16.66
5,1778615592253,0.32,-0.2,0.29,77.03,-78.0,-16.66
6,1778615592253,0.32,-0.2,0.29,77.03,-78.0,-16.66
7,1778615592269,0.32,-0.2,0.29,77.03,-78.0,-16.66
8,1778615592269,0.32,-0.2,0.29,77.03,-78.0,-16.66
9,1778615592286,0.31,-0.21,-0.07,206.12,77.27,-38.76
10,1778615592302,0.31,-0.21,-0.07,206.12,77.27,-38.76
11,1778615592302,0.31,-0.21,-0.07,206.12,77.27,-38.76
12,1778615592319,1.5,0.29,0.15,-449.71,19.78,109.31
13,1778615592319,1.5,0.29,0.15,-449.71,19.78,109.31
14,1778615592335,1.5,0.29,0.15,-449.71,19.78,109.31
15,1778615592351,2.49,1.15,0.38,-221.98,-147.22,140.62
16,1778615592351,2.49,1.15,0.38,-221.98,-147.22,140.62
17,1778615592368,2.49,1.15,0.38,-221.98,-147.22,140.62
18,1778615592383,0.94,-0.02,-0.16,18.49,70.43,42.05
19,1778615592383,0.94,-0.02,-0.16,18.49,70.43,42.05
20,1778615592400,0.94,-0.02,-0.16,18.49,70.43,42.05
21,1778615592400,0.94,-0.02,-0.16,18.49,70.43,42.05
22,1778615592416,0.94,-0.02,-0.16,18.49,70.43,42.05
23,1778615592433,2.04,0.52,-0.43,205.99,2.62,12.88
24,1778615592433,2.04,0.52,-0.43,205.99,2.62,12.88
25,1778615592449,2.04,0.52,-0.43,205.99,2.62,12.88
26,1778615592449,2.04,0.52,-0.43,205.99,2.62,12.88
27,1778615592465,2.14,0.71,-0.48,231.51,-22.77,-38.7
28,1778615592480,2.14,0.71,-0.48,231.51,-22.77,-38.7
29,1778615592480,2.14,0.71,-0.48,231.51,-22.77,-38.7
30,1778615592496,1.36,0.53,-0.38,106.45,-66.1,-34.06
31,1778615592513,1.36,0.53,-0.38,106.45,-66.1,-34.06
32,1778615592513,1.36,0.53,-0.38,106.45,-66.1,-34.06
33,1778615592528,1.36,0.53,-0.38,106.45,-66.1,-34.06
34,1778615592528,1.36,0.53,-0.38,106.45,-66.1,-34.06
35,1778615592544,0.9,0.25,-0.25,43.46,-83.98,-37.11
36,1778615592560,0.9,0.25,-0.25,43.46,-83.98,-37.11
37,1778615592560,0.9,0.25,-0.25,43.46,-83.98,-37.11
38,1778615592576,0.9,0.25,-0.25,43.46,-83.98,-37.11
39,1778615592591,0.32,0.11,0.03,47.49,-120.61,-62.68
40,1778615592591,0.32,0.11,0.03,47.49,-120.61,-62.68
41,1778615592608,0.32,0.11,0.03,47.49,-120.61,-62.68
42,1778615592608,0.32,0.11,0.03,47.49,-120.61,-62.68
43,1778615592624,0.14,-0.05,0.2,25.02,-102.17,-41.26
44,1778615592641,0.14,-0.05,0.2,25.02,-102.17,-41.26
45,1778615592641,0.14,-0.05,0.2,25.02,-102.17,-41.26
46,1778615592657,-0.11,0.15,0.41,-12.39,139.59,59.88
47,1778615592673,-0.11,0.15,0.41,-12.39,139.59,59.88
48,1778615592673,-0.11,0.15,0.41,-12.39,139.59,59.88
49,1778615592689,0.23,-0.01,-0.49,-300.54,-49.19,33.2
50,1778615592689,0.23,-0.01,-0.49,-300.54,-49.19,33.2
51,1778615592705,0.23,-0.01,-0.49,-300.54,-49.19,33.2
52,1778615592721,0.23,-0.01,-0.49,-300.54,-49.19,33.2
53,1778615592721,0.23,-0.01,-0.49,-300.54,-49.19,33.2
54,1778615592738,0.23,-0.01,-0.49,-300.54,-49.19,33.2
55,1778615592754,0.29,-0.02,-0.23,-115.42,71.96,96.31
56,1778615592754,0.29,-0.02,-0.23,-115.42,71.96,96.31
57,1778615592770,1.87,0.59,-0.42,95.34,182.92,173.16
58,1778615592770,1.87,0.59,-0.42,95.34,182.92,173.16
59,1778615592787,1.87,0.59,-0.42,95.34,182.92,173.16
60,1778615592803,2.09,-0.38,0.04,95.34,182.92,173.16
61,1778615592803,2.09,-0.38,0.04,95.34,182.92,173.16
62,1778615592819,2.09,-0.38,0.04,-82.64,116.76,1.65
63,1778615592819,2.09,-0.38,0.04,-82.64,116.76,1.65
64,1778615592835,2.09,-0.38,0.04,-82.64,116.76,1.65
65,1778615592851,2.16,0.12,-0.14,75.81,26.37,27.16
66,1778615592851,2.16,0.12,-0.14,75.81,26.37,27.16
67,1778615592867,2.16,0.12,-0.14,75.81,26.37,27.16
68,1778615592883,2.16,0.12,-0.14,75.81,26.37,27.16
69,1778615592883,2.16,0.12,-0.14,75.81,26.37,27.16
70,1778615592899,2.14,0.51,-0.08,-114.87,-70.37,7.81
71,1778615592899,2.14,0.51,-0.08,-114.87,-70.37,7.81
72,1778615592916,2.14,0.51,-0.08,-114.87,-70.37,7.81
73,1778615592932,0.71,0.36,0.29,63.42,-53.34,-57.19
74,1778615592932,0.71,0.36,0.29,63.42,-53.34,-57.19
75,1778615592948,0.71,0.36,0.29,63.42,-53.34,-57.19
76,1778615592948,0.71,0.36,0.29,63.42,-53.34,-57.19
77,1778615592964,-0.04,0.3,0.21,174.8,10.31,-95.4
78,1778615592980,-0.04,0.3,0.21,174.8,10.31,-95.4
79,1778615592980,-0.04,0.3,0.21,174.8,10.31,-95.4
80,1778615592996,-0.07,0.09,0.09,186.4,-17.03,-147.4
81,1778615593012,-0.07,0.09,0.09,186.4,-17.03,-147.4
82,1778615593012,-0.07,0.09,0.09,186.4,-17.03,-147.4
83,1778615593028,-0.07,0.09,0.09,186.4,-17.03,-147.4
84,1778615593028,-0.07,0.09,0.09,186.4,-17.03,-147.4
85,1778615593044,-0.17,0.03,0.61,85.51,-51.76,-139.53
86,1778615593060,-0.17,0.03,0.61,85.51,-51.76,-139.53
87,1778615593060,-0.17,0.03,0.61,85.51,-51.76,-139.53
88,1778615593076,-0.24,-0.63,0.3,55.3,8.91,-20.69
89,1778615593092,-0.24,-0.63,0.3,55.3,8.91,-20.69
90,1778615593092,-0.24,-0.63,0.3,55.3,8.91,-20.69
91,1778615593108,0.02,0.12,0.13,144.65,-29.97,67.08
92,1778615593124,0.02,0.12,0.13,144.65,-29.97,67.08
93,1778615593124,0.02,0.12,0.13,144.65,-29.97,67.08
94,1778615593140,0.02,0.12,0.13,144.65,-29.97,67.08
95,1778615593140,0.02,0.12,0.13,144.65,-29.97,67.08
96,1778615593156,0.49,-0.28,-0.72,-420.35,-126.1,71.78
97,1778615593172,0.49,-0.28,-0.72,-420.35,-126.1,71.78
98,1778615593172,0.49,-0.28,-0.72,-420.35,-126.1,71.78
99,1778615593188,4.03,1.89,-0.41,58.23,-46.14,194.46
100,1778615593188,4.03,1.89,-0.41,58.23,-46.14,194.46
101,1778615593204,4.03,1.89,-0.41,58.23,-46.14,194.46
102,1778615593220,4.03,1.89,-0.41,58.23,-46.14,194.46
103,1778615593220,4.03,1.89,-0.41,58.23,-46.14,194.46
104,1778615593237,2.51,0.99,-1.15,184.57,102.36,-26.73
105,1778615593253,2.51,0.99,-1.15,184.57,102.36,-26.73
106,1778615593253,2.51,0.99,-1.15,184.57,102.36,-26.73
107,1778615593269,1.2,0.48,-0.06,-7.14,-64.82,7.02
108,1778615593269,1.2,0.48,-0.06,-7.14,-64.82,7.02
109,1778615593285,1.2,0.48,-0.06,-7.14,-64.82,7.02
110,1778615593301,1.2,0.48,-0.06,-7.14,-64.82,7.02
111,1778615593301,1.2,0.48,-0.06,-7.14,-64.82,7.02
112,1778615593317,2.45,0.93,-0.68,-112.06,-68.18,0.67
113,1778615593333,2.45,0.93,-0.68,-112.06,-68.18,0.67
114,1778615593333,2.45,0.93,-0.68,-112.06,-68.18,0.67
115,1778615593349,1.52,0.45,-0.17,-98.88,-110.17,-45.23
116,1778615593349,1.52,0.45,-0.17,-98.88,-110.17,-45.23
117,1778615593365,1.52,0.45,-0.17,-98.88,-110.17,-45.23
118,1778615593381,0.78,0.08,-0.04,32.59,-80.02,-55.24
119,1778615593381,0.78,0.08,-0.04,32.59,-80.02,-55.24
120,1778615593397,0.78,0.08,-0.04,32.59,-80.02,-55.24
121,1778615593412,0.37,-0.04,0.04,98.39,-108.03,-62.26
122,1778615593412,0.37,-0.04,0.04,98.39,-108.03,-62.26
123,1778615593429,0.37,-0.04,0.04,98.39,-108.03,-62.26
124,1778615593429,0.37,-0.04,0.04,98.39,-108.03,-62.26
125,1778615593444,0.37,-0.04,0.04,98.39,-108.03,-62.26
126,1778615593460,1.14,-0.8,0.62,-173.77,-24.11,14.71
127,1778615593460,1.14,-0.8,0.62,-173.77,-24.11,14.71
128,1778615593476,1.14,-0.8,0.62,-173.77,-24.11,14.71
129,1778615593492,-0.13,-0.42,-0.95,12.94,88.26,28.44
130,1778615593492,-0.13,-0.42,-0.95,12.94,88.26,28.44
131,1778615593508,-0.13,-0.42,-0.95,12.94,88.26,28.44
132,1778615593508,-0.13,-0.42,-0.95,12.94,88.26,28.44
133,1778615593525,-0.13,-0.42,-0.95,12.94,88.26,28.44
134,1778615593541,-0.05,-0.46,-0.08,148.44,-76.9,162.29
135,1778615593541,-0.05,-0.46,-0.08,148.44,-76.9,162.29
136,1778615593557,-0.05,-0.46,-0.08,148.44,-76.9,162.29
137,1778615593573,-0.05,-0.02,0.25,123.35,122.8,139.71
138,1778615593573,-0.05,-0.02,0.25,123.35,122.8,139.71
139,1778615593589,-0.05,-0.02,0.25,123.35,122.8,139.71
140,1778615593589,-0.05,-0.02,0.25,123.35,122.8,139.71
141,1778615593605,-0.05,-0.02,0.25,123.35,122.8,139.71
142,1778615593621,0.33,0.19,0.29,-25.15,357.24,-14.04
143,1778615593621,0.33,0.19,0.29,-25.15,357.24,-14.04
144,1778615593636,0.33,0.19,0.29,-25.15,357.24,-14.04
145,1778615593652,4.24,-0.08,-1.56,-623.66,-16.3,-424.8
146,1778615593652,4.24,-0.08,-1.56,-623.66,-16.3,-424.8
147,1778615593668,4.24,-0.08,-1.56,-623.66,-16.3,-424.8
148,1778615593668,4.24,-0.08,-1.56,-623.66,-16.3,-424.8
149,1778615593684,4.24,-0.08,-1.56,-623.66,-16.3,-424.8
150,1778615593701,4.24,-0.08,-1.56,-623.66,-16.3,-424.8
151,1778615593701,4.24,-0.08,-1.56,-623.66,-16.3,-424.8
152,1778615593717,2.05,0.63,-0.29,-178.04,-40.77,54.32
153,1778615593733,2.05,0.63,-0.29,225.59,25.82,-6.41
154,1778615593733,2.05,0.63,-0.29,225.59,25.82,-6.41
155,1778615593748,2.05,0.63,-0.29,225.59,25.82,-6.41
156,1778615593748,2.05,0.63,-0.29,225.59,25.82,-6.41
157,1778615593765,1.13,0.46,0.04,-6.53,-48.65,6.23
158,1778615593781,1.13,0.46,0.04,-6.53,-48.65,6.23
159,1778615593781,1.13,0.46,0.04,-6.53,-48.65,6.23
160,1778615593797,0.1,0.53,0.3,105.35,-47.24,-82.46
161,1778615593812,0.1,0.53,0.3,105.35,-47.24,-82.46
162,1778615593812,0.1,0.53,0.3,105.35,-47.24,-82.46
163,1778615593828,0.1,0.53,0.3,105.35,-47.24,-82.46
164,1778615593828,0.1,0.53,0.3,105.35,-47.24,-82.46
165,1778615593844,-0.02,0.25,-0.09,226.5,-26.92,-129.7
166,1778615593860,-0.02,0.25,-0.09,226.5,-26.92,-129.7
167,1778615593860,-0.02,0.25,-0.09,226.5,-26.92,-129.7
168,1778615593876,-0.11,0.06,-0.14,218.51,-46.69,-143.92
169,1778615593892,-0.11,0.06,-0.14,218.51,-46.69,-143.92
170,1778615593892,-0.11,0.06,-0.14,218.51,-46.69,-143.92
171,1778615593908,-0.11,0.06,-0.14,218.51,-46.69,-143.92
172,1778615593908,-0.11,0.06,-0.14,218.51,-46.69,-143.92
173,1778615593924,-0.11,0.06,-0.14,218.51,-46.69,-143.92
174,1778615593940,-0.12,0.12,0.17,162.17,-86.73,-136.72
175,1778615593940,-0.12,0.12,0.17,162.17,-86.73,-136.72
176,1778615593957,0.39,-0.02,0.21,98.02,851.01,-113.16
177,1778615593973,0.39,-0.02,0.21,98.02,851.01,-113.16
178,1778615593973,0.39,-0.02,0.21,98.02,851.01,-113.16
179,1778615593989,0.46,0.2,-0.73,-197.45,-136.23,-71.72
180,1778615593989,0.46,0.2,-0.73,-197.45,-136.23,-71.72
181,1778615594005,0.46,0.2,-0.73,-197.45,-136.23,-71.72
182,1778615594021,0.46,0.2,-0.73,-197.45,-136.23,-71.72
183,1778615594021,0.46,0.2,-0.73,-197.45,-136.23,-71.72
184,1778615594037,0.72,0.21,-0.85,86.3,198.12,33.39
185,1778615594053,0.72,0.21,-0.85,86.3,198.12,33.39
186,1778615594053,0.72,0.21,-0.85,86.3,198.12,33.39
187,1778615594070,4.35,3.3,-1.6,28.93,127.81,38.27
188,1778615594070,4.35,3.3,-1.6,28.93,127.81,38.27
189,1778615594086,4.35,3.3,-1.6,28.93,127.81,38.27
190,1778615594102,1.38,0.61,-0.02,-79.53,-165.83,60.91
191,1778615594102,1.38,0.61,-0.02,-79.53,-165.83,60.91
192,1778615594118,1.38,0.61,-0.02,-79.53,-165.83,60.91
193,1778615594118,1.38,0.61,-0.02,-79.53,-165.83,60.91
194,1778615594134,1.38,0.61,-0.02,-79.53,-165.83,60.91
195,1778615594151,2.08,1.28,-0.31,47.97,-49.13,-37.78
196,1778615594151,2.08,1.28,-0.31,47.97,-49.13,-37.78
197,1778615594167,2.08,1.28,-0.31,47.97,-49.13,-37.78
198,1778615594183,1.64,1.09,-0.09,-23.07,-163.21,-23.07
199,1778615594183,1.64,1.09,-0.09,-23.07,-163.21,-23.07
200,1778615594199,1.64,1.09,-0.09,-23.07,-163.21,-23.07
201,1778615594199,1.64,1.09,-0.09,-23.07,-163.21,-23.07
202,1778615594215,1.64,1.09,-0.09,-23.07,-163.21,-23.07
203,1778615594232,0.9,0.34,0.09,14.1,-132.45,-15.01
204,1778615594232,0.9,0.34,0.09,14.1,-132.45,-15.01
205,1778615594248,0.9,0.34,0.09,14.1,-132.45,-15.01
206,1778615594248,0.9,0.34,0.09,14.1,-132.45,-15.01
207,1778615594264,-0.42,1.01,3.26,-103.64,-316.53,-66.04
208,1778615594280,-0.42,1.01,3.26,-103.64,-316.53,-66.04
209,1778615594280,-0.42,1.01,3.26,-103.64,-316.53,-66.04
210,1778615594296,1.27,-0.04,0.2,-176.39,34.36,15.63
211,1778615594313,1.27,-0.04,0.2,-176.39,34.36,15.63
212,1778615594313,1.27,-0.04,0.2,-176.39,34.36,15.63
213,1778615594328,0.19,-0.23,-0.34,42.91,195.01,107.42
214,1778615594328,0.19,-0.23,-0.34,42.91,195.01,107.42
215,1778615594344,0.19,-0.23,-0.34,42.91,195.01,107.42
216,1778615594360,0.19,-0.23,-0.34,42.91,195.01,107.42
217,1778615594360,0.19,-0.23,-0.34,42.91,195.01,107.42
218,1778615594376,0.06,-0.64,-0.11,170.53,-45.72,128.54
219,1778615594392,0.06,-0.64,-0.11,170.53,-45.72,128.54
220,1778615594392,0.06,-0.64,-0.11,170.53,-45.72,128.54
221,1778615594408,0.11,-0.44,0.35,7.14,24.11,325.68
222,1778615594408,0.11,-0.44,0.35,7.14,24.11,325.68
223,1778615594424,0.11,-0.44,0.35,7.14,24.11,325.68
224,1778615594440,0.11,-0.44,0.35,7.14,24.11,325.68
225,1778615594440,0.11,-0.44,0.35,7.14,24.11,325.68
226,1778615594457,-0.2,0.96,1.06,-232.42,85.51,389.59
227,1778615594473,-0.2,0.96,1.06,-232.42,85.51,389.59
228,1778615594473,-0.2,0.96,1.06,-232.42,85.51,389.59
229,1778615594489,0.75,-0.4,-0.24,-387.76,244.38,122.13
230,1778615594489,0.75,-0.4,-0.24,-387.76,244.38,122.13
231,1778615594505,0.75,-0.4,-0.24,-387.76,244.38,122.13
232,1778615594521,4.47,-0.05,0.56,-96.56,-411.68,-426.82
233,1778615594521,4.47,-0.05,0.56,-96.56,-411.68,-426.82
234,1778615594537,4.47,-0.05,0.56,-96.56,-411.68,-426.82
235,1778615594553,4.47,-0.05,0.56,-96.56,-411.68,-426.82
236,1778615594553,4.47,-0.05,0.56,-96.56,-411.68,-426.82
237,1778615594569,2.59,0.63,1.44,-141.24,-39.18,151.55
238,1778615594569,2.59,0.63,1.44,-141.24,-39.18,151.55
239,1778615594585,2.59,0.63,1.44,-141.24,-39.18,151.55
240,1778615594601,1.92,0.86,-0.34,212.95,143.68,-80.57
241,1778615594601,1.92,0.86,-0.34,212.95,143.68,-80.57
242,1778615594618,1.92,0.86,-0.34,212.95,143.68,-80.57
243,1778615594634,1.96,0.41,-0.25,212.95,143.68,-80.57
244,1778615594634,1.96,0.41,-0.25,212.95,143.68,-80.57
245,1778615594650,1.96,0.41,-0.25,240.54,13.0,-181.7
246,1778615594650,1.96,0.41,-0.25,240.54,13.0,-181.7
247,1778615594666,1.96,0.41,-0.25,240.54,13.0,-181.7
248,1778615594683,0.43,0.44,0.03,81.3,5.55,-87.4
249,1778615594683,0.43,0.44,0.03,81.3,5.55,-87.4
250,1778615594699,0.43,0.44,0.03,81.3,5.55,-87.4
251,1778615594699,0.43,0.44,0.03,81.3,5.55,-87.4
252,1778615594715,-0.03,0.09,0.0,112.85,15.69,-117.43
253,1778615594731,-0.03,0.09,0.0,112.85,15.69,-117.43
254,1778615594731,-0.03,0.09,0.0,112.85,15.69,-117.43
255,1778615594747,-0.06,0.01,0.04,128.17,6.16,-129.82
256,1778615594763,-0.06,0.01,0.04,128.17,6.16,-129.82
257,1778615594763,-0.06,0.01,0.04,128.17,6.16,-129.82
258,1778615594779,-0.06,0.01,0.04,128.17,6.16,-129.82
259,1778615594779,-0.06,0.01,0.04,128.17,6.16,-129.82
260,1778615594794,-0.37,-0.06,0.25,134.7,9.77,-132.81
261,1778615594810,-0.37,-0.06,0.25,134.7,9.77,-132.81
262,1778615594810,-0.37,-0.06,0.25,134.7,9.77,-132.81
263,1778615594826,0.15,-0.03,0.19,218.44,90.39,9.22
264,1778615594841,0.15,-0.03,0.19,218.44,90.39,9.22
265,1778615594841,0.15,-0.03,0.19,218.44,90.39,9.22
266,1778615594858,0.02,0.04,-0.02,127.93,171.87,-10.5
267,1778615594873,0.02,0.04,-0.02,127.93,171.87,-10.5
268,1778615594873,0.02,0.04,-0.02,127.93,171.87,-10.5
269,1778615594889,0.46,-0.16,0.08,127.93,171.87,-10.5
270,1778615594889,0.46,-0.16,0.08,127.93,171.87,-10.5
271,1778615594906,0.46,-0.16,0.08,-316.16,-232.12,83.74
272,1778615594922,0.46,-0.16,0.08,-316.16,-232.12,83.74
273,1778615594922,0.46,-0.16,0.08,-316.16,-232.12,83.74
274,1778615594938,0.32,0.08,-0.39,16.24,195.25,247.44
275,1778615594938,0.32,0.08,-0.39,16.24,195.25,247.44
276,1778615594954,0.32,0.08,-0.39,16.24,195.25,247.44
277,1778615594970,4.01,3.27,-0.9,147.4,12.21,-232.6
278,1778615594970,4.01,3.27,-0.9,147.4,12.21,-232.6
279,1778615594986,4.01,3.27,-0.9,147.4,12.21,-232.6
280,1778615595002,4.01,3.27,-0.9,147.4,12.21,-232.6
281,1778615595002,4.01,3.27,-0.9,147.4,12.21,-232.6
282,1778615595019,0.66,0.53,0.06,12.39,-78.19,6.41
283,1778615595019,0.66,0.53,0.06,12.39,-78.19,6.41
284,1778615595035,0.66,0.53,0.06,12.39,-78.19,6.41
285,1778615595051,1.86,1.8,-0.28,-27.77,-74.58,38.39
286,1778615595051,1.86,1.8,-0.28,-27.77,-74.58,38.39
287,1778615595067,1.86,1.8,-0.28,-27.77,-74.58,38.39
288,1778615595083,1.41,1.13,-0.17,-46.26,-110.05,-54.2
289,1778615595083,1.41,1.13,-0.17,-46.26,-110.05,-54.2
290,1778615595099,1.41,1.13,-0.17,-46.26,-110.05,-54.2
291,1778615595099,1.41,1.13,-0.17,-46.26,-110.05,-54.2
292,1778615595115,1.41,1.13,-0.17,-46.26,-110.05,-54.2
293,1778615595131,0.67,0.37,0.01,-27.34,-107.67,-32.59
294,1778615595131,0.67,0.37,0.01,-27.34,-107.67,-32.59
295,1778615595147,0.67,0.37,0.01,-27.34,-107.67,-32.59
296,1778615595163,0.35,0.15,0.08,-11.78,-88.26,-44.86
297,1778615595163,0.35,0.15,0.08,-11.78,-88.26,-44.86
298,1778615595179,0.35,0.15,0.08,-11.78,-88.26,-44.86
299,1778615595179,0.35,0.15,0.08,-11.78,-88.26,-44.86
300,1778615595195,2.63,-0.97,4.55,-11.78,-88.26,-44.86
301,1778615595211,2.63,-0.97,4.55,-104.19,-500.92,-162.23
302,1778615595211,2.63,-0.97,4.55,-104.19,-500.92,-162.23
303,1778615595227,2.63,-0.97,4.55,-104.19,-500.92,-162.23
304,1778615595243,0.47,-0.17,-0.17,-104.19,-500.92,-162.23
305,1778615595243,0.47,-0.17,-0.17,-104.19,-500.92,-162.23
306,1778615595260,0.47,-0.17,-0.17,-133.18,120.0,8.91
307,1778615595260,0.47,-0.17,-0.17,-133.18,120.0,8.91
308,1778615595275,-0.01,-0.12,-0.04,-44.68,77.7,-16.54
309,1778615595292,-0.01,-0.12,-0.04,-44.68,77.7,-16.54
310,1778615595292,-0.01,-0.12,-0.04,-44.68,77.7,-16.54
311,1778615595308,-0.01,-0.12,-0.04,-44.68,77.7,-16.54
312,1778615595308,-0.01,-0.12,-0.04,-44.68,77.7,-16.54
313,1778615595324,-0.11,-0.33,-0.08,-34.61,44.31,17.64
314,1778615595340,-0.11,-0.33,-0.08,-34.61,44.31,17.64
315,1778615595340,-0.11,-0.33,-0.08,-34.61,44.31,17.64
316,1778615595356,-0.11,-0.33,-0.08,-34.61,44.31,17.64
317,1778615595372,-0.11,-0.33,-0.08,-34.61,44.31,17.64
318,1778615595372,-0.11,-0.33,-0.08,-34.61,44.31,17.64
319,1778615595389,-0.11,-0.33,-0.08,-34.61,44.31,17.64
320,1778615595389,-0.11,-0.33,-0.08,-34.61,44.31,17.64
321,1778615595405,-0.11,-0.33,-0.08,-34.61,44.31,17.64
322,1778615595421,-0.11,-0.33,-0.08,-34.61,44.31,17.64
323,1778615595421,-0.11,-0.33,-0.08,-34.61,44.31,17.64
324,1778615595438,4.13,0.47,-0.32,-37.11,-120.97,-144.71
325,1778615595453,4.13,0.47,-0.32,-37.11,-120.97,-144.71
326,1778615595453,4.13,0.47,-0.32,-37.11,-120.97,-144.71
327,1778615595469,2.84,2.23,-0.02,-211.3,-69.03,51.21
328,1778615595469,2.84,2.23,-0.02,-211.3,-69.03,51.21
329,1778615595484,2.84,2.23,-0.02,-211.3,-69.03,51.21
330,1778615595500,2.84,2.23,-0.02,-211.3,-69.03,51.21
331,1778615595500,2.84,2.23,-0.02,-211.3,-69.03,51.21
332,1778615595516,1.44,1.53,0.22,149.29,123.9,-25.39
333,1778615595532,1.44,1.53,0.22,149.29,123.9,-25.39
334,1778615595532,1.44,1.53,0.22,149.29,123.9,-25.39
335,1778615595548,0.86,1.19,-0.1,153.87,69.7,-94.79
336,1778615595548,0.86,1.19,-0.1,153.87,69.7,-94.79
337,1778615595564,0.86,1.19,-0.1,153.87,69.7,-94.79
338,1778615595580,-0.0,0.35,0.09,120.24,30.21,-88.81
339,1778615595580,-0.0,0.35,0.09,120.24,30.21,-88.81
340,1778615595596,-0.0,0.35,0.09,120.24,30.21,-88.81
341,1778615595612,-0.0,0.35,0.09,120.24,30.21,-88.81
342,1778615595612,-0.0,0.35,0.09,120.24,30.21,-88.81
343,1778615595628,-0.07,0.07,0.07,135.31,6.1,-131.35
344,1778615595644,-0.07,0.07,0.07,135.31,6.1,-131.35
345,1778615595644,-0.07,0.07,0.07,135.31,6.1,-131.35
346,1778615595660,-0.05,-0.05,0.06,109.92,-24.35,-137.45
347,1778615595660,-0.05,-0.05,0.06,109.92,-24.35,-137.45
348,1778615595676,-0.05,-0.05,0.06,109.92,-24.35,-137.45
349,1778615595693,-0.05,-0.05,0.06,109.92,-24.35,-137.45
350,1778615595693,-0.05,-0.05,0.06,109.92,-24.35,-137.45
351,1778615595709,0.21,-1.13,0.77,-17.03,100.46,-97.17
352,1778615595709,0.21,-1.13,0.77,-17.03,100.46,-97.17
353,1778615595725,0.21,-1.13,0.77,-17.03,100.46,-97.17
354,1778615595742,0.2,0.11,-0.03,177.55,232.3,-57.5
355,1778615595742,0.2,0.11,-0.03,177.55,232.3,-57.5
356,1778615595757,0.2,0.11,-0.03,177.55,232.3,-57.5
357,1778615595773,0.07,0.11,-0.03,-12.57,229.25,-76.78
358,1778615595773,0.07,0.11,-0.03,-12.57,229.25,-76.78
359,1778615595790,0.07,0.11,-0.03,-12.57,229.25,-76.78
360,1778615595790,0.07,0.11,-0.03,-12.57,229.25,-76.78
361,1778615595806,0.07,0.11,-0.03,-12.57,229.25,-76.78
362,1778615595822,0.11,0.03,-0.02,7.93,-80.44,-11.05
363,1778615595822,0.11,0.03,-0.02,7.93,-80.44,-11.05
364,1778615595838,0.11,0.03,-0.02,7.93,-80.44,-11.05
365,1778615595838,0.11,0.03,-0.02,7.93,-80.44,-11.05
366,1778615595854,2.4,5.15,-0.57,27.77,274.78,-359.07
367,1778615595871,2.4,5.15,-0.57,27.77,274.78,-359.07
368,1778615595871,2.4,5.15,-0.57,27.77,274.78,-359.07
369,1778615595887,2.4,5.15,-0.57,27.77,274.78,-359.07
370,1778615595904,0.42,0.4,-0.18,11.23,-203.19,-599.0
371,1778615595904,0.42,0.4,-0.18,11.23,-203.19,-599.0
372,1778615595919,0.42,0.4,-0.18,11.23,-203.19,-599.0
373,1778615595919,0.42,0.4,-0.18,11.23,-203.19,-599.0
374,1778615595935,-0.41,2.39,-0.18,22.22,-49.32,164.18
375,1778615595951,-0.41,2.39,-0.18,22.22,-49.32,164.18
376,1778615595951,-0.41,2.39,-0.18,22.22,-49.32,164.18
377,1778615595967,-0.36,2.34,-0.3,55.48,-65.49,-34.85
378,1778615595984,-0.36,2.34,-0.3,55.48,-65.49,-34.85
379,1778615595984,-0.36,2.34,-0.3,55.48,-65.49,-34.85
380,1778615596000,-0.36,2.34,-0.3,55.48,-65.49,-34.85
381,1778615596000,-0.36,2.34,-0.3,55.48,-65.49,-34.85
382,1778615596016,0.04,1.14,0.14,84.9,-39.79,-66.16
383,1778615596032,0.04,1.14,0.14,84.9,-39.79,-66.16
384,1778615596032,0.04,1.14,0.14,84.9,-39.79,-66.16
385,1778615596048,0.06,0.55,0.11,99.43,104.61,-115.6
386,1778615596063,0.06,0.55,0.11,99.43,104.61,-115.6
387,1778615596063,0.06,0.55,0.11,99.43,104.61,-115.6
388,1778615596080,2.01,-0.64,8.0,327.76,322.75,-104.37
389,1778615596080,2.01,-0.64,8.0,327.76,322.75,-104.37
390,1778615596096,2.01,-0.64,8.0,327.76,322.75,-104.37
391,1778615596112,2.01,-0.64,8.0,327.76,322.75,-104.37
392,1778615596112,2.01,-0.64,8.0,327.76,322.75,-104.37
393,1778615596128,0.33,0.26,-0.2,-196.35,-322.88,-14.34
394,1778615596144,0.33,0.26,-0.2,-196.35,-322.88,-14.34
395,1778615596144,0.33,0.26,-0.2,-196.35,-322.88,-14.34
396,1778615596160,0.15,0.08,0.21,-124.45,-101.87,-11.29
397,1778615596160,0.15,0.08,0.21,-124.45,-101.87,-11.29
398,1778615596176,0.15,0.08,0.21,-124.45,-101.87,-11.29
399,1778615596193,0.15,0.08,0.21,-124.45,-101.87,-11.29
400,1778615596193,0.15,0.08,0.21,-124.45,-101.87,-11.29
401,1778615596209,0.15,0.08,0.21,-124.45,-101.87,-11.29
402,1778615596209,0.15,0.08,0.21,-124.45,-101.87,-11.29
403,1778615596225,0.21,-0.06,-0.17,-89.11,125.43,7.87
404,1778615596241,0.21,-0.06,-0.17,-89.11,125.43,7.87
405,1778615596241,0.21,-0.06,-0.17,-89.11,125.43,7.87
406,1778615596257,0.14,0.18,-0.18,-138.43,63.48,13.18
407,1778615596274,0.14,0.18,-0.18,-138.43,63.48,13.18
408,1778615596274,0.14,0.18,-0.18,-138.43,63.48,13.18
409,1778615596290,0.49,1.27,-0.15,-103.33,35.46,0.98
410,1778615596290,0.49,1.27,-0.15,-103.33,35.46,0.98
411,1778615596306,0.49,1.27,-0.15,-103.33,35.46,0.98
412,1778615596323,0.38,4.53,-0.11,364.62,-632.45,213.38
413,1778615596323,0.38,4.53,-0.11,364.62,-632.45,213.38
414,1778615596338,0.38,4.53,-0.11,364.62,-632.45,213.38
415,1778615596338,0.38,4.53,-0.11,364.62,-632.45,213.38
416,1778615596355,0.47,2.3,2.8,139.65,-165.04,87.77
417,1778615596371,0.47,2.3,2.8,139.65,-165.04,87.77
418,1778615596371,0.47,2.3,2.8,139.65,-165.04,87.77
419,1778615596387,-0.11,2.24,-0.02,2.99,251.83,38.33
420,1778615596403,-0.11,2.24,-0.02,2.99,251.83,38.33
421,1778615596403,-0.11,2.24,-0.02,2.99,251.83,38.33
422,1778615596419,-0.11,2.24,-0.02,2.99,251.83,38.33
423,1778615596419,-0.11,2.24,-0.02,2.99,251.83,38.33
424,1778615596436,-0.46,1.69,-0.32,58.17,102.66,-58.17
425,1778615596452,-0.46,1.69,-0.32,58.17,102.66,-58.17
426,1778615596452,-0.46,1.69,-0.32,58.17,102.66,-58.17
427,1778615596468,-0.3,0.6,0.18,57.43,43.09,-55.91
428,1778615596468,-0.3,0.6,0.18,57.43,43.09,-55.91
429,1778615596484,-0.3,0.6,0.18,57.43,43.09,-55.91
430,1778615596500,-0.11,0.13,0.07,78.25,73.3,-88.38
431,1778615596500,-0.11,0.13,0.07,78.25,73.3,-88.38
432,1778615596516,-0.11,0.13,0.07,78.25,73.3,-88.38
433,1778615596532,-0.04,-0.02,0.11,61.04,22.95,-143.98
434,1778615596532,-0.04,-0.02,0.11,61.04,22.95,-143.98
435,1778615596548,-0.04,-0.02,0.11,61.04,22.95,-143.98
436,1778615596548,-0.04,-0.02,0.11,61.04,22.95,-143.98
437,1778615596564,0.46,-1.08,1.68,9.03,-179.63,-237.73
438,1778615596579,0.46,-1.08,1.68,9.03,-179.63,-237.73
439,1778615596579,0.46,-1.08,1.68,9.03,-179.63,-237.73
440,1778615596596,0.46,-1.08,1.68,9.03,-179.63,-237.73
441,1778615596611,0.12,0.03,0.14,-2.44,240.3,-34.79
442,1778615596611,0.12,0.03,0.14,-2.44,240.3,-34.79
443,1778615596627,0.12,0.03,0.14,-2.44,240.3,-34.79
444,1778615596643,0.0,0.1,-0.08,-53.89,157.35,-20.69
445,1778615596643,0.0,0.1,-0.08,-53.89,157.35,-20.69
446,1778615596659,0.0,0.1,-0.08,-53.89,157.35,-20.69
447,1778615596659,0.0,0.1,-0.08,-53.89,157.35,-20.69
448,1778615596676,0.0,0.1,-0.08,-53.89,157.35,-20.69
449,1778615596692,0.48,0.54,0.66,307.86,-465.15,176.09
450,1778615596692,0.48,0.54,0.66,307.86,-465.15,176.09
451,1778615596708,0.48,0.54,0.66,307.86,-465.15,176.09
452,1778615596708,0.48,0.54,0.66,307.86,-465.15,176.09
453,1778615596724,-0.18,2.82,-0.35,-242.74,239.26,-70.31
454,1778615596740,-0.18,2.82,-0.35,-242.74,239.26,-70.31
455,1778615596740,-0.18,2.82,-0.35,-242.74,239.26,-70.31
456,1778615596756,-0.47,1.82,-0.77,-242.74,239.26,-70.31
457,1778615596772,-0.47,1.82,-0.77,37.6,95.03,-2.99
458,1778615596772,-0.47,1.82,-0.77,37.6,95.03,-2.99
459,1778615596788,-0.47,1.82,-0.77,37.6,95.03,-2.99
460,1778615596788,-0.47,1.82,-0.77,37.6,95.03,-2.99
461,1778615596804,-0.53,1.6,-0.36,-22.71,-126.46,8.79
462,1778615596820,-0.53,1.6,-0.36,-22.71,-126.46,8.79
463,1778615596820,-0.53,1.6,-0.36,-22.71,-126.46,8.79
464,1778615596836,-0.98,2.62,-0.6,119.63,-123.96,-33.45
465,1778615596852,-0.98,2.62,-0.6,119.63,-123.96,-33.45
466,1778615596852,-0.98,2.62,-0.6,119.63,-123.96,-33.45
467,1778615596868,-0.98,2.62,-0.6,119.63,-123.96,-33.45
468,1778615596868,-0.98,2.62,-0.6,119.63,-123.96,-33.45
469,1778615596884,-0.61,1.98,-0.29,127.5,-109.74,-47.97
470,1778615596900,-0.61,1.98,-0.29,127.5,-109.74,-47.97
471,1778615596900,-0.61,1.98,-0.29,127.5,-109.74,-47.97
472,1778615596916,-0.09,0.96,0.08,65.55,53.28,-118.65
473,1778615596932,-0.09,0.96,0.08,65.55,53.28,-118.65
474,1778615596932,-0.09,0.96,0.08,65.55,53.28,-118.65
475,1778615596947,0.13,0.16,0.05,65.55,53.28,-118.65
476,1778615596963,0.13,0.16,0.05,78.31,130.07,-134.83
477,1778615596963,0.13,0.16,0.05,78.31,130.07,-134.83
478,1778615596979,0.13,0.16,0.05,78.31,130.07,-134.83
479,1778615596979,0.13,0.16,0.05,78.31,130.07,-134.83
480,1778615596995,0.13,0.16,0.05,78.31,130.07,-134.83
481,1778615597011,0.81,0.75,1.41,-50.66,-149.9,-32.35
482,1778615597011,0.81,0.75,1.41,-50.66,-149.9,-32.35
483,1778615597027,0.81,0.75,1.41,-50.66,-149.9,-32.35
484,1778615597043,0.23,0.1,0.01,-70.92,-86.18,-10.44
485,1778615597043,0.23,0.1,0.01,-70.92,-86.18,-10.44
486,1778615597059,0.23,0.1,0.01,-70.92,-86.18,-10.44
487,1778615597059,0.23,0.1,0.01,-70.92,-86.18,-10.44
488,1778615597076,0.3,-0.07,-0.11,-58.65,34.18,30.94
489,1778615597092,0.3,-0.07,-0.11,-58.65,34.18,30.94
490,1778615597092,0.3,-0.07,-0.11,-58.65,34.18,30.94
491,1778615597108,0.28,-0.07,-0.03,-109.44,39.92,74.34
492,1778615597108,0.28,-0.07,-0.03,-109.44,39.92,74.34
493,1778615597124,0.28,-0.07,-0.03,-109.44,39.92,74.34
494,1778615597140,0.1,-0.03,-0.36,-109.44,39.92,74.34
495,1778615597140,0.1,-0.03,-0.36,-109.44,39.92,74.34
496,1778615597157,0.1,-0.03,-0.36,-136.84,-73.85,67.5
497,1778615597173,0.1,-0.03,-0.36,-136.84,-73.85,67.5
498,1778615597173,0.1,-0.03,-0.36,-136.84,-73.85,67.5
499,1778615597189,0.1,-0.03,-0.36,-136.84,-73.85,67.5
500,1778615597189,0.1,-0.03,-0.36,-136.84,-73.85,67.5
501,1778615597205,0.26,0.48,-0.3,-26.92,-161.13,17.58
502,1778615597221,0.26,0.48,-0.3,-26.92,-161.13,17.58
503,1778615597221,0.26,0.48,-0.3,-26.92,-161.13,17.58
504,1778615597238,-0.95,5.5,0.36,487.67,-546.69,121.46
505,1778615597254,-0.95,5.5,0.36,487.67,-546.69,121.46
506,1778615597254,-0.95,5.5,0.36,487.67,-546.69,121.46
507,1778615597270,0.07,2.42,0.75,40.04,6.04,74.1
508,1778615597270,0.07,2.42,0.75,40.04,6.04,74.1
509,1778615597286,0.07,2.42,0.75,40.04,6.04,74.1
510,1778615597302,-0.24,2.25,-0.54,15.63,64.88,72.57
511,1778615597302,-0.24,2.25,-0.54,15.63,64.88,72.57
512,1778615597318,-0.24,2.25,-0.54,15.63,64.88,72.57
513,1778615597318,-0.24,2.25,-0.54,15.63,64.88,72.57
514,1778615597334,-0.79,1.4,0.57,47.18,27.89,-28.87
515,1778615597350,-0.79,1.4,0.57,47.18,27.89,-28.87
516,1778615597350,-0.79,1.4,0.57,47.18,27.89,-28.87
517,1778615597367,-0.79,1.4,0.57,47.18,27.89,-28.87
518,1778615597383,-0.43,0.45,-0.1,-46.57,149.17,-114.56
519,1778615597383,-0.43,0.45,-0.1,-46.57,149.17,-114.56
520,1778615597399,-0.43,0.45,-0.1,-46.57,149.17,-114.56
521,1778615597399,-0.43,0.45,-0.1,-46.57,149.17,-114.56
522,1778615597415,-0.43,0.45,-0.1,-46.57,149.17,-114.56
523,1778615597431,-0.06,0.05,0.02,22.28,172.0,-168.33
524,1778615597431,-0.06,0.05,0.02,22.28,172.0,-168.33
525,1778615597446,0.01,-0.05,-0.03,44.07,183.84,-203.98
526,1778615597462,0.01,-0.05,-0.03,44.07,183.84,-203.98
527,1778615597462,0.01,-0.05,-0.03,44.07,183.84,-203.98
528,1778615597478,0.01,-0.05,-0.03,44.07,183.84,-203.98
529,1778615597478,0.01,-0.05,-0.03,44.07,183.84,-203.98
530,1778615597495,0.08,-0.04,-0.11,120.97,52.06,-309.02
531,1778615597511,0.08,-0.04,-0.11,120.97,52.06,-309.02
532,1778615597511,0.08,-0.04,-0.11,120.97,52.06,-309.02
533,1778615597526,0.84,-0.28,1.17,-483.28,-453.43,-193.36
534,1778615597542,0.84,-0.28,1.17,-483.28,-453.43,-193.36
535,1778615597542,0.84,-0.28,1.17,-483.28,-453.43,-193.36
536,1778615597558,0.84,-0.28,1.17,-483.28,-453.43,-193.36
537,1778615597558,0.84,-0.28,1.17,-483.28,-453.43,-193.36
538,1778615597575,0.24,0.03,-0.09,-279.97,312.93,-260.56
539,1778615597591,0.24,0.03,-0.09,-279.97,312.93,-260.56
540,1778615597591,0.24,0.03,-0.09,-279.97,312.93,-260.56
541,1778615597608,-0.41,-0.27,0.17,401.18,15.69,-176.57
542,1778615597624,-0.41,-0.27,0.17,401.18,15.69,-176.57
543,1778615597624,-0.41,-0.27,0.17,401.18,15.69,-176.57
544,1778615597640,-0.29,0.43,-0.57,-181.27,-14.83,-167.85
545,1778615597640,-0.29,0.43,-0.57,-181.27,-14.83,-167.85
546,1778615597656,-0.29,0.43,-0.57,-181.27,-14.83,-167.85
547,1778615597672,-0.29,0.43,-0.57,-181.27,-14.83,-167.85
548,1778615597672,-0.29,0.43,-0.57,-181.27,-14.83,-167.85
549,1778615597688,-4.13,3.64,0.06,-280.4,-185.12,-992.55
550,1778615597704,-4.13,3.64,0.06,-280.4,-185.12,-992.55
551,1778615597704,-4.13,3.64,0.06,-280.4,-185.12,-992.55
552,1778615597720,-2.92,-2.05,-0.57,-314.51,-100.16,282.96
553,1778615597720,-2.92,-2.05,-0.57,-314.51,-100.16,282.96
554,1778615597737,-2.92,-2.05,-0.57,-314.51,-100.16,282.96
555,1778615597752,-1.34,-0.38,-0.05,-314.51,-100.16,282.96
556,1778615597752,-1.34,-0.38,-0.05,-314.51,-100.16,282.96
557,1778615597769,-1.34,-0.38,-0.05,108.03,69.15,15.14
558,1778615597769,-1.34,-0.38,-0.05,108.03,69.15,15.14
559,1778615597785,-1.34,-0.38,-0.05,108.03,69.15,15.14
560,1778615597801,-2.09,-0.62,-0.51,269.71,224.98,40.16
561,1778615597801,-2.09,-0.62,-0.51,269.71,224.98,40.16
562,1778615597817,-2.09,-0.62,-0.51,269.71,224.98,40.16
563,1778615597834,-0.87,-0.13,0.1,-13.12,99.3,-36.07
564,1778615597834,-0.87,-0.13,0.1,-13.12,99.3,-36.07
565,1778615597850,-0.87,-0.13,0.1,-13.12,99.3,-36.07
566,1778615597850,-0.87,-0.13,0.1,-13.12,99.3,-36.07
567,1778615597865,-0.87,-0.13,0.1,-13.12,99.3,-36.07
568,1778615597881,-1.15,0.21,2.83,-159.36,-114.56,-84.59
569,1778615597881,-1.15,0.21,2.83,-159.36,-114.56,-84.59
570,1778615597897,-1.15,0.21,2.83,-159.36,-114.56,-84.59
571,1778615597913,-0.79,-0.09,-0.5,313.78,-6.59,56.82
572,1778615597913,-0.79,-0.09,-0.5,313.78,-6.59,56.82
573,1778615597929,-0.79,-0.09,-0.5,313.78,-6.59,56.82
574,1778615597929,-0.79,-0.09,-0.5,313.78,-6.59,56.82
575,1778615597945,0.07,0.21,-0.26,313.78,-6.59,56.82
576,1778615597961,0.07,0.21,-0.26,179.69,-46.69,32.17
577,1778615597961,0.07,0.21,-0.26,179.69,-46.69,32.17
578,1778615597977,0.07,0.21,-0.26,179.69,-46.69,32.17
579,1778615597993,0.12,0.08,-0.02,44.31,-139.04,41.02
580,1778615597993,0.12,0.08,-0.02,44.31,-139.04,41.02
581,1778615598009,0.12,0.08,-0.02,44.31,-139.04,41.02
582,1778615598009,0.12,0.08,-0.02,44.31,-139.04,41.02
583,1778615598025,0.15,0.07,-0.02,104.06,-32.17,117.25
584,1778615598042,0.15,0.07,-0.02,104.06,-32.17,117.25
585,1778615598042,0.15,0.07,-0.02,104.06,-32.17,117.25
586,1778615598058,0.15,0.07,-0.02,104.06,-32.17,117.25
587,1778615598058,0.15,0.07,-0.02,104.06,-32.17,117.25
588,1778615598074,0.15,0.07,-0.02,104.06,-32.17,117.25
589,1778615598090,0.15,0.07,-0.02,104.06,-32.17,117.25
590,1778615598090,0.15,0.07,-0.02,104.06,-32.17,117.25
591,1778615598106,0.15,0.07,-0.02,104.06,-32.17,117.25
592,1778615598122,0.15,0.07,-0.02,104.06,-32.17,117.25
593,1778615598122,0.15,0.07,-0.02,104.06,-32.17,117.25
594,1778615598139,0.15,0.07,-0.02,104.06,-32.17,117.25
595,1778615598139,0.15,0.07,-0.02,104.06,-32.17,117.25
596,1778615598155,0.15,0.07,-0.02,104.06,-32.17,117.25
597,1778615598171,0.15,0.07,-0.02,104.06,-32.17,117.25
598,1778615598171,0.15,0.07,-0.02,104.06,-32.17,117.25
599,1778615598188,0.15,0.07,-0.02,104.06,-32.17,117.25
600,1778615598204,0.15,0.07,-0.02,104.06,-32.17,117.25
601,1778615598204,0.15,0.07,-0.02,104.06,-32.17,117.25
602,1778615598221,-2.32,0.33,0.78,229.8,141.42,55.79
603,1778615598221,-2.32,0.33,0.78,229.8,141.42,55.79
604,1778615598236,-1.87,-0.12,-0.15,-187.81,13.31,-57.31
605,1778615598252,-1.06,-0.04,-0.05,-175.9,-15.5,-117.86
606,1778615598252,-1.06,-0.04,-0.05,-175.9,-15.5,-117.86
607,1778615598269,-1.06,-0.04,-0.05,-175.9,-15.5,-117.86
608,1778615598269,-1.06,-0.04,-0.05,-175.9,-15.5,-117.86
609,1778615598285,-1.06,-0.04,-0.05,-175.9,-15.5,-117.86
610,1778615598301,-0.17,-0.05,0.12,-157.53,17.64,-156.49
611,1778615598301,-0.17,-0.05,0.12,-157.53,17.64,-156.49
612,1778615598317,-0.17,-0.05,0.12,-157.53,17.64,-156.49
613,1778615598333,0.12,-0.02,0.03,-168.76,26.67,-156.31
614,1778615598333,0.12,-0.02,0.03,-168.76,26.67,-156.31
615,1778615598349,0.12,-0.02,0.03,-168.76,26.67,-156.31
616,1778615598349,0.12,-0.02,0.03,-168.76,26.67,-156.31
617,1778615598365,0.12,0.02,-0.02,-132.75,-8.0,-167.36
618,1778615598380,0.12,0.02,-0.02,-132.75,-8.0,-167.36
619,1778615598380,0.12,0.02,-0.02,-132.75,-8.0,-167.36
620,1778615598396,0.12,0.02,-0.02,-132.75,-8.0,-167.36
621,1778615598413,0.12,0.08,0.11,-103.39,4.94,-180.24
622,1778615598413,0.12,0.08,0.11,-103.39,4.94,-180.24
623,1778615598429,0.12,0.08,0.11,-103.39,4.94,-180.24
624,1778615598429,0.12,0.08,0.11,-103.39,4.94,-180.24
625,1778615598445,0.43,0.51,0.91,-234.37,-95.7,-16.17
626,1778615598462,0.43,0.51,0.91,-234.37,-95.7,-16.17
627,1778615598462,0.43,0.51,0.91,-234.37,-95.7,-16.17
628,1778615598477,0.02,-0.0,-0.03,-234.37,-95.7,-16.17
629,1778615598494,0.02,-0.0,-0.03,-213.81,8.36,-17.88
630,1778615598494,0.02,-0.0,-0.03,-213.81,8.36,-17.88
631,1778615598510,0.02,-0.0,-0.03,-213.81,8.36,-17.88
632,1778615598510,0.02,-0.0,-0.03,-213.81,8.36,-17.88
633,1778615598526,-0.1,-0.91,0.19,433.11,-322.08,-29.85
634,1778615598543,-0.1,-0.91,0.19,433.11,-322.08,-29.85
635,1778615598543,-0.1,-0.91,0.19,433.11,-322.08,-29.85
636,1778615598559,-1.32,-1.63,0.47,59.27,-190.31,146.06
637,1778615598559,-1.32,-1.63,0.47,59.27,-190.31,146.06
638,1778615598575,-1.32,-1.63,0.47,59.27,-190.31,146.06
639,1778615598591,-1.32,-1.63,0.47,59.27,-190.31,146.06
640,1778615598591,-1.32,-1.63,0.47,59.27,-190.31,146.06
641,1778615598608,-3.18,-1.89,0.02,-146.36,-2.69,-14.83
642,1778615598623,-3.18,-1.89,0.02,-146.36,-2.69,-14.83
643,1778615598623,-3.18,-1.89,0.02,-146.36,-2.69,-14.83
644,1778615598639,-1.74,-1.23,-0.03,-88.93,19.53,12.27
645,1778615598639,-1.74,-1.23,-0.03,-88.93,19.53,12.27
646,1778615598656,-1.74,-1.23,-0.03,-88.93,19.53,12.27
647,1778615598672,-1.38,-1.28,0.42,154.91,217.65,-44.19
648,1778615598672,-1.38,-1.28,0.42,154.91,217.65,-44.19
649,1778615598688,-1.38,-1.28,0.42,154.91,217.65,-44.19
650,1778615598688,-1.38,-1.28,0.42,154.91,217.65,-44.19
651,1778615598704,-1.38,-1.28,0.42,154.91,217.65,-44.19
652,1778615598720,-0.89,-0.59,-0.03,123.17,203.61,-87.28
653,1778615598720,-0.89,-0.59,-0.03,123.17,203.61,-87.28
654,1778615598736,-0.89,-0.59,-0.03,123.17,203.61,-87.28
655,1778615598752,-0.02,0.11,0.13,-103.82,118.1,-20.02
656,1778615598752,-0.02,0.11,0.13,-103.82,118.1,-20.02
657,1778615598768,-0.02,0.11,0.13,-103.82,118.1,-20.02
658,1778615598768,-0.02,0.11,0.13,-103.82,118.1,-20.02
659,1778615598784,-0.68,0.07,0.82,-103.82,118.1,-20.02
660,1778615598800,-0.68,0.07,0.82,298.4,-29.91,19.47
661,1778615598800,-0.68,0.07,0.82,298.4,-29.91,19.47
662,1778615598816,-0.68,0.07,0.82,298.4,-29.91,19.47
663,1778615598832,0.04,0.26,-0.12,341.25,-30.15,-57.31
664,1778615598832,0.04,0.26,-0.12,341.25,-30.15,-57.31
665,1778615598848,0.04,0.26,-0.12,341.25,-30.15,-57.31
666,1778615598848,0.04,0.26,-0.12,341.25,-30.15,-57.31
667,1778615598864,0.09,0.26,-0.25,97.6,-93.44,-57.01
668,1778615598880,0.09,0.26,-0.25,97.6,-93.44,-57.01
669,1778615598880,0.09,0.26,-0.25,97.6,-93.44,-57.01
670,1778615598896,0.09,0.26,-0.25,97.6,-93.44,-57.01
671,1778615598912,0.12,0.05,0.01,-9.7,-75.13,42.79
672,1778615598912,0.12,0.05,0.01,-9.7,-75.13,42.79
673,1778615598929,0.12,0.05,0.01,-9.7,-75.13,42.79
674,1778615598929,0.12,0.05,0.01,-9.7,-75.13,42.79
675,1778615598945,-0.22,0.13,-0.4,133.61,-51.57,36.01
676,1778615598961,-0.22,0.13,-0.4,133.61,-51.57,36.01
677,1778615598961,-0.22,0.13,-0.4,133.61,-51.57,36.01
678,1778615598977,-2.52,-1.5,0.78,501.77,370.91,282.84
679,1778615598993,-2.52,-1.5,0.78,501.77,370.91,282.84
680,1778615598993,-2.52,-1.5,0.78,501.77,370.91,282.84
681,1778615599010,-2.52,-1.5,0.78,501.77,370.91,282.84
682,1778615599010,-2.52,-1.5,0.78,501.77,370.91,282.84
683,1778615599026,-2.52,-1.5,0.78,501.77,370.91,282.84
684,1778615599042,-2.52,-1.5,0.78,501.77,370.91,282.84
685,1778615599042,-2.52,-1.5,0.78,501.77,370.91,282.84
686,1778615599059,-2.52,-1.5,0.78,501.77,370.91,282.84
687,1778615599059,-2.52,-1.5,0.78,501.77,370.91,282.84
688,1778615599075,-2.52,-1.5,0.78,501.77,370.91,282.84
689,1778615599091,-2.3,-0.63,-0.1,-96.56,-29.85,51.21
690,1778615599091,-2.3,-0.63,-0.1,-96.56,-29.85,51.21
691,1778615599107,-1.54,-0.78,-0.0,-95.46,19.1,6.77
692,1778615599123,-1.54,-0.78,-0.0,-95.46,19.1,6.77
693,1778615599123,-1.54,-0.78,-0.0,-95.46,19.1,6.77
694,1778615599139,-0.77,-0.23,0.06,-95.46,19.1,6.77
695,1778615599139,-0.77,-0.23,0.06,-95.46,19.1,6.77
696,1778615599155,-0.77,-0.23,0.06,-166.99,-34.3,-56.76
697,1778615599171,-0.01,-0.11,-0.0,-248.41,-22.03,-114.99
698,1778615599171,-0.01,-0.11,-0.0,-248.41,-22.03,-114.99
699,1778615599187,-0.01,-0.11,-0.0,-248.41,-22.03,-114.99
700,1778615599203,-0.01,-0.11,-0.0,-248.41,-22.03,-114.99
701,1778615599203,-0.01,-0.11,-0.0,-248.41,-22.03,-114.99
702,1778615599219,0.14,-0.01,-0.12,-211.18,6.71,-185.49
703,1778615599219,0.14,-0.01,-0.12,-211.18,6.71,-185.49
704,1778615599235,0.14,-0.01,-0.12,-211.18,6.71,-185.49
705,1778615599252,0.14,-0.01,-0.12,-211.18,6.71,-185.49
706,1778615599252,0.14,-0.01,-0.12,-211.18,6.71,-185.49
707,1778615599267,0.27,0.13,-0.1,-176.94,48.83,-187.93
708,1778615599283,0.27,0.13,-0.1,-176.94,48.83,-187.93
709,1778615599283,0.27,0.13,-0.1,-176.94,48.83,-187.93
710,1778615599299,0.12,0.11,-0.01,-148.5,54.63,-205.75
711,1778615599299,0.12,0.11,-0.01,-148.5,54.63,-205.75
712,1778615599316,0.12,0.11,-0.01,-148.5,54.63,-205.75
713,1778615599332,0.58,0.64,2.57,398.74,-758.79,-16.85
714,1778615599332,0.58,0.64,2.57,398.74,-758.79,-16.85
715,1778615599347,0.58,0.64,2.57,398.74,-758.79,-16.85
716,1778615599363,0.55,-0.22,0.81,-207.4,-170.35,7.93
717,1778615599363,0.55,-0.22,0.81,-207.4,-170.35,7.93
718,1778615599379,0.55,-0.22,0.81,-207.4,-170.35,7.93
719,1778615599379,0.55,-0.22,0.81,-207.4,-170.35,7.93
720,1778615599396,0.55,-0.22,0.81,-207.4,-170.35,7.93
721,1778615599412,-0.4,-0.28,-0.74,86.24,79.9,-135.62
722,1778615599412,-0.4,-0.28,-0.74,86.24,79.9,-135.62
723,1778615599428,-0.4,-0.28,-0.74,86.24,79.9,-135.62
724,1778615599428,-0.4,-0.28,-0.74,86.24,79.9,-135.62
725,1778615599444,-2.98,-5.37,-1.4,86.24,79.9,-135.62
726,1778615599460,-2.98,-5.37,-1.4,89.84,97.41,85.51
727,1778615599460,-2.98,-5.37,-1.4,89.84,97.41,85.51
728,1778615599476,-1.22,-1.33,-0.06,89.84,97.41,85.51
729,1778615599492,-1.22,-1.33,-0.06,5.49,105.1,-53.96
730,1778615599492,-1.22,-1.33,-0.06,5.49,105.1,-53.96
731,1778615599508,-1.22,-1.33,-0.06,5.49,105.1,-53.96
732,1778615599508,-1.22,-1.33,-0.06,5.49,105.1,-53.96
733,1778615599525,-1.17,-1.23,0.18,-51.33,30.94,-11.84
734,1778615599541,-1.17,-1.23,0.18,-51.33,30.94,-11.84
735,1778615599541,-1.17,-1.23,0.18,-51.33,30.94,-11.84
736,1778615599557,-1.77,-1.9,-0.12,-136.96,5.13,-55.48
737,1778615599573,-1.77,-1.9,-0.12,-136.96,5.13,-55.48
738,1778615599573,-1.77,-1.9,-0.12,-136.96,5.13,-55.48
739,1778615599590,-1.77,-1.9,-0.12,-136.96,5.13,-55.48
740,1778615599590,-1.77,-1.9,-0.12,-136.96,5.13,-55.48
741,1778615599606,-0.8,-0.75,-0.03,-153.26,62.93,-60.0
742,1778615599622,-0.8,-0.75,-0.03,-153.26,62.93,-60.0
743,1778615599622,-0.8,-0.75,-0.03,-153.26,62.93,-60.0
744,1778615599639,0.11,-0.1,1.02,-220.89,169.68,-50.05
745,1778615599639,0.11,-0.1,1.02,-220.89,169.68,-50.05
746,1778615599655,0.11,-0.1,1.02,-220.89,169.68,-50.05
747,1778615599671,-0.83,-0.55,2.32,-220.89,169.68,-50.05
748,1778615599671,-0.83,-0.55,2.32,-220.89,169.68,-50.05
749,1778615599687,-0.83,-0.55,2.32,125.55,37.9,-5.62
750,1778615599703,-0.83,-0.55,2.32,125.55,37.9,-5.62
751,1778615599703,-0.83,-0.55,2.32,125.55,37.9,-5.62
752,1778615599719,-0.49,-0.12,0.15,258.24,114.32,-11.47
753,1778615599719,-0.49,-0.12,0.15,258.24,114.32,-11.47
754,1778615599735,-0.49,-0.12,0.15,258.24,114.32,-11.47
755,1778615599751,-0.01,0.21,-0.17,258.24,114.32,-11.47
756,1778615599751,-0.01,0.21,-0.17,258.24,114.32,-11.47
757,1778615599766,-0.01,0.21,-0.17,285.89,86.98,-11.05
758,1778615599782,-0.01,0.17,-0.13,122.01,-8.24,-10.44
759,1778615599782,-0.01,0.17,-0.13,122.01,-8.24,-10.44
760,1778615599798,-0.01,0.17,-0.13,122.01,-8.24,-10.44
761,1778615599798,-0.01,0.17,-0.13,122.01,-8.24,-10.44
762,1778615599814,-0.01,0.17,-0.13,122.01,-8.24,-10.44
763,1778615599830,-0.06,-0.0,-0.34,51.09,-58.11,27.83
764,1778615599830,-0.06,-0.0,-0.34,51.09,-58.11,27.83
765,1778615599847,-0.06,-0.0,-0.34,51.09,-58.11,27.83
766,1778615599863,-0.19,0.05,-0.37,41.08,-208.19,25.63
767,1778615599863,-0.19,0.05,-0.37,41.08,-208.19,25.63
768,1778615599879,-0.19,0.05,-0.37,41.08,-208.19,25.63
769,1778615599879,-0.19,0.05,-0.37,41.08,-208.19,25.63
770,1778615599895,-1.56,-3.88,3.78,166.26,350.28,161.01
771,1778615599912,-1.56,-3.88,3.78,166.26,350.28,161.01
772,1778615599912,-1.56,-3.88,3.78,166.26,350.28,161.01
773,1778615599928,-1.56,-3.88,3.78,166.26,350.28,161.01
774,1778615599928,-1.56,-3.88,3.78,166.26,350.28,161.01
775,1778615599944,-1.95,-1.77,1.24,196.66,211.43,66.89
776,1778615599961,-1.95,-1.77,1.24,196.66,211.43,66.89
777,1778615599961,-1.95,-1.77,1.24,196.66,211.43,66.89
778,1778615599977,-1.4,-1.52,0.13,-51.82,-93.81,64.09
779,1778615599993,-1.4,-1.52,0.13,-51.82,-93.81,64.09
780,1778615599993,-1.4,-1.52,0.13,-51.82,-93.81,64.09
781,1778615600009,-1.09,-1.55,0.12,-51.82,-93.81,64.09
782,1778615600009,-1.09,-1.55,0.12,-51.82,-93.81,64.09
783,1778615600025,-1.09,-1.55,0.12,-43.76,60.24,3.11
784,1778615600041,-1.09,-1.55,0.12,-43.76,60.24,3.11
785,1778615600041,-1.09,-1.55,0.12,-43.76,60.24,3.11
786,1778615600057,-0.58,-0.68,0.23,-68.36,-40.53,-46.57
787,1778615600073,-0.58,-0.68,0.23,-68.36,-40.53,-46.57
788,1778615600073,-0.58,-0.68,0.23,-68.36,-40.53,-46.57
789,1778615600089,0.16,0.06,0.07,-171.02,-93.02,-140.81
790,1778615600089,0.16,0.06,0.07,-171.02,-93.02,-140.81
791,1778615600106,0.16,0.06,0.07,-171.02,-93.02,-140.81
792,1778615600122,0.17,0.08,0.12,-153.81,-14.22,-166.75
793,1778615600122,0.17,0.08,0.12,-153.81,-14.22,-166.75
794,1778615600138,0.17,0.08,0.12,-153.81,-14.22,-166.75
795,1778615600154,0.17,0.08,0.12,-153.81,-14.22,-166.75
796,1778615600154,0.17,0.08,0.12,-153.81,-14.22,-166.75
797,1778615600169,0.12,0.1,0.03,-36.99,83.44,-146.55
798,1778615600169,0.12,0.1,0.03,-36.99,83.44,-146.55
799,1778615600185,0.12,0.1,0.03,-36.99,83.44,-146.55
800,1778615600202,-0.13,0.55,-0.35,278.69,-731.81,22.46
801,1778615600202,-0.13,0.55,-0.35,278.69,-731.81,22.46
802,1778615600218,-0.13,0.55,-0.35,278.69,-731.81,22.46
803,1778615600234,-0.13,0.55,-0.35,278.69,-731.81,22.46
804,1778615600234,-0.13,0.55,-0.35,278.69,-731.81,22.46
805,1778615600250,0.43,0.18,0.53,-85.57,-632.02,32.78
806,1778615600250,0.43,0.18,0.53,-85.57,-632.02,32.78
807,1778615600266,0.43,0.18,0.53,-85.57,-632.02,32.78
808,1778615600282,0.56,0.11,0.64,-274.23,486.76,-58.35
809,1778615600282,0.56,0.11,0.64,-274.23,486.76,-58.35
810,1778615600298,0.56,0.11,0.64,-274.23,486.76,-58.35
811,1778615600298,0.56,0.11,0.64,-274.23,486.76,-58.35
812,1778615600314,0.02,-0.52,-1.48,-274.23,486.76,-58.35
813,1778615600331,0.02,-0.52,-1.48,65.73,324.58,-110.23
814,1778615600331,0.02,-0.52,-1.48,65.73,324.58,-110.23
815,1778615600347,0.02,-0.52,-1.48,65.73,324.58,-110.23
816,1778615600363,0.08,-5.09,-0.63,30.03,139.47,71.35
817,1778615600363,0.08,-5.09,-0.63,30.03,139.47,71.35
818,1778615600379,0.08,-5.09,-0.63,30.03,139.47,71.35
819,1778615600379,0.08,-5.09,-0.63,30.03,139.47,71.35
820,1778615600395,-0.19,-3.41,-0.32,-110.78,-248.84,-87.71
821,1778615600412,-0.19,-3.41,-0.32,-110.78,-248.84,-87.71
822,1778615600412,-0.19,-3.41,-0.32,-110.78,-248.84,-87.71
823,1778615600428,-0.23,-1.24,0.11,-110.78,-248.84,-87.71
824,1778615600444,-0.23,-1.24,0.11,44.62,107.24,20.02
825,1778615600444,-0.23,-1.24,0.11,44.62,107.24,20.02
826,1778615600460,-0.23,-1.24,0.11,44.62,107.24,20.02
827,1778615600460,-0.23,-1.24,0.11,44.62,107.24,20.02
828,1778615600476,-0.23,-1.24,0.11,44.62,107.24,20.02
829,1778615600492,-0.26,-2.32,-0.62,-53.96,181.64,-26.79
830,1778615600492,-0.26,-2.32,-0.62,-53.96,181.64,-26.79
831,1778615600508,-0.27,-0.93,-0.17,-80.32,54.63,-78.43
832,1778615600508,-0.27,-0.93,-0.17,-80.32,54.63,-78.43
833,1778615600525,-0.27,-0.93,-0.17,-80.32,54.63,-78.43
834,1778615600541,-0.09,-0.22,0.08,-80.32,54.63,-78.43
835,1778615600541,-0.09,-0.22,0.08,-80.32,54.63,-78.43
836,1778615600557,-0.09,-0.22,0.08,-124.21,-10.38,-84.11
837,1778615600573,-0.09,-0.22,0.08,-124.21,-10.38,-84.11
838,1778615600573,-0.09,-0.22,0.08,-124.21,-10.38,-84.11
839,1778615600589,-0.09,-0.22,0.08,-124.21,-10.38,-84.11
840,1778615600589,-0.09,-0.22,0.08,-124.21,-10.38,-84.11
841,1778615600605,-0.89,-0.65,1.66,52.49,327.64,-27.95
842,1778615600621,-0.24,0.1,-0.44,157.1,49.87,-12.39
843,1778615600621,-0.24,0.1,-0.44,157.1,49.87,-12.39
844,1778615600638,-0.24,0.1,-0.44,157.1,49.87,-12.39
845,1778615600653,-0.24,0.1,-0.44,157.1,49.87,-12.39
846,1778615600653,-0.24,0.1,-0.44,157.1,49.87,-12.39
847,1778615600670,-0.27,0.2,-0.34,-23.74,-92.83,-15.75
848,1778615600670,-0.27,0.2,-0.34,-23.74,-92.83,-15.75
849,1778615600686,-0.27,0.2,-0.34,-23.74,-92.83,-15.75
850,1778615600702,-0.16,0.12,0.14,138.18,-4.52,-15.26
851,1778615600702,-0.16,0.12,0.14,138.18,-4.52,-15.26
852,1778615600718,-0.16,0.12,0.14,138.18,-4.52,-15.26
853,1778615600733,-0.19,0.07,-0.08,138.18,-4.52,-15.26
854,1778615600733,-0.19,0.07,-0.08,138.18,-4.52,-15.26
855,1778615600749,-0.19,0.07,-0.08,159.48,148.44,16.42
856,1778615600749,-0.19,0.07,-0.08,159.48,148.44,16.42
857,1778615600765,-0.19,0.07,-0.08,159.48,148.44,16.42
858,1778615600781,-0.45,-0.28,-0.31,254.88,8.54,-27.77
859,1778615600781,-0.45,-0.28,-0.31,254.88,8.54,-27.77
860,1778615600797,-0.45,-0.28,-0.31,254.88,8.54,-27.77
861,1778615600814,-0.45,-0.28,-0.31,254.88,8.54,-27.77
862,1778615600814,-0.45,-0.28,-0.31,254.88,8.54,-27.77
863,1778615600830,-0.45,-0.28,-0.31,254.88,8.54,-27.77
864,1778615600830,-0.45,-0.28,-0.31,254.88,8.54,-27.77
865,1778615600846,-0.45,-0.28,-0.31,254.88,8.54,-27.77
866,1778615600862,-0.45,-0.28,-0.31,254.88,8.54,-27.77
867,1778615600862,-0.45,-0.28,-0.31,254.88,8.54,-27.77
868,1778615600879,-0.45,-0.28,-0.31,254.88,8.54,-27.77
869,1778615600879,-0.45,-0.28,-0.31,254.88,8.54,-27.77
870,1778615600895,-0.45,-0.28,-0.31,254.88,8.54,-27.77
871,1778615600911,-0.45,-0.28,-0.31,254.88,8.54,-27.77
872,1778615600911,-0.45,-0.28,-0.31,254.88,8.54,-27.77
873,1778615600927,-0.45,-0.28,-0.31,254.88,8.54,-27.77
874,1778615600944,-0.45,-0.28,-0.31,254.88,8.54,-27.77
875,1778615600944,-0.45,-0.28,-0.31,254.88,8.54,-27.77
876,1778615600960,-0.45,-0.28,-0.31,254.88,8.54,-27.77
877,1778615600960,-0.45,-0.28,-0.31,254.88,8.54,-27.77
878,1778615600976,-0.45,-0.28,-0.31,254.88,8.54,-27.77
879,1778615600992,0.09,0.11,0.04,73.73,-154.66,-111.21
880,1778615600992,0.09,0.11,0.04,73.73,-154.66,-111.21
881,1778615601008,0.05,0.11,0.1,36.93,-184.14,-162.11
882,1778615601008,0.05,0.11,0.1,36.93,-184.14,-162.11
883,1778615601024,0.05,0.11,0.1,36.93,-184.14,-162.11
884,1778615601040,-0.06,0.04,-0.03,36.93,-184.14,-162.11
885,1778615601040,-0.06,0.04,-0.03,36.93,-184.14,-162.11
886,1778615601057,-0.06,0.04,-0.03,-9.22,-158.51,-115.05
887,1778615601073,-0.06,0.04,-0.03,-9.22,-158.51,-115.05
888,1778615601073,-0.06,0.04,-0.03,-9.22,-158.51,-115.05
889,1778615601089,-0.02,0.05,0.04,-14.1,-169.01,-64.51
890,1778615601089,-0.02,0.05,0.04,-14.1,-169.01,-64.51
891,1778615601105,-0.02,0.05,0.04,-14.1,-169.01,-64.51
892,1778615601122,-0.28,0.43,-0.09,28.56,200.99,-72.45
893,1778615601122,-0.28,0.43,-0.09,28.56,200.99,-72.45
894,1778615601138,-0.28,0.43,-0.09,28.56,200.99,-72.45
895,1778615601138,-0.28,0.43,-0.09,28.56,200.99,-72.45
896,1778615601154,-0.28,0.43,-0.09,28.56,200.99,-72.45
897,1778615601170,1.77,0.6,6.4,-86.36,-227.05,36.8
898,1778615601170,1.77,0.6,6.4,-86.36,-227.05,36.8
899,1778615601186,1.77,0.6,6.4,-86.36,-227.05,36.8
900,1778615601202,0.05,-0.33,-0.56,189.03,-131.1,65.61
901,1778615601202,0.05,-0.33,-0.56,189.03,-131.1,65.61
902,1778615601219,0.05,-0.33,-0.56,189.03,-131.1,65.61
903,1778615601219,0.05,-0.33,-0.56,189.03,-131.1,65.61
904,1778615601235,2.41,-4.07,-0.03,232.42,52.06,-164.06
905,1778615601251,2.41,-4.07,-0.03,232.42,52.06,-164.06
906,1778615601251,2.41,-4.07,-0.03,232.42,52.06,-164.06
907,1778615601266,2.41,-4.07,-0.03,232.42,52.06,-164.06
908,1778615601282,1.24,-2.12,-0.06,-135.56,48.16,109.62
909,1778615601282,1.24,-2.12,-0.06,-135.56,48.16,109.62
910,1778615601298,1.24,-2.12,-0.06,-135.56,48.16,109.62
911,1778615601298,1.24,-2.12,-0.06,-135.56,48.16,109.62
912,1778615601315,1.3,-1.18,-0.06,-64.7,5.19,-23.8
913,1778615601331,1.3,-1.18,-0.06,-64.7,5.19,-23.8
914,1778615601331,1.3,-1.18,-0.06,-64.7,5.19,-23.8
915,1778615601347,1.69,-1.45,-0.01,-64.7,5.19,-23.8
916,1778615601364,1.69,-1.45,-0.01,-185.73,22.28,-151.98
917,1778615601364,1.69,-1.45,-0.01,-185.73,22.28,-151.98
918,1778615601380,1.69,-1.45,-0.01,-185.73,22.28,-151.98
919,1778615601380,1.69,-1.45,-0.01,-185.73,22.28,-151.98
920,1778615601396,0.7,-0.9,-0.19,-106.93,-71.9,-78.49
921,1778615601411,0.7,-0.9,-0.19,-106.93,-71.9,-78.49
922,1778615601411,0.7,-0.9,-0.19,-106.93,-71.9,-78.49
923,1778615601427,-0.0,-0.09,0.12,-106.93,-71.9,-78.49
924,1778615601443,-0.0,-0.09,0.12,-13.0,-192.69,-33.63
925,1778615601443,-0.0,-0.09,0.12,-13.0,-192.69,-33.63
926,1778615601459,-0.0,-0.09,0.12,-13.0,-192.69,-33.63
927,1778615601459,-0.0,-0.09,0.12,-13.0,-192.69,-33.63
928,1778615601475,0.19,-0.57,-0.6,-138.24,212.1,-37.54
929,1778615601491,0.19,-0.57,-0.6,-138.24,212.1,-37.54
930,1778615601491,0.19,-0.57,-0.6,-138.24,212.1,-37.54
931,1778615601507,-0.23,-0.07,-0.34,-27.04,19.53,37.78
932,1778615601523,-0.23,-0.07,-0.34,-27.04,19.53,37.78
933,1778615601523,-0.23,-0.07,-0.34,-27.04,19.53,37.78
934,1778615601540,-0.23,-0.07,-0.34,-27.04,19.53,37.78
935,1778615601540,-0.23,-0.07,-0.34,-27.04,19.53,37.78
936,1778615601556,-0.29,-0.11,-0.17,51.15,-28.26,140.99
937,1778615601572,-0.29,-0.11,-0.17,51.15,-28.26,140.99
938,1778615601572,-0.29,-0.11,-0.17,51.15,-28.26,140.99
939,1778615601589,-0.2,0.17,0.03,51.15,-28.26,140.99
940,1778615601589,-0.2,0.17,0.03,51.15,-28.26,140.99
941,1778615601605,-0.2,0.17,0.03,203.12,-102.84,162.29
942,1778615601621,-0.01,0.14,0.18,203.12,-102.84,162.29
943,1778615601621,-0.01,0.14,0.18,203.12,-102.84,162.29
944,1778615601637,-0.01,0.14,0.18,144.47,54.99,87.16
945,1778615601653,-0.01,0.14,0.18,144.47,54.99,87.16
946,1778615601653,-0.01,0.14,0.18,144.47,54.99,87.16
947,1778615601669,-0.32,-0.52,0.09,62.07,298.77,-61.95
948,1778615601669,-0.32,-0.52,0.09,62.07,298.77,-61.95
949,1778615601685,-0.32,-0.52,0.09,62.07,298.77,-61.95
950,1778615601701,4.19,-5.77,5.46,-322.69,383.0,62.01
951,1778615601701,4.19,-5.77,5.46,-322.69,383.0,62.01
952,1778615601717,4.19,-5.77,5.46,-322.69,383.0,62.01
953,1778615601733,4.19,-5.77,5.46,-322.69,383.0,62.01
954,1778615601733,4.19,-5.77,5.46,-322.69,383.0,62.01
955,1778615601749,0.43,-2.39,0.13,8.12,-97.23,77.45
956,1778615601749,0.43,-2.39,0.13,8.12,-97.23,77.45
957,1778615601765,0.43,-2.39,0.13,8.12,-97.23,77.45
958,1778615601781,0.43,-2.39,0.13,8.12,-97.23,77.45
959,1778615601781,0.43,-2.39,0.13,8.12,-97.23,77.45
960,1778615601798,0.92,-1.34,-0.37,99.61,-196.11,20.26
961,1778615601814,0.92,-1.34,-0.37,99.61,-196.11,20.26
962,1778615601814,0.92,-1.34,-0.37,99.61,-196.11,20.26
963,1778615601830,0.79,-0.73,0.19,1.46,-153.99,-49.74
964,1778615601830,0.79,-0.73,0.19,1.46,-153.99,-49.74
965,1778615601846,0.79,-0.73,0.19,1.46,-153.99,-49.74
966,1778615601862,0.21,0.27,0.02,66.1,-111.21,-107.06
967,1778615601862,0.21,0.27,0.02,66.1,-111.21,-107.06
968,1778615601879,0.21,0.27,0.02,66.1,-111.21,-107.06
969,1778615601879,0.21,0.27,0.02,66.1,-111.21,-107.06
970,1778615601895,0.21,0.27,0.02,66.1,-111.21,-107.06
971,1778615601911,0.08,0.19,0.02,112.49,-143.37,-175.29
972,1778615601911,0.08,0.19,0.02,112.49,-143.37,-175.29
973,1778615601927,0.08,0.19,0.02,112.49,-143.37,-175.29
974,1778615601943,-0.01,0.31,0.08,38.88,-108.09,-198.85
975,1778615601943,-0.01,0.31,0.08,38.88,-108.09,-198.85
976,1778615601959,-0.01,0.31,0.08,38.88,-108.09,-198.85
977,1778615601959,-0.01,0.31,0.08,38.88,-108.09,-198.85
978,1778615601976,-0.57,-0.55,0.04,321.84,-215.58,-112.61
979,1778615601992,-0.57,-0.55,0.04,321.84,-215.58,-112.61
980,1778615601992,-0.57,-0.55,0.04,321.84,-215.58,-112.61
981,1778615602008,-0.29,0.94,0.5,512.82,-434.39,73.91
982,1778615602008,-0.29,0.94,0.5,512.82,-434.39,73.91
983,1778615602024,-0.29,0.94,0.5,512.82,-434.39,73.91
984,1778615602041,-0.29,0.94,0.5,512.82,-434.39,73.91
985,1778615602041,-0.29,0.94,0.5,512.82,-434.39,73.91
986,1778615602057,0.18,0.09,-0.09,-305.66,295.17,-112.98
987,1778615602072,0.18,0.09,-0.09,-305.66,295.17,-112.98
988,1778615602072,0.18,0.09,-0.09,-305.66,295.17,-112.98
989,1778615602089,0.7,-0.08,-0.99,-217.77,22.16,-81.85
990,1778615602089,0.7,-0.08,-0.99,-217.77,22.16,-81.85
991,1778615602105,0.7,-0.08,-0.99,-217.77,22.16,-81.85
992,1778615602121,1.55,-0.97,-0.39,-217.77,22.16,-81.85
993,1778615602121,1.55,-0.97,-0.39,-217.77,22.16,-81.85
994,1778615602137,1.55,-0.97,-0.39,-164.25,180.97,298.83
995,1778615602153,1.55,-0.97,-0.39,-164.25,180.97,298.83
996,1778615602153,1.55,-0.97,-0.39,-164.25,180.97,298.83
997,1778615602169,3.1,-2.85,-1.44,401.92,-70.92,-125.37
998,1778615602169,3.1,-2.85,-1.44,401.92,-70.92,-125.37
999,1778615602185,3.1,-2.85,-1.44,401.92,-70.92,-125.37
