id,timestamp,acc_x,acc_y,acc_z,gyro_x,gyro_y,gyro_z
1,1778586007.4942052,-0.78684056,1.2874019,1.3120518,-1.9425098,1.6383767,-0.87138635
2,1778586007.555951,-0.8232051,1.0345587,0.44052333,-1.0535465,2.4517062,-1.5760587
3,1778586007.618953,-0.11251039,0.45516676,0.3990336,-0.6876282,2.2540996,-1.5648735
4,1778586007.6816294,-0.09518232,0.3482697,0.4742032,-0.20453078,2.7308054,-1.9861856
5,1778586007.744565,0.17572121,0.50568664,0.15107143,-1.2351742,0.7866978,-1.4721955
6,1778586007.8068547,-0.3973252,2.016157,1.1570754,0.7307714,-1.6990968,0.5635249
7,1778586007.86959,-2.1372094,2.6731591,2.433739,3.5244274,-1.4780544,1.2964269
8,1778586007.9308803,-1.964905,1.6700838,0.78586435,3.635215,-2.1576931,3.9025962
9,1778586007.9935312,-1.129985,0.7226535,0.3048275,3.1510522,-0.799481,3.1798143
10,1778586008.0560188,0.07687803,-0.29579738,-0.34290043,1.107875,-1.1669972,1.2543489
11,1778586008.1181839,-0.23819989,-0.50715095,-0.18914436,0.0,-0.5182512,-0.33076462
12,1778586008.1809776,-0.32117933,-0.46688148,-0.22965786,-0.44794372,0.38562572,-1.0956244
13,1778586008.243063,-0.4087959,-0.28920785,-0.29213652,-0.68176925,-0.041545313,-1.798699
14,1778586008.305812,-1.3135161,0.8685997,-0.61966133,-3.5052526,1.6559536,-3.774232
15,1778586008.3680491,-1.632987,1.9861377,1.3552499,-1.5270566,1.7992316,-2.3845944
16,1778586008.4309516,-0.62063754,1.3108315,-0.102992155,-1.8785939,1.0263823,-1.6058862
17,1778586008.4931076,-0.27334413,0.8412653,0.6242984,-2.0815268,1.7651432,-1.0940266
18,1778586008.5555172,-0.0873725,0.77048874,0.56426036,-0.09960223,1.2154667,-0.25353295
19,1778586008.6182253,0.18914436,0.73680884,0.45467865,0.58429754,-0.051132694,0.9400959
20,1778586008.6800876,-0.18914436,1.8665497,0.19793043,-0.54275227,-1.7033578,2.2684808
21,1778586008.7430027,-2.4798658,2.9360087,1.9187781,1.8562233,-1.7960359,3.5702338
22,1778586008.8055189,-1.9485531,1.4631232,0.298482,3.3214946,-1.355549,4.3377566
23,1778586008.8679352,-0.2403964,-0.2638259,0.111290105,0.6812366,-1.5739282,2.336125
24,1778586008.9304302,0.18182266,-0.7663397,0.009030119,2.1411815,-1.1265172,-0.39361522
25,1778586008.9930534,0.04344219,-0.7141115,-0.3773125,1.5425029,-0.36485308,-0.52624065
26,1778586009.0551653,-0.13227904,-0.59281504,-0.71996886,-0.9331717,-0.49481535,-2.2349248
27,1778586009.1176739,-1.8738716,1.1480453,-0.19841854,-3.1489217,1.9132149,-3.9398806
28,1778586009.1809254,-1.6405529,1.6559285,0.8759214,-3.0045784,0.20186761,-2.5326662
29,1778586009.242542,-0.8776299,1.5702643,-0.2489384,0.18908444,1.8908445,-2.12467
30,1778586009.3050218,-0.32020313,1.0064921,0.24234885,-2.7670245,0.7030745,-1.6623452
31,1778586009.3676083,-0.19402552,0.79489446,0.6577343,-1.1334413,1.3949639,-0.66206187
32,1778586009.4305124,-0.026358182,0.88055855,0.023429496,-0.69987875,-0.31957933,0.92038846
33,1778586009.492501,-0.5266756,1.7047399,0.46639338,0.0314253,-2.2327943,2.1784658
34,1778586009.5554154,-1.9849175,2.3441699,1.3225462,3.4056504,-2.0378509,3.8525288
35,1778586009.617533,-1.4865527,1.1629328,0.007321717,3.7065878,-1.7267936,3.7230992
36,1778586009.6796498,-0.4639528,0.36974674,-0.23551524,1.3054816,-1.0263823,2.1534321
37,1778586009.742714,-0.17230442,-0.5183776,0.00048811449,0.72970617,-1.7369137,-0.5816344
38,1778586009.8053102,-0.30458343,-0.5886661,-0.25943285,0.62104917,-0.9635317,-0.8633968
39,1778586009.8674657,-0.24234885,-0.6662763,-0.2967736,-1.5398397,-0.8314389,-2.2556975
40,1778586009.9296587,-0.96671075,0.16278619,-0.13740423,-1.8801918,-0.18588865,-2.6823359
41,1778586009.9923735,-2.8735301,1.1534146,0.84761083,-4.5470815,1.6618125,-3.8312237
42,1778586010.0552516,-1.842144,1.3962514,0.7058135,-2.385127,2.4351945,-2.2354574
43,1778586010.1168807,-0.7641432,1.2056428,0.22672918,-0.64555025,2.4149544,-1.3038837
44,1778586010.1792047,-0.4087959,1.0523748,0.40440285,-0.92092115,1.9750003,-0.314253
45,1778586010.2420282,0.047347106,0.9637821,0.29189247,-0.964597,0.5448828,1.1712582
46,1778586010.3043191,0.076633975,0.92278045,0.39659303,-0.94542223,-0.6945524,1.9787288
47,1778586010.367075,-2.160395,2.4354472,0.51666915,1.6053536,-1.6745957,3.1941955
48,1778586010.4295127,-2.063504,1.5334117,1.2197981,2.4655545,-2.1033647,3.8578553
49,1778586010.492004,-1.1263242,0.50837123,-0.29994637,1.907356,-1.3827133,3.2666335
50,1778586010.5549972,-0.27334413,-0.46273252,0.03636453,1.2772521,-1.7491642,1.3475596
51,1778586010.6168892,-0.23844394,-0.58939826,-0.24918245,1.0881677,-1.2751216,0.113983296
52,1778586010.678969,-0.039781332,-0.69336665,-0.28676724,0.76965356,-0.035153728,-0.42344263
53,1778586010.741772,-0.20281157,-0.3773125,-0.5205741,-1.1867046,-0.7600662,-2.5790052
54,1778586010.8040683,-1.7935767,0.82198477,-0.5086153,-3.3300166,1.9398465,-4.1470747
55,1778586010.8671234,-2.1474595,1.4994878,0.5684093,-2.251969,1.9510318,-2.98061
56,1778586010.928951,-0.9974619,1.078489,0.14765464,-1.5531555,2.561961,-2.1800637
57,1778586010.991821,-0.53082454,0.8639627,0.44442827,-1.567004,2.0612867,-2.1145499
58,1778586011.0538867,-0.45199403,1.0926442,0.6257628,-0.6716492,1.500425,-0.92038846
59,1778586011.1177905,-0.31703037,1.2769076,0.33142975,-0.20879184,-0.8016115,1.5158713
60,1778586011.178679,-1.1988091,1.8145657,1.1338899,0.26684874,-1.6772588,2.6146915
61,1778586011.241233,-2.4078689,2.199688,0.44613665,1.655421,-2.13479,3.8562574
62,1778586011.303295,-1.4655638,0.9786696,-0.0043930304,1.3534185,-1.7204021,3.781689
63,1778586011.3664336,-0.49860895,-0.1986626,-0.018060237,0.6013418,-2.2077606,2.7308054
64,1778586011.4293764,-0.14204131,-0.45345837,-0.028066583,0.9416938,-2.0762005,1.5643408
65,1778586011.490807,-0.22062775,-0.5649925,-0.34168017,1.4551512,-0.1107875,0.16298546
66,1778586011.553557,-0.23795582,-0.47981656,-0.4046469,-0.41385525,0.104928546,-1.5286545
67,1778586011.6157892,-0.5427833,0.21891935,-0.54986095,-1.8343854,1.1105382,-3.5835497
68,1778586011.6779659,-2.285108,1.3327967,0.2306341,-2.3105586,1.7859159,-4.4165864
69,1778586011.7414956,-1.7930887,1.6212723,0.08517598,-0.7126619,2.2269354,-3.0850058
70,1778586011.804349,-0.6160005,1.1270564,0.11177822,-1.973935,0.9896307,-2.08419
71,1778586011.865861,-0.40293851,0.91497064,0.39659303,-1.5978967,1.1046792,-0.68816084
72,1778586011.9290056,0.22355644,0.78415596,0.52350277,-0.6849651,-0.011185277,0.48682585
73,1778586011.9915166,0.19329333,1.0072243,-0.005857374,0.8793758,-0.75580513,2.2674153
74,1778586012.0531511,-0.8107582,2.0364137,0.6977597,0.6631271,-1.202151,1.9281287
75,1778586012.115697,-2.4705915,1.731098,0.15888128,2.6727486,-1.4066817,4.4810348
76,1778586012.177897,-1.279104,0.5379022,-0.208913,0.06391586,-2.0069582,3.4120421
77,1778586012.240261,-0.45297024,-0.38805103,0.13764828,1.3326459,-1.8221349,2.0314593
78,1778586012.3027844,-0.23649146,-0.8717725,-0.08859278,1.7198695,-0.74728304,0.15446335
79,1778586012.365467,0.16791138,-0.91521466,-0.6450433,1.3171995,0.5853628,-0.60293967
80,1778586012.428159,-0.033679903,-0.5857374,-0.98330665,-3.0722227,-0.6940198,-4.337224
81,1778586012.490218,-3.0958662,1.5609902,0.48738232,-1.5068166,2.501241,-4.5966163
82,1778586012.5525274,-2.1887054,1.7535514,0.24356914,-1.7374463,1.568602,-3.6842172
83,1778586012.6160948,-0.68580085,1.2437156,0.021477038,-1.6197346,1.514806,-2.1763353
84,1778586012.6786306,-0.41929033,1.0548154,0.35168648,-0.92997587,1.5824504,-1.0189254
85,1778586012.7405047,-0.017328065,1.010397,0.54790854,-0.94275904,0.02130529,0.43675843
86,1778586012.802634,-0.11690342,1.0904478,0.08688438,-0.5566007,-2.156628,2.1283984
87,1778586012.8648324,-2.140138,2.097184,1.2930154,1.8482338,-1.6895094,2.8714204
88,1778586012.9280734,-1.8943723,1.3384099,0.28359452,1.5856462,-3.0812774,3.5169706
89,1778586012.9899883,-1.194172,0.5649925,-0.05198419,1.8487664,-1.5297197,2.1278658
90,1778586013.0523138,-0.5205741,-0.17450093,-0.09493827,0.6689861,-2.1747375,1.5499598
91,1778586013.11525,-0.21428227,-0.45394647,-0.10421244,1.1968247,-0.8346347,0.10546118
92,1778586013.1772301,-0.065407336,-0.55864704,-0.38097337,0.1768339,0.2711098,0.20719394
93,1778586013.2399294,-0.59842837,-0.30897647,-0.16742326,-0.5795039,-0.4149205,-1.4317155
94,1778586013.302887,-1.0850785,0.8061211,-0.7470592,-2.0256004,2.0213394,-3.3055155
95,1778586013.3658535,-2.4012792,1.5155954,0.7170402,-3.4029872,0.9086706,-2.906574
96,1778586013.4271784,-1.0240642,1.2830089,0.08517598,-1.1579424,2.1049626,-1.8216022
97,1778586013.4901464,-0.29872608,0.84199744,0.36681804,-1.2415657,1.7342505,-1.736381
98,1778586013.5520084,-0.2596769,0.8019721,0.35485923,-0.3254383,1.2735237,-0.70627034
99,1778586013.61567,-0.082491346,0.8678676,0.21599068,-0.2727077,0.13156016,0.93636745
100,1778586013.6767647,-0.1696198,1.2673893,0.42929673,-0.65247446,-2.4192157,1.717739
101,1778586013.7404287,-2.659492,2.6453364,0.9271735,2.8117654,-0.48043427,3.4951327
102,1778586013.8020332,-1.6991266,1.159516,-0.4144092,1.707619,-0.60240704,4.634433
103,1778586013.864766,-0.6633476,0.11983211,-0.13398743,-0.50173956,-1.8658108,3.5958002
104,1778586013.9269185,0.0065895454,-0.39488465,0.21135357,-0.058589544,-2.4469125,1.778459
105,1778586013.9895296,-0.2203837,-0.5034901,-0.18401916,1.1765846,-1.0594054,-0.3073288
106,1778586014.051726,-0.0134231495,-0.5735345,-0.37926495,1.009338,0.7142598,-1.1622036
107,1778586014.114784,-0.20354374,-0.38585448,-0.6965394,-1.3539511,-0.294013,-3.2916672
108,1778586014.1775076,-2.9133115,1.4631232,0.39244407,-3.952131,1.4082797,-4.233361
109,1778586014.2395604,-1.9595356,1.9556307,0.93229866,-0.87032104,1.2639363,-1.984055
110,1778586014.3012323,-0.5718261,1.2600676,-0.22355644,-0.8431568,1.5856462,-0.5853628
111,1778586014.3639183,-0.023673553,0.801484,0.21672285,-0.74675035,2.487925,-0.7286409
112,1778586014.4263256,-0.093473926,0.68433654,0.26651052,-0.78083885,0.8633968,-0.02609898
113,1778586014.4890459,-0.13838045,0.6540734,0.56987363,0.12623383,-0.3435478,1.4897723
114,1778586014.5514283,-0.7304634,2.1079226,0.6489482,-0.32330775,-1.8562233,1.675661
115,1778586014.614134,-2.6961005,2.3949337,0.065163285,4.272243,-1.2090752,3.7896783
116,1778586014.6771815,-0.87250465,0.71996886,-0.2967736,0.5470133,-1.0141318,4.021906
117,1778586014.7391894,-0.4978768,-0.14008886,0.09322987,1.1606057,-0.39894155,2.6642263
118,1778586014.802098,-0.035632357,-0.6118515,-0.00707766,0.7621967,-1.1787151,0.34887412
119,1778586014.865361,-0.09469421,-0.6548056,-0.22062775,0.87138635,-0.12836437,-0.8697884
120,1778586014.9269023,-0.1666911,-0.5440036,-0.532777,-1.4104102,-0.81439465,-1.4104102
121,1778586014.9883583,-1.4931422,0.62063754,-0.47884035,-2.58806,1.0700581,-5.0434947
122,1778586015.0509398,-2.5433207,1.3877095,-0.36340126,-2.7510455,1.5243934,-4.4149885
123,1778586015.1139693,-1.5265781,1.7586764,0.032215554,-1.0444918,1.8748654,-2.0735373
124,1778586015.1759143,-0.3436326,0.9386441,0.48909074,-1.9558256,2.1704764,-1.1978899
125,1778586015.2388966,-0.24674188,0.7980672,0.5527897,-0.41864893,1.562743,-0.8543421
126,1778586015.3009877,0.24356914,0.6616392,0.53033644,0.09534117,0.7637946,1.1041466
127,1778586015.3639305,0.017328065,0.933519,0.30336314,0.6759103,-1.0705907,1.4775218
128,1778586015.4258199,-2.41275,2.609704,0.79831123,2.052232,-2.2061627,3.0221553
129,1778586015.4883773,-1.39796,0.93229866,-0.42026657,2.4176178,-1.839179,3.6586509
130,1778586015.550984,-0.835652,0.4556549,-0.3109289,1.0391655,-1.623463,2.867692
131,1778586015.6130288,-0.28335047,-0.17840585,-0.05051985,1.3225259,-1.0215886,1.3267869
132,1778586015.6758633,-0.3053156,-0.32239962,-0.17206036,1.1606057,-1.113734,0.7526093
133,1778586015.7380211,-0.10933765,-0.5793919,-0.28871974,1.1153319,0.30040458,-0.55340487
134,1778586015.800271,-0.31605414,-0.14789869,-0.7575537,-1.8141453,-1.6080167,-3.1835427
135,1778586015.8630843,-1.3264512,0.5623079,-0.60013676,-2.7089674,1.28897,-4.307397
136,1778586015.9252703,-1.7498904,1.4094306,0.33777523,-1.9238676,1.8098843,-3.5851476
137,1778586015.9881148,-0.78537625,1.1573195,-0.3109289,-1.6500946,1.1062771,-2.1150825
138,1778586016.0503657,-0.33020946,0.81539524,0.3746279,-2.301504,1.5952336,-1.5760587
139,1778586016.113105,-0.029286869,0.8712844,0.60819066,-0.26684874,0.71585774,0.37124467
140,1778586016.1761968,-0.2660224,1.044321,0.33362624,0.2727077,0.42557314,1.5574167
141,1778586016.238856,-1.8379952,2.324157,1.0479817,1.6255935,-0.41065946,2.9912627
142,1778586016.3009686,-2.1215897,1.4187049,0.5042223,1.8887138,-2.489523,4.0448093
143,1778586016.3636153,-1.1168059,0.63967407,-0.234539,2.54758,-1.4247912,3.4147053
144,1778586016.4260776,-0.22453266,-0.19426957,-0.003172744,0.660464,-2.1960428,1.015197
145,1778586016.4888027,-0.21062139,-0.23600335,0.0353883,0.67271453,-2.1688783,0.80587256
146,1778586016.5496676,-0.2186753,-0.54205114,-0.4195344,1.4343786,-0.3850931,0.1603223
147,1778586016.6126468,-0.053692598,-0.28554696,-0.87958235,-1.3385048,-0.8186557,-2.0879183
148,1778586016.6747434,-1.3464638,0.48396555,-0.6050179,-3.1047132,1.0929613,-3.762514
149,1778586016.7378762,-1.7801535,1.5243815,0.23502712,-1.1446266,1.4450313,-2.9491847
150,1778586016.799854,-1.7015672,1.5317032,0.16522676,-0.7536746,1.7433053,-2.8032434
151,1778586016.8621662,-0.5537659,0.7192367,0.23356278,-2.847452,1.5654061,-1.6021577
152,1778586016.924907,-0.08615221,0.6672525,0.46932206,-1.8562233,0.80374205,-0.40426785
153,1778586016.9874337,-0.12715383,0.8505395,0.4846977,-1.4082797,-0.072970614,0.4926848
154,1778586017.0496135,-1.039928,2.0022457,0.7658516,0.69987875,-1.4588797,2.058091
155,1778586017.1138613,-2.1162202,2.5760243,0.29701766,1.5803198,-1.2974921,3.037069
156,1778586017.1747696,-1.3916144,1.0330943,0.17938207,2.368083,-1.4727281,3.6400087
157,1778586017.23816,-0.3053156,0.003172744,-0.12813005,0.65194184,-1.5654061,2.3627565
158,1778586017.2996452,-0.078830495,-0.24308102,0.06589546,0.8692558,-1.3358417,1.4626081
159,1778586017.3626418,-0.12471326,-0.53082454,-0.22892569,0.91346425,-0.08841695,0.39041942
160,1778586017.4255197,-0.18645974,-0.5005614,-0.33875147,0.19547603,0.06018744,-1.3182647
