id,timestamp,acc_x,acc_y,acc_z,gyro_x,gyro_y,gyro_z
1,1778587589.9010847,-0.33411437,1.159516,-0.21232979,-0.5550028,2.16515,-1.6484967
2,1778587589.9209955,-0.23429495,1.057256,-0.17303659,-0.5550028,2.16515,-1.6484967
3,1778587589.9415781,-0.22453266,0.9654905,-0.11836776,-1.4508902,1.6181368,-1.6261262
4,1778587589.9629328,-0.22453266,0.9654905,-0.11836776,-1.4508902,1.6181368,-1.6261262
5,1778587589.9848022,0.07297312,0.6289356,0.61673266,-1.7763284,0.7094661,-0.51931643
6,1778587590.0043087,0.10543273,0.6460195,0.6572462,-1.7763284,0.7094661,-0.51931643
7,1778587590.0253108,-0.003172744,0.81295466,0.31507793,-0.24607609,0.18162759,0.5139901
8,1778587590.0459473,-0.003172744,0.81295466,0.31507793,-0.24607609,0.18162759,0.5139901
9,1778587590.0667996,-0.003172744,0.81295466,0.31507793,-0.24607609,0.18162759,0.5139901
10,1778587590.0875359,-0.07248501,1.1160738,0.3104408,0.27643612,-1.4764565,1.8839202
11,1778587590.1086416,-0.3526627,1.5378047,0.20988922,0.27643612,-1.4764565,1.8839202
12,1778587590.1291027,-1.2778838,2.5123253,0.44394013,0.6492787,-1.2996227,2.1816616
13,1778587590.150006,-2.3004837,3.2344906,0.75096416,0.6492787,-1.2996227,2.1816616
14,1778587590.1705089,-2.3004837,3.2344906,0.75096416,0.6492787,-1.2996227,2.1816616
15,1778587590.191986,-2.7939675,2.1633234,0.1969542,1.4908376,-1.2868395,4.8751826
16,1778587590.2127576,-2.135501,1.3223021,-0.037828874,1.2202604,-1.1424961,5.4333816
17,1778587590.2333858,-1.4814276,0.6045298,-0.06369894,0.6013418,-1.0551444,5.2735915
18,1778587590.2538736,-1.4814276,0.6045298,-0.06369894,0.6013418,-1.0551444,5.2735915
19,1778587590.2752283,-1.4814276,0.6045298,-0.06369894,0.6013418,-1.0551444,5.2735915
20,1778587590.2958813,-0.17523311,-0.6428468,0.20622836,0.2034655,-2.2152174,2.9001825
21,1778587590.317287,0.191829,-0.9183875,0.19378147,0.63915867,-2.3238745,1.9020296
22,1778587590.3373265,0.29994637,-1.1202227,0.02318544,1.1792477,-2.418683,0.7781757
23,1778587590.3580883,0.29994637,-1.1202227,0.02318544,1.1792477,-2.418683,0.7781757
24,1778587590.3787975,0.29994637,-1.1202227,0.02318544,1.1792477,-2.418683,0.7781757
25,1778587590.3998764,-0.12398108,-0.9886759,-0.609655,1.7134778,-1.0828413,-0.67537767
26,1778587590.4209096,0.22868164,-0.98159826,-0.7155758,0.6173208,-0.3291667,-1.412008
27,1778587590.4416993,0.29116032,-0.96451426,-0.7936742,0.6173208,-0.3291667,-1.412008
28,1778587590.4622805,0.29116032,-0.96451426,-0.7936742,0.6173208,-0.3291667,-1.412008
29,1778587590.4829874,0.29116032,-0.96451426,-0.7936742,0.6173208,-0.3291667,-1.412008
30,1778587590.5046456,-1.9766197,1.4196811,-0.23039004,-1.5787219,1.8487664,-3.5968654
31,1778587590.5250793,-2.4395962,1.8128573,-0.1513155,-1.839179,1.7054884,-3.4312167
32,1778587590.5455394,-2.4395962,1.8128573,-0.1513155,-1.839179,1.7054884,-3.4312167
33,1778587590.5668302,-2.4395962,1.8128573,-0.1513155,-1.839179,1.7054884,-3.4312167
34,1778587590.5872009,-2.4395962,1.8128573,-0.1513155,-1.839179,1.7054884,-3.4312167
35,1778587590.6079981,-0.8319912,1.7401282,0.35559142,-0.7190535,1.4322481,-1.546764
36,1778587590.6286728,-0.44345203,1.462635,0.117879644,-0.11504856,1.7230653,-1.7912422
37,1778587590.6500685,-0.3287451,1.3484163,0.05418071,-0.11504856,1.7230653,-1.7912422
38,1778587590.6704903,-0.3287451,1.3484163,0.05418071,-0.11504856,1.7230653,-1.7912422
39,1778587590.691075,-0.3287451,1.3484163,0.05418071,-0.11504856,1.7230653,-1.7912422
40,1778587590.711873,-0.1803583,0.75389284,-0.08664032,-0.6940198,1.520665,-1.7907095
41,1778587590.7330017,-0.19109683,0.72655845,-0.060038086,-0.8133294,1.7614148,-1.3331785
42,1778587590.7538445,-0.14863087,0.66139513,0.087616555,-0.83996105,1.7379789,-0.76965356
43,1778587590.7751045,-0.14863087,0.66139513,0.087616555,-0.83996105,1.7379789,-0.76965356
44,1778587590.7955265,-0.14863087,0.66139513,0.087616555,-0.83996105,1.7379789,-0.76965356
45,1778587590.8164318,-0.33460248,0.77732235,0.055400997,-0.81439465,-0.7041398,1.1675298
46,1778587590.8373084,-0.050031736,0.9884319,0.18255483,-0.90973586,-1.6255935,1.9137475
47,1778587590.8579025,-0.050031736,0.9884319,0.18255483,-0.90973586,-1.6255935,1.9137475
48,1778587590.8789356,-0.050031736,0.9884319,0.18255483,-0.90973586,-1.6255935,1.9137475
49,1778587590.8997874,-0.050031736,0.9884319,0.18255483,-0.90973586,-1.6255935,1.9137475
50,1778587590.9203398,-2.186997,3.422659,0.44101146,0.8127968,-1.135572,3.1595743
51,1778587590.941422,-2.6843855,2.9211211,0.5762192,1.5425029,-0.44847634,3.8551922
52,1778587590.9619167,-2.4664426,2.1206133,0.2774931,1.6543556,-0.6860303,4.6770434
53,1778587590.9828427,-2.4664426,2.1206133,0.2774931,1.6543556,-0.6860303,4.6770434
54,1778587591.0035925,-2.4664426,2.1206133,0.2774931,1.6543556,-0.6860303,4.6770434
55,1778587591.0242908,0.0026846298,-0.48323336,0.10933765,0.71106404,-2.992328,3.6788907
56,1778587591.0450263,0.39805737,-0.62014943,0.07907455,1.019458,-2.7601001,2.411226
57,1778587591.0659225,0.48274526,-0.7238738,0.017572122,1.019458,-2.7601001,2.411226
58,1778587591.086638,0.48274526,-0.7238738,0.017572122,1.019458,-2.7601001,2.411226
59,1778587591.1075547,0.48274526,-0.7238738,0.017572122,1.019458,-2.7601001,2.411226
60,1778587591.1281576,-0.45638704,-0.99087244,-0.17303659,0.84422207,-1.2980248,-1.2697952
61,1778587591.1492903,-0.33020946,-0.938156,-0.13838045,0.85700524,-0.9305085,-0.92944324
62,1778587591.1702178,-0.18572757,-0.9237567,-0.20525214,0.85700524,-0.9305085,-0.92944324
63,1778587591.1912694,-0.18572757,-0.9237567,-0.20525214,0.85700524,-0.9305085,-0.92944324
64,1778587591.2116299,0.029530926,-0.8434618,-0.70288485,-0.08468852,0.9869675,-2.2775354
65,1778587591.2328756,-0.89032084,-0.3648656,-0.47664383,-1.1062771,0.7653925,-3.252785
66,1778587591.2532332,-1.1704986,0.2438132,-0.39659303,-1.659682,0.29827404,-3.4434674
67,1778587591.274202,-1.1704986,0.2438132,-0.39659303,-1.659682,0.29827404,-3.4434674
68,1778587591.2949753,-1.1704986,0.2438132,-0.39659303,-1.659682,0.29827404,-3.4434674
69,1778587591.3163712,-2.6616883,1.6320108,-0.6238103,-2.489523,2.650378,-4.1705103
70,1778587591.3368526,-2.6389909,1.7020552,-0.3778006,-3.7689056,1.7667412,-3.7257624
71,1778587591.3577938,-2.1623473,1.8606924,0.86103404,-3.904727,0.87511474,-3.232545
72,1778587591.3784885,-1.9580714,1.8594722,1.0045396,-2.3622239,1.1046792,-2.583799
73,1778587591.3991883,-1.9580714,1.8594722,1.0045396,-2.3622239,1.1046792,-2.583799
74,1778587591.4200923,-0.3956168,1.2839851,-0.31898284,0.31158987,1.933455,-1.9409119
75,1778587591.440653,-0.2997023,1.172451,-0.40489095,0.31158987,1.933455,-1.9409119
76,1778587591.4612663,-0.21477039,0.99184865,-0.28554696,-0.7637946,1.6138756,-2.082592
77,1778587591.4823582,-0.21477039,0.99184865,-0.28554696,-0.7637946,1.6138756,-2.082592
78,1778587591.5040283,-0.21477039,0.99184865,-0.28554696,-0.7637946,1.6138756,-2.082592
79,1778587591.5242517,-0.32410803,1.1294969,0.5400987,-1.6213325,0.08628642,-0.9193232
80,1778587591.5450873,-0.38731885,1.2073512,0.4983649,-1.6213325,0.08628642,-0.9193232
81,1778587591.565809,-0.0024405725,1.2195541,0.034168016,-0.87351686,-0.84581995,0.7909589
82,1778587591.5865355,-0.0024405725,1.2195541,0.034168016,-0.87351686,-0.84581995,0.7909589
83,1778587591.6075509,-0.0024405725,1.2195541,0.034168016,-0.87351686,-0.84581995,0.7909589
84,1778587591.6279895,-0.33777523,1.3960074,0.46736962,0.0058589545,-1.8594191,2.0367856
85,1778587591.6489058,-0.4888467,1.5795386,0.4253918,0.0058589545,-1.8594191,2.0367856
86,1778587591.6697004,-1.1892909,2.3558846,0.681896,0.51026165,-1.27885,2.5294704
87,1778587591.690818,-1.1892909,2.3558846,0.681896,0.51026165,-1.27885,2.5294704
88,1778587591.711245,-1.1892909,2.3558846,0.681896,0.51026165,-1.27885,2.5294704
89,1778587591.732312,-2.73759,1.9038906,0.78586435,2.7915256,-1.7070863,4.4165864
90,1778587591.7533162,-2.2275105,1.1612244,0.30677995,2.8101676,-2.0793962,4.8048754
91,1778587591.774221,-1.0616491,0.17669745,-0.11568313,2.4825988,-2.0149477,4.6429553
92,1778587591.794603,-1.0616491,0.17669745,-0.11568313,2.4825988,-2.0149477,4.6429553
93,1778587591.8154585,-1.0616491,0.17669745,-0.11568313,2.4825988,-2.0149477,4.6429553
94,1778587591.8365815,0.05832968,-0.59135073,-0.114218794,1.2415657,-2.0053604,2.6823359
95,1778587591.8571877,0.15229172,-0.70971847,-0.07150877,1.0610034,-1.6788567,1.7406421
96,1778587591.8777862,-0.012202863,-0.7656076,0.004881145,0.91612744,-1.4397049,0.73130405
97,1778587591.8986413,-0.012202863,-0.7656076,0.004881145,0.91612744,-1.4397049,0.73130405
98,1778587591.9199302,-0.012202863,-0.7656076,0.004881145,0.91612744,-1.4397049,0.73130405
99,1778587591.9405005,-0.23649146,-0.82003236,-0.37706846,0.8825716,-2.0133498,-0.39041942
100,1778587591.961225,-0.094206095,-0.8158834,-0.5000733,0.958738,-1.0929613,-0.17576863
101,1778587591.9824538,0.23819989,-0.8151512,-0.6501685,0.69295454,0.23648871,-0.39734364
102,1778587592.0025816,0.23819989,-0.8151512,-0.6501685,0.69295454,0.23648871,-0.39734364
103,1778587592.0239403,0.23819989,-0.8151512,-0.6501685,0.69295454,0.23648871,-0.39734364
104,1778587592.0445013,-1.1314493,0.17328064,-0.8817788,-1.6831179,1.6708673,-4.2035336
105,1778587592.0662103,-2.4564364,1.2200422,-0.6621273,-2.1640847,3.016829,-4.9667954
106,1778587592.0862377,-2.9984872,1.5412215,-0.58207655,-2.1640847,3.016829,-4.9667954
107,1778587592.1069615,-2.9984872,1.5412215,-0.58207655,-2.1640847,3.016829,-4.9667954
108,1778587592.1276066,-2.9984872,1.5412215,-0.58207655,-2.1640847,3.016829,-4.9667954
109,1778587592.1486204,-1.228096,1.8838779,0.48616204,-0.42876893,1.4455639,-2.0772657
110,1778587592.1696098,-1.228096,1.8838779,0.48616204,-0.42876893,1.4455639,-2.0772657
111,1778587592.1901343,-0.4217309,1.3623276,-0.49055508,-0.14061491,2.310026,-1.9185413
112,1778587592.2105854,-0.4217309,1.3623276,-0.49055508,-0.14061491,2.310026,-1.9185413
113,1778587592.2319567,-0.4217309,1.3623276,-0.49055508,-0.14061491,2.310026,-1.9185413
114,1778587592.2525625,-0.013911263,0.6277153,0.5342413,-2.3840618,1.6990968,-1.8093517
115,1778587592.2734067,-0.08908089,0.64772797,0.5947675,-2.0458405,1.412008,-1.6122777
116,1778587592.2942734,-0.08908089,0.64772797,0.5947675,-2.0458405,1.412008,-1.6122777
117,1778587592.3148575,-0.08908089,0.64772797,0.5947675,-2.0458405,1.412008,-1.6122777
118,1778587592.335573,-0.08908089,0.64772797,0.5947675,-2.0458405,1.412008,-1.6122777
119,1778587592.356706,-0.11519502,1.1275444,0.4458926,-1.0807108,-0.8495484,0.757403
120,1778587592.3777258,-0.5469323,1.5370725,0.48006064,-0.9129316,-1.8642128,1.1387677
121,1778587592.398644,-0.6469958,1.7120615,0.5091034,-0.4383563,-1.952097,1.7827201
122,1778587592.4193869,-0.6469958,1.7120615,0.5091034,-0.4383563,-1.952097,1.7827201
123,1778587592.440438,-2.5286772,3.035096,1.7084008,1.2133362,-1.1387677,2.3446472
124,1778587592.4610157,-3.2820818,2.9223413,0.993313,3.0045784,-0.86233157,2.8575718
125,1778587592.4817455,-3.2003226,2.3671112,0.39830142,3.4040525,-1.0407634,4.078365
126,1778587592.5026057,-2.6785283,1.5944259,-0.04807928,2.6865969,-1.6996294,4.873052
127,1778587592.5237823,-2.6785283,1.5944259,-0.04807928,2.6865969,-1.6996294,4.873052
128,1778587592.5441275,-0.6035536,-0.17620933,0.05515694,0.4644553,-2.7132285,3.8557248
129,1778587592.5653908,-0.009274175,-0.5518134,0.1683995,0.87032104,-2.5742116,3.1292143
130,1778587592.5859363,-0.009274175,-0.5518134,0.1683995,0.87032104,-2.5742116,3.1292143
131,1778587592.6070154,0.30165476,-0.7878168,0.052716363,1.5174692,-2.1821942,2.0836573
132,1778587592.6275017,0.30165476,-0.7878168,0.052716363,1.5174692,-2.1821942,2.0836573
133,1778587592.648443,-0.14472595,-1.0816617,-0.31385764,1.4365091,-1.923335,-1.3092101
134,1778587592.66913,-0.46102414,-1.0030752,-0.30677995,1.2101405,-1.6128104,-1.3448963
135,1778587592.689659,-0.15253578,-0.93620354,-0.35925224,1.1883025,-1.2325109,-0.9539443
136,1778587592.7104454,-0.15253578,-0.93620354,-0.35925224,1.1883025,-1.2325109,-0.9539443
137,1778587592.7317061,-0.15253578,-0.93620354,-0.35925224,1.1883025,-1.2325109,-0.9539443
138,1778587592.7522836,-0.53863436,-0.36291313,-0.7609705,-0.7456851,0.23276028,-2.3174827
139,1778587592.773339,-0.7902574,-0.1696198,-0.69263446,-1.7699369,0.26312032,-2.6450517
140,1778587592.7941651,-1.496803,0.7499879,-0.49446,-2.2407837,0.9305085,-2.721218
141,1778587592.8152003,-1.496803,0.7499879,-0.49446,-2.2407837,0.9305085,-2.721218
142,1778587592.8357856,-1.496803,0.7499879,-0.49446,-2.2407837,0.9305085,-2.721218
143,1778587592.856224,-1.496803,0.7499879,-0.49446,-2.2407837,0.9305085,-2.721218
144,1778587592.8766458,-1.9959,1.9356179,0.48103684,-2.2615564,1.427987,-2.0932446
145,1778587592.898014,-1.7569683,1.756236,0.36291313,-1.6415725,1.551025,-1.5781893
146,1778587592.9187436,-1.7569683,1.756236,0.36291313,-1.6415725,1.551025,-1.5781893
147,1778587592.939565,-1.7569683,1.756236,0.36291313,-1.6415725,1.551025,-1.5781893
148,1778587592.9604838,-0.41611758,1.1746475,-0.16498269,-1.1936288,2.269546,-1.5345135
149,1778587592.9815345,-0.15936938,0.95328766,-0.13032657,-1.1936288,2.269546,-1.5345135
150,1778587593.0020943,-0.049299564,0.7995315,-0.04344219,-2.0170782,1.8945729,-1.5744609
151,1778587593.0239394,-0.049299564,0.7995315,-0.04344219,-2.0170782,1.8945729,-1.5744609
152,1778587593.044008,-0.049299564,0.7995315,-0.04344219,-2.0170782,1.8945729,-1.5744609
153,1778587593.0650344,-0.13838045,0.8341876,0.6033095,-1.2069446,1.2831111,-0.08149273
154,1778587593.085599,-0.15033926,0.8793382,0.6203935,-1.2069446,1.2831111,-0.08149273
155,1778587593.106405,-0.15033926,0.8793382,0.6203935,-1.2069446,1.2831111,-0.08149273
156,1778587593.1270065,-0.15033926,0.8793382,0.6203935,-1.2069446,1.2831111,-0.08149273
157,1778587593.147785,-0.15033926,0.8793382,0.6203935,-1.2069446,1.2831111,-0.08149273
158,1778587593.1685762,-0.99453324,2.4591208,1.1756238,0.38562572,-0.8852348,2.5571673
159,1778587593.1896975,-1.7608731,2.6795044,1.381608,1.6101472,-1.5808525,2.3148196
160,1778587593.2104025,-2.5037832,2.6238594,0.68580085,2.5145566,-2.5513084,2.694054
161,1778587593.2312267,-2.5037832,2.6238594,0.68580085,2.5145566,-2.5513084,2.694054
162,1778587593.252144,-2.5037832,2.6238594,0.68580085,2.5145566,-2.5513084,2.694054
163,1778587593.2726495,-1.4999758,0.7990434,0.10055158,1.5137408,-2.1949775,3.7454698
164,1778587593.293623,-0.8195442,0.18694785,0.15839316,1.1419635,-2.620018,3.4210968
165,1778587593.3144352,-0.66188323,0.027334413,0.17328064,1.2357068,-2.7606328,2.828277
166,1778587593.3351433,-0.66188323,0.027334413,0.17328064,1.2357068,-2.7606328,2.828277
167,1778587593.3562224,-0.66188323,0.027334413,0.17328064,1.2357068,-2.7606328,2.828277
168,1778587593.3768308,0.15180361,-0.66115105,-0.25772443,1.9094865,-1.0386329,0.68176925
169,1778587593.3979836,0.08956901,-0.70264083,-0.24625377,1.6644757,-0.6135923,-0.07669904
170,1778587593.4185522,-0.13374338,-0.7914777,-0.19085276,1.2559468,-0.7669904,-0.6689861
171,1778587593.439387,-0.13374338,-0.7914777,-0.19085276,1.2559468,-0.7669904,-0.6689861
172,1778587593.459881,-0.13374338,-0.7914777,-0.19085276,1.2559468,-0.7669904,-0.6689861
173,1778587593.4807026,-0.13374338,-0.7914777,-0.19085276,1.2559468,-0.7669904,-0.6689861
174,1778587593.5020103,-0.13374338,-0.7914777,-0.19085276,1.2559468,-0.7669904,-0.6689861
175,1778587593.5235229,-0.13374338,-0.7914777,-0.19085276,1.2559468,-0.7669904,-0.6689861
176,1778587593.5434523,-0.13374338,-0.7914777,-0.19085276,1.2559468,-0.7669904,-0.6689861
177,1778587593.5643768,-0.13374338,-0.7914777,-0.19085276,1.2559468,-0.7669904,-0.6689861
178,1778587593.585389,-2.344658,1.4157761,-0.5535218,-1.991512,1.8940402,-3.196326
179,1778587593.6058688,-2.344658,1.4157761,-0.5535218,-1.991512,1.8940402,-3.196326
180,1778587593.626704,-2.344658,1.4157761,-0.5535218,-1.991512,1.8940402,-3.196326
181,1778587593.6477156,-2.344658,1.4157761,-0.5535218,-1.991512,1.8940402,-3.196326
182,1778587593.668607,-2.344658,1.4157761,-0.5535218,-1.991512,1.8940402,-3.196326
183,1778587593.6891656,-2.344658,1.4157761,-0.5535218,-1.991512,1.8940402,-3.196326
184,1778587593.709941,-0.5252112,1.2302926,-0.43881494,-0.4628574,2.5252094,-1.871137
185,1778587593.7308319,-0.4097721,1.1258361,-0.4566311,-0.4628574,2.5252094,-1.871137
186,1778587593.751851,-0.4097721,1.1258361,-0.4566311,-0.4628574,2.5252094,-1.871137
187,1778587593.772815,-0.4097721,1.1258361,-0.4566311,-0.4628574,2.5252094,-1.871137
188,1778587593.7931993,-0.4097721,1.1258361,-0.4566311,-0.4628574,2.5252094,-1.871137
189,1778587593.8141263,-0.4097721,1.1258361,-0.4566311,-0.4628574,2.5252094,-1.871137
190,1778587593.8348136,-0.4097721,1.1258361,-0.4566311,-0.4628574,2.5252094,-1.871137
191,1778587593.8556492,-0.4097721,1.1258361,-0.4566311,-0.4628574,2.5252094,-1.871137
192,1778587593.8765578,-0.4097721,1.1258361,-0.4566311,-0.4628574,2.5252094,-1.871137
193,1778587593.8973444,-0.4097721,1.1258361,-0.4566311,-0.4628574,2.5252094,-1.871137
194,1778587593.9181044,-0.4097721,1.1258361,-0.4566311,-0.4628574,2.5252094,-1.871137
195,1778587593.938899,-0.4097721,1.1258361,-0.4566311,-0.4628574,2.5252094,-1.871137
196,1778587593.959914,-0.4097721,1.1258361,-0.4566311,-0.4628574,2.5252094,-1.871137
197,1778587593.9810286,-2.5391717,2.5931082,0.67579454,1.6506273,-2.6146915,3.5324168
198,1778587594.0013993,-2.4625378,2.3583252,0.75999427,1.5808525,-2.5331988,4.2077947
199,1778587594.0228071,-1.4958268,0.8053889,0.23380683,1.4141386,-2.7334685,4.43949
200,1778587594.0431714,-1.4958268,0.8053889,0.23380683,1.4141386,-2.7334685,4.43949
201,1778587594.0641994,-1.4958268,0.8053889,0.23380683,1.4141386,-2.7334685,4.43949
202,1778587594.0847003,0.05051985,-0.277005,-0.12349297,1.5643408,-2.2919164,1.943575
203,1778587594.106036,0.26162934,-0.46810177,-0.23893206,1.3789848,-2.0010993,0.6775082
204,1778587594.1264803,0.082003236,-0.6770148,-0.27724904,1.0855045,-1.8178738,-0.43516052
205,1778587594.1473875,0.082003236,-0.6770148,-0.27724904,1.0855045,-1.8178738,-0.43516052
206,1778587594.167878,0.082003236,-0.6770148,-0.27724904,1.0855045,-1.8178738,-0.43516052
207,1778587594.1890295,-0.6570021,-0.7604824,-0.04490653,0.83996105,-0.7909589,-1.2255868
208,1778587594.2094045,-0.6570021,-0.7604824,-0.04490653,0.83996105,-0.7909589,-1.2255868
209,1778587594.2305593,-0.6570021,-0.7604824,-0.04490653,0.83996105,-0.7909589,-1.2255868
210,1778587594.2514722,-0.6570021,-0.7604824,-0.04490653,0.83996105,-0.7909589,-1.2255868
211,1778587594.2722747,-0.6570021,-0.7604824,-0.04490653,0.83996105,-0.7909589,-1.2255868
212,1778587594.293019,-0.6570021,-0.7604824,-0.04490653,0.83996105,-0.7909589,-1.2255868
213,1778587594.3141496,-1.7369554,0.7480355,-0.43539813,-1.6431705,1.4205302,-2.8266792
214,1778587594.3346114,-2.1384296,1.2556745,-0.27846932,-2.0714068,1.8136127,-3.0466564
215,1778587594.355677,-2.1384296,1.2556745,-0.27846932,-2.0714068,1.8136127,-3.0466564
216,1778587594.3765814,-2.1384296,1.2556745,-0.27846932,-2.0714068,1.8136127,-3.0466564
217,1778587594.3971891,-1.8287209,1.7855228,0.5357057,-2.6743464,1.5094798,-2.6051042
218,1778587594.417838,-1.8287209,1.7855228,0.5357057,-2.6743464,1.5094798,-2.6051042
219,1778587594.4440844,-1.8287209,1.7855228,0.5357057,-2.6743464,1.5094798,-2.6051042
220,1778587594.4564917,-1.8287209,1.7855228,0.5357057,-2.6743464,1.5094798,-2.6051042
221,1778587594.4763665,-1.8287209,1.7855228,0.5357057,-2.6743464,1.5094798,-2.6051042
222,1778587594.497048,-1.8287209,1.7855228,0.5357057,-2.6743464,1.5094798,-2.6051042
223,1778587594.5179331,-1.8287209,1.7855228,0.5357057,-2.6743464,1.5094798,-2.6051042
224,1778587594.538822,-0.36974674,0.67750293,0.36266908,-2.5459821,1.0929613,-1.7789917
225,1778587594.5589902,-0.36974674,0.67750293,0.36266908,-2.5459821,1.0929613,-1.7789917
226,1778587594.5800538,-0.36974674,0.67750293,0.36266908,-2.5459821,1.0929613,-1.7789917
227,1778587594.6014068,-0.046858992,0.8991069,0.49006698,-1.514806,0.81226414,0.18482338
228,1778587594.6223283,-0.046858992,0.8991069,0.49006698,-1.514806,0.81226414,0.18482338
229,1778587594.6430256,-0.046858992,0.8991069,0.49006698,-1.514806,0.81226414,0.18482338
230,1778587594.663535,-0.046858992,0.8991069,0.49006698,-1.514806,0.81226414,0.18482338
231,1778587594.6844006,-0.046858992,0.8991069,0.49006698,-1.514806,0.81226414,0.18482338
232,1778587594.705233,-0.046858992,0.8991069,0.49006698,-1.514806,0.81226414,0.18482338
233,1778587594.7259111,-0.39317623,1.9343977,0.33460248,0.3898868,-1.5094798,2.698315
234,1778587594.7464392,-2.0225024,2.4034758,0.65944266,2.1923141,-1.335309,4.1151166
235,1778587594.7681162,-2.0225024,2.4034758,0.65944266,2.1923141,-1.335309,4.1151166
236,1778587594.792459,-2.0225024,2.4034758,0.65944266,2.1923141,-1.335309,4.1151166
237,1778587594.810233,-1.0265048,0.5459561,-0.32923323,1.4130733,-1.6969663,3.824832
238,1778587594.8312187,-0.67579454,0.16620298,-0.2796896,0.793622,-1.8716697,2.964631
239,1778587594.8527448,-0.17889395,-0.3014107,0.041977845,0.46711847,-2.0053604,2.0469058
240,1778587594.8726754,-0.09884319,-0.40049794,0.08859278,0.5603291,-1.8487664,1.1856394
241,1778587594.8938189,0.06833603,-0.69385475,0.16913168,0.92731273,-1.5808525,0.37284255
242,1778587594.9146297,-0.08517598,-0.81417495,0.036120474,1.3933659,-1.5030881,-0.41971418
243,1778587594.9360383,-0.14936304,-0.8432178,-0.0353883,1.3933659,-1.5030881,-0.41971418
244,1778587594.9564912,-0.4751795,-0.79562664,-0.2889638,1.808819,-1.4397049,-1.1568772
245,1778587594.977796,-0.48957884,-0.71093875,-0.39415246,1.7038904,-0.8005462,-0.6492787
246,1778587594.9978218,-0.13252309,-0.7224094,-0.58036816,1.5084145,-0.028229509,-0.1107875
247,1778587595.0184999,0.15253578,-0.7158199,-0.775858,0.86606,0.37603834,-0.4063984
248,1778587595.039347,0.08956901,-0.6125837,-0.70190865,-0.3323625,0.15765914,-1.520665
249,1778587595.0605617,-0.90740484,0.2677308,-0.63284045,-0.9779128,-0.108124346,-2.489523
250,1778587595.0809848,-1.5112025,0.8551766,-0.6462636,-1.216532,1.1755193,-2.8991172
251,1778587595.1022286,-2.0493488,1.568556,-0.43368974,-2.0857878,2.4778051,-3.0434606
252,1778587595.123073,-2.2690003,1.8577638,0.21062139,-3.0919302,0.9912286,-3.0903323
253,1778587595.1467736,-2.191146,1.9646608,0.6379657,-2.7968519,0.24394555,-2.3856597
254,1778587595.167346,-1.3384099,1.8472692,0.6882414,-1.6330504,0.38296258,-1.7342505
255,1778587595.186322,-1.1180263,1.7769808,0.58305275,-1.6330504,0.38296258,-1.7342505
256,1778587595.2068045,-0.5691415,1.504857,-0.09811102,0.21891184,1.1888351,-1.5978967
257,1778587595.227922,-0.30409533,1.3225462,-0.3682824,0.16192019,1.412008,-1.5851135
258,1778587595.2484963,0.051252022,0.9696394,-0.4253918,-0.43888897,1.325189,-1.7997643
259,1778587595.2692919,0.05296042,0.8007518,-0.36096066,-1.180313,0.984837,-2.0777984
260,1778587595.2898765,-0.0353883,0.72875494,-0.31898284,-1.180313,0.984837,-2.0777984
261,1778587595.3113992,-0.25845662,0.62356627,0.2882316,-1.9515644,1.0966897,-1.3422332
262,1778587595.331636,-0.14399378,0.6113634,0.45419052,-1.663943,0.9816412,-0.61838603
263,1778587595.3525698,-0.14399378,0.6113634,0.45419052,-1.663943,0.9816412,-0.61838603
264,1778587595.3733869,-0.020500809,0.77610207,0.3116611,-0.5917544,-0.24820662,0.41545314
265,1778587595.394363,-0.09640261,0.8507836,0.17840585,-0.26631612,-0.7845673,0.9997507
266,1778587595.4148567,-0.020256752,1.3061944,-0.058817793,-0.39095205,-1.1116035,1.700162
267,1778587595.4359822,-0.053204484,1.764778,0.36413342,-0.5864281,-1.2905679,1.8961707
268,1778587595.4567788,-1.4094306,2.664617,1.2498171,-0.13635385,-1.7550232,1.5947009
269,1778587595.477607,-2.1916342,3.100259,1.2642165,1.7827201,-1.2953615,1.9765981
270,1778587595.5005236,-2.7900624,3.1905603,0.18206671,3.6272254,0.011185277,2.8948562
271,1778587595.5200422,-2.5643096,2.6926837,-0.3270367,3.1212249,0.21837921,4.1907506
272,1778587595.540801,-1.9910189,1.4902135,-0.33997175,1.1536814,-0.8245147,4.72285
273,1778587595.5626514,-0.7968469,0.19988288,0.33045352,-1.0562097,-2.5246768,4.342018
274,1778587595.5829086,-0.34973404,-0.1615659,0.49982923,-0.4788364,-2.873551,3.5009916
275,1778587595.6036668,-0.34973404,-0.1615659,0.49982923,-0.4788364,-2.873551,3.5009916
276,1778587595.6241438,0.44906533,-0.7404697,0.14204131,1.4636734,-2.5710158,1.1813782
277,1778587595.6455128,0.33997175,-0.8066092,-0.26358184,1.8093517,-2.2445123,-0.113983296
278,1778587595.665812,0.33997175,-0.8066092,-0.26358184,1.8093517,-2.2445123,-0.113983296
279,1778587595.6868656,-0.43368974,-0.83687234,-0.20183535,1.32945,-1.0807108,-1.0812434
280,1778587595.707836,-0.52911615,-0.8605459,-0.10884953,1.3438311,-0.91452956,-0.9353022
281,1778587595.7288847,-0.23819989,-0.8297946,-0.3141017,1.5243934,-0.95660746,-0.721184
282,1778587595.749404,-0.12324891,-0.84834296,-0.49201941,1.5243934,-0.95660746,-0.721184
283,1778587595.7696455,-0.33142975,-0.5774395,-0.9654905,0.017044231,-0.028229509,-1.6809874
284,1778587595.7906163,-0.8925173,0.027334413,-0.5020258,-1.490305,0.19867182,-1.9473034
285,1778587595.8118672,-0.8925173,0.027334413,-0.5020258,-1.490305,0.19867182,-1.9473034
286,1778587595.8325355,-1.6510473,0.8339436,-0.024161667,-2.2136195,1.2554141,-2.7973845
287,1778587595.8543882,-1.939767,1.0523748,0.019768637,-2.0176108,2.111354,-3.4317493
288,1778587595.875608,-2.4517992,1.7359792,0.013667206,-1.9856529,2.51722,-3.4647727
289,1778587595.896117,-2.37907,1.9531902,0.18914436,-2.5731463,2.1513016,-3.095126
290,1778587595.9165697,-1.9612441,1.9012059,0.37706846,-3.1244206,0.94808537,-2.6700854
291,1778587595.9374564,-1.283497,1.7027875,0.6325964,-2.843191,0.7813715,-2.1832595
292,1778587595.9584854,-0.8293065,1.492166,0.47151858,-1.8343854,1.6037556,-1.8429075
293,1778587595.9796019,-0.5435155,1.3066825,0.13496366,-1.1313108,1.7241305,-1.6698021
294,1778587595.9999838,-0.2523552,0.96329397,0.040269446,-1.2697952,1.4860439,-1.4695324
295,1778587596.0209641,0.08297946,0.7573096,0.25821257,-1.7741979,1.1675298,-1.3443637
296,1778587596.0413954,0.17035197,0.5779276,0.46736962,-1.7278589,1.1132014,-1.2969595
297,1778587596.0626516,0.17816179,0.5530337,0.4656612,-1.0615361,1.2293152,-1.230913
298,1778587596.0836315,0.14741059,0.85322416,0.076633975,0.076166406,1.0546118,-0.8580705
299,1778587596.1046212,0.021232981,0.9525554,-0.028066583,0.076166406,1.0546118,-0.8580705
300,1778587596.1247783,-0.082735404,1.0943527,-0.18426323,-0.7462177,-0.18109496,0.86872315
301,1778587596.1456976,0.12032023,1.1829455,0.16571487,-0.5566007,-0.40959418,1.4583471
302,1778587596.1670449,0.09542638,1.3667207,0.37584817,-0.5566007,-0.40959418,1.4583471
303,1778587596.1875062,-0.40220633,1.9944358,0.6374775,0.871919,-0.46711847,1.7832527
304,1778587596.20827,-1.3201057,2.536975,1.0452971,0.871919,-0.46711847,1.7832527
305,1778587596.2289424,-3.056329,3.3953242,0.946454,3.2778187,0.7222493,2.8751488
306,1778587596.2496243,-3.0172799,3.0595016,0.21647878,2.7047064,-0.47137952,4.190218
307,1778587596.2705736,-2.7934792,2.3849275,-0.13154685,1.7992316,-1.6154735,4.577441
308,1778587596.291457,-2.7934792,2.3849275,-0.13154685,1.7992316,-1.6154735,4.577441
309,1778587596.3128793,-1.5104704,0.79538256,-0.04490653,0.7078682,-1.7592843,4.3105927
310,1778587596.3328805,-0.8749452,-0.076633975,0.0017084008,0.90174633,-1.8375812,3.8962047
311,1778587596.354218,-0.26699865,-0.48054874,-0.13447554,1.1174624,-1.7571537,3.465838
312,1778587596.3745937,-0.07297312,-0.55742675,-0.12593354,0.9864349,-1.5558188,2.8692899
313,1778587596.3957448,0.24771811,-0.8393129,-0.051007964,0.7819041,-1.3118732,2.0106866
314,1778587596.4165518,0.20256752,-0.87909424,-0.01415532,0.6040049,-1.2591426,0.95927066
315,1778587596.437529,-0.26553428,-1.040172,0.02318544,0.5656554,-1.3539511,0.023435818
316,1778587596.4580712,-0.4527262,-1.0421244,-0.059794027,0.6178534,-1.3347764,-0.38136467
317,1778587596.478919,-0.4024504,-1.0094208,-0.12495731,0.7030745,-1.010936,-0.034088463
318,1778587596.4995697,0.3248402,-1.0243083,-0.43954712,0.7126619,-0.4149205,0.15233281
319,1778587596.5208135,0.11983211,-1.0169866,-0.6474839,-0.5049353,0.27537087,-2.1502364
320,1778587596.5411112,-0.20915705,-0.8778739,-0.64992446,-0.5049353,0.27537087,-2.1502364
321,1778587596.5621805,-0.57402265,-0.31751847,-0.48176903,-1.468467,-0.06231797,-2.9555762
322,1778587596.5829017,-1.0301657,0.13716017,-0.47664383,-1.5377092,0.5571333,-3.4418695
323,1778587596.604483,-2.7214823,1.4008886,-0.7224094,-1.7875137,2.160889,-4.924185
324,1778587596.624779,-2.7214823,1.4008886,-0.7224094,-1.7875137,2.160889,-4.924185
325,1778587596.6452491,-2.5184267,1.952214,0.58158845,-3.6373456,0.67218184,-3.3651705
326,1778587596.6659515,-2.0910823,1.9822329,1.1570754,-1.8370485,1.1552793,-2.8005803
327,1778587596.6871967,-1.4472594,1.7852788,0.6875093,0.7526093,1.9670109,-2.2050974
328,1778587596.7079413,-0.8891005,1.5746574,-0.04515059,1.8791265,2.2343922,-1.9952403
329,1778587596.7290804,-0.4886026,1.3237665,-0.73632073,1.0961571,1.9036276,-2.0932446
330,1778587596.7495408,-0.27773714,1.1024066,-0.6128277,-0.43196473,1.4716629,-2.2168152
331,1778587596.7706306,-0.2072046,0.8300387,-0.012935034,-1.4546186,1.226652,-2.2988408
332,1778587596.791255,-0.2072046,0.8300387,-0.012935034,-1.4546186,1.226652,-2.2988408
333,1778587596.8123758,-0.46419686,1.1133891,0.38487828,-1.0769824,0.83516735,-1.6623452
334,1778587596.8329303,-0.117635585,1.3137602,-0.07785426,-0.763262,0.43782368,-0.8996158
335,1778587596.8539844,0.073217176,1.2773956,-0.1513155,-1.2069446,-0.20399815,-0.15393071
336,1778587596.8744843,0.09469421,1.2603117,-0.008542004,-1.9856529,-0.89855057,0.48522797
337,1778587596.8951995,-0.3441207,1.4631232,0.6108753,-1.8034927,-0.9901633,1.1952267
338,1778587596.915958,-0.6191732,1.569044,1.0096649,-0.81705785,-0.81226414,2.126268
339,1778587596.9370303,-0.8085616,1.7320743,0.90740484,0.6791061,-1.3486248,3.1143007
340,1778587596.9575644,-1.4392056,2.3261096,0.3333822,2.1869879,-1.743838,3.697533
341,1778587596.9789314,-2.0405626,2.6036026,0.15082738,3.1531827,-1.0865698,3.6362803
342,1778587596.9991634,-2.3483188,2.707083,-0.31727442,3.0136333,-0.40746364,4.56093
343,1778587597.0203235,-2.494265,2.2060335,-0.062478654,1.2911005,-1.0178602,5.075985
344,1778587597.04105,-2.494265,2.2060335,-0.062478654,1.2911005,-1.0178602,5.075985
345,1778587597.0619466,-1.0501783,0.31483385,0.2672427,1.0663297,-2.0751352,4.473578
346,1778587597.0824592,-0.36681804,-0.25479576,-0.082247294,1.5840483,-1.8951055,3.46424
347,1778587597.1040976,-0.051252022,-0.40269446,-0.2831064,1.5925703,-1.7518274,2.2674153
348,1778587597.124463,0.06467517,-0.50446635,-0.3699908,1.1531488,-1.6410398,0.9912286
349,1778587597.14537,-0.00707766,-0.5530337,-0.21501444,0.74248934,-1.3475596,0.06977482
350,1778587597.165948,-0.3031191,-0.67506236,-0.06345488,0.6956177,-0.94488955,-0.53529537
351,1778587597.18728,-0.3829258,-0.69385475,-0.061258372,0.6956177,-0.94488955,-0.53529537
352,1778587597.2072284,-0.39781332,-0.7787867,-0.10348027,0.7286409,-0.75633776,-0.71319455
353,1778587597.2288947,-0.3321619,-0.775858,-0.19085276,0.60293967,-0.8857674,-0.61678815
354,1778587597.2491238,-0.00707766,-0.77951884,-0.39293218,0.5811018,-0.51718587,-0.4990764
355,1778587597.2699916,0.18841219,-0.81441903,-0.7292431,0.38242993,0.34408042,-0.8793758
356,1778587597.290628,0.18841219,-0.81441903,-0.7292431,0.38242993,0.34408042,-0.8793758
357,1778587597.3119547,-0.3128814,-0.61624455,-0.67506236,-1.6005598,0.5225122,-2.5065672
358,1778587597.332338,-0.2860351,-0.52423495,-0.6877533,-2.5566347,-0.0053263223,-3.2629051
359,1778587597.3532999,-2.5721195,0.8437059,-0.6570021,-3.2362735,0.9651296,-4.867726
360,1778587597.3738987,-3.3526144,1.5934497,-0.20012695,-3.8733015,2.0458405,-5.2070127
361,1778587597.3949363,-3.3250358,1.7982138,0.3231318,-4.7260456,1.5132082,-4.1417484
362,1778587597.4154751,-2.4454536,2.157222,1.5548887,-4.115649,0.11824436,-3.4716969
363,1778587597.4369984,-2.1835802,2.177723,1.3676969,-1.7960359,0.5789712,-2.735599
364,1778587597.457369,-1.2371262,1.9209745,0.05735345,-0.34567833,1.419465,-2.2652848
365,1778587597.4785872,-0.8949579,1.5995512,-0.10884953,-0.70200926,1.496164,-2.056493
366,1778587597.49858,-0.5608435,1.3154685,0.055645052,-1.6399746,1.3949639,-1.6383767
367,1778587597.519524,-0.17742962,0.89861876,0.43954712,-2.324407,1.3012205,-1.2580773
368,1778587597.540731,-0.15936938,0.86201024,0.45907167,-2.4863272,1.2373047,-1.0375676
369,1778587597.561364,0.07248501,0.9093573,0.5637722,-1.780057,1.4588797,0.055926383
370,1778587597.582137,0.21818718,0.92863786,0.5598673,-1.4295849,0.84422207,0.4394216
371,1778587597.6032062,0.21818718,0.92863786,0.5598673,-1.4295849,0.84422207,0.4394216
372,1778587597.62395,-0.049299564,0.98013395,0.9193637,0.06018744,-0.69135666,1.1574098
373,1778587597.6448019,-0.082247294,1.0152781,0.87079626,0.06018744,-0.69135666,1.1574098
374,1778587597.6654403,-0.15961345,1.189047,0.60184515,1.603223,-0.44101948,1.9238676
375,1778587597.6864612,-0.7365648,1.9336655,0.11348662,1.5100124,-2.278068,2.3537018
376,1778587597.7072241,-0.7365648,1.9336655,0.11348662,1.5100124,-2.278068,2.3537018
377,1778587597.7282336,-2.8593748,2.9455268,1.7291456,2.935336,-1.988316,3.449859
378,1778587597.7488215,-2.7810323,2.7724903,1.3049742,2.935336,-1.988316,3.449859
379,1778587597.7706504,-2.2611904,2.077171,-0.33826336,3.7374804,-1.5994946,4.7366986
380,1778587597.7905674,-2.0937672,1.496559,-0.61673266,2.299906,-1.6873789,4.671717
381,1778587597.811737,-2.0937672,1.496559,-0.61673266,2.299906,-1.6873789,4.671717
382,1778587597.8321707,-0.5520575,-0.084931925,0.15448824,0.9624664,-1.2096078,3.707653
383,1778587597.853439,-0.5520575,-0.084931925,0.15448824,0.9624664,-1.2096078,3.707653
384,1778587597.8735783,-0.044174362,-0.55864704,-0.108117364,1.911617,-0.33981937,2.0548952
385,1778587597.8946428,0.051252022,-0.677747,-0.2135501,1.7283915,-0.36645097,1.2751216
386,1778587597.9158463,0.051252022,-0.677747,-0.2135501,1.7283915,-0.36645097,1.2751216
387,1778587597.9363403,-0.11690342,-0.8839754,0.05588911,0.3291667,-1.1723236,-0.4495416
388,1778587597.9572446,-0.11690342,-0.8839754,0.05588911,0.18482338,-1.2186625,-0.92731273
389,1778587597.9780183,-0.2438132,-0.8912971,0.13618395,0.66206187,-1.1201255,-0.8277105
390,1778587597.9992902,0.13227904,-0.8881243,-0.328257,1.2170646,-0.9102685,-0.6173208
391,1778587598.0202863,0.24308102,-0.8139309,-0.79440635,0.18482338,-0.3616573,-2.139051
392,1778587598.0403574,-0.29384494,-0.5930591,-0.8407772,0.18482338,-0.3616573,-2.139051
393,1778587598.061146,-0.5252112,-0.43198135,-0.7556012,0.18482338,-0.3616573,-2.139051
394,1778587598.0817664,-1.3596429,0.44833317,-0.3328941,-2.692456,0.30466563,-4.364921
395,1778587598.1030052,-2.4498467,1.1065556,-0.14789869,-2.3760724,2.0367856,-4.5992794
396,1778587598.1236773,-2.4498467,1.1065556,-0.14789869,-2.3760724,2.0367856,-4.5992794
397,1778587598.1445956,-2.1501443,1.7281694,-0.18255483,-4.0559945,0.47510794,-3.0999196
398,1778587598.1653082,-2.1501443,1.7281694,-0.18255483,-4.0559945,0.47510794,-3.0999196
399,1778587598.1864378,-1.6869236,1.7669744,1.0714114,-1.7070863,1.9297266,-2.604039
400,1778587598.2065558,-1.4682485,1.6703278,0.4612682,0.25566345,2.4596956,-2.0948424
401,1778587598.2281156,-1.4682485,1.6703278,0.4612682,0.25566345,2.4596956,-2.0948424
402,1778587598.2487488,-0.33069757,1.1831895,-0.5105677,0.34088463,2.3393207,-1.4136059
403,1778587598.2700257,-0.191829,1.0328503,-0.37706846,-0.7105314,2.2461102,-1.5158713
404,1778587598.2903147,-0.12544543,0.8515157,0.0021965152,-1.6005598,1.8620822,-1.5414376
405,1778587598.311032,-0.13057062,0.8454143,0.16766733,-1.6005598,1.8620822,-1.5414376
406,1778587598.331886,-0.12593354,1.0816617,0.4729829,-1.8647454,0.74941355,-0.77870834
407,1778587598.352753,-0.153512,1.1304731,0.4698102,-1.5110776,0.55287224,-0.087884314
408,1778587598.3734624,-0.06931226,1.1197346,0.5867136,-1.1856394,0.267914,0.7281082
409,1778587598.3945444,-0.038561042,1.0679946,0.6672525,-0.78296936,-0.4149205,1.3992249
410,1778587598.4150295,-0.19646609,1.1221752,0.64431113,-0.25726137,-1.5121429,1.6463662
411,1778587598.4357572,-0.8778739,1.7662423,0.76463133,0.5725796,-1.901497,2.1816616
412,1778587598.4564285,-1.0687267,2.2140872,0.72631437,1.9265307,-1.0530139,3.1121702
413,1778587598.4776034,-1.0687267,2.2140872,0.72631437,1.9265307,-1.0530139,3.1121702
414,1778587598.498651,-2.7805443,2.9850643,-0.5039782,2.6802053,-1.5110776,3.0594394
415,1778587598.519254,-2.6180022,2.5006106,-0.0053692595,1.1984226,-2.0762005,3.9318912
416,1778587598.5398655,-2.6529024,1.9973645,-0.014399378,0.819721,-1.9606192,4.209925
417,1778587598.5607033,-2.0991364,1.3142483,-0.19402552,1.23837,-1.2117383,4.789429
418,1778587598.5821037,-0.8241814,0.20305562,-0.47395915,0.71479243,-1.2463595,4.598214
419,1778587598.6024413,-0.1769415,-0.34168017,-0.37828872,0.046871636,-1.6165388,3.933489
420,1778587598.6233034,-0.1769415,-0.34168017,-0.37828872,0.046871636,-1.6165388,3.933489
421,1778587598.644582,0.57329047,-1.061405,-0.07175283,-0.47191215,-1.9504992,1.9712719
422,1778587598.6649966,0.62600684,-1.1055794,0.011714748,-0.47191215,-1.9504992,1.9712719
423,1778587598.6858134,0.21013328,-1.1717188,0.084687866,0.37390783,-0.9054748,-0.7185209
424,1778587598.7069485,-0.12690976,-1.108264,0.026602242,0.41864893,-1.1009508,-1.5302523
425,1778587598.7281306,-0.51349646,-0.9510911,-0.09396204,0.15499598,-1.4365091,-1.433846
426,1778587598.7482145,-0.23161033,-0.8944698,-0.020256752,0.26312032,-0.783502,-0.8878979
427,1778587598.7690895,0.25333142,-0.8459024,-0.1986626,0.26312032,-0.783502,-0.8878979
428,1778587598.7903707,-0.5723142,-0.4075756,-0.30970863,0.24074976,0.47510794,-2.5571673
429,1778587598.8109794,-1.2329772,0.07809832,-0.29042813,-0.34461305,0.3888215,-3.5175033
430,1778587598.8314545,-1.2329772,0.07809832,-0.29042813,-0.34461305,0.3888215,-3.5175033
431,1778587598.8526213,-1.7047399,1.2395668,-0.6269831,-0.6695187,2.066613,-3.4392064
432,1778587598.873169,-2.0832727,1.4604386,-0.51544887,-1.3981596,2.656237,-4.2067294
433,1778587598.8940246,-2.8842685,2.1484358,0.18816814,-2.3771377,1.4354439,-4.1950116
434,1778587598.9154162,-1.836775,1.9248794,0.46492904,-2.6413233,0.28229508,-3.0748858
435,1778587598.935529,-1.1392592,1.6461661,0.25870067,-1.6927053,0.27324033,-2.191249
436,1778587598.9562192,-0.5098356,1.2766634,-0.21086545,-0.64821345,0.8676579,-2.005893
437,1778587598.977165,-0.40684342,1.1629328,-0.29530928,-0.26525086,1.4668691,-2.1502364
438,1778587598.9980302,-0.22746135,0.8390688,-0.13081467,-0.45220476,1.7054884,-2.328668
439,1778587599.01917,-0.2545517,0.8175918,-0.023429496,-0.6173208,1.7752632,-2.3664849
440,1778587599.0396307,-0.2545517,0.8175918,-0.023429496,-0.6173208,1.7752632,-2.3664849
441,1778587599.0608404,-0.25943285,1.0101529,-0.029774986,-1.3486248,1.0274476,-1.8317223
442,1778587599.0816596,-0.4656612,1.2385906,-0.017084008,-1.3486248,1.0274476,-1.8317223
443,1778587599.102352,-0.5022698,1.4633673,0.4322254,-1.7337179,0.17097494,-0.0793622
444,1778587599.1229422,-0.22111587,1.2937474,0.5933032,-1.0487529,-0.14168017,1.0721886
445,1778587599.143794,-0.06711575,1.1736712,0.54790854,-0.18908444,-0.4543353,1.7875137
446,1778587599.164738,-0.40635532,1.3501247,0.24747404,0.5581986,-0.73343456,2.1619542
447,1778587599.1863701,-0.8429737,1.6576368,0.010982576,0.8229168,-0.922519,2.8234835
448,1778587599.2060583,-0.90472025,2.1484358,0.19329333,0.60773337,-0.8367652,3.5334823
449,1778587599.2270224,-1.4379853,2.6741354,0.59037447,0.8628642,-1.5116103,2.9150963
450,1778587599.2476978,-2.7212384,2.9367409,0.36340126,1.6373115,-1.6879115,3.2053807
451,1778587599.2691891,-2.7522335,2.2585058,0.12886222,1.9467708,-1.568602,4.1758366
452,1778587599.2896516,-2.7522335,2.2585058,0.12886222,1.9467708,-1.568602,4.1758366
453,1778587599.3105724,-1.1402354,0.59061855,-0.45419052,1.9132149,-1.4029533,5.299158
454,1778587599.331108,-0.8434618,0.30360723,-0.44003522,0.8857674,-1.8956381,4.868791
455,1778587599.3524446,-0.10543273,-0.40440285,-0.13545178,-0.04314321,-2.3425164,3.921771
456,1778587599.3723693,0.10860548,-0.5957437,0.008786061,-0.43675843,-2.1166804,2.9901974
457,1778587599.3936985,0.25699228,-0.7238738,0.09493827,-0.41065946,-1.7033578,2.0708742
458,1778587599.4140925,0.22404456,-0.882511,0.051740136,-0.19760656,-1.5195998,1.0077401
459,1778587599.434846,-0.041977845,-0.9957536,-0.033923957,0.02876214,-1.133974,0.03195793
460,1778587599.4557924,-0.3128814,-1.018451,0.008542004,0.12250541,-0.78936094,-0.55606806
461,1778587599.4765105,-0.13252309,-0.9576807,-0.05344854,0.25193503,-0.76752305,-0.6498113
462,1778587599.4974205,0.10884953,-0.95279956,-0.22819352,0.5539375,-0.8346347,-0.52624065
463,1778587599.518375,0.32972133,-0.92546505,-0.5051985,0.8271778,-0.24767399,-0.77870834
464,1778587599.5389218,0.22648512,-0.9000831,-0.60135704,0.8069378,0.5683186,-1.663943
465,1778587599.5601463,-0.72704655,-0.2865232,-0.72777873,0.16138756,0.9784454,-2.728675
466,1778587599.5812354,-0.8886124,0.19378147,-0.6203935,-0.7366304,0.8724516,-3.1148334
467,1778587599.6027656,-1.9570951,1.2239472,-0.26480213,-1.3523532,2.2003038,-4.287689
468,1778587599.622526,-2.7788358,1.7559919,-0.21672285,-1.5222629,2.141714,-4.521515
469,1778587599.6431673,-3.0324113,2.110363,-0.23307467,-1.5222629,2.141714,-4.521515
470,1778587599.663864,-1.9087718,2.01152,0.39024755,-2.8549087,0.67271453,-2.7659593
471,1778587599.6850948,-1.7110853,1.9514818,0.48323336,-2.8549087,0.67271453,-2.7659593
472,1778587599.7056365,-0.91399443,1.6085813,0.36755022,-1.0945592,1.6202673,-1.9936424
473,1778587599.72662,-0.6221019,1.3918585,0.11836776,-0.35100463,1.9829898,-1.8620822
474,1778587599.7474332,-0.50715095,1.2969202,0.01513155,-0.35100463,1.9829898,-1.8620822
475,1778587599.7684598,-0.06321083,0.92131615,-0.16278619,-0.892159,1.7145431,-1.7608821
476,1778587599.7895029,-0.03294773,0.78610843,-0.076633975,-1.695901,1.3763217,-1.7949706
477,1778587599.8101296,-0.03294773,0.78610843,-0.076633975,-1.695901,1.3763217,-1.7949706
478,1778587599.8304875,0.02391761,0.8070973,0.51691324,-2.2817965,0.8825716,-1.1520835
479,1778587599.8516362,-0.1261776,1.0287013,0.69385475,-1.6064188,0.85966843,-0.7350325
480,1778587599.872289,-0.1701079,1.1495095,0.55669457,-0.6327671,0.56618804,0.14913702
