id,timestamp,acc_x,acc_y,acc_z,gyro_x,gyro_y,gyro_z
1,1778587604.9729455,-3.2447412,1.7413484,-0.17547716,-2.3643544,3.4653053,-5.148423
2,1778587604.9935474,-2.2748578,1.9531902,1.3264512,-4.4655886,0.21518342,-3.5926044
3,1778587605.0148346,-1.9178019,1.897057,1.3027775,-2.6855316,0.76485986,-2.369681
4,1778587605.0355408,-0.97403246,1.5700202,0.21281794,-0.4250405,1.5180018,-1.8434402
5,1778587605.0565534,-0.69263446,1.3786794,-0.2711476,0.5773733,1.7555559,-1.6303873
6,1778587605.0775006,-0.485918,1.0985017,-0.5593792,0.15499598,1.5723304,-1.623463
7,1778587605.0981011,-0.4217309,0.9371798,-0.3355787,-1.0828413,1.1286477,-1.5329156
8,1778587605.1187685,-0.41733786,0.8717725,-0.19451363,-2.25623,0.7057377,-1.3017532
9,1778587605.1396127,-0.09786696,0.6123396,0.32606047,-2.7712855,0.4596616,-0.92038846
10,1778587605.1602278,-0.1901206,0.8685997,0.64309084,-1.75236,0.51505536,-0.6556703
11,1778587605.1812584,-0.1901206,0.8685997,0.64309084,-1.75236,0.51505536,-0.6556703
12,1778587605.202035,-0.042221904,0.9264413,0.38585448,-0.14913702,-0.13369069,1.103614
13,1778587605.2228792,0.11202228,0.861278,0.35363895,-0.14913702,-0.13369069,1.103614
14,1778587605.2437785,0.102748096,0.9952655,0.25674823,1.1627362,-0.41971418,1.9526298
15,1778587605.2646494,-0.09274176,1.3171769,0.09322987,1.5792545,-0.40586576,1.9552929
16,1778587605.2856195,-0.77634615,1.8714309,-0.17572121,1.5792545,-0.40586576,1.9552929
17,1778587605.306194,-1.3667207,2.447406,0.19890666,1.0013486,-0.7930894,2.2338595
18,1778587605.3271163,-2.4986582,3.1876316,1.4606826,1.7299895,-0.8724516,3.619236
19,1778587605.3480737,-2.720262,2.9513843,0.68336034,3.03121,-1.0887003,4.55081
20,1778587605.3684819,-2.4740083,2.2690003,-0.027822526,2.62854,-1.3864417,5.1217914
21,1778587605.3895044,-2.4740083,2.2690003,-0.027822526,2.62854,-1.3864417,5.1217914
22,1778587605.410756,-1.0892274,0.2596769,0.19719826,0.6940198,-2.2226744,4.9369683
23,1778587605.4455101,-0.26626647,-0.4566311,0.26065314,0.7121293,-2.867692,3.209109
24,1778587605.4612992,0.11983211,-0.77414954,0.06711575,1.2373047,-2.6727486,2.193912
25,1778587605.481004,0.19963883,-0.87348086,-0.054424766,1.2373047,-2.6727486,2.193912
26,1778587605.5014026,0.28042176,-1.095573,-0.39708114,1.5888419,-1.9526298,0.32330775
27,1778587605.5213497,0.31263736,-1.1626887,-0.47639978,1.5888419,-1.9526298,0.32330775
28,1778587605.5427184,0.12935033,-1.2090596,-0.43539813,1.2836437,-1.4476944,-0.48469532
29,1778587605.562562,0.007321717,-1.1116807,-0.37169918,0.49481535,-0.8724516,-1.5606124
30,1778587605.5840027,-0.006833603,-1.0860548,-0.39415246,0.49481535,-0.8724516,-1.5606124
31,1778587605.6044202,-0.006833603,-1.0860548,-0.39415246,0.49481535,-0.8724516,-1.5606124
32,1778587605.62542,-0.006833603,-1.0860548,-0.39415246,0.49481535,-0.8724516,-1.5606124
33,1778587605.646729,-0.006833603,-1.0860548,-0.39415246,0.49481535,-0.8724516,-1.5606124
34,1778587605.6675425,-1.6571487,0.21501444,-0.4617563,-2.0069582,0.15126756,-3.8823564
35,1778587605.687797,-2.0730224,0.59842837,-0.43320164,-2.0069582,0.15126756,-3.8823564
36,1778587605.709227,-2.9194129,1.3820962,-0.32630453,-1.9350529,1.7912422,-4.116182
37,1778587605.7295399,-2.9194129,1.3820962,-0.32630453,-1.9350529,1.7912422,-4.116182
38,1778587605.7504504,-2.9194129,1.3820962,-0.32630453,-1.9350529,1.7912422,-4.116182
39,1778587605.7707694,-2.0315325,2.0581348,1.121199,-2.732936,1.3076121,-2.5704832
40,1778587605.805211,-1.0394398,1.8340902,0.28213018,-0.6716492,2.0676782,-2.0170782
41,1778587605.8283532,-1.0394398,1.8340902,0.28213018,-0.6716492,2.0676782,-2.0170782
42,1778587605.8463886,-1.0394398,1.8340902,0.28213018,-0.6716492,2.0676782,-2.0170782
43,1778587605.867093,-0.13374338,1.0313859,0.16791138,-0.90654004,1.6799221,-1.6128104
44,1778587605.8879166,-0.18206671,0.9957536,0.29164842,-0.8032094,1.6729978,-1.4029533
45,1778587605.9091911,-0.15936938,0.97793734,0.28286234,-0.8032094,1.6729978,-1.4029533
46,1778587605.9298637,-0.15936938,0.97793734,0.28286234,-0.8032094,1.6729978,-1.4029533
47,1778587605.9507802,-0.15936938,0.97793734,0.28286234,-0.8032094,1.6729978,-1.4029533
48,1778587605.9713426,0.0976229,0.82100856,0.2272173,-0.7595336,0.40959418,1.0594054
49,1778587605.992555,-0.36510965,1.0650659,0.27383223,-0.78989357,-0.09427591,1.6218652
50,1778587606.0133426,-0.40562314,1.1802609,0.20696054,-0.6737798,-1.1712582,2.2280006
51,1778587606.0353644,-0.40562314,1.1802609,0.20696054,-0.6737798,-1.1712582,2.2280006
52,1778587606.0554469,-0.40562314,1.1802609,0.20696054,-0.6737798,-1.1712582,2.2280006
53,1778587606.0766568,-2.0815644,2.7720022,1.1087521,-0.4788364,-1.6932379,3.4993937
54,1778587606.0969772,-2.476693,2.7002494,0.93571544,0.81226414,-1.4215955,3.5649076
55,1778587606.1171896,-2.4537516,2.3251333,0.6501685,1.788579,-1.8040254,4.0352216
56,1778587606.1378565,-2.4537516,2.3251333,0.6501685,1.788579,-1.8040254,4.0352216
57,1778587606.1587157,-2.4537516,2.3251333,0.6501685,1.788579,-1.8040254,4.0352216
58,1778587606.1794007,-0.6975156,0.27944556,-0.503002,1.7720674,-1.5238608,4.3036685
59,1778587606.2010622,-0.036608588,-0.27505252,-0.1342315,0.15233281,-2.233327,2.569418
60,1778587606.221309,0.06345488,-0.37072295,-0.057109397,0.15233281,-2.233327,2.569418
61,1778587606.2421927,0.06345488,-0.37072295,-0.057109397,0.15233281,-2.233327,2.569418
62,1778587606.2630308,0.06345488,-0.37072295,-0.057109397,0.15233281,-2.233327,2.569418
63,1778587606.283928,0.13716017,-0.9132622,-0.18694785,0.13315806,-1.4988271,-0.89642006
64,1778587606.3047807,-0.38219365,-1.0150341,-0.018060237,-0.09534117,-1.4333134,-1.4391723
65,1778587606.3250864,-0.4932397,-0.9798898,0.011470691,-0.09534117,-1.4333134,-1.4391723
66,1778587606.3459983,-0.4932397,-0.9798898,0.011470691,-0.09534117,-1.4333134,-1.4391723
67,1778587606.3670363,0.23917611,-1.0953289,-0.6399181,0.8905611,0.47031426,-1.4514228
68,1778587606.3877206,-0.070532545,-1.0287013,-0.75047606,-0.10759171,0.4607269,-2.8969867
69,1778587606.4089127,-0.8297946,-0.6457755,-0.63503695,-0.10759171,0.4607269,-2.8969867
70,1778587606.429342,-1.5807588,-0.119099945,-0.66237134,-1.1068097,0.19707392,-3.995807
71,1778587606.4501216,-1.5807588,-0.119099945,-0.66237134,-1.1068097,0.19707392,-3.995807
72,1778587606.4710014,-2.8088548,2.1372094,0.05296042,-1.943575,2.2354574,-4.5444183
73,1778587606.4919505,-2.621663,2.2519162,0.3863426,-1.943575,2.2354574,-4.5444183
74,1778587606.5127668,-1.8160299,2.396398,0.72338563,-2.4735441,0.38402784,-2.9997847
75,1778587606.5334766,-1.8160299,2.396398,0.72338563,-2.4735441,0.38402784,-2.9997847
76,1778587606.5542264,-1.8160299,2.396398,0.72338563,-2.4735441,0.38402784,-2.9997847
77,1778587606.575021,-0.5747548,1.5997953,-0.53717,0.13422333,1.850897,-1.2639363
78,1778587606.595791,-0.2238005,1.1795286,-0.31898284,-0.88470215,1.6069515,-1.0258497
79,1778587606.6170266,-0.16107778,1.0543274,-0.23112221,-1.911617,1.2378373,-0.968858
80,1778587606.6373656,-0.13691612,0.9484064,-0.12544543,-1.911617,1.2378373,-0.968858
81,1778587606.6584463,-0.13691612,0.9484064,-0.12544543,-1.911617,1.2378373,-0.968858
82,1778587606.6790543,0.12202863,0.5718261,0.58134437,-2.4181504,0.721184,-0.10918961
83,1778587606.6997826,0.26406994,0.6020892,0.43808278,-1.5488945,0.66845345,0.34514567
84,1778587606.7207897,0.30970863,0.61160743,0.19402552,-0.4101268,0.2657835,1.1211908
85,1778587606.7419813,0.2037878,0.64089435,0.13057062,-0.4101268,0.2657835,1.1211908
86,1778587606.7624822,0.2037878,0.64089435,0.13057062,-0.4101268,0.2657835,1.1211908
87,1778587606.7836006,-0.41148052,1.5910091,0.38780698,-0.47297743,-1.4945661,2.2604911
88,1778587606.8040469,-0.835652,2.2192125,0.49616838,-0.47297743,-1.4945661,2.2604911
89,1778587606.8254597,-1.7371994,2.92527,0.74437463,0.022903185,-1.635181,2.9944584
90,1778587606.8458889,-1.7371994,2.92527,0.74437463,0.022903185,-1.635181,2.9944584
91,1778587606.8665988,-1.7371994,2.92527,0.74437463,0.022903185,-1.635181,2.9944584
92,1778587606.8874984,-2.2577736,1.9583154,0.27554062,2.7675571,-1.4056164,3.9297607
93,1778587606.9080665,-1.5334117,0.95792466,-0.38829508,2.6093652,-1.3949639,4.228567
94,1778587606.9288833,-1.0143019,0.4275883,-0.40171823,1.5563514,-1.7875137,3.9931438
95,1778587606.94975,-1.0143019,0.4275883,-0.40171823,1.5563514,-1.7875137,3.9931438
96,1778587606.9707658,-1.0143019,0.4275883,-0.40171823,1.5563514,-1.7875137,3.9931438
97,1778587606.9918213,0.46541715,-0.77122086,-0.077122085,0.28122982,-2.3952472,1.551025
98,1778587607.0125418,0.46541715,-0.77122086,-0.077122085,0.28122982,-2.3952472,1.551025
99,1778587607.0331998,0.014399378,-0.8600578,-0.09176553,0.37071204,-1.9387813,-0.9054748
100,1778587607.0540168,0.014399378,-0.8600578,-0.09176553,0.37071204,-1.9387813,-0.9054748
101,1778587607.0749986,0.014399378,-0.8600578,-0.09176553,0.37071204,-1.9387813,-0.9054748
102,1778587607.0955126,0.077122085,-0.82393724,-0.26114124,0.7850999,-0.9369001,-0.66579026
103,1778587607.1164458,0.22282428,-0.70190865,-0.7734174,1.015197,-0.43729106,-0.819721
104,1778587607.1371527,0.22282428,-0.70190865,-0.7734174,1.015197,-0.43729106,-0.819721
105,1778587607.1578999,0.22282428,-0.70190865,-0.7734174,1.015197,-0.43729106,-0.819721
106,1778587607.1788683,0.22282428,-0.70190865,-0.7734174,1.015197,-0.43729106,-0.819721
107,1778587607.2001238,-2.0835168,1.7508667,-0.37169918,-1.9313245,1.27885,-2.7643614
108,1778587607.2208602,-2.276078,1.9324453,-0.2806658,-2.3254724,2.091114,-2.6439865
109,1778587607.2424521,-2.1074343,2.1752822,0.53887844,-3.2629051,1.540905,-2.3584955
110,1778587607.2630703,-2.1074343,2.1752822,0.53887844,-3.2629051,1.540905,-2.3584955
111,1778587607.284146,-2.1074343,2.1752822,0.53887844,-3.2629051,1.540905,-2.3584955
112,1778587607.304003,-0.22013964,1.4174845,0.21940747,0.33129725,1.639442,-0.7978831
113,1778587607.3259404,-0.13496366,1.3442672,0.015375607,0.33129725,1.639442,-0.7978831
114,1778587607.345597,-0.019036464,1.211012,-0.20183535,0.80533993,1.947836,-1.0759171
115,1778587607.3678417,-0.019036464,1.211012,-0.20183535,0.80533993,1.947836,-1.0759171
116,1778587607.3870249,-0.019036464,1.211012,-0.20183535,0.80533993,1.947836,-1.0759171
117,1778587607.4079688,-0.0873725,0.73412424,0.022453265,-0.48842376,1.7502295,-1.4578145
118,1778587607.4285617,-0.23429495,0.72631437,0.14545812,-0.6668556,1.4104102,-0.93636745
119,1778587607.449572,-0.23771177,0.7246059,0.20329969,-0.6668556,1.4104102,-0.93636745
120,1778587607.4704862,-0.23771177,0.7246059,0.20329969,-0.6668556,1.4104102,-0.93636745
121,1778587607.491756,-0.23771177,0.7246059,0.20329969,-0.6668556,1.4104102,-0.93636745
122,1778587607.5123053,-0.057109397,1.0828819,0.07028849,-0.62371236,-1.9483687,1.690042
123,1778587607.532734,-0.057109397,1.0828819,0.07028849,-0.62371236,-1.9483687,1.690042
124,1778587607.5538385,-0.24991462,1.6432374,0.6550496,0.09054748,-1.33957,1.9808593
125,1778587607.5745852,-0.24991462,1.6432374,0.6550496,0.09054748,-1.33957,1.9808593
126,1778587607.5958095,-1.7064483,2.5953047,0.6540734,2.214152,-1.4556838,2.4378576
127,1778587607.6161032,-1.3716017,2.3161032,0.40220633,2.1630194,-1.7310548,3.1915324
128,1778587607.637072,-1.2232149,2.1396499,0.3048275,2.1630194,-1.7310548,3.1915324
129,1778587607.6578624,-0.9872115,1.4989996,0.18816814,0.76912093,-2.364887,2.961435
130,1778587607.678589,-0.9872115,1.4989996,0.18816814,0.76912093,-2.364887,2.961435
131,1778587607.699567,-0.24918245,0.35193056,0.18987654,0.11025487,-2.7718182,1.9084213
132,1778587607.7200794,-0.16571487,0.16400647,0.08078295,0.15765914,-2.7324033,1.1297129
133,1778587607.741038,-0.18377511,-0.12154051,-0.08786061,0.27537087,-1.7789917,0.06178534
134,1778587607.7618885,-0.18377511,-0.12154051,-0.08786061,0.27537087,-1.7789917,0.06178534
135,1778587607.7838433,-0.18377511,-0.12154051,-0.08786061,0.27537087,-1.7789917,0.06178534
136,1778587607.8033674,-0.47103047,-0.31727442,-0.12178457,0.025033714,-1.325189,-0.84422207
137,1778587607.8248205,-0.5012936,-0.31385764,-0.21428227,0.058056913,-1.3214606,-0.8202536
138,1778587607.8449357,-0.48128092,-0.27554062,-0.34851375,0.058056913,-1.3214606,-0.8202536
139,1778587607.8662918,-0.48128092,-0.27554062,-0.34851375,0.058056913,-1.3214606,-0.8202536
140,1778587607.888039,-0.48128092,-0.27554062,-0.34851375,0.058056913,-1.3214606,-0.8202536
141,1778587607.9085011,-0.90472025,0.3990336,-0.23819989,-0.73343456,1.2016183,-0.9667275
142,1778587607.9283605,-0.8459024,0.49738866,-0.19500175,-0.73343456,1.2016183,-0.9667275
143,1778587607.949231,-1.1243718,0.9959976,0.006833603,-1.073254,2.4602282,-1.3688648
144,1778587607.9699814,-1.1243718,0.9959976,0.006833603,-1.073254,2.4602282,-1.3688648
145,1778587607.9912803,-1.1243718,0.9959976,0.006833603,-1.073254,2.4602282,-1.3688648
146,1778587608.0118716,-1.2415192,1.5492754,0.3973252,-2.6951191,1.7694043,-1.2905679
147,1778587608.0331306,-1.0919122,1.5072975,0.4937278,-2.6951191,1.7694043,-1.2905679
148,1778587608.053515,-0.4729829,1.3708695,0.5559624,-2.2610238,1.8695391,-1.4935007
149,1778587608.073912,-0.4729829,1.3708695,0.5559624,-2.2610238,1.8695391,-1.4935007
150,1778587608.0958316,-0.4729829,1.3708695,0.5559624,-2.2610238,1.8695391,-1.4935007
151,1778587608.1155748,-0.13960074,0.9025237,0.46322066,-1.5142734,1.8461033,-1.7225326
152,1778587608.1367068,-0.20671648,0.85444444,0.4556549,-1.315069,1.7145431,-1.6373115
153,1778587608.1573353,-0.011226633,0.68604493,0.46444094,-1.000816,1.8397117,-1.1211908
154,1778587608.1783097,-0.011226633,0.68604493,0.46444094,-1.000816,1.8397117,-1.1211908
155,1778587608.1990669,-0.011226633,0.68604493,0.46444094,-1.000816,1.8397117,-1.1211908
156,1778587608.2200282,0.25699228,0.5933032,0.32581642,-0.43356264,0.5858955,-0.22050974
157,1778587608.2410374,0.30458343,0.5947675,0.2238005,-0.25246766,0.12836437,0.3339604
158,1778587608.261501,0.31654227,0.6982478,0.14936304,-0.26418558,-0.4708469,0.721184
159,1778587608.2824774,0.31654227,0.6982478,0.14936304,-0.26418558,-0.4708469,0.721184
160,1778587608.3029487,0.31654227,0.6982478,0.14936304,-0.26418558,-0.4708469,0.721184
161,1778587608.3235757,-1.5541565,2.9853082,2.0188415,-0.2146508,-2.1299963,1.5142734
162,1778587608.345598,-2.383219,3.1022117,2.186997,0.9129316,-1.9563582,2.16515
163,1778587608.3658605,-2.2536247,2.9933622,2.0959635,0.9129316,-1.9563582,2.16515
164,1778587608.3863432,-2.2536247,2.9933622,2.0959635,0.9129316,-1.9563582,2.16515
165,1778587608.4072437,-2.2536247,2.9933622,2.0959635,0.9129316,-1.9563582,2.16515
166,1778587608.4279447,-0.98525906,0.4544346,0.68336034,3.0056436,-2.625877,2.9379995
167,1778587608.4494228,-0.40562314,-0.03734076,0.1598575,3.1728902,-2.4991105,2.0628846
168,1778587608.4695706,-0.16180995,-0.2860351,-0.11031388,3.0013826,-2.0634172,1.2277173
169,1778587608.4905005,-0.16180995,-0.2860351,-0.11031388,3.0013826,-2.0634172,1.2277173
170,1778587608.5120313,-0.16180995,-0.2860351,-0.11031388,3.0013826,-2.0634172,1.2277173
171,1778587608.5335715,-0.08786061,-0.64943635,-0.24015234,1.7955033,-1.866876,-0.93423694
172,1778587608.5539265,-0.08786061,-0.64943635,-0.24015234,1.7955033,-1.866876,-0.93423694
173,1778587608.5749247,-0.08786061,-0.64943635,-0.24015234,1.7955033,-1.866876,-0.93423694
174,1778587608.5946174,-0.08786061,-0.64943635,-0.24015234,1.7955033,-1.866876,-0.93423694
175,1778587608.616077,-0.08786061,-0.64943635,-0.24015234,1.7955033,-1.866876,-0.93423694
176,1778587608.6364198,-0.08786061,-0.64943635,-0.24015234,1.7955033,-1.866876,-0.93423694
177,1778587608.656828,-0.31605414,-0.36047253,-0.8991069,-0.18056233,0.38402784,-1.4290522
178,1778587608.6775305,-0.9608534,0.065407336,-0.6433349,-1.3773869,1.0487529,-1.4604776
179,1778587608.6989715,-0.9608534,0.065407336,-0.6433349,-1.3773869,1.0487529,-1.4604776
180,1778587608.719547,-0.9608534,0.065407336,-0.6433349,-1.3773869,1.0487529,-1.4604776
181,1778587608.740496,-2.2521603,1.6815544,0.099087246,-3.2112398,1.7006947,-2.461826
182,1778587608.761269,-2.2521603,1.6815544,0.099087246,-3.2112398,1.7006947,-2.461826
183,1778587608.7830904,-2.2521603,1.6815544,0.099087246,-3.2112398,1.7006947,-2.461826
184,1778587608.8037739,-2.2521603,1.6815544,0.099087246,-3.2112398,1.7006947,-2.461826
185,1778587608.8236487,-2.2521603,1.6815544,0.099087246,-3.2112398,1.7006947,-2.461826
186,1778587608.8447382,-2.2521603,1.6815544,0.099087246,-3.2112398,1.7006947,-2.461826
187,1778587608.866304,-0.2255089,1.2344415,0.17035197,0.044208474,2.91989,-1.2879047
188,1778587608.8859656,-0.12837411,1.018451,0.0046370877,0.24927188,3.3747578,-1.3140037
189,1778587608.9066186,-0.12837411,1.018451,0.0046370877,0.24927188,3.3747578,-1.3140037
190,1778587608.9276338,-0.12837411,1.018451,0.0046370877,0.24927188,3.3747578,-1.3140037
191,1778587608.9485123,-0.12837411,1.018451,0.0046370877,0.24927188,3.3747578,-1.3140037
192,1778587608.96941,-0.12837411,1.018451,0.0046370877,0.24927188,3.3747578,-1.3140037
193,1778587608.9903827,-0.12837411,1.018451,0.0046370877,0.24927188,3.3747578,-1.3140037
194,1778587609.011064,-0.12837411,1.018451,0.0046370877,0.24927188,3.3747578,-1.3140037
195,1778587609.0320585,-0.12837411,1.018451,0.0046370877,0.24927188,3.3747578,-1.3140037
196,1778587609.0525656,-0.12837411,1.018451,0.0046370877,0.24927188,3.3747578,-1.3140037
197,1778587609.073295,-0.12837411,1.018451,0.0046370877,0.24927188,3.3747578,-1.3140037
198,1778587609.0944824,-0.12837411,1.018451,0.0046370877,0.24927188,3.3747578,-1.3140037
199,1778587609.1151817,-0.12837411,1.018451,0.0046370877,0.24927188,3.3747578,-1.3140037
200,1778587609.1368792,-0.4080637,2.2855961,0.6994681,-0.1304949,-3.08181,1.568602
201,1778587609.156525,-2.220433,2.9892132,1.2537221,1.4215955,-1.9084213,1.8381138
202,1778587609.1777792,-1.7828381,2.0390983,0.77781045,1.8849854,-2.0852551,3.3934
203,1778587609.1984599,-1.7828381,2.0390983,0.77781045,1.8849854,-2.0852551,3.3934
204,1778587609.2194204,-1.7828381,2.0390983,0.77781045,1.8849854,-2.0852551,3.3934
205,1778587609.240114,-1.7828381,2.0390983,0.77781045,1.8849854,-2.0852551,3.3934
206,1778587609.2605762,-1.7828381,2.0390983,0.77781045,1.8849854,-2.0852551,3.3934
207,1778587609.2817652,-1.7828381,2.0390983,0.77781045,1.8849854,-2.0852551,3.3934
208,1778587609.3025763,-1.7828381,2.0390983,0.77781045,1.8849854,-2.0852551,3.3934
209,1778587609.3232684,-1.7828381,2.0390983,0.77781045,1.8849854,-2.0852551,3.3934
210,1778587609.3442192,-1.7828381,2.0390983,0.77781045,1.8849854,-2.0852551,3.3934
211,1778587609.3648062,-1.7828381,2.0390983,0.77781045,1.8849854,-2.0852551,3.3934
212,1778587609.3860152,-1.7828381,2.0390983,0.77781045,1.8849854,-2.0852551,3.3934
213,1778587609.4067402,-1.7828381,2.0390983,0.77781045,1.8849854,-2.0852551,3.3934
214,1778587609.4274914,-1.7828381,2.0390983,0.77781045,1.8849854,-2.0852551,3.3934
215,1778587609.447927,-1.7828381,2.0390983,0.77781045,1.8849854,-2.0852551,3.3934
216,1778587609.4688747,-1.7828381,2.0390983,0.77781045,1.8849854,-2.0852551,3.3934
217,1778587609.4900715,-2.7856693,1.9258556,-0.2882316,-1.871137,2.753176,-3.0194921
218,1778587609.5108104,-2.7856693,1.9258556,-0.2882316,-1.871137,2.753176,-3.0194921
219,1778587609.5317712,-2.7856693,1.9258556,-0.2882316,-1.871137,2.753176,-3.0194921
220,1778587609.5523334,-0.9488945,1.6505592,0.9869675,-3.37316,0.32170987,-0.58696073
221,1778587609.5730324,-0.4385709,1.4855764,0.58085626,-1.7267936,0.93903065,-0.40426785
222,1778587609.593837,-0.23819989,1.3664765,0.17279254,-0.304133,1.9355855,-0.680704
223,1778587609.6146271,-0.23819989,1.3664765,0.17279254,-0.304133,1.9355855,-0.680704
224,1778587609.635231,-0.23819989,1.3664765,0.17279254,-0.304133,1.9355855,-0.680704
225,1778587609.655915,-0.23819989,1.3664765,0.17279254,-0.304133,1.9355855,-0.680704
226,1778587609.6769996,-0.23819989,1.3664765,0.17279254,-0.304133,1.9355855,-0.680704
227,1778587609.6980488,-0.23819989,1.3664765,0.17279254,-0.304133,1.9355855,-0.680704
228,1778587609.7188768,-0.23819989,1.3664765,0.17279254,-0.304133,1.9355855,-0.680704
229,1778587609.7397985,-0.23819989,1.3664765,0.17279254,-0.304133,1.9355855,-0.680704
230,1778587609.7606492,-0.23819989,1.3664765,0.17279254,-0.304133,1.9355855,-0.680704
231,1778587609.7810652,-0.23819989,1.3664765,0.17279254,-0.304133,1.9355855,-0.680704
232,1778587609.801908,-0.09664667,0.7224094,0.29116032,0.08894958,-1.2474247,1.659682
233,1778587609.8231874,-0.09664667,0.7224094,0.29116032,0.08894958,-1.2474247,1.659682
234,1778587609.84349,-0.09664667,0.7224094,0.29116032,0.08894958,-1.2474247,1.659682
235,1778587609.86431,-1.3325526,3.0673115,1.194172,0.5906891,-2.3409185,1.9020296
236,1778587609.8854465,-2.2253141,3.282326,1.5395131,0.5906891,-2.3409185,1.9020296
237,1778587609.9064472,-2.3236692,3.0075176,1.564651,1.4125407,-1.80296,2.5220137
238,1778587609.92747,-2.3236692,3.0075176,1.564651,1.4125407,-1.80296,2.5220137
239,1778587609.9501848,-1.0042956,0.8075854,0.0026846298,2.4586303,-0.8293084,4.2860913
240,1778587609.9683573,-0.49690056,0.3014107,0.031239327,1.5121429,-1.2468921,3.9462721
241,1778587609.9895096,0.11543907,-0.23380683,0.082003236,1.0801781,-1.7470337,3.1276164
242,1778587610.0102766,0.11543907,-0.23380683,0.082003236,1.0801781,-1.7470337,3.1276164
243,1778587610.0312629,0.11543907,-0.23380683,0.082003236,1.0801781,-1.7470337,3.1276164
244,1778587610.0518415,0.11543907,-0.23380683,0.082003236,1.0801781,-1.7470337,3.1276164
245,1778587610.07305,0.11543907,-0.23380683,0.082003236,1.0801781,-1.7470337,3.1276164
246,1778587610.09358,0.11543907,-0.23380683,0.082003236,1.0801781,-1.7470337,3.1276164
247,1778587610.114412,0.11543907,-0.23380683,0.082003236,1.0801781,-1.7470337,3.1276164
248,1778587610.1349235,0.11543907,-0.23380683,0.082003236,1.0801781,-1.7470337,3.1276164
249,1778587610.1562026,0.11543907,-0.23380683,0.082003236,1.0801781,-1.7470337,3.1276164
250,1778587610.1767712,0.11543907,-0.23380683,0.082003236,1.0801781,-1.7470337,3.1276164
251,1778587610.1981235,0.11543907,-0.23380683,0.082003236,1.0801781,-1.7470337,3.1276164
252,1778587610.2183783,0.11543907,-0.23380683,0.082003236,1.0801781,-1.7470337,3.1276164
253,1778587610.2392344,0.11543907,-0.23380683,0.082003236,1.0801781,-1.7470337,3.1276164
254,1778587610.2608948,-0.30555966,-0.66822875,-0.89032084,0.054328486,0.11611383,-2.535862
255,1778587610.2808504,-2.4398403,1.9888225,0.14374973,-2.1038973,2.0271983,-3.2724924
256,1778587610.3021808,-1.9763755,2.0261633,0.42002252,-2.3861923,1.27885,-2.2168152
257,1778587610.3226433,-1.9763755,2.0261633,0.42002252,-2.3861923,1.27885,-2.2168152
258,1778587610.3433185,-1.9763755,2.0261633,0.42002252,-2.3861923,1.27885,-2.2168152
259,1778587610.3645222,-0.60306543,1.5688,0.12007617,-1.0668623,1.5632756,-1.438107
260,1778587610.3849356,-0.52350277,1.4809394,0.0622346,-1.0668623,1.5632756,-1.438107
261,1778587610.4055808,-0.22453266,1.168302,-0.099575356,-1.1893678,1.5622103,-1.2213258
262,1778587610.4264617,-0.22453266,1.168302,-0.099575356,-1.1893678,1.5622103,-1.2213258
263,1778587610.4473624,-0.22453266,1.168302,-0.099575356,-1.1893678,1.5622103,-1.2213258
264,1778587610.4681525,-0.22453266,1.168302,-0.099575356,-1.1893678,1.5622103,-1.2213258
265,1778587610.4889839,-0.22453266,1.168302,-0.099575356,-1.1893678,1.5622103,-1.2213258
266,1778587610.5098026,-0.22453266,1.168302,-0.099575356,-1.1893678,1.5622103,-1.2213258
267,1778587610.5311086,-0.22453266,1.168302,-0.099575356,-1.1893678,1.5622103,-1.2213258
268,1778587610.5513353,-0.22453266,1.168302,-0.099575356,-1.1893678,1.5622103,-1.2213258
269,1778587610.572363,-0.22453266,1.168302,-0.099575356,-1.1893678,1.5622103,-1.2213258
270,1778587610.5935583,-0.22453266,1.168302,-0.099575356,-1.1893678,1.5622103,-1.2213258
271,1778587610.6137664,-0.22453266,1.168302,-0.099575356,-1.1893678,1.5622103,-1.2213258
272,1778587610.6350114,-0.22453266,1.168302,-0.099575356,-1.1893678,1.5622103,-1.2213258
273,1778587610.6554906,-0.22453266,1.168302,-0.099575356,-1.1893678,1.5622103,-1.2213258
274,1778587610.676232,-2.0644803,1.9934596,0.6816519,3.107909,-1.3001553,3.2405345
275,1778587610.698257,-1.6642264,1.3035098,0.05662128,3.7486656,-0.86179894,3.7518613
276,1778587610.718952,-0.758774,0.41611758,-0.32069123,2.0298615,-0.9177253,3.6069853
277,1778587610.7398052,-0.758774,0.41611758,-0.32069123,2.0298615,-0.9177253,3.6069853
278,1778587610.7605565,-0.758774,0.41611758,-0.32069123,2.0298615,-0.9177253,3.6069853
279,1778587610.7817647,0.16278619,-0.62259,0.24796216,0.59228706,-1.627724,0.7094661
280,1778587610.8026197,0.16278619,-0.62259,0.24796216,0.59228706,-1.627724,0.7094661
281,1778587610.8224092,0.08053889,-0.7421781,0.16278619,0.9331717,-1.7598169,-0.2545982
282,1778587610.8432293,0.08053889,-0.7421781,0.16278619,0.9331717,-1.7598169,-0.2545982
283,1778587610.864628,0.08053889,-0.7421781,0.16278619,0.9331717,-1.7598169,-0.2545982
284,1778587610.8848398,0.08053889,-0.7421781,0.16278619,0.9331717,-1.7598169,-0.2545982
285,1778587610.905724,0.08053889,-0.7421781,0.16278619,0.9331717,-1.7598169,-0.2545982
286,1778587610.9269364,0.08053889,-0.7421781,0.16278619,0.9331717,-1.7598169,-0.2545982
287,1778587610.9470415,0.08053889,-0.7421781,0.16278619,0.9331717,-1.7598169,-0.2545982
288,1778587610.9678526,0.08053889,-0.7421781,0.16278619,0.9331717,-1.7598169,-0.2545982
289,1778587610.9886162,0.08053889,-0.7421781,0.16278619,0.9331717,-1.7598169,-0.2545982
290,1778587611.009548,0.08053889,-0.7421781,0.16278619,0.9331717,-1.7598169,-0.2545982
291,1778587611.0309289,0.08053889,-0.7421781,0.16278619,0.9331717,-1.7598169,-0.2545982
292,1778587611.0510418,0.08053889,-0.7421781,0.16278619,0.9331717,-1.7598169,-0.2545982
293,1778587611.0724664,0.08053889,-0.7421781,0.16278619,0.9331717,-1.7598169,-0.2545982
294,1778587611.0933917,-0.6303999,1.5949141,0.6321083,-1.7731327,1.1307782,-1.4306501
295,1778587611.1138291,-0.44833317,1.5299948,0.47713193,-1.7731327,1.1307782,-1.4306501
296,1778587611.1345973,-0.23380683,1.3154685,0.10518867,0.23595607,2.6019084,-1.4610102
297,1778587611.1554818,-0.23380683,1.3154685,0.10518867,0.23595607,2.6019084,-1.4610102
298,1778587611.1758816,-0.23380683,1.3154685,0.10518867,0.23595607,2.6019084,-1.4610102
299,1778587611.1968603,-0.110557936,0.60843474,0.048323333,-1.2341089,1.5717977,-1.5520903
300,1778587611.2176733,-0.19036464,0.60184515,0.27920148,-1.9425098,0.9672601,-1.4034859
301,1778587611.2384658,-0.19036464,0.60184515,0.27920148,-1.9425098,0.9672601,-1.4034859
302,1778587611.259326,-0.19036464,0.60184515,0.27920148,-1.9425098,0.9672601,-1.4034859
303,1778587611.2804313,-0.19036464,0.60184515,0.27920148,-1.9425098,0.9672601,-1.4034859
304,1778587611.30097,-0.19036464,0.60184515,0.27920148,-1.9425098,0.9672601,-1.4034859
305,1778587611.3217847,-0.19036464,0.60184515,0.27920148,-1.9425098,0.9672601,-1.4034859
306,1778587611.3430178,-0.19036464,0.60184515,0.27920148,-1.9425098,0.9672601,-1.4034859
307,1778587611.3635187,-0.19036464,0.60184515,0.27920148,-1.9425098,0.9672601,-1.4034859
308,1778587611.3844764,-0.19036464,0.60184515,0.27920148,-1.9425098,0.9672601,-1.4034859
309,1778587611.4052913,-0.19036464,0.60184515,0.27920148,-1.9425098,0.9672601,-1.4034859
310,1778587611.4260616,-0.19036464,0.60184515,0.27920148,-1.9425098,0.9672601,-1.4034859
311,1778587611.4468107,-1.8553232,1.6825306,0.5613316,2.095908,-1.8274611,3.3886063
312,1778587611.4684546,-1.8553232,1.6825306,0.5613316,2.095908,-1.8274611,3.3886063
313,1778587611.4895818,-0.53131264,0.29994637,-0.06369894,1.6037556,-1.7033578,3.3965957
314,1778587611.5102267,-0.13886857,0.05759751,-0.06687169,1.1968247,-1.9084213,2.7654266
315,1778587611.5309112,0.22819352,-0.17328064,-0.13081467,1.0652645,-1.6863136,1.9622171
316,1778587611.551775,0.2894519,-0.24186075,-0.14423785,1.0652645,-1.6863136,1.9622171
317,1778587611.572445,0.2894519,-0.24186075,-0.14423785,1.0652645,-1.6863136,1.9622171
318,1778587611.5936239,-0.37877685,-0.6770148,-0.15229172,0.46818373,-0.8612663,-0.5305017
319,1778587611.6145418,-0.52033,-0.68311626,-0.08908089,0.10546118,-1.0769824,-0.8229168
320,1778587611.6344981,-0.52033,-0.68311626,-0.08908089,0.10546118,-1.0769824,-0.8229168
321,1778587611.6550746,-0.52033,-0.68311626,-0.08908089,0.10546118,-1.0769824,-0.8229168
322,1778587611.6754997,-0.52033,-0.68311626,-0.08908089,0.10546118,-1.0769824,-0.8229168
323,1778587611.697459,-0.52033,-0.68311626,-0.08908089,0.10546118,-1.0769824,-0.8229168
324,1778587611.717304,-0.52033,-0.68311626,-0.08908089,0.10546118,-1.0769824,-0.8229168
325,1778587611.7383657,-0.52033,-0.68311626,-0.08908089,0.10546118,-1.0769824,-0.8229168
326,1778587611.7593918,-0.52033,-0.68311626,-0.08908089,0.10546118,-1.0769824,-0.8229168
327,1778587611.780343,-0.52033,-0.68311626,-0.08908089,0.10546118,-1.0769824,-0.8229168
328,1778587611.8009303,-0.52033,-0.68311626,-0.08908089,0.10546118,-1.0769824,-0.8229168
329,1778587611.8219001,-0.52033,-0.68311626,-0.08908089,0.10546118,-1.0769824,-0.8229168
330,1778587611.8431683,-1.530483,1.9990729,0.92448884,-2.8479846,1.5755261,-2.8783445
331,1778587611.8631933,-1.2590914,1.9197543,0.80172807,-2.1917815,1.1840415,-2.3877902
332,1778587611.8840396,-1.2590914,1.9197543,0.80172807,-2.1917815,1.1840415,-2.3877902
333,1778587611.9052773,-0.043930303,1.0555476,-0.19231711,0.33768883,2.6738138,-1.5941683
334,1778587611.9252815,-0.0036608586,0.8847075,-0.15717287,-0.73290193,2.3622239,-1.6229304
335,1778587611.9472005,-0.055400997,0.74364245,0.03465613,-1.6293219,1.7342505,-1.5275892
336,1778587611.9673007,-0.055400997,0.74364245,0.03465613,-1.6293219,1.7342505,-1.5275892
337,1778587611.9882584,-0.055400997,0.74364245,0.03465613,-1.6293219,1.7342505,-1.5275892
338,1778587612.009044,-0.11348662,0.86518294,0.68140787,-1.1185277,0.74941355,-0.31798145
339,1778587612.0313575,-0.107873306,0.9371798,0.5779276,-0.42397526,0.22264028,0.34674358
340,1778587612.0505564,-0.107873306,0.9371798,0.5779276,-0.42397526,0.22264028,0.34674358
341,1778587612.0717523,-0.107873306,0.9371798,0.5779276,-0.42397526,0.22264028,0.34674358
342,1778587612.0922506,-0.107873306,0.9371798,0.5779276,-0.42397526,0.22264028,0.34674358
343,1778587612.1130576,-0.107873306,0.9371798,0.5779276,-0.42397526,0.22264028,0.34674358
344,1778587612.1339033,-0.107873306,0.9371798,0.5779276,-0.42397526,0.22264028,0.34674358
345,1778587612.1553383,-0.107873306,0.9371798,0.5779276,-0.42397526,0.22264028,0.34674358
346,1778587612.175452,-0.107873306,0.9371798,0.5779276,-0.42397526,0.22264028,0.34674358
347,1778587612.1962762,-0.107873306,0.9371798,0.5779276,-0.42397526,0.22264028,0.34674358
348,1778587612.2172608,-0.107873306,0.9371798,0.5779276,-0.42397526,0.22264028,0.34674358
349,1778587612.2384834,-0.107873306,0.9371798,0.5779276,-0.42397526,0.22264028,0.34674358
350,1778587612.2588775,-0.107873306,0.9371798,0.5779276,-0.42397526,0.22264028,0.34674358
351,1778587612.2799954,-0.107873306,0.9371798,0.5779276,-0.42397526,0.22264028,0.34674358
352,1778587612.300395,-0.107873306,0.9371798,0.5779276,-0.42397526,0.22264028,0.34674358
353,1778587612.3211575,-0.033923957,-0.55742675,-0.09176553,-0.69295454,-1.901497,-0.2727077
354,1778587612.3420217,-0.11275445,-0.626495,-0.024405725,-0.69295454,-1.901497,-0.2727077
355,1778587612.363051,-0.11275445,-0.626495,-0.024405725,-0.69295454,-1.901497,-0.2727077
356,1778587612.3839757,-0.11275445,-0.626495,-0.024405725,-0.69295454,-1.901497,-0.2727077
357,1778587612.4050255,-0.11275445,-0.626495,-0.024405725,-0.69295454,-1.901497,-0.2727077
358,1778587612.4256172,0.04344219,-0.6445552,-0.44442827,1.2895026,0.26631612,-0.94968325
359,1778587612.4461362,-0.008297946,-0.58305275,-0.5418071,1.2895026,0.26631612,-0.94968325
360,1778587612.4671133,-0.008297946,-0.58305275,-0.5418071,1.2895026,0.26631612,-0.94968325
361,1778587612.4877455,-0.008297946,-0.58305275,-0.5418071,1.2895026,0.26631612,-0.94968325
362,1778587612.5090415,-0.008297946,-0.58305275,-0.5418071,1.2895026,0.26631612,-0.94968325
363,1778587612.5299149,-0.008297946,-0.58305275,-0.5418071,1.2895026,0.26631612,-0.94968325
364,1778587612.5504372,-0.008297946,-0.58305275,-0.5418071,1.2895026,0.26631612,-0.94968325
365,1778587612.5711136,-0.008297946,-0.58305275,-0.5418071,1.2895026,0.26631612,-0.94968325
366,1778587612.5920675,-0.008297946,-0.58305275,-0.5418071,1.2895026,0.26631612,-0.94968325
367,1778587612.6126354,-0.008297946,-0.58305275,-0.5418071,1.2895026,0.26631612,-0.94968325
368,1778587612.6338477,-0.008297946,-0.58305275,-0.5418071,1.2895026,0.26631612,-0.94968325
369,1778587612.654269,-0.008297946,-0.58305275,-0.5418071,1.2895026,0.26631612,-0.94968325
370,1778587612.675362,-0.008297946,-0.58305275,-0.5418071,1.2895026,0.26631612,-0.94968325
371,1778587612.6959856,-0.008297946,-0.58305275,-0.5418071,1.2895026,0.26631612,-0.94968325
372,1778587612.7170215,-0.008297946,-0.58305275,-0.5418071,1.2895026,0.26631612,-0.94968325
373,1778587612.737418,-0.7053254,1.5954022,0.28676724,-1.107875,0.9768475,-1.7230653
374,1778587612.758375,-0.25162303,0.7636551,0.6570021,-1.8471686,1.3603427,-1.1851068
375,1778587612.779438,-0.29726174,0.895446,0.78610843,-0.96299905,1.1323761,-0.5656554
376,1778587612.8000815,-0.29726174,0.895446,0.78610843,-0.96299905,1.1323761,-0.5656554
377,1778587612.821421,-0.19744232,1.1883147,0.22331238,0.075101145,-0.8767126,0.9086706
378,1778587612.8419464,-0.19744232,1.1883147,0.22331238,0.04580637,-1.5073493,1.1957593
379,1778587612.8626807,-0.19744232,1.1883147,0.22331238,0.04580637,-1.5073493,1.1957593
380,1778587612.8841197,-0.19744232,1.1883147,0.22331238,0.04580637,-1.5073493,1.1957593
381,1778587612.9035687,-0.19744232,1.1883147,0.22331238,0.04580637,-1.5073493,1.1957593
382,1778587612.924985,-0.19744232,1.1883147,0.22331238,0.04580637,-1.5073493,1.1957593
383,1778587612.9460723,-0.19744232,1.1883147,0.22331238,0.04580637,-1.5073493,1.1957593
384,1778587612.9669921,-0.19744232,1.1883147,0.22331238,0.04580637,-1.5073493,1.1957593
385,1778587612.9875674,-0.19744232,1.1883147,0.22331238,0.04580637,-1.5073493,1.1957593
386,1778587613.0085075,-0.19744232,1.1883147,0.22331238,0.04580637,-1.5073493,1.1957593
387,1778587613.0294187,-0.19744232,1.1883147,0.22331238,0.04580637,-1.5073493,1.1957593
388,1778587613.0500147,-0.19744232,1.1883147,0.22331238,0.04580637,-1.5073493,1.1957593
389,1778587613.0711248,-0.19744232,1.1883147,0.22331238,0.04580637,-1.5073493,1.1957593
390,1778587613.0915363,-0.19744232,1.1883147,0.22331238,0.04580637,-1.5073493,1.1957593
391,1778587613.1122289,-0.19744232,1.1883147,0.22331238,0.04580637,-1.5073493,1.1957593
392,1778587613.1333797,-1.952458,2.7566266,1.4684924,0.8873653,-1.8519622,2.8032434
393,1778587613.1542275,-0.4702983,-0.62551874,-0.08322352,0.5006743,-1.2937636,-1.3763217
394,1778587613.1751244,-0.25089085,-0.6147802,-0.20793676,0.80374205,-0.5539375,-0.8048073
395,1778587613.1954694,-0.25089085,-0.6147802,-0.20793676,0.80374205,-0.5539375,-0.8048073
396,1778587613.2175035,-0.25089085,-0.6147802,-0.20793676,0.80374205,-0.5539375,-0.8048073
397,1778587613.237031,-1.0772687,0.1432616,-0.4583395,-0.6993461,-0.25353295,-2.1864552
398,1778587613.2580864,-1.308391,0.65919864,-0.49616838,-1.0247844,0.050600063,-2.4250746
399,1778587613.2792265,-1.4025971,1.0396838,-0.6145361,-1.1994878,0.99762017,-2.4208136
400,1778587613.2997708,-1.4025971,1.0396838,-0.6145361,-1.1994878,0.99762017,-2.4208136
401,1778587613.320632,-1.4025971,1.0396838,-0.6145361,-1.1994878,0.99762017,-2.4208136
402,1778587613.3412967,-1.4025971,1.0396838,-0.6145361,-1.1994878,0.99762017,-2.4208136
403,1778587613.363046,-1.4025971,1.0396838,-0.6145361,-1.1994878,0.99762017,-2.4208136
404,1778587613.3839734,-1.4025971,1.0396838,-0.6145361,-1.1994878,0.99762017,-2.4208136
405,1778587613.4048507,-1.4025971,1.0396838,-0.6145361,-1.1994878,0.99762017,-2.4208136
406,1778587613.425465,-1.4025971,1.0396838,-0.6145361,-1.1994878,0.99762017,-2.4208136
407,1778587613.4465537,-1.4025971,1.0396838,-0.6145361,-1.1994878,0.99762017,-2.4208136
408,1778587613.4670491,-1.4025971,1.0396838,-0.6145361,-1.1994878,0.99762017,-2.4208136
409,1778587613.487286,-1.4025971,1.0396838,-0.6145361,-1.1994878,0.99762017,-2.4208136
410,1778587613.5087926,-1.4025971,1.0396838,-0.6145361,-1.1994878,0.99762017,-2.4208136
411,1778587613.5297816,-1.4025971,1.0396838,-0.6145361,-1.1994878,0.99762017,-2.4208136
412,1778587613.549647,-0.08664032,0.8834872,0.35534734,-1.484446,-0.4777711,-0.060720075
413,1778587613.5707858,-0.08615221,1.0150341,0.33045352,-1.4402375,-1.3241237,0.54807854
414,1778587613.591013,-0.12129646,1.0682385,0.3162982,-1.4402375,-1.3241237,0.54807854
415,1778587613.6120372,-0.12129646,1.0682385,0.3162982,-1.4402375,-1.3241237,0.54807854
416,1778587613.6331618,-0.12129646,1.0682385,0.3162982,-1.4402375,-1.3241237,0.54807854
417,1778587613.6536696,-1.5910091,2.7454,1.3049742,0.6034723,-2.343582,2.1017668
418,1778587613.6743236,-2.352468,2.954069,1.163909,0.6034723,-2.343582,2.1017668
419,1778587613.6961913,-2.352468,2.954069,1.163909,0.6034723,-2.343582,2.1017668
420,1778587613.7171295,-2.352468,2.954069,1.163909,0.6034723,-2.343582,2.1017668
421,1778587613.738174,-2.352468,2.954069,1.163909,0.6034723,-2.343582,2.1017668
422,1778587613.7590415,-2.352468,2.954069,1.163909,0.6034723,-2.343582,2.1017668
423,1778587613.7795105,-2.352468,2.954069,1.163909,0.6034723,-2.343582,2.1017668
424,1778587613.8004084,-2.352468,2.954069,1.163909,0.6034723,-2.343582,2.1017668
425,1778587613.8210728,-2.352468,2.954069,1.163909,0.6034723,-2.343582,2.1017668
426,1778587613.8408575,-2.352468,2.954069,1.163909,0.6034723,-2.343582,2.1017668
427,1778587613.8629692,-2.352468,2.954069,1.163909,0.6034723,-2.343582,2.1017668
428,1778587613.8825867,-2.352468,2.954069,1.163909,0.6034723,-2.343582,2.1017668
429,1778587613.9040399,-0.32044718,-0.90398806,-0.01513155,1.3598101,-0.83996105,-1.0428939
430,1778587613.9251773,-0.32044718,-0.90398806,-0.01513155,1.3598101,-0.83996105,-1.0428939
431,1778587613.946217,-0.078830495,-0.75145227,-0.62259,0.67005134,-0.4032026,-1.0860372
432,1778587613.965967,-0.16693515,-0.6157564,-0.7568215,-0.22903186,0.14487597,-1.7140105
433,1778587613.988114,-0.5657247,-0.42002252,-0.6452874,-1.546764,0.16458336,-2.5470474
434,1778587614.0074737,-0.92400074,-0.09859913,-0.39830142,-1.546764,0.16458336,-2.5470474
435,1778587614.028704,-0.92400074,-0.09859913,-0.39830142,-1.546764,0.16458336,-2.5470474
436,1778587614.0494077,-2.4456975,1.5251138,-0.19719826,-2.202967,2.380866,-3.1622376
437,1778587614.0700707,-2.4730322,1.7403722,-0.024649782,-2.7840686,1.9371834,-3.1190944
438,1778587614.0907586,-2.3988385,1.7972375,0.16791138,-2.7840686,1.9371834,-3.1190944
439,1778587614.1117907,-2.3988385,1.7972375,0.16791138,-2.7840686,1.9371834,-3.1190944
440,1778587614.1323993,-2.3988385,1.7972375,0.16791138,-2.7840686,1.9371834,-3.1190944
441,1778587614.1530797,-2.3988385,1.7972375,0.16791138,-2.7840686,1.9371834,-3.1190944
442,1778587614.1744597,-2.3988385,1.7972375,0.16791138,-2.7840686,1.9371834,-3.1190944
443,1778587614.1948395,-2.3988385,1.7972375,0.16791138,-2.7840686,1.9371834,-3.1190944
444,1778587614.21561,-2.3988385,1.7972375,0.16791138,-2.7840686,1.9371834,-3.1190944
445,1778587614.2367878,-2.3988385,1.7972375,0.16791138,-2.7840686,1.9371834,-3.1190944
446,1778587614.2572696,-2.3988385,1.7972375,0.16791138,-2.7840686,1.9371834,-3.1190944
447,1778587614.278228,-2.3988385,1.7972375,0.16791138,-2.7840686,1.9371834,-3.1190944
448,1778587614.2989793,-0.48201308,1.2947236,-0.15668476,-0.12783173,2.5102956,-1.7651432
449,1778587614.3198118,-0.48201308,1.2947236,-0.15668476,-0.12783173,2.5102956,-1.7651432
450,1778587614.3407347,-0.48201308,1.2947236,-0.15668476,-0.12783173,2.5102956,-1.7651432
451,1778587614.3614557,-0.22331238,1.3320644,0.59794027,-0.9986854,-1.3283848,1.68152
452,1778587614.3822074,-0.52252656,1.534388,0.6289356,-0.31052458,-1.7385116,1.9190739
453,1778587614.4031186,-1.3330406,2.5665061,0.5513253,0.8048073,-1.6772588,3.6213665
454,1778587614.4240382,-1.3330406,2.5665061,0.5513253,0.8048073,-1.6772588,3.6213665
455,1778587614.4451725,-1.3330406,2.5665061,0.5513253,0.8048073,-1.6772588,3.6213665
456,1778587614.465553,-2.238493,2.127203,0.31678632,3.9441416,-1.448227,4.8421597
457,1778587614.4866076,-2.0942552,1.8384832,-0.19768637,3.9441416,-1.448227,4.8421597
458,1778587614.5070677,-1.6725243,1.2651927,-0.86664724,4.312723,-0.06551377,5.395032
459,1778587614.5278156,-1.6725243,1.2651927,-0.86664724,4.312723,-0.06551377,5.395032
460,1778587614.5488346,-1.6725243,1.2651927,-0.86664724,4.312723,-0.06551377,5.395032
461,1778587614.5697823,-1.6725243,1.2651927,-0.86664724,4.312723,-0.06551377,5.395032
462,1778587614.5904047,-1.6725243,1.2651927,-0.86664724,4.312723,-0.06551377,5.395032
463,1778587614.6112876,-1.6725243,1.2651927,-0.86664724,4.312723,-0.06551377,5.395032
464,1778587614.63284,-1.6725243,1.2651927,-0.86664724,4.312723,-0.06551377,5.395032
465,1778587614.6528661,-1.6725243,1.2651927,-0.86664724,4.312723,-0.06551377,5.395032
466,1778587614.673758,-1.6725243,1.2651927,-0.86664724,4.312723,-0.06551377,5.395032
467,1778587614.6947622,-1.6725243,1.2651927,-0.86664724,4.312723,-0.06551377,5.395032
468,1778587614.7155788,-1.6725243,1.2651927,-0.86664724,4.312723,-0.06551377,5.395032
469,1778587614.7362278,-1.6725243,1.2651927,-0.86664724,4.312723,-0.06551377,5.395032
470,1778587614.75694,-1.6725243,1.2651927,-0.86664724,4.312723,-0.06551377,5.395032
471,1778587614.778089,-0.24698594,0.25259924,-0.3533949,-2.0250678,0.50600064,-2.02347
472,1778587614.7990558,-2.3998148,1.6788697,-0.41465324,-2.020274,1.005077,-3.893009
473,1778587614.8195243,-2.3998148,1.6788697,-0.41465324,-2.1869879,1.3912354,-4.947621
474,1778587614.840503,-2.3998148,1.6788697,-0.41465324,-2.1869879,1.3912354,-4.947621
475,1778587614.8611143,-2.3998148,1.6788697,-0.41465324,-2.1869879,1.3912354,-4.947621
476,1778587614.8818767,-1.3223021,2.13184,0.788549,-1.5622103,1.8540928,-1.6809874
477,1778587614.903075,-1.0648217,1.9922394,0.6501685,-1.5622103,1.8540928,-1.6809874
478,1778587614.9235706,-1.0648217,1.9922394,0.6501685,-1.5622103,1.8540928,-1.6809874
479,1778587614.9444258,-1.0648217,1.9922394,0.6501685,-1.5622103,1.8540928,-1.6809874
