id,timestamp,acc_x,acc_y,acc_z,gyro_x,gyro_y,gyro_z
1,1778590987.7257037,-3.7802026,0.49201941,0.24454537,-1.2458268,0.41705105,-4.6813045
2,1778590987.746327,-3.9112613,0.52423495,0.054912884,-1.2458268,0.41705105,-4.6813045
3,1778590987.7665162,-3.9112613,0.52423495,0.054912884,-1.2458268,0.41705105,-4.6813045
4,1778590987.7876372,-3.9112613,0.52423495,0.054912884,-1.2458268,0.41705105,-4.6813045
5,1778590987.8082452,-3.9112613,0.52423495,0.054912884,-1.2458268,0.41705105,-4.6813045
6,1778590987.8291984,-5.3946414,1.1631769,-2.5255044,4.951882,0.13102753,1.3619406
7,1778590987.850256,-5.3946414,1.1631769,-2.5255044,4.951882,0.13102753,1.3619406
8,1778590987.8702636,-4.161664,0.16644704,-1.5983309,-1.6437031,-0.55553544,3.8264298
9,1778590987.891787,-4.161664,0.16644704,-1.5983309,-1.6437031,-0.55553544,3.8264298
10,1778590987.9123151,-4.161664,0.16644704,-1.5983309,-1.6437031,-0.55553544,3.8264298
11,1778590987.933265,-2.7278278,-0.5649925,0.8175918,-3.4844801,-3.8157773,4.4570665
12,1778590987.9541025,-2.4190955,-0.7404697,1.091424,-2.6583674,-4.718056,4.9465556
13,1778590987.9730752,-2.3468544,-0.8190561,1.0714114,-0.9550096,-4.7542753,5.5143414
14,1778590987.9938464,-2.3468544,-0.8190561,1.0714114,-0.9550096,-4.7542753,5.5143414
15,1778590988.015777,-2.3468544,-0.8190561,1.0714114,-0.9550096,-4.7542753,5.5143414
16,1778590988.0367324,-2.1560016,-1.6686195,0.6411384,3.9244342,-1.5845809,7.7897463
17,1778590988.0590236,-2.1940746,-1.7933327,0.5544981,5.7252636,1.7315874,9.890448
18,1778590988.0778515,-2.182848,-1.8431203,0.21281794,5.7252636,1.7315874,9.890448
19,1778590988.098284,-2.182848,-1.8431203,0.21281794,5.7252636,1.7315874,9.890448
20,1778590988.1189156,-2.182848,-1.8431203,0.21281794,5.7252636,1.7315874,9.890448
21,1778590988.1397681,-2.1547813,-1.8938842,-0.06833603,0.22050974,-0.3073288,10.16795
22,1778590988.1604652,-2.1547813,-1.8938842,-0.06833603,0.22050974,-0.3073288,10.16795
23,1778590988.1823828,-1.5107143,-1.9002297,0.28237423,0.45486793,0.42876893,10.0704775
24,1778590988.2033472,-1.5107143,-1.9002297,0.28237423,0.45486793,0.42876893,10.0704775
25,1778590988.2248285,-1.5107143,-1.9002297,0.28237423,0.45486793,0.42876893,10.0704775
26,1778590988.2444434,2.9408898,-2.7475965,-0.55693865,3.1750207,0.3323625,4.795288
27,1778590988.266659,2.9408898,-2.7475965,-0.55693865,3.1750207,0.3323625,4.795288
28,1778590988.2868843,2.9408898,-2.7475965,-0.55693865,3.1750207,0.3323625,4.795288
29,1778590988.3096957,2.9408898,-2.7475965,-0.55693865,3.1750207,0.3323625,4.795288
30,1778590988.330071,2.3046324,-2.771026,-0.29140437,1.0492855,-1.6181368,-4.412858
31,1778590988.3511262,1.8848541,-2.5726075,-0.780007,2.0857878,-1.1435614,-5.2874403
32,1778590988.3713167,1.8848541,-2.5726075,-0.780007,2.0857878,-1.1435614,-5.2874403
33,1778590988.3924532,0.47591165,-2.2790065,-0.9034999,1.6692694,-1.2836437,-6.5481806
34,1778590988.4131005,0.47591165,-2.2790065,-0.9034999,1.6692694,-1.2836437,-6.5481806
35,1778590988.4339435,-3.0631626,-1.2024701,0.7292431,-1.5962988,-1.0737866,-9.378056
36,1778590988.4546733,-2.8544936,-1.2080834,0.77903074,-1.355549,-0.57577544,-8.548747
37,1778590988.4757476,-2.4549718,-1.645434,0.6474839,-1.3598101,-1.0072075,-8.537562
38,1778590988.4961312,-2.4549718,-1.645434,0.6474839,-1.3598101,-1.0072075,-8.537562
39,1778590988.5172765,-2.4549718,-1.645434,0.6474839,-1.3598101,-1.0072075,-8.537562
40,1778590988.5375557,-2.8554697,-1.5356082,0.536926,-1.365669,-0.93636745,-9.413209
41,1778590988.5600367,-2.4076247,-1.2778838,0.6640798,-0.6535397,0.3797668,-7.49307
42,1778590988.5792618,-2.4076247,-1.2778838,0.6640798,-0.6535397,0.3797668,-7.49307
43,1778590988.6023743,-2.276322,-1.244936,0.67628264,-0.6535397,0.3797668,-7.49307
44,1778590988.6227882,-2.276322,-1.244936,0.67628264,-0.6535397,0.3797668,-7.49307
45,1778590988.6437743,-2.6372826,-0.375116,0.34119204,-0.19068234,0.43409526,-5.345497
46,1778590988.6631708,-2.4122617,-0.23258655,0.34949,-0.5113269,-0.5438175,-4.567854
47,1778590988.684792,-2.1860206,0.16913168,-0.19426957,-1.2687299,-2.1007016,-4.218447
48,1778590988.7052858,-2.1860206,0.16913168,-0.19426957,-1.2687299,-2.1007016,-4.218447
49,1778590988.7263923,-2.1860206,0.16913168,-0.19426957,-1.2687299,-2.1007016,-4.218447
50,1778590988.7452626,-3.8924692,1.2803243,1.3647681,-0.9901633,1.8365159,-3.2421324
51,1778590988.7661574,-5.3360677,2.0259192,1.1297411,-0.9901633,1.8365159,-3.2421324
52,1778590988.7869864,-7.3078065,2.1416023,-2.1594186,5.3423014,0.8032094,-0.4564658
53,1778590988.8075123,-7.3078065,2.1416023,-2.1594186,5.3423014,0.8032094,-0.4564658
54,1778590988.829032,-7.3078065,2.1416023,-2.1594186,5.3423014,0.8032094,-0.4564658
55,1778590988.8480515,-3.4358377,-0.50495446,0.4378387,-5.3087454,-1.850897,3.13241
56,1778590988.8682618,-3.1568806,-0.5886661,0.856641,-5.045625,-2.632801,3.4796863
57,1778590988.8896914,-2.8554697,-0.49519217,1.2661691,-2.958772,-2.6061695,3.7449372
58,1778590988.9101968,-2.8554697,-0.49519217,1.2661691,-2.958772,-2.6061695,3.7449372
59,1778590988.9310262,-2.8554697,-0.49519217,1.2661691,-2.958772,-2.6061695,3.7449372
60,1778590988.951716,-1.7894278,-0.31873876,0.34778157,1.0540792,-2.3105586,5.5308533
61,1778590988.972889,-1.8377512,-0.3219115,0.27651685,1.3896375,-2.487925,5.5995626
62,1778590988.993337,-1.9712504,-0.6033095,0.14960709,1.5499598,-2.4628913,5.9287295
63,1778590989.0158582,-1.9712504,-0.6033095,0.14960709,1.5499598,-2.4628913,5.9287295
64,1778590989.0368707,-1.9712504,-0.6033095,0.14960709,1.5499598,-2.4628913,5.9287295
65,1778590989.0569603,-2.094011,-1.1131451,0.03734076,2.676477,-0.5656554,7.5985312
66,1778590989.0794592,-2.195539,-1.3530535,0.01586372,2.1007016,0.34567833,8.3953495
67,1778590989.0989964,-2.1394057,-1.4260265,0.043198135,2.1007016,0.34567833,8.3953495
68,1778590989.119437,-2.1394057,-1.4260265,0.043198135,2.1007016,0.34567833,8.3953495
69,1778590989.140761,-2.1394057,-1.4260265,0.043198135,2.1007016,0.34567833,8.3953495
70,1778590989.1612513,-1.257383,-1.4982674,0.7592621,2.05383,1.7891116,9.996442
71,1778590989.1842334,-0.673598,-1.5636748,0.6892177,2.834136,2.3734093,10.366089
72,1778590989.204228,-0.25259924,-1.6254213,0.63332856,2.834136,2.3734093,10.366089
73,1778590989.2261844,-0.25259924,-1.6254213,0.63332856,2.834136,2.3734093,10.366089
74,1778590989.245373,-0.25259924,-1.6254213,0.63332856,2.834136,2.3734093,10.366089
75,1778590989.2675018,2.7361257,-2.7219706,0.3277689,-0.59228706,-0.18908444,1.320928
76,1778590989.28713,2.7361257,-2.7219706,0.3277689,-0.59228706,-0.18908444,1.320928
77,1778590989.3095372,2.3973744,-2.770294,0.8432178,-2.884736,-1.7933728,-2.0628846
78,1778590989.328415,2.3973744,-2.770294,0.8432178,-2.884736,-1.7933728,-2.0628846
79,1778590989.3498683,2.3973744,-2.770294,0.8432178,-2.884736,-1.7933728,-2.0628846
80,1778590989.3701081,-0.29726174,-2.58359,-0.32117933,2.4868598,-1.0104034,-7.8286285
81,1778590989.391511,-1.7284133,-2.3236692,-0.47713193,2.2530344,-1.5947009,-9.7093525
82,1778590989.41286,-2.7378342,-1.9680777,-0.18157859,1.3299826,-1.7971011,-10.306966
83,1778590989.4343188,-2.7378342,-1.9680777,-0.18157859,1.3299826,-1.7971011,-10.306966
84,1778590989.455256,-3.090985,-1.8428763,0.2882316,2.3094933,-1.5430355,-9.561281
85,1778590989.4765785,-3.5754385,-1.5939379,0.026846299,2.8533108,-2.02347,-9.529324
86,1778590989.4970982,-3.4990487,-1.3147364,0.5432714,2.9193573,-1.0972224,-8.1055975
87,1778590989.5174408,-3.4990487,-1.3147364,0.5432714,2.9193573,-1.0972224,-8.1055975
88,1778590989.5376372,-3.4990487,-1.3147364,0.5432714,2.9193573,-1.0972224,-8.1055975
89,1778590989.5583696,-2.945283,-0.08102701,-0.64016217,4.908206,-2.018676,-5.2703958
90,1778590989.579902,-2.6521702,0.013179091,-0.8881243,4.908206,-2.018676,-5.2703958
91,1778590989.600952,-1.679846,-0.016595893,-0.75169635,-0.60507023,-4.244014,-3.4999263
92,1778590989.621175,-1.679846,-0.016595893,-0.75169635,-0.60507023,-4.244014,-3.4999263
93,1778590989.6434793,-1.679846,-0.016595893,-0.75169635,-0.60507023,-4.244014,-3.4999263
94,1778590989.6643908,-2.2301953,0.5964759,-0.6047739,-2.1214743,-2.8756814,-2.3638217
95,1778590989.6860776,-1.974423,0.2979939,-0.9796458,-3.3907368,-3.0013826,-2.290851
96,1778590989.7044961,-2.8295999,0.30897647,-0.7524285,-4.4235106,-3.119627,-3.4104443
97,1778590989.7260168,-2.8295999,0.30897647,-0.7524285,-4.4235106,-3.119627,-3.4104443
98,1778590989.7461731,-2.8295999,0.30897647,-0.7524285,-4.4235106,-3.119627,-3.4104443
99,1778590989.7665832,-5.370968,1.4936304,-0.83760446,1.9526298,-0.12942964,-1.3523532
100,1778590989.7888212,-5.5544987,1.5512279,-1.478987,1.9526298,-0.12942964,-1.3523532
101,1778590989.809388,-4.2907705,0.71020657,-1.6620299,-1.1190603,-0.3920173,1.3161342
102,1778590989.829725,-4.2907705,0.71020657,-1.6620299,-1.1190603,-0.3920173,1.3161342
103,1778590989.8501954,-4.2907705,0.71020657,-1.6620299,-1.1190603,-0.3920173,1.3161342
104,1778590989.8706045,-2.60043,-0.18743597,0.95011485,-4.6525426,-1.717739,4.6525426
105,1778590989.8900604,-2.4820623,-0.2277054,0.94157284,-3.4210968,-1.7635453,5.3753242
106,1778590989.911314,-1.9895546,-0.62063754,0.85590875,-2.5310683,-2.310026,5.9750686
107,1778590989.9317544,-1.9895546,-0.62063754,0.85590875,-2.5310683,-2.310026,5.9750686
108,1778590989.9528062,-1.9895546,-0.62063754,0.85590875,-2.5310683,-2.310026,5.9750686
109,1778590989.9737167,-1.909992,-1.1839217,0.60184515,0.6514092,-3.0903323,6.9055767
110,1778590989.9936762,-1.892908,-1.2302926,0.5762192,1.6431705,-2.428803,7.1266193
111,1778590990.015611,-1.9424516,-1.3225462,0.42929673,2.4144218,-1.7976338,7.3460636
112,1778590990.0363407,-1.9424516,-1.3225462,0.42929673,2.4144218,-1.7976338,7.3460636
113,1778590990.057536,-1.9424516,-1.3225462,0.42929673,2.4144218,-1.7976338,7.3460636
114,1778590990.0781498,-2.0273836,-1.512911,-0.039781332,2.3579628,-0.66845345,8.523181
115,1778590990.0994096,-1.9890665,-1.3806318,0.2294138,1.0913634,0.013848438,8.61
116,1778590990.1200058,-1.906087,-1.2161373,0.35998443,1.0913634,0.013848438,8.61
117,1778590990.1409318,-1.906087,-1.2161373,0.35998443,1.0913634,0.013848438,8.61
118,1778590990.1618311,-1.906087,-1.2161373,0.35998443,1.0913634,0.013848438,8.61
119,1778590990.182783,1.0801975,-2.2353203,0.5544981,3.4163032,-0.98110855,8.631838
120,1778590990.203385,2.5567439,-2.5677264,0.071264714,3.4163032,-0.98110855,8.631838
121,1778590990.2244418,3.1490707,-2.6497297,-0.8070973,4.629639,-0.175236,5.7124805
122,1778590990.2451754,3.1490707,-2.6497297,-0.8070973,4.629639,-0.175236,5.7124805
123,1778590990.2653959,3.1490707,-2.6497297,-0.8070973,4.629639,-0.175236,5.7124805
124,1778590990.2858164,2.5721195,-2.3907847,0.336799,-1.2740563,-2.2386532,-3.7609162
125,1778590990.3070283,2.178699,-2.3719923,0.16083373,0.43675843,-1.8130801,-5.3375077
126,1778590990.3285184,0.8927614,-2.2026167,-0.49934113,0.9619338,-1.8801918,-7.0307455
127,1778590990.3478498,0.8927614,-2.2026167,-0.49934113,0.9619338,-1.8801918,-7.0307455
128,1778590990.3693254,0.8927614,-2.2026167,-0.49934113,0.9619338,-1.8801918,-7.0307455
129,1778590990.3893626,-2.467419,-1.3293798,0.88934463,-1.4476944,0.25033715,-8.150338
130,1778590990.4119248,-2.467419,-1.3293798,0.88934463,-1.4476944,0.25033715,-8.150338
131,1778590990.432584,-2.6931717,-1.1070436,0.8581053,0.99548966,1.3741912,-7.653925
132,1778590990.4516897,-2.6931717,-1.1070436,0.8581053,0.99548966,1.3741912,-7.653925
133,1778590990.4734821,-2.6931717,-1.1070436,0.8581053,0.99548966,1.3741912,-7.653925
134,1778590990.4941258,-2.459609,-0.84565836,0.60184515,0.1603223,-1.9877834,-7.3391395
135,1778590990.5152748,-1.8909554,-0.8188121,0.4915313,-0.108124346,-2.441586,-6.747385
136,1778590990.5369751,-1.7420806,-0.78513217,0.39781332,0.05912218,-2.4058998,-6.6019764
137,1778590990.5583284,-1.7420806,-0.78513217,0.39781332,0.05912218,-2.4058998,-6.6019764
138,1778590990.5768323,-1.7420806,-0.78513217,0.39781332,0.05912218,-2.4058998,-6.6019764
139,1778590990.5985258,-1.5385369,-0.24820623,-0.44955346,-1.6085494,-1.7134778,-5.887184
140,1778590990.6189287,-1.5385369,-0.24820623,-0.44955346,-2.5790052,-1.4418354,-5.6954365
141,1778590990.6402245,-1.6532438,-0.16229807,-0.49470404,-3.3161683,-1.1169298,-5.241634
142,1778590990.6617362,-1.6532438,-0.16229807,-0.49470404,-3.3161683,-1.1169298,-5.241634
143,1778590990.6830068,-4.7600927,0.9237567,0.20769271,-2.8597023,0.49854377,-4.4133906
144,1778590990.702535,-5.408797,1.099966,0.2677308,-1.4072144,1.1776499,-3.1068437
145,1778590990.723416,-7.255334,2.2009084,0.4327135,1.5345135,2.4639566,-2.1923141
146,1778590990.7440972,-7.7419844,2.3056087,-0.3414361,1.5345135,2.4639566,-2.1923141
147,1778590990.7657583,-7.7419844,2.3056087,-0.3414361,1.5345135,2.4639566,-2.1923141
148,1778590990.7859387,-4.322498,0.13057062,-0.59061855,-2.612561,-1.252751,3.0003173
149,1778590990.8073385,-3.4875782,-0.43759465,0.8434618,-4.104464,-2.102832,3.5654402
150,1778590990.8271143,-3.4875782,-0.43759465,0.8434618,-4.104464,-2.102832,3.5654402
151,1778590990.8482692,-3.2037396,-0.53961056,1.0794652,-4.0325584,-3.018427,4.1241713
152,1778590990.8688252,-3.2037396,-0.53961056,1.0794652,-4.0325584,-3.018427,4.1241713
153,1778590990.8899636,-2.221165,-0.77561396,1.0728757,-1.3102753,-4.6568036,5.8850536
154,1778590990.910575,-2.221165,-0.88421935,0.91472656,0.4362258,-4.521515,5.983058
155,1778590990.9315622,-2.3397768,-1.202226,0.53863436,1.9829898,-4.2179146,6.469351
156,1778590990.9521024,-2.3397768,-1.202226,0.53863436,1.9829898,-4.2179146,6.469351
157,1778590990.976165,-2.3397768,-1.202226,0.53863436,1.9829898,-4.2179146,6.469351
158,1778590990.9978185,-2.2336118,-1.744277,-0.21843125,4.1183124,-2.7526433,8.581238
159,1778590991.0150137,-2.1369653,-1.8465372,-0.23722363,3.7619815,-2.122007,9.053682
160,1778590991.0353706,-2.1772346,-1.8438525,-0.13838045,3.2629051,-1.7912422,9.2225275
161,1778590991.0563555,-2.0859573,-1.8619128,-0.20329969,2.9896648,-1.5313177,9.534117
162,1778590991.0771725,-2.0859573,-1.8619128,-0.20329969,2.9896648,-1.5313177,9.534117
163,1778590991.0983853,-1.5314592,-1.6688635,-0.12178457,1.9584887,-0.5203817,9.746104
164,1778590991.11906,-1.1158297,-1.5297508,0.016839951,1.4136059,-0.10226539,9.474995
165,1778590991.1400473,-0.22990192,-1.6049205,0.3499781,0.88203895,-1.0599382,8.034758
166,1778590991.1608102,-0.22990192,-1.6049205,0.3499781,0.88203895,-1.0599382,8.034758
167,1778590991.181788,-0.22990192,-1.6049205,0.3499781,0.88203895,-1.0599382,8.034758
168,1778590991.2048447,3.3860505,-2.7683415,-0.22843759,1.1318434,0.6428871,2.0437098
169,1778590991.22582,3.431445,-2.8178852,-0.15033926,1.1318434,0.6428871,2.0437098
170,1778590991.265542,2.6707184,-2.7468643,-0.34045988,0.8111989,-1.3427658,-3.6938045
171,1778590991.2757332,2.6707184,-2.7468643,-0.34045988,0.8111989,-1.3427658,-3.6938045
172,1778590991.2886899,2.6707184,-2.7468643,-0.34045988,0.8111989,-1.3427658,-3.6938045
173,1778590991.2988093,0.93522733,-2.494265,-0.61722076,1.5238608,-0.7590009,-8.0720415
174,1778590991.3093581,0.36779428,-2.4247088,-0.6645679,1.5238608,-0.7590009,-8.0720415
175,1778590991.3313794,-0.78610843,-2.2707086,-0.73607665,1.5238608,-0.7590009,-8.0720415
176,1778590991.352995,-0.78610843,-2.2707086,-0.73607665,1.5238608,-0.7590009,-8.0720415
177,1778590991.3741138,-0.78610843,-2.2707086,-0.73607665,1.5238608,-0.7590009,-8.0720415
178,1778590991.3923843,-0.78610843,-2.2707086,-0.73607665,1.5238608,-0.7590009,-8.0720415
179,1778590991.4140687,-2.2877927,-2.2236056,0.2818861,-1.433846,-0.2876214,-10.020411
180,1778590991.4341576,-2.2550888,-2.2826674,0.4053791,-1.3401027,-0.054328486,-10.224941
181,1778590991.4568968,-2.5643096,-2.4330065,0.070532545,-0.63223445,0.00958738,-10.450777
182,1778590991.4790976,-2.5643096,-2.4330065,0.070532545,-0.63223445,0.00958738,-10.450777
183,1778590991.5003927,-2.5643096,-2.4330065,0.070532545,-0.63223445,0.00958738,-10.450777
184,1778590991.5200384,-2.6248357,-1.4550693,0.5544981,1.9861856,2.1193435,-7.8190413
185,1778590991.5429537,-2.5955489,-1.338654,0.062478654,1.9718045,0.6018744,-7.4126425
186,1778590991.5624228,-2.5955489,-1.338654,0.062478654,1.9718045,0.6018744,-7.4126425
187,1778590991.5833526,-2.5955489,-1.338654,0.062478654,1.9718045,0.6018744,-7.4126425
188,1778590991.6221738,-2.2157958,0.14374973,-0.29945824,-1.9238676,-3.0349383,-3.8924763
189,1778590991.6465251,-2.2157958,0.14374973,-0.29945824,-1.9238676,-3.0349383,-3.8924763
190,1778590991.6725924,-2.5977454,0.17254847,0.10958171,-3.3257556,-3.0844731,-3.4530547
191,1778590991.6831932,-2.5977454,0.17254847,0.10958171,-3.3257556,-3.0844731,-3.4530547
192,1778590991.7039797,-2.5977454,0.17254847,0.10958171,-3.3257556,-3.0844731,-3.4530547
193,1778590991.7236795,-7.4598536,1.7364672,-0.5400987,5.92287,1.4583471,-0.18588865
194,1778590991.7449186,-5.793675,0.97476465,-3.4753754,3.5334823,0.20932446,3.3571808
195,1778590991.7649603,-4.829405,0.37291947,-3.3509061,3.5334823,0.20932446,3.3571808
196,1778590991.7852054,-4.829405,0.37291947,-3.3509061,3.5334823,0.20932446,3.3571808
197,1778590991.8068082,-4.829405,0.37291947,-3.3509061,3.5334823,0.20932446,3.3571808
198,1778590991.8276546,-2.6468008,-0.5288721,0.83150303,-1.8232001,-1.2719258,3.7278929
199,1778590991.8480349,-2.3505154,-0.42124277,0.511544,-1.8232001,-1.2719258,3.7278929
200,1778590991.868688,-2.140138,-0.37243137,0.4229512,-1.8232001,-1.2719258,3.7278929
201,1778590991.890813,-2.140138,-0.37243137,0.4229512,-1.8232001,-1.2719258,3.7278929
202,1778590991.9100611,-2.140138,-0.37243137,0.4229512,-1.8232001,-1.2719258,3.7278929
203,1778590991.9316866,-1.8484896,-0.626495,0.30751213,0.50120693,-2.4714136,5.7747984
204,1778590991.9510972,-1.9365941,-0.72655845,0.21232979,1.0679276,-2.2034996,6.480004
205,1778590991.974004,-1.7557478,-1.0335824,0.14521407,1.3885722,-1.6831179,7.171893
206,1778590991.9943702,-1.7557478,-1.0335824,0.14521407,1.3885722,-1.6831179,7.171893
207,1778590992.0172215,-2.0835168,-1.3733101,-0.062478654,1.903095,-1.1414309,7.661915
208,1778590992.0355585,-2.0835168,-1.3733101,-0.062478654,1.695901,-1.0647318,8.092814
209,1778590992.0571504,-2.1516087,-1.4841121,-0.32850105,1.1744541,-1.1424961,8.469917
210,1778590992.075301,-2.1384296,-1.5212089,-0.34168017,0.3797668,-1.3001553,8.659002
211,1778590992.0964363,-2.1384296,-1.5212089,-0.34168017,0.3797668,-1.3001553,8.659002
212,1778590992.1164935,-1.6878998,-1.4892373,-0.09200958,-0.26897928,-1.2543489,8.581771
213,1778590992.1375213,-0.7819594,-1.4850883,0.22355644,-0.32810146,-1.1313108,8.4917555
214,1778590992.1586046,0.67091334,-1.7786893,0.029286869,0.29614353,-1.0801781,8.601478
215,1778590992.1805406,0.67091334,-1.7786893,0.029286869,1.7859159,-0.22050974,8.494419
216,1778590992.2013137,0.67091334,-1.7786893,0.029286869,1.7859159,-0.22050974,8.494419
217,1778590992.2226722,3.77703,-2.1372094,-0.119343996,0.5683186,0.43356264,2.534264
218,1778590992.2434363,3.9315183,-2.0901062,-0.05222825,0.5683186,0.43356264,2.534264
219,1778590992.2645202,3.3928838,-2.0217702,0.13447554,-0.020772656,-1.2575446,-3.1419976
220,1778590992.2849257,3.3928838,-2.0217702,0.13447554,-0.020772656,-1.2575446,-3.1419976
221,1778590992.3072777,3.3928838,-2.0217702,0.13447554,-0.020772656,-1.2575446,-3.1419976
222,1778590992.3278456,-0.1637624,-1.5251138,-0.5352176,2.3579628,-0.7073356,-8.117315
223,1778590992.3487787,-1.3403623,-1.1414558,-0.67677075,1.532383,-0.9422264,-8.949286
224,1778590992.370097,-2.1852884,-0.6760386,-0.27407628,0.31638354,-0.7621967,-8.406002
225,1778590992.3922362,-2.1852884,-0.6760386,-0.27407628,0.31638354,-0.7621967,-8.406002
226,1778590992.4121056,-2.1852884,-0.6760386,-0.27407628,0.31638354,-0.7621967,-8.406002
227,1778590992.4328253,-1.5883245,-0.8092938,0.7302193,1.0839065,-0.05539375,-6.0288644
228,1778590992.4530203,-1.5736811,-0.86884385,0.53131264,2.3052323,-0.257794,-5.920207
229,1778590992.4742754,-1.577098,-0.82247293,0.044418417,2.7260118,-0.39574575,-5.7897124
230,1778590992.4945571,-1.577098,-0.82247293,0.044418417,2.7260118,-0.39574575,-5.7897124
231,1778590992.5178258,-1.577098,-0.82247293,0.044418417,2.7260118,-0.39574575,-5.7897124
232,1778590992.5392609,-0.8459024,-0.6157564,0.18133454,0.035153728,-1.9702066,-5.7156763
233,1778590992.560556,-0.87323684,-0.6152683,0.11568313,0.035153728,-1.9702066,-5.7156763
234,1778590992.5804174,-1.0033194,-0.5725583,0.013179091,-0.16138756,-1.9803267,-5.955361
235,1778590992.6029224,-1.0033194,-0.5725583,0.013179091,-0.16138756,-1.9803267,-5.955361
236,1778590992.6206832,-1.0033194,-0.5725583,0.013179091,-0.16138756,-1.9803267,-5.955361
237,1778590992.6428263,-1.8624009,-0.44467232,-0.051496077,-3.2724924,-2.005893,-6.227536
238,1778590992.664005,-1.8624009,-0.44467232,-0.051496077,-3.2724924,-2.005893,-6.227536
239,1778590992.683912,-3.2003226,-0.19646609,-0.50690687,-4.5587993,-2.2295985,-6.28293
240,1778590992.7043793,-3.2003226,-0.19646609,-0.50690687,-4.5587993,-2.2295985,-6.28293
241,1778590992.726969,-3.2003226,-0.19646609,-0.50690687,-4.5587993,-2.2295985,-6.28293
242,1778590992.7467453,-6.0047846,1.521941,1.8253042,-3.0423954,0.7440872,-1.7923075
243,1778590992.7667472,-6.47972,1.9329334,1.6300584,-0.8479505,0.43196473,0.07243799
244,1778590992.7873821,-6.373799,1.8880268,0.35485923,-0.91452956,-0.68656296,2.7872643
245,1778590992.8081903,-6.373799,1.8880268,0.35485923,-0.91452956,-0.68656296,2.7872643
246,1778590992.8286796,-6.373799,1.8880268,0.35485923,-0.91452956,-0.68656296,2.7872643
247,1778590992.8494549,-2.8081229,-0.31190515,1.2185779,-4.6323023,-4.789429,4.4032707
248,1778590992.8700585,-2.7566266,-0.3328941,1.4374971,-4.6323023,-4.789429,4.4032707
249,1778590992.8919737,-2.7551622,-0.70190865,1.5109584,-0.4777711,-4.7654605,5.989982
250,1778590992.9116957,-2.7551622,-0.70190865,1.5109584,-0.4777711,-4.7654605,5.989982
251,1778590992.935096,-2.7551622,-0.70190865,1.5109584,-0.4777711,-4.7654605,5.989982
252,1778590992.9581816,-2.732221,-2.0544739,0.25162303,4.7468185,-3.2240229,8.624913
253,1778590992.9762769,-2.732221,-2.0544739,0.25162303,4.7468185,-3.2240229,8.624913
254,1778590992.9945905,-2.6060433,-2.207742,-0.16132185,4.880509,-1.5867114,10.011355
255,1778590993.01706,-2.6060433,-2.207742,-0.16132185,4.880509,-1.5867114,10.011355
256,1778590993.0369313,-2.6060433,-2.207742,-0.16132185,4.880509,-1.5867114,10.011355
257,1778590993.057138,-2.5125692,-2.2304392,-0.5723142,-0.20399815,-2.95025,9.386578
258,1778590993.078079,-2.4010353,-2.3256216,-0.40635532,-1.4402375,-3.8551922,8.972722
259,1778590993.1006033,-1.7616051,-2.3219607,0.24454537,-0.7984157,-3.2655683,8.736234
260,1778590993.1202943,-1.7616051,-2.3219607,0.24454537,-0.7984157,-3.2655683,8.736234
261,1778590993.147096,0.9413288,-2.5172064,-0.379509,5.077583,-1.3076121,7.0658994
262,1778590993.168093,2.4188514,-2.975302,-1.5570853,3.6330845,0.42983422,4.757471
263,1778590993.1806529,3.1576126,-3.0970864,-1.5434179,3.6330845,0.42983422,4.757471
264,1778590993.2009878,3.662323,-3.312101,-0.4971446,1.1387677,0.8996158,2.0916467
265,1778590993.2214172,3.662323,-3.312101,-0.4971446,1.1387677,0.8996158,2.0916467
266,1778590993.2428434,2.5032952,-3.065115,-0.5850052,1.2197278,-3.0024478,-5.865346
267,1778590993.263033,2.425197,-2.890126,-0.7165521,1.2197278,-3.0024478,-5.865346
268,1778590993.284296,1.0069802,-2.6804807,-0.54986095,-0.0031957934,-2.346245,-8.107728
269,1778590993.3069253,0.41587353,-2.6214187,-0.464685,-0.0031957934,-2.346245,-8.107728
270,1778590993.3260558,0.41587353,-2.6214187,-0.464685,-0.0031957934,-2.346245,-8.107728
271,1778590993.3478043,-2.698053,-2.170645,0.022453265,-0.75101143,-0.36591834,-9.501094
272,1778590993.368392,-3.2418125,-1.9700302,0.53643787,-1.1467572,0.029294772,-9.363674
273,1778590993.389537,-3.4604878,-1.986382,0.7321718,-1.1845741,0.09853696,-9.311477
274,1778590993.4092188,-3.4604878,-1.986382,0.7321718,-1.1845741,0.09853696,-9.311477
275,1778590993.4296076,-3.4604878,-1.986382,0.7321718,-1.1845741,0.09853696,-9.311477
276,1778590993.4505649,-2.915752,-1.922683,0.38609856,0.7680557,-0.9917612,-8.704808
277,1778590993.471201,-2.847904,-1.8523946,0.2294138,0.67058396,-0.9054748,-8.586032
278,1778590993.4921668,-3.0045888,-1.3691611,0.11373068,0.48735848,-0.64341974,-8.461395
279,1778590993.513321,-3.0045888,-1.3691611,0.11373068,0.48735848,-0.64341974,-8.461395
280,1778590993.53366,-3.0045888,-1.3691611,0.11373068,0.48735848,-0.64341974,-8.461395
281,1778590993.5544095,-2.83082,-0.35437113,-0.21013328,-2.9497173,-2.3116238,-6.97908
282,1778590993.575678,-2.3978624,0.12202863,0.15766099,-4.2589273,-2.979012,-6.343117
283,1778590993.5977225,-2.1542933,0.1803583,0.45052966,-4.9204564,-2.6796727,-5.5761266
284,1778590993.617673,-2.1542933,0.1803583,0.45052966,-4.9204564,-2.6796727,-5.5761266
285,1778590993.6411054,-2.1542933,0.1803583,0.45052966,-4.9204564,-2.6796727,-5.5761266
286,1778590993.667356,-4.714942,0.65968674,0.83101493,-0.25726137,1.526524,-3.6458676
287,1778590993.6816545,-5.5291166,0.8166155,0.91545874,-0.25726137,1.526524,-3.6458676
288,1778590993.7029328,-7.425198,1.6102897,0.65163285,1.1169298,2.2226744,-2.3920512
289,1778590993.7238302,-7.425198,1.6102897,0.65163285,1.1169298,2.2226744,-2.3920512
290,1778590993.744282,-7.425198,1.6102897,0.65163285,1.1169298,2.2226744,-2.3920512
291,1778590993.7649825,-3.9632456,-0.9488945,0.55620646,-4.3532033,-4.063984,3.6288233
292,1778590993.7854679,-3.4138727,-1.0028312,1.6700838,-2.8176246,-4.351073,4.07943
293,1778590993.8070693,-3.1678631,-0.9266854,1.6439695,-0.66152924,-4.3239083,4.8900967
294,1778590993.827,-3.1678631,-0.9266854,1.6439695,-0.66152924,-4.3239083,4.8900967
295,1778590993.8479834,-3.1678631,-0.9266854,1.6439695,-0.66152924,-4.3239083,4.8900967
296,1778590993.8680475,-2.0015135,-1.2849613,0.7165521,3.067429,-3.358246,6.8640313
297,1778590993.8872137,-2.0015135,-1.2849613,0.7165521,3.067429,-3.358246,6.8640313
298,1778590993.9082491,-2.1511204,-1.688632,0.2272173,4.708469,-2.6114957,7.624098
299,1778590993.9293094,-2.1511204,-1.688632,0.2272173,4.708469,-2.6114957,7.624098
300,1778590993.9499602,-2.1511204,-1.688632,0.2272173,4.708469,-2.6114957,7.624098
301,1778590993.9703894,-2.6829214,-2.0159128,-0.057841565,4.401673,-0.7126619,9.349294
302,1778590993.9913087,-2.725387,-2.042515,-0.22209209,3.7188382,-0.7302388,9.574064
303,1778590994.0108323,-2.4830384,-2.0229905,-0.19768637,2.7057717,-0.45486793,9.870741
304,1778590994.03145,-2.4830384,-2.0229905,-0.19768637,2.7057717,-0.45486793,9.870741
305,1778590994.051948,-2.4830384,-2.0229905,-0.19768637,2.7057717,-0.45486793,9.870741
306,1778590994.0730076,-1.7513548,-1.7169427,0.4288086,1.7305222,0.48149952,9.775932
307,1778590994.0940323,-1.1399914,-1.8487337,0.4195344,1.7305222,0.48149952,9.775932
308,1778590994.1147246,0.58891016,-2.259238,-0.1330112,1.7305222,0.48149952,9.775932
309,1778590994.1353238,0.58891016,-2.259238,-0.1330112,1.7305222,0.48149952,9.775932
310,1778590994.15625,0.58891016,-2.259238,-0.1330112,1.7305222,0.48149952,9.775932
311,1778590994.176928,3.4846492,-3.100259,0.30092257,-0.11930962,-1.8002969,-1.0082728
312,1778590994.1978111,3.4846492,-3.100259,0.30092257,-0.11930962,-1.8002969,-1.0082728
313,1778590994.2192495,3.073657,-2.8896377,0.17620933,-0.2514024,-2.9188247,-3.1334753
314,1778590994.239751,3.073657,-2.8896377,0.17620933,-0.2514024,-2.9188247,-3.1334753
315,1778590994.2594764,3.073657,-2.8896377,0.17620933,-0.2514024,-2.9188247,-3.1334753
316,1778590994.2804003,1.0162543,-2.4198277,-0.2923806,2.1283984,-1.9057581,-6.743124
317,1778590994.30147,-1.3559821,-1.9426957,-0.6582224,1.170193,-2.5028389,-8.3197155
318,1778590994.322585,-1.3559821,-1.9426957,-0.6582224,1.170193,-2.5028389,-8.3197155
319,1778590994.3441608,-1.3559821,-1.9426957,-0.6582224,1.170193,-2.5028389,-8.3197155
320,1778590994.3637083,-1.3559821,-1.9426957,-0.6582224,1.170193,-2.5028389,-8.3197155
321,1778590994.3842883,-2.7466202,-1.3210819,1.0196712,0.16085494,-0.7275756,-7.7705717
322,1778590994.40519,-2.664617,-1.3105874,0.9796458,0.16085494,-0.7275756,-7.7705717
323,1778590994.4264073,-2.3788261,-1.2871579,0.8437059,0.67324716,-1.4705976,-7.7545924
324,1778590994.447514,-2.3788261,-1.2871579,0.8437059,0.67324716,-1.4705976,-7.7545924
325,1778590994.468719,-2.3788261,-1.2871579,0.8437059,0.67324716,-1.4705976,-7.7545924
326,1778590994.4886935,-1.8238398,-1.1314493,0.28213018,-0.62531024,-2.5635588,-7.2608423
327,1778590994.5092425,-1.6229807,-1.2512815,0.5603554,-1.164334,-1.9931098,-6.970558
328,1778590994.5299401,-1.7254847,-1.2381024,0.60916686,-1.164334,-1.9931098,-6.970558
329,1778590994.551089,-1.7254847,-1.2381024,0.60916686,-1.164334,-1.9931098,-6.970558
330,1778590994.5742202,-2.460097,-0.55059314,0.3863426,-1.7864485,-1.9600866,-7.348194
331,1778590994.5994525,-4.3749704,0.06931226,0.40635532,-2.330266,-2.9507825,-7.440872
332,1778590994.6229374,-4.548983,0.57524294,-0.27041543,-1.417867,-2.2242723,-4.334561
333,1778590994.6394973,-4.548983,0.57524294,-0.27041543,-1.417867,-2.2242723,-4.334561
334,1778590994.6588218,-4.548983,0.57524294,-0.27041543,-1.417867,-2.2242723,-4.334561
335,1778590994.6804838,-6.4209023,0.42026657,1.0365112,-1.109473,0.05752428,-4.0107207
336,1778590994.7013593,-7.22141,0.94303715,0.5637722,1.6564863,1.8359833,-2.503904
337,1778590994.7208421,-6.3244996,0.86469483,-1.5997953,1.1462245,-0.21678132,3.0652986
338,1778590994.7422287,-6.3244996,0.86469483,-1.5997953,1.1462245,-0.21678132,3.0652986
339,1778590994.7633734,-6.3244996,0.86469483,-1.5997953,1.1462245,-0.21678132,3.0652986
340,1778590994.7838151,-6.3244996,0.86469483,-1.5997953,1.1462245,-0.21678132,3.0652986
341,1778590994.803606,-2.561869,-1.0174747,1.5243815,-2.2716765,-3.2629051,6.2243404
342,1778590994.8253853,-2.3441699,-1.0716554,1.4702009,-2.2716765,-3.2629051,6.2243404
343,1778590994.8490489,-2.3441699,-1.0716554,1.4702009,-2.2716765,-3.2629051,6.2243404
344,1778590994.8713927,-2.3441699,-1.0716554,1.4702009,-2.2716765,-3.2629051,6.2243404
345,1778590994.8881116,-2.332699,-1.8875388,0.65334123,3.075951,-2.854376,7.21983
346,1778590994.908393,-2.4230003,-1.9219507,0.6257628,3.8839543,-1.8482338,7.7966704
347,1778590994.930145,-2.7649245,-2.280227,0.3568117,4.477839,-0.53103435,8.840097
348,1778590994.9508655,-2.7649245,-2.280227,0.3568117,4.477839,-0.53103435,8.840097
349,1778590994.9699252,-2.7649245,-2.280227,0.3568117,4.477839,-0.53103435,8.840097
350,1778590994.9910476,-3.0114224,-2.6577835,-0.084687866,3.7539918,4.1950116,11.601795
351,1778590995.0112147,-2.825939,-2.5726075,-0.08639627,2.485262,4.582235,12.21592
352,1778590995.0327225,-1.922195,-2.6419196,-0.08151512,1.1009508,4.5566688,12.2287035
353,1778590995.0547924,-1.922195,-2.6419196,-0.08151512,1.1009508,4.5566688,12.2287035
354,1778590995.075235,-1.922195,-2.6419196,-0.08151512,1.1009508,4.5566688,12.2287035
355,1778590995.0963395,1.7433008,-2.460097,1.1543908,-1.123854,3.0945933,9.102685
356,1778590995.1168733,2.2855961,-2.6253238,1.0777569,-0.7621967,1.5334482,7.21983
357,1778590995.138349,2.6795044,-2.7619958,1.0479817,-0.6460829,0.1965413,4.196077
358,1778590995.1584277,2.6795044,-2.7619958,1.0479817,-0.6460829,0.1965413,4.196077
359,1778590995.18037,2.6795044,-2.7619958,1.0479817,-0.6460829,0.1965413,4.196077
360,1778590995.2006705,3.2122815,-3.3526144,1.1180263,-0.24714136,-4.25946,-3.6906087
361,1778590995.221733,3.2122815,-3.3526144,1.1180263,-0.24714136,-4.25946,-3.6906087
362,1778590995.2424405,2.4496026,-3.3577394,0.53106856,0.94542223,-4.115649,-5.6965017
363,1778590995.2623646,2.4496026,-3.3577394,0.53106856,0.94542223,-4.115649,-5.6965017
364,1778590995.282987,2.4496026,-3.3577394,0.53106856,0.94542223,-4.115649,-5.6965017
365,1778590995.3039446,-2.7312446,-1.7703912,0.2550398,0.27164245,-1.6064188,-8.628642
366,1778590995.3245928,-2.8369215,-1.6464102,0.39488465,0.77924097,-0.5837649,-8.15673
367,1778590995.3457646,-2.9120913,-1.6354275,0.41343296,0.77924097,-0.5837649,-8.15673
368,1778590995.3667116,-2.9120913,-1.6354275,0.41343296,0.77924097,-0.5837649,-8.15673
369,1778590995.3873587,-2.9120913,-1.6354275,0.41343296,0.77924097,-0.5837649,-8.15673
370,1778590995.4085088,-2.723923,-1.5426859,0.43320164,1.3534185,-1.5558188,-8.110924
371,1778590995.427515,-2.723923,-1.5426859,0.43320164,1.3534185,-1.5558188,-8.110924
372,1778590995.448136,-2.6360621,-1.432616,0.24869433,0.71798825,-2.4058998,-7.8541946
373,1778590995.4699147,-2.6360621,-1.432616,0.24869433,0.71798825,-2.4058998,-7.8541946
374,1778590995.4899921,-2.6360621,-1.432616,0.24869433,0.71798825,-2.4058998,-7.8541946
375,1778590995.5117512,-2.4103093,-0.9808661,-0.34704942,-0.44315,-2.1513016,-7.2054486
376,1778590995.532683,-2.442525,-0.9266854,-0.45370242,-1.8200043,-2.6290727,-6.9476547
377,1778590995.553979,-2.442525,-0.9266854,-0.45370242,-1.8200043,-2.6290727,-6.9476547
378,1778590995.5744648,-2.442525,-0.9266854,-0.45370242,-1.8200043,-2.6290727,-6.9476547
379,1778590995.5955634,-2.442525,-0.9266854,-0.45370242,-1.8200043,-2.6290727,-6.9476547
380,1778590995.6162395,-3.9163866,-0.86201024,2.7698057,-10.488594,-5.452556,-5.2885056
381,1778590995.6399758,-4.7090845,-0.6142921,3.3880029,-6.4166203,-0.59122175,-4.9273806
382,1778590995.6631377,-6.9685664,0.571338,3.6435308,1.2159994,5.374259,-3.8812912
383,1778590995.6796854,-6.9685664,0.571338,3.6435308,1.2159994,5.374259,-3.8812912
384,1778590995.7024066,-4.8521023,0.017816179,0.047347106,-2.1513016,-2.288188,3.0434606
385,1778590995.7221193,-4.555084,-0.16522676,0.6518769,-2.1513016,-2.288188,3.0434606
386,1778590995.7404175,-3.2552357,-0.63186425,1.6788697,-0.60773337,-2.781938,4.5364285
387,1778590995.7615201,-3.0682876,-0.71093875,1.4843562,-0.60773337,-2.781938,4.5364285
388,1778590995.7821105,-3.0682876,-0.71093875,1.4843562,-0.60773337,-2.781938,4.5364285
389,1778590995.8033786,-2.1813836,-0.8551766,0.78415596,0.27856666,-3.9302933,5.956426
390,1778590995.8235898,-2.0500808,-0.9930689,0.72558224,0.8016115,-4.6557384,6.1108894
391,1778590995.8451364,-1.9951681,-1.1807489,0.6133158,1.8008295,-4.396879,6.344715
392,1778590995.8663638,-1.9353739,-1.3447554,0.5474204,1.8008295,-4.396879,6.344715
393,1778590995.8877401,-1.9353739,-1.3447554,0.5474204,1.8008295,-4.396879,6.344715
394,1778590995.9071653,-2.2804708,-1.83287,0.2767609,4.1353564,-0.7840346,7.7476683
395,1778590995.928641,-2.4212918,-1.8323817,0.32532832,4.108725,-0.025033714,8.069378
396,1778590995.9487119,-2.937961,-1.9753993,0.17669745,3.926032,-0.24980451,8.942363
397,1778590995.9701562,-2.937961,-1.9753993,0.17669745,3.926032,-0.24980451,8.942363
398,1778590995.9899347,-2.937961,-1.9753993,0.17669745,3.926032,-0.24980451,8.942363
399,1778590996.0104744,-2.387368,-2.0835168,0.030507157,2.7451866,-0.34248254,10.216951
400,1778590996.0288737,-1.9893107,-2.0857131,0.014643434,2.7451866,-0.34248254,10.216951
401,1778590996.049797,-0.6067263,-2.5252602,-0.17084008,2.2338595,-0.66525763,10.600447
402,1778590996.0706801,-0.6067263,-2.5252602,-0.17084008,2.2338595,-0.66525763,10.600447
403,1778590996.0921607,-0.6067263,-2.5252602,-0.17084008,2.2338595,-0.66525763,10.600447
404,1778590996.1141968,3.6916099,-2.8335047,-1.0245523,0.10759171,-3.139867,4.03895
405,1778590996.1363733,3.3487096,-2.852297,-0.6828722,-1.0386329,-2.543319,0.7536746
406,1778590996.1574678,2.9272225,-2.9311275,-0.4698102,-0.46179214,-0.8969527,-0.948618
407,1778590996.1772509,2.9272225,-2.9311275,-0.4698102,-0.46179214,-0.8969527,-0.948618
408,1778590996.198862,2.9272225,-2.9311275,-0.4698102,-0.46179214,-0.8969527,-0.948618
409,1778590996.2173233,1.4863087,-2.4051843,-0.5850052,1.0391655,0.084155895,-5.4536214
410,1778590996.237748,0.8105141,-2.2646072,-0.55791485,0.8490158,-0.2082592,-7.0520506
411,1778590996.2588959,-1.2732466,-1.9143851,-0.071020655,-0.05006743,0.015978966,-7.7849526
412,1778590996.2792847,-1.2732466,-1.9143851,-0.071020655,-0.05006743,0.015978966,-7.7849526
413,1778590996.3013713,-1.2732466,-1.9143851,-0.071020655,-0.05006743,0.015978966,-7.7849526
414,1778590996.320768,-2.9765222,-1.249085,0.759018,1.2634037,0.10865697,-7.594803
415,1778590996.3424597,-2.6997612,-1.3359693,0.80392456,1.6602147,-0.36591834,-7.180415
416,1778590996.3645833,-2.4344711,-1.3327967,0.8002637,2.0873857,-1.0860372,-7.1782846
417,1778590996.385796,-2.4344711,-1.3327967,0.8002637,2.0873857,-1.0860372,-7.1782846
418,1778590996.4064045,-2.4344711,-1.3327967,0.8002637,2.0873857,-1.0860372,-7.1782846
419,1778590996.4271238,-2.114512,-1.1636649,0.14472595,0.49801114,-2.5987127,-7.102118
420,1778590996.4491765,-1.7928444,-1.1024066,0.21037734,-0.3616573,-2.6913908,-7.2549834
421,1778590996.4688993,-1.9351299,-1.1409676,0.13740423,-1.0668623,-2.795254,-7.406251
422,1778590996.488843,-1.9351299,-1.1409676,0.13740423,-1.0668623,-2.795254,-7.406251
423,1778590996.5108945,-1.9351299,-1.1409676,0.13740423,-1.0668623,-2.795254,-7.406251
424,1778590996.5306613,-2.5140338,-0.084931925,-0.39634898,-4.1662493,-4.391553,-6.482667
425,1778590996.5520494,-3.2127695,-0.27139166,-0.26236153,-6.830476,-4.755873,-6.285593
426,1778590996.5731986,-3.9034517,-0.17645338,0.5464442,-7.1814804,-0.87618,-5.293832
427,1778590996.594236,-3.9034517,-0.17645338,0.5464442,-7.1814804,-0.87618,-5.293832
428,1778590996.615024,-3.9034517,-0.17645338,0.5464442,-7.1814804,-0.87618,-5.293832
429,1778590996.6374464,-6.934887,3.0021482,-0.4837215,3.3380063,1.3076121,-2.4921863
430,1778590996.6585526,-6.934887,3.0021482,-0.4837215,3.516438,1.4732608,-0.018109497
431,1778590996.6783314,-6.0540843,2.425929,-1.6678872,-0.4000068,0.3121225,2.2828617
432,1778590996.6992462,-6.0540843,2.425929,-1.6678872,-0.4000068,0.3121225,2.2828617
433,1778590996.7209332,-6.0540843,2.425929,-1.6678872,-0.4000068,0.3121225,2.2828617
434,1778590996.7406006,-2.7090356,-0.4588276,1.8082201,-0.78989357,-3.568636,4.9492188
435,1778590996.762132,-2.4881637,-0.5640163,1.2935034,0.561927,-3.4882085,5.382249
436,1778590996.7819345,-2.3805344,-0.7839119,0.80123997,1.0482203,-3.8717036,5.5015583
437,1778590996.8030539,-2.3556406,-0.9386441,0.7365648,1.788579,-3.6778255,5.830725
438,1778590996.824422,-2.3419733,-1.1629328,0.59110665,3.0003173,-3.097789,6.4480457
439,1778590996.8442335,-2.3429496,-1.3767269,0.3968371,3.994209,-2.3515713,7.0967917
440,1778590996.867909,-2.447406,-1.58564,0.029286869,4.290353,-1.7928401,7.8818917
441,1778590996.8883812,-1.9634405,-1.8377512,-0.09786696,3.6069853,-1.8913771,8.212656
442,1778590996.9063394,-1.8170061,-1.8426323,-0.07175283,2.7031085,-2.5726137,7.9575253
443,1778590996.928276,-1.517548,-1.8526386,-0.12154051,2.0991037,-3.4376085,7.4350133
444,1778590996.9487476,-1.6595892,-1.6810663,-0.27505252,1.3928332,-3.7854173,7.038735
445,1778590996.96971,-1.7179189,-1.6093135,-0.13618395,0.74089146,-3.310842,6.857107
446,1778590996.9894023,-1.7140139,-1.5458585,0.4131889,0.77125144,-2.4570324,6.882141
447,1778590997.0105214,-1.7140139,-1.5458585,0.4131889,0.77125144,-2.4570324,6.882141
448,1778590997.029145,-0.8598137,-1.4472594,0.86567104,3.0786142,-0.5613944,6.698383
449,1778590997.0502162,0.18231077,-1.705228,-0.10470056,4.6903596,-0.20133498,6.5817366
450,1778590997.073571,0.18231077,-1.705228,-0.10470056,4.6903596,-0.20133498,6.5817366
451,1778590997.0950267,3.6035051,-2.694392,-1.2664131,4.317517,1.4455639,5.1233892
452,1778590997.1155527,3.7567732,-2.8215458,-1.1790406,2.7105653,0.9667275,2.3068302
453,1778590997.136946,4.0384154,-3.0595016,-0.7241178,1.3156016,-0.47297743,-0.6775082
454,1778590997.155418,3.636209,-2.9731054,-0.46590528,1.1563445,-1.1819109,-3.3619747
455,1778590997.1754587,3.3443165,-2.946747,-0.5379022,1.7401094,-1.4327807,-5.6517606
456,1778590997.198069,1.1036268,-2.79592,-1.0277251,1.7241305,-1.5403724,-7.850999
457,1778590997.2172072,0.35144243,-2.7185535,-1.0289453,0.6625945,-1.6378441,-9.319466
458,1778590997.2376664,-2.4744964,-2.4322746,-0.076633975,-0.70467246,0.3930826,-10.045977
459,1778590997.2587006,-3.0843954,-2.1484358,0.35607952,-0.70467246,0.3930826,-10.045977
460,1778590997.2796965,-3.3084402,-1.9900427,0.460536,0.18429075,1.7736653,-9.511746
461,1778590997.3012083,-3.3155177,-1.7315861,0.6980037,0.9507485,1.8322549,-8.753278
462,1778590997.3219182,-2.757603,-1.7596527,0.62503064,1.1893678,-1.0721886,-8.319182
463,1778590997.3428597,-2.4435012,-1.7440331,0.35510328,1.1685951,-1.4343786,-8.407599
464,1778590997.3642983,-2.472544,-1.6556844,0.20818083,0.8522116,-1.1424961,-8.374043
465,1778590997.386007,-2.7827406,-1.1397473,0.25406358,0.43888897,-0.80800307,-7.9836245
466,1778590997.4062245,-2.737102,-1.0077124,0.30970863,-0.1107875,-1.0540792,-7.334346
467,1778590997.426962,-2.6612,-0.89032084,0.34290043,-0.1107875,-1.0540792,-7.334346
468,1778590997.447806,-2.3724804,-0.50763905,0.27895743,-1.3592775,-2.128931,-5.899967
469,1778590997.4698784,-2.050325,-0.16595893,0.07980672,-1.9137475,-2.2972429,-5.50795
470,1778590997.4892797,-2.2560651,-0.09664667,-0.183287,-3.3257556,-3.1558459,-5.3944993
471,1778590997.5094545,-2.2809591,-0.14179726,0.2608972,-5.264004,-3.5478632,-4.9438925
472,1778590997.5299497,-3.4726906,0.1867038,0.70410514,-5.7391124,-2.9917953,-4.7249804
473,1778590997.5520282,-4.582175,0.32117933,0.9303462,-4.619519,-1.1361046,-4.0149817
474,1778590997.5734456,-5.024163,0.44467232,1.1265682,-2.2791333,1.8295918,-2.850115
475,1778590997.595532,-7.331968,1.7313421,0.9989263,0.4958806,2.5023062,-1.8951055
476,1778590997.6163986,-6.3796563,1.0506665,-0.08542004,0.479369,-0.773382,0.6860303
477,1778590997.6390355,-4.650999,0.0056133163,0.047347106,-3.2586439,-4.640825,3.4466631
478,1778590997.6602833,-3.418022,-0.6867771,0.7004443,-4.125769,-5.2155347,3.7433393
479,1778590997.6797802,-3.1517553,-0.8437059,1.1016744,-4.125769,-5.2155347,3.7433393
480,1778590997.6997876,-2.5982335,-1.0003906,1.752575,-3.430684,-5.3082128,3.9649143
