id,timestamp,acc_x,acc_y,acc_z,gyro_x,gyro_y,gyro_z
1,1778591097.834082,-1.1268123,-1.7796655,1.4089426,-1.3432984,0.50333744,-0.09161274
2,1778591097.8963149,-0.31751847,-0.869576,0.34168017,-2.2786007,-0.12836437,-0.45007423
3,1778591097.9591014,0.1181237,0.1210524,0.007565775,-1.3986923,-2.1470406,-0.7036072
4,1778591098.0215015,0.14252943,0.037828874,0.010494461,-0.077231675,-0.535828,-1.1883025
5,1778591098.0842278,-0.051740136,-0.19719826,0.054912884,0.47404268,-0.15233281,-1.4466292
6,1778591098.1475327,-0.021721095,-0.091033354,-0.029774986,0.49055427,0.13262543,-1.6740631
7,1778591098.2102218,-0.5352176,-0.7682922,2.1716213,-0.2657835,0.23489082,-2.275405
8,1778591098.2712595,-1.0733638,-3.832431,-0.48689422,-1.6165388,-0.92305166,0.18322548
9,1778591098.3347554,0.28164205,-2.4586327,0.52252656,0.056459017,1.1158645,0.49002165
10,1778591098.4008296,0.013179091,-0.60941094,0.23917611,-0.051665325,-0.95447695,0.20399815
11,1778591098.460808,0.119343996,0.119099945,-0.06589546,0.46392268,0.4841627,0.98590225
12,1778591098.5231533,0.4127008,0.41562948,-0.05588911,1.0823087,0.29134983,1.0444918
13,1778591098.5857716,-0.23575929,0.7687803,-0.11299851,0.85540736,-0.69668293,0.52624065
14,1778591098.6478174,-0.33704305,-0.27895743,0.89813066,1.2410331,1.834918,0.6828345
15,1778591098.711781,-0.5952556,-3.5873976,2.5123253,2.463424,0.9443569,2.886334
16,1778591098.773817,-0.45321432,-1.9109682,1.4501882,0.4165184,0.40906155,-0.6759103
17,1778591098.8354278,-0.6672525,-1.854835,1.048714,-2.1667478,0.0644485,0.1965413
18,1778591098.8975985,-0.17987019,-0.6128277,0.26651052,-2.5166874,0.39947417,-0.6823019
19,1778591098.960452,0.14789869,0.09176553,0.08005078,-1.4881744,-1.2074772,-0.5550028
20,1778591099.0240865,-0.004881145,-0.02757847,0.14887492,0.34674358,-0.5075985,-1.4024206
21,1778591099.0867167,0.0051252022,-0.08908089,-0.10543273,0.9555422,-0.73769563,-1.5499598
22,1778591099.1493611,-0.020744866,-0.044662476,-0.08639627,0.47031426,-1.2415657,-1.555286
23,1778591099.209906,0.018792408,-0.9408407,2.2323916,-1.2580773,7.1175647,-0.77870834
24,1778591099.2739556,-0.7053254,-6.5312157,1.334505,-3.762514,-4.7116647,1.3592775
25,1778591099.3344402,0.16888762,-1.0750722,0.3682824,-0.1555286,-0.13954964,0.29880667
26,1778591099.3986497,0.16742326,-0.062478654,0.11275445,-0.007989483,0.9534117,0.096939065
27,1778591099.4603143,0.03465613,0.29091623,0.16693515,0.13475595,0.85487473,0.59761333
28,1778591099.5227234,0.22111587,0.41221267,-0.07614586,0.9779128,0.50333744,0.97897804
29,1778591099.5854518,0.13911264,0.06833603,-0.68702114,0.88949585,-0.0314253,0.27217507
30,1778591099.6474352,-1.053107,-1.4267586,1.4487238,3.4653053,3.8035266,0.4314321
31,1778591099.7098677,0.47688788,-2.8752384,1.1497537,0.6631271,-2.3222766,6.376673
32,1778591099.773069,-1.5419537,-1.5917413,0.9650024,-0.8127968,2.1885858,-0.7275756
33,1778591099.834856,-0.4927516,-1.198077,0.21013328,-2.6226811,-0.38935417,-1.4189322
34,1778591099.8978977,-0.09884319,0.021965152,0.20256752,-1.2879047,-3.0333405,-1.0966897
35,1778591099.9594915,0.04905551,0.08005078,-0.050763905,0.13156016,-1.7092168,-0.6695187
36,1778591100.0233974,0.10884953,-0.054912884,0.15204766,0.97897804,0.6743124,-0.5917544
37,1778591100.0849543,0.07980672,0.041733786,-0.0026846298,1.0892329,0.57311225,-1.000816
38,1778591100.147167,-0.055400997,-0.046858992,-0.05906185,0.076166406,-1.4610102,-1.7390442
39,1778591100.209951,-0.281398,-1.7926004,0.84517026,-1.6884441,1.4833808,-1.0343717
40,1778591100.2771258,0.032215554,-2.8874412,0.57280236,0.5123922,1.871137,1.9931098
41,1778591100.321058,0.4554108,-0.66017485,0.102504045,-0.13741912,-2.3489082,0.39574575
42,1778591100.3845828,0.04271002,0.18011424,0.033923957,0.4575311,0.80107886,-0.46978164
43,1778591100.447969,0.08346757,0.30287504,0.018304294,0.78723043,0.2908172,0.294013
44,1778591100.508208,-0.42514774,0.59794027,0.2591888,-0.12037488,1.4855113,-0.3153183
45,1778591100.5731156,0.013911263,-0.004881145,-0.15912533,1.0519487,0.69721556,0.31798145
46,1778591100.6353867,-1.6693515,-1.547811,0.26943922,4.201403,5.2118063,1.0365024
47,1778591100.6773715,0.21940747,-3.86123,1.4816716,1.8967034,-3.0700922,4.8368335
48,1778591100.7402337,-1.1334019,-1.193928,1.2759314,-0.38722363,3.6836846,-0.4564658
49,1778591100.8027718,-0.5874458,-1.7952851,0.677747,-2.6732812,-0.5747102,0.5251754
50,1778591100.8649337,0.06760386,0.07492557,0.17059602,-1.4210628,-1.6714,-1.4658039
51,1778591100.9266965,0.011958805,0.06833603,-0.040269446,0.2130529,-1.1813782,-1.3363743
52,1778591100.994508,-0.054424766,-0.052472305,0.0,1.2687299,-1.25861,-1.2197278
53,1778591101.0420623,-0.09225364,-0.04368625,-0.12154051,1.6341157,-1.2239889,-1.4828482
54,1778591101.0975175,-0.054912884,0.20915705,-0.37023485,0.032490566,-0.53742594,-1.5792545
55,1778591101.1621995,0.13545178,-0.9525554,-0.21794313,-1.2644689,-1.2362394,-0.73130405
56,1778591101.2246933,-0.5779276,-6.44604,1.0135698,-0.2775014,1.1467572,1.8769959
57,1778591101.2851582,0.32606047,-1.1089962,0.3277689,0.00479369,-1.7619474,-0.0793622
58,1778591101.351894,0.04637088,0.06833603,0.14594623,-0.20399815,0.7206514,-0.39468047
59,1778591101.4149942,0.13740423,0.29140437,0.04759116,0.4660532,-0.111852765,0.624245
60,1778591101.479051,0.1552204,0.3443648,-0.16058967,0.31638354,0.22743396,0.5123922
61,1778591101.542277,-0.38341394,0.1901206,-0.21916342,1.2378373,0.87351686,0.7286409
62,1778591101.60524,-1.5746574,-1.6591012,1.0155222,1.9164108,1.0934939,2.4453146
63,1778591101.6685479,0.5171573,-3.005809,1.3845367,0.91985583,-0.99229383,3.2794166
64,1778591101.7294385,-0.8856837,-1.8506861,1.3384099,-1.0812434,1.3417006,-0.24394555
65,1778591101.791367,-0.15009521,-0.65163285,0.23380683,-2.2498386,0.3392867,-0.71798825
66,1778591101.858662,0.14960709,0.102748096,-0.03172744,-1.536644,-1.5781893,-0.39840892
67,1778591101.9183285,-0.067359805,-0.06199054,0.15448824,0.25033715,-1.1222562,-1.1883025
68,1778591101.981353,-0.19304928,-0.21232979,0.033679903,1.3028184,0.29028457,-0.8479505
69,1778591102.0452948,-0.05051985,-0.011226633,-0.02391761,0.7206514,-1.1147993,-0.6599313
70,1778591102.1040442,-0.19573392,-0.7987994,1.2874019,0.37071204,7.6821547,-0.51984906
71,1778591102.1659455,-0.94669807,-3.926149,-0.96768695,-4.507134,-6.4666877,0.37763625
72,1778591102.2303772,0.40440285,-1.6908286,0.10323621,0.34993938,-0.36645097,0.4596616
73,1778591102.2928364,0.21525851,-0.15936938,0.0014643435,-0.08468852,-1.0902982,-0.2775014
74,1778591102.354281,-0.009274175,0.2801777,0.13325526,-0.06338324,0.66206187,-0.032490566
75,1778591102.4159782,0.053936653,0.39927766,0.0707766,0.8974853,1.0167949,0.28708878
76,1778591102.4848723,-0.31263736,0.42002252,0.053692598,0.6359629,0.63862604,0.19014971
77,1778591102.5429206,0.3121492,-0.08005078,0.08029483,1.1536814,-0.18535602,-0.10705908
78,1778591102.6065738,-1.5700202,-3.3967886,2.268024,-0.8591358,-1.5382419,4.483698
79,1778591102.6690466,-0.99038434,-2.2997513,0.9589009,-0.515588,1.8679413,-0.88949585
80,1778591102.731999,-0.77829856,-1.5443943,0.6037976,-1.7630126,-0.12197278,-0.96992326
81,1778591102.7935812,-0.1666911,-0.3141017,0.16547081,-1.8716697,-2.2130868,-1.9867182
82,1778591102.856012,0.09005712,0.24845028,-0.10030753,-0.9033443,-3.0754185,-1.4716629
83,1778591102.9187222,0.028798755,-0.034168016,0.06369894,0.86179894,-0.96566224,-1.1899004
84,1778591102.9815495,0.004148973,0.026602242,-0.020988923,0.9353022,-0.3787015,-1.2069446
85,1778591103.0441043,-0.11836776,-0.0134231495,-0.18133454,0.8745821,-0.69029135,-1.6122777
86,1778591103.1061575,-0.33045352,-1.7445213,2.506956,-0.8383631,6.783604,-1.0508834
87,1778591103.1689377,-1.1751356,-5.5274086,0.34973404,-2.8490498,-8.881642,3.0466564
88,1778591103.2267027,0.18231077,-0.8161274,0.30336314,-0.4261058,-2.6312032,-0.5209143
89,1778591103.2883878,0.0026846298,0.15741692,0.028066583,0.056991648,-0.737163,-0.12357068
90,1778591103.3512566,0.21062139,0.33362624,-0.21477039,0.32011196,1.3859091,0.5182512
91,1778591103.4132504,-0.088348724,0.8254016,0.10982577,0.8591358,2.2397184,0.45593318
92,1778591103.4757223,0.17987019,0.0034168016,0.025137896,0.88203895,0.29561087,-0.034621093
93,1778591103.5381153,-0.86225426,-1.0662861,0.5181335,1.1813782,3.2911346,0.20399815
94,1778591103.602836,-1.4731296,-4.019623,1.7457415,1.6618125,0.41918156,4.836301
95,1778591103.6669693,-1.4487238,-2.063504,0.97744924,-0.087884314,2.7851338,2.2338595
96,1778591103.729297,-0.32898918,-1.0714114,0.520086,-2.495382,-0.89855057,-2.2482407
97,1778591103.789904,-0.1415532,-0.29091623,0.32215557,-1.2900352,-1.526524,-2.0431771
98,1778591103.8524575,-0.0051252022,0.07004443,-0.17938207,-0.34461305,-2.786199,-1.6804547
99,1778591103.9127545,-0.15229172,-0.088104665,0.111046046,1.0860372,0.5219796,-0.8175905
100,1778591103.9753578,0.04612682,0.004148973,0.08566409,1.5574167,1.4189322,-0.5725796
101,1778591104.0376635,-0.030507157,-0.008297946,-0.0707766,0.47830373,-1.6239957,-1.484446
102,1778591104.0988472,-0.19939478,-2.3605218,1.0055158,-0.4543353,-2.0293288,-0.07829694
103,1778591104.1619813,0.012935034,-3.6686685,0.9642702,1.0215886,3.7593184,1.1973573
104,1778591104.223915,0.36047253,-1.0628693,0.18694785,-1.1936288,-1.6458336,-0.3472762
105,1778591104.2866366,0.1849954,-0.45467865,0.33094162,-0.8878979,-0.69029135,-0.96299905
106,1778591104.3493245,0.1849954,-0.45467865,0.33094162,-0.8878979,-0.69029135,-0.96299905
107,1778591104.4114013,-0.020988923,0.2511349,0.1615659,1.3102753,0.9997507,0.34834146
108,1778591104.4771159,-0.20500809,0.043198135,-0.3521746,0.48629323,-0.5656554,0.58429754
109,1778591104.5394635,-0.20500809,0.043198135,-0.3521746,0.48629323,-0.5656554,0.58429754
110,1778591104.6020598,-0.41123646,-3.2300978,1.3777032,0.024501082,-1.5297197,4.0224385
111,1778591104.665249,-0.6242984,-2.4657104,1.211012,-0.8815063,2.2413163,-0.3787015
112,1778591104.726865,-0.5759751,-0.91423845,0.36266908,-1.2229236,-0.8383631,-0.82824314
113,1778591104.7891133,-0.4368625,-0.7136234,0.25528386,-1.2229236,-0.8383631,-0.82824314
114,1778591104.8518496,-0.4368625,-0.7136234,0.25528386,-1.2229236,-0.8383631,-0.82824314
115,1778591104.914151,-0.21525851,-0.19109683,0.08590815,0.62051654,0.24394555,-1.3177321
116,1778591104.9771078,-0.013667206,-0.08786061,0.0039049159,0.6892261,-1.3763217,-0.7323693
117,1778591105.0370655,-0.026602242,-0.044418417,-0.099819414,0.561927,-1.1307782,-1.2575446
118,1778591105.0997436,0.088836834,-1.00576,1.0977695,1.5430355,6.4847975,-0.26045716
119,1778591105.1620607,0.088836834,-1.00576,1.0977695,1.5430355,6.4847975,-0.26045716
120,1778591105.224405,0.13618395,-0.84785485,0.34778157,-0.65673554,-0.7089335,-0.14434333
121,1778591105.2870603,0.025381953,0.03294773,0.021477038,-0.19014971,0.99548966,-0.24607609
122,1778591105.3492434,0.17132819,0.3380193,0.15033926,-0.0053263223,1.0604708,0.35420042
123,1778591105.4121542,-0.50641876,0.0959145,-0.053936653,0.96086854,0.819721,0.53316486
124,1778591105.4749043,-0.107385196,0.07150877,0.026602242,0.65726817,0.9235843,-0.12144015
125,1778591105.5372293,-0.7219213,-0.93888825,0.4742032,2.4005735,3.2618399,1.2463595
126,1778591105.6012921,-0.9096014,-2.583102,2.220433,1.1515509,1.7939054,-0.19600865
127,1778591105.6640134,-1.5612342,-1.6703278,0.7070338,-0.97045594,0.6988135,-0.09161274
128,1778591105.7241602,-0.04807928,-1.3042419,0.4058672,-3.1329427,-0.71159667,-0.19387813
129,1778591105.7867072,0.08932495,0.183287,0.08615221,-2.0852551,-0.8495484,-1.0966897
130,1778591105.8522685,-0.3692586,-0.16986385,0.38341394,0.7568704,-0.8149273,-0.5107943
131,1778591105.9140484,0.04368625,-0.16254212,-0.12715383,2.4442494,0.44368264,0.31265512
132,1778591105.9757173,0.097134784,-0.0026846298,-0.10665302,0.5113269,-2.0069582,-0.35792887
133,1778591106.0382874,-0.05832968,-0.19890666,-0.073949344,-0.46711847,-2.0474384,-1.1025487
134,1778591106.1010876,-0.8070973,-4.3088307,-0.5786598,-1.6341157,2.5076325,-1.1899004
135,1778591106.163551,0.043930303,-2.4676628,0.25870067,0.9187906,1.8556907,1.3837786
136,1778591106.2261403,0.30507156,-0.7465711,0.24845028,-0.18269286,-1.808819,0.11132014
137,1778591106.2883205,-0.026358182,0.24552159,-0.0741934,0.49641323,0.29667616,-0.08042747
138,1778591106.3517175,0.18645974,0.41904628,0.08419975,0.7952199,0.12037488,0.18162759
139,1778591106.4132693,-0.09542638,0.447601,-0.065407336,0.6860303,0.43888897,0.46392268
140,1778591106.4768736,0.031483386,-0.03807293,-0.08590815,1.7305222,0.83889574,0.28442562
141,1778591106.538738,-1.3567142,-2.3192759,2.3136628,3.5350802,3.3316145,1.0407634
142,1778591106.6017184,0.047103047,-3.18812,0.9650024,0.0015978967,-0.13209279,1.7235979
143,1778591106.6629238,-0.7268025,-1.7445213,0.76194674,-2.1821942,-0.51771855,0.47617322
144,1778591106.7258437,-0.05759751,-0.26651052,0.13935669,-2.0026972,-0.7238472,-0.79628515
145,1778591106.7877579,0.2438132,0.25845662,-0.0622346,-1.2905679,-2.7659593,-1.081776
146,1778591106.8516133,0.048323333,0.08102701,0.034168016,0.29880667,-0.6066681,-1.6447684
147,1778591106.9132862,-0.10470056,-0.059549972,-0.030019043,1.2644689,0.112918034,-1.6442357
148,1778591106.9756866,-0.047347106,-0.047103047,-0.13935669,0.11771172,0.29134983,-1.7656758
149,1778591107.040151,0.15424417,-0.97134787,0.45516676,0.40852892,1.965413,-0.6295713
150,1778591107.1018665,-1.2549424,-6.944161,1.8296971,-5.2075453,-5.643771,0.9086706
151,1778591107.1622608,0.23844394,-1.2739788,0.54888475,0.05752428,-0.84848315,0.0058589545
152,1778591107.2250717,0.19890666,0.25699228,-0.032703668,0.20772657,0.00479369,-0.39840892
153,1778591107.287036,0.18109047,0.3402158,-0.13569583,0.7078682,0.8516789,0.2615224
154,1778591107.3499053,-0.16717921,0.58158845,0.017816179,-0.18535602,0.7041398,0.041545313
155,1778591107.4114933,-0.23575929,-0.12739788,0.020256752,0.8681905,1.4887071,0.5944176
156,1778591107.4795535,-0.7236297,-2.852053,1.6185876,3.7539918,1.8152106,2.004295
157,1778591107.539987,-0.47542354,-2.1142678,0.95743656,0.24607609,0.76912093,0.05486112
158,1778591107.602617,-1.1146095,-1.9256116,1.1292529,-2.2311964,0.8857674,0.97471696
159,1778591107.6652927,0.11495096,-1.1558552,0.28676724,-2.1646173,-0.7073356,0.61199445
160,1778591107.7253156,0.13862452,0.18011424,0.08444381,-1.4168017,-2.6114957,-1.6367788
