id,timestamp,acc_x,acc_y,acc_z,gyro_x,gyro_y,gyro_z
1,1778588181.7311933,0.33362624,-1.2722704,0.85175985,4.5843654,5.946839,-0.05912218
2,1778588181.752151,-0.11983211,-0.6723777,-0.5632841,-3.4045851,-3.0024478,-0.7984157
3,1778588181.7728913,-0.11983211,-0.6723777,-0.5632841,-3.4045851,-3.0024478,-0.7984157
4,1778588181.793476,-0.11983211,-0.6723777,-0.5632841,-3.4045851,-3.0024478,-0.7984157
5,1778588181.8140461,-0.11983211,-0.6723777,-0.5632841,-3.4045851,-3.0024478,-0.7984157
6,1778588181.8348138,-0.11983211,-0.6723777,-0.5632841,-3.4045851,-3.0024478,-0.7984157
7,1778588181.855971,-0.11983211,-0.6723777,-0.5632841,-3.4045851,-3.0024478,-0.7984157
8,1778588181.8768783,2.584566,-1.6449459,0.5620638,-3.9127164,-3.7188382,1.2149341
9,1778588181.8981252,2.584566,-1.6449459,0.5620638,-3.9127164,-3.7188382,1.2149341
10,1778588181.9185987,2.584566,-1.6449459,0.5620638,-3.9127164,-3.7188382,1.2149341
11,1778588181.9392097,2.584566,-1.6449459,0.5620638,-3.9127164,-3.7188382,1.2149341
12,1778588181.9599981,0.15912533,-0.9344952,0.09640261,-1.6719326,1.6873789,1.3853765
13,1778588181.9808671,0.15912533,-0.9344952,0.09640261,-1.6719326,1.6873789,1.3853765
14,1778588182.0015554,0.15912533,-0.9344952,0.09640261,-1.6719326,1.6873789,1.3853765
15,1778588182.02233,0.15912533,-0.9344952,0.09640261,-1.6719326,1.6873789,1.3853765
16,1778588182.0430224,0.15912533,-0.9344952,0.09640261,-1.6719326,1.6873789,1.3853765
17,1778588182.0641046,0.15912533,-0.9344952,0.09640261,-1.6719326,1.6873789,1.3853765
18,1778588182.0849552,-0.037584815,-0.0993313,-0.21159762,2.660498,2.5177526,-2.194445
19,1778588182.1059754,-0.037584815,-0.0993313,-0.21159762,2.660498,2.5177526,-2.194445
20,1778588182.12687,-0.037584815,-0.0993313,-0.21159762,2.660498,2.5177526,-2.194445
21,1778588182.1488242,1.040416,-3.6393816,0.4888467,4.714328,5.873868,-1.9483687
22,1778588182.1677852,1.2651927,-5.6894627,2.06326,1.8727349,5.302354,-2.3377228
23,1778588182.1881812,0.04637088,-3.4805005,0.95719254,3.5404065,-2.0266657,-0.96779275
24,1778588182.2100563,0.09835507,-2.6048229,0.050763905,3.5404065,-2.0266657,-0.96779275
25,1778588182.229773,0.09835507,-2.6048229,0.050763905,3.5404065,-2.0266657,-0.96779275
26,1778588182.250528,0.9886759,-0.5379022,-0.4702983,1.063134,3.647998,-0.56725335
27,1778588182.271256,0.36144876,-0.375116,-0.047347106,-0.28708878,3.178749,-1.3310479
28,1778588182.2925143,-0.4685899,0.03904916,0.12715383,-0.8431568,0.3371562,-0.7275756
29,1778588182.3130436,-0.4685899,0.03904916,0.12715383,-0.8431568,0.3371562,-0.7275756
30,1778588182.3336027,-0.4685899,0.03904916,0.12715383,-0.8431568,0.3371562,-0.7275756
31,1778588182.3553443,-0.29140437,0.68653303,-0.92448884,-2.2210765,-1.3102753,1.9547603
32,1778588182.375043,-0.03734076,0.23161033,-0.8095379,-2.2668827,-2.3457124,2.2887206
33,1778588182.397055,0.056133166,0.088348724,-0.511788,-1.845038,-2.676477,2.1784658
34,1778588182.417241,0.056133166,0.088348724,-0.511788,-1.845038,-2.676477,2.1784658
35,1778588182.4378405,0.056133166,0.088348724,-0.511788,-1.845038,-2.676477,2.1784658
36,1778588182.4585242,-0.041245673,-0.3287451,-1.8106607,2.694054,-0.7914915,-0.75154406
37,1778588182.480529,-0.10006347,-0.4502856,-0.9088692,-1.1579424,-1.5089471,-0.5811018
38,1778588182.5013387,-0.15277983,-0.53936654,-0.66969305,-2.065015,0.1949434,-0.7121293
39,1778588182.5222178,-0.15277983,-0.53936654,-0.66969305,-2.065015,0.1949434,-0.7121293
40,1778588182.5429375,-0.15277983,-0.53936654,-0.66969305,-2.065015,0.1949434,-0.7121293
41,1778588182.5644836,-0.358032,-2.877191,-0.7053254,-3.649596,-1.6884441,2.2503712
42,1778588182.5844448,-0.358032,-2.877191,-0.7053254,-3.649596,-1.6884441,2.2503712
43,1778588182.6055753,1.9817449,-3.5119839,1.7845466,-4.3382893,2.5790052,1.6468989
44,1778588182.626136,1.9817449,-3.5119839,1.7845466,-4.3382893,2.5790052,1.6468989
45,1778588182.647008,1.9817449,-3.5119839,1.7845466,-4.3382893,2.5790052,1.6468989
46,1778588182.6674833,-0.4170938,-0.8151512,1.1702545,-2.654639,-3.0961912,-0.88683265
47,1778588182.688878,-0.2328306,-0.82125264,0.6284474,-1.1574098,0.88044107,1.6719326
48,1778588182.709167,-0.02318544,-0.88007045,0.46248847,-1.1574098,0.88044107,1.6719326
49,1778588182.7302253,-0.02318544,-0.88007045,0.46248847,-1.1574098,0.88044107,1.6719326
50,1778588182.75108,-0.02318544,-0.88007045,0.46248847,-1.1574098,0.88044107,1.6719326
51,1778588182.7722404,0.5859815,-0.5942794,0.4612682,2.3036344,-0.9779128,0.17097494
52,1778588182.7930384,0.41929033,-0.4024504,0.21940747,3.125486,-0.81226414,-0.727043
53,1778588182.8137803,0.3162982,-0.09322987,-0.045638707,3.097789,-0.58269966,-1.3688648
54,1778588182.8343616,0.3162982,-0.09322987,-0.045638707,3.097789,-0.58269966,-1.3688648
55,1778588182.8554578,0.3162982,-0.09322987,-0.045638707,3.097789,-0.58269966,-1.3688648
56,1778588182.8764746,0.40489095,-0.39488465,-0.24186075,2.5076325,4.1428137,-1.9712719
57,1778588182.8965642,0.5010495,-1.2673893,-1.2842293,3.6602488,5.429653,-1.8594191
58,1778588182.917765,0.878118,-2.4437451,-0.15277983,2.606702,5.259743,-2.0756679
59,1778588182.9382017,0.878118,-2.4437451,-0.15277983,2.606702,5.259743,-2.0756679
60,1778588182.9592798,0.878118,-2.4437451,-0.15277983,2.606702,5.259743,-2.0756679
61,1778588182.9801757,-0.029286869,-1.2988727,-0.68311626,4.46186,-0.9890981,-0.84688526
62,1778588183.0009604,0.5366819,-0.79782313,-0.54156303,3.7348173,1.0072075,-0.11771172
63,1778588183.0218163,0.5886661,-0.4544346,-0.30238694,2.6684875,3.2277513,-0.35899413
64,1778588183.0425956,0.5886661,-0.4544346,-0.30238694,2.6684875,3.2277513,-0.35899413
65,1778588183.0638506,0.5886661,-0.4544346,-0.30238694,2.6684875,3.2277513,-0.35899413
66,1778588183.084005,-0.92497694,0.37316352,0.088348724,-2.0399814,1.1771172,1.2106731
67,1778588183.1051426,-0.84199744,0.5042223,-0.14985114,-2.0399814,1.1771172,1.2106731
68,1778588183.1257513,0.076389916,0.68994987,-0.98574716,-1.6223978,0.60507023,2.1518342
69,1778588183.146717,0.076389916,0.68994987,-0.98574716,-1.6223978,0.60507023,2.1518342
70,1778588183.167377,0.076389916,0.68994987,-0.98574716,-1.6223978,0.60507023,2.1518342
71,1778588183.188164,0.30165476,-1.449456,2.0405626,5.4072824,-2.9300098,0.43249738
72,1778588183.2090602,0.30165476,-1.449456,2.0405626,5.4072824,-2.9300098,0.43249738
73,1778588183.2298515,-0.06955632,-0.72582626,-2.5660179,3.3220272,-0.9784454,-0.36432046
74,1778588183.2504387,-0.06955632,-0.72582626,-2.5660179,3.3220272,-0.9784454,-0.36432046
75,1778588183.271631,-0.06955632,-0.72582626,-2.5660179,3.3220272,-0.9784454,-0.36432046
76,1778588183.2925377,-0.13154685,-1.7074246,-1.2205303,-3.134008,-1.8333201,0.57790595
77,1778588183.3132977,-0.009030119,-1.9077955,-0.8427297,-3.540939,-1.0476876,0.8069378
78,1778588183.3340871,-0.09811102,-2.634598,-0.10933765,-3.540939,-1.0476876,0.8069378
79,1778588183.3547876,-0.09811102,-2.634598,-0.10933765,-3.540939,-1.0476876,0.8069378
80,1778588183.3761194,2.0107877,-2.063504,0.049299564,-3.1313448,-1.0295781,1.748099
81,1778588183.396291,1.9034024,-1.1634209,0.76975656,-2.9939258,-0.25193503,0.19973709
82,1778588183.417112,0.89666635,-0.83784854,1.274467,-3.4610443,-2.817092,-0.95607483
83,1778588183.438256,0.89666635,-0.83784854,1.274467,-2.5379925,-2.9422605,-0.0958738
84,1778588183.4589233,0.89666635,-0.83784854,1.274467,-2.5379925,-2.9422605,-0.0958738
85,1778588183.479869,-0.1466784,-0.835652,0.46639338,-1.4333134,1.2543489,0.8793758
86,1778588183.5006144,-0.07028849,-0.4515059,1.1931958,-1.6825852,0.62744075,0.7163904
87,1778588183.5213323,0.5193538,-0.33948365,0.93010217,0.3339604,0.7339672,0.85966843
88,1778588183.5420232,0.5193538,-0.33948365,0.93010217,0.3339604,0.7339672,0.85966843
89,1778588183.5632951,0.5193538,-0.33948365,0.93010217,0.3339604,0.7339672,0.85966843
90,1778588183.5838833,0.21135357,0.015375607,-0.31654227,3.0120351,0.5230448,-1.448227
91,1778588183.6046102,-0.050031736,0.040269446,-0.06369894,2.769155,2.095908,-1.700162
92,1778588183.6250644,0.06613952,-0.38512233,0.1969542,3.4008567,2.8261466,-1.7204021
93,1778588183.6462433,0.06613952,-0.38512233,0.1969542,3.4008567,2.8261466,-1.7204021
94,1778588183.667207,0.06613952,-0.38512233,0.1969542,3.4008567,2.8261466,-1.7204021
95,1778588183.6875482,0.44320798,-6.0711684,2.2882807,2.437325,2.2311964,-2.5710158
96,1778588183.7084718,0.02757847,-3.7150395,0.87299275,4.0804954,-5.168663,-1.0652645
97,1778588183.7294965,0.26284966,-1.3596429,-0.5112999,4.630172,-0.07137272,-0.8314389
98,1778588183.7502723,0.26284966,-1.3596429,-0.5112999,4.630172,-0.07137272,-0.8314389
99,1778588183.7713344,0.26284966,-1.3596429,-0.5112999,4.630172,-0.07137272,-0.8314389
100,1778588183.791545,-0.21379416,-0.23380683,-0.21794313,-0.1635181,2.9944584,-0.4314321
101,1778588183.8128474,-0.5122762,0.110801995,0.13789235,-1.2373047,0.7387609,0.1603223
102,1778588183.8332548,-0.5122762,0.110801995,0.13789235,-1.2373047,0.7387609,0.1603223
103,1778588183.8543878,-0.5122762,0.110801995,0.13789235,-1.2373047,0.7387609,0.1603223
104,1778588183.8751218,-0.5122762,0.110801995,0.13789235,-1.2373047,0.7387609,0.1603223
105,1778588183.8964417,0.10958171,0.11690342,-0.9188756,-2.030394,-2.2322617,1.5238608
106,1778588183.9168687,0.11324256,0.04002539,-0.35876414,-2.066613,-3.0391996,1.0178602
107,1778588183.9374669,0.3031191,-1.3720899,4.6629577,-1.7017599,-2.912433,0.721184
108,1778588183.9583201,0.3031191,-1.3720899,4.6629577,-1.7017599,-2.912433,0.721184
109,1778588183.9794729,0.3031191,-1.3720899,4.6629577,-1.7017599,-2.912433,0.721184
110,1778588184.0000978,-0.200371,-0.55010504,-0.6496804,-2.4117587,0.17896444,-0.7206514
111,1778588184.0210474,-0.36730617,-0.6914142,-0.7072779,-2.7931235,0.6317018,-0.7643272
112,1778588184.0414436,-0.2923806,-2.2023726,-1.3159567,-3.0141659,-1.7097495,0.10652645
113,1778588184.0625474,-0.2923806,-2.2023726,-1.3159567,-3.0141659,-1.7097495,0.10652645
114,1778588184.0835462,-0.2923806,-2.2023726,-1.3159567,-3.0141659,-1.7097495,0.10652645
115,1778588184.1042144,0.43320164,-4.322742,1.4260265,-4.3990097,0.06764429,2.052232
116,1778588184.1249135,2.1374533,-2.0561824,0.9066727,-4.71273,1.3709954,2.0777984
117,1778588184.1458817,1.8921759,-1.4616588,0.5017817,-3.0754185,-1.1883025,0.38296258
118,1778588184.16662,1.8921759,-1.4616588,0.5017817,-3.0754185,-1.1883025,0.38296258
119,1778588184.1877933,1.8921759,-1.4616588,0.5017817,-3.0754185,-1.1883025,0.38296258
120,1778588184.208181,0.13496366,-0.976229,0.1342315,-1.0018812,0.38083205,1.6932379
121,1778588184.2291875,0.122272685,-0.8158834,0.43588626,-1.0018812,0.38083205,1.6932379
122,1778588184.2498937,0.592571,-0.37877685,1.0389518,0.46498793,0.6625945,0.9901633
123,1778588184.2710524,0.592571,-0.37877685,1.0389518,0.46498793,0.6625945,0.9901633
124,1778588184.2916257,0.592571,-0.37877685,1.0389518,0.46498793,0.6625945,0.9901633
125,1778588184.3126647,0.44955346,-0.017572122,-0.34582913,3.1728902,0.2977414,-1.0295781
126,1778588184.3330767,0.44955346,-0.017572122,-0.34582913,3.1728902,0.2977414,-1.0295781
127,1778588184.3558054,0.05662128,0.05735345,-0.08346757,2.5704832,2.851713,-1.9457055
128,1778588184.3744557,0.05662128,0.05735345,-0.08346757,2.5704832,2.851713,-1.9457055
129,1778588184.3959308,0.05662128,0.05735345,-0.08346757,2.5704832,2.851713,-1.9457055
130,1778588184.4165604,1.0289453,-5.119833,1.0387076,4.3223104,5.3790526,-1.804558
131,1778588184.4373446,0.09737884,-5.135208,1.6576368,2.1475732,3.6155076,-2.0772657
132,1778588184.4584148,0.23990828,-3.4687858,0.737541,3.7779603,-3.6000612,-0.9965549
133,1778588184.479019,0.23990828,-3.4687858,0.737541,3.7779603,-3.6000612,-0.9965549
134,1778588184.4997823,0.23990828,-3.4687858,0.737541,3.7779603,-3.6000612,-0.9965549
135,1778588184.520885,0.12544543,-0.32630453,-0.17816179,1.536644,4.130563,-0.8841695
136,1778588184.5414934,0.12544543,-0.32630453,-0.17816179,1.536644,4.130563,-0.8841695
137,1778588184.5629005,-0.19426957,-0.12764193,-0.12398108,-0.9550096,1.3736585,-0.02609898
138,1778588184.5828373,-0.19426957,-0.12764193,-0.12398108,-0.9550096,1.3736585,-0.02609898
139,1778588184.6050994,-0.30043447,0.89300543,-0.56767714,-2.4117587,-0.5422196,1.830657
140,1778588184.6242306,0.040513504,0.28213018,-0.74291027,-2.2919164,-2.9071066,1.7827201
141,1778588184.6455288,0.05662128,0.1666911,-0.5125202,-2.2919164,-2.9071066,1.7827201
142,1778588184.6665072,0.05662128,0.1666911,-0.5125202,-2.2919164,-2.9071066,1.7827201
143,1778588184.6871789,0.05662128,0.1666911,-0.5125202,-2.2919164,-2.9071066,1.7827201
144,1778588184.7079277,-0.18304294,-0.77732235,-1.9146291,0.294013,-0.26844665,-0.40213734
145,1778588184.7287793,-0.22306833,-0.767316,-0.78366786,0.294013,-0.26844665,-0.40213734
146,1778588184.7493227,-0.42270714,-0.86982006,-0.58085626,-3.0589068,-0.22796659,-0.5113269
147,1778588184.7707999,-0.5215503,-1.4909457,-1.0562798,-3.0589068,-0.22796659,-0.5113269
148,1778588184.791427,-0.5215503,-1.4909457,-1.0562798,-3.0589068,-0.22796659,-0.5113269
149,1778588184.8123121,-0.1261776,-2.2070098,-0.73436826,-2.98061,-0.5603291,0.99762017
150,1778588184.8329008,0.25479576,-4.012545,1.326207,-4.379302,1.4231933,1.568602
151,1778588184.854271,1.735003,-3.8607419,1.5844196,-4.379302,1.4231933,1.568602
152,1778588184.8744245,2.1589303,-2.3693078,0.8891005,-4.4149885,0.48629323,1.4008228
153,1778588184.8961794,2.1589303,-2.3693078,0.8891005,-4.4149885,0.48629323,1.4008228
154,1778588184.915976,0.02318544,-0.5208182,1.0543274,-1.8572886,-0.6599313,0.48469532
155,1778588184.9370577,0.14179726,-0.64821607,0.5418071,-1.8572886,-0.6599313,0.48469532
156,1778588184.9579434,0.14179726,-0.64821607,0.5418071,-1.3592775,0.32650355,1.3592775
157,1778588184.9784098,0.14179726,-0.64821607,0.5418071,-1.3592775,0.32650355,1.3592775
158,1778588184.9992208,0.14179726,-0.64821607,0.5418071,-1.3592775,0.32650355,1.3592775
159,1778588185.0202248,0.66944903,-0.37169918,0.7883049,1.609082,1.0381002,0.56885123
160,1778588185.0405812,0.43051702,-0.45467865,0.28627914,2.9145637,0.1917476,-0.28495824
161,1778588185.061668,0.19231711,-0.25479576,-0.2638259,3.042928,-0.48043427,-0.83250415
162,1778588185.082676,0.19231711,-0.25479576,-0.2638259,3.042928,-0.48043427,-0.83250415
163,1778588185.1035326,0.19231711,-0.25479576,-0.2638259,3.042928,-0.48043427,-0.83250415
164,1778588185.1241465,0.3436326,-1.168058,-0.20525214,2.8261466,2.126268,-1.73212
165,1778588185.145116,0.2711476,-2.1669843,-0.21257387,3.933489,3.2756882,-2.249306
166,1778588185.1661568,0.33240595,-5.990385,2.7817645,2.3094933,5.742841,-2.3728766
167,1778588185.1866045,0.33240595,-5.990385,2.7817645,2.3094933,5.742841,-2.3728766
168,1778588185.2076108,0.33240595,-5.990385,2.7817645,2.3094933,5.742841,-2.3728766
169,1778588185.2283378,0.83150303,-0.6828722,-0.6872652,3.2692966,2.2935145,-0.70200926
170,1778588185.2494528,0.85127175,-0.55010504,-0.6277153,3.2692966,2.2935145,-0.70200926
171,1778588185.2700589,-0.22624107,-0.5588911,-0.036608588,0.11664646,3.6336172,-0.38402784
172,1778588185.2907274,-0.22624107,-0.5588911,-0.036608588,0.11664646,3.6336172,-0.38402784
173,1778588185.312012,-0.22624107,-0.5588911,-0.036608588,0.11664646,3.6336172,-0.38402784
174,1778588185.3323689,-0.7831797,0.43930307,-0.10592084,-2.1273332,-0.42770368,1.3582122
175,1778588185.3531423,-0.34973404,0.9510911,-0.22819352,-2.3627565,-0.50653327,2.0090888
176,1778588185.374432,0.04881145,0.67750293,-0.7236297,-1.9835224,-1.3784522,2.2951124
177,1778588185.3951354,0.04881145,0.67750293,-0.7236297,-1.9835224,-1.3784522,2.2951124
178,1778588185.415609,0.04881145,0.67750293,-0.7236297,-1.9835224,-1.3784522,2.2951124
179,1778588185.4368694,0.22990192,-0.85322416,-0.55767083,5.3897057,-5.732188,0.080960095
180,1778588185.457381,-0.013667206,-0.53961056,-1.5177921,2.705239,-1.5595472,-0.5107943
181,1778588185.4783792,-0.34192422,-0.5696296,-0.9652464,-1.041296,-1.3603427,-0.6311692
182,1778588185.4993865,-0.34192422,-0.5696296,-0.9652464,-1.041296,-1.3603427,-0.6311692
183,1778588185.5204012,-0.34192422,-0.5696296,-0.9652464,-1.041296,-1.3603427,-0.6311692
184,1778588185.5403295,-0.27920148,-2.1047497,-1.4985116,-3.430684,-2.3883228,0.62371236
185,1778588185.5622792,-0.033435844,-2.4539957,-0.82076454,-4.311658,0.033023197,1.2341089
186,1778588185.5821743,0.13569583,-2.64314,-0.690438,-4.311658,0.033023197,1.2341089
187,1778588185.6030755,0.13569583,-2.64314,-0.690438,-4.311658,0.033023197,1.2341089
188,1778588185.6239686,0.13569583,-2.64314,-0.690438,-4.311658,0.033023197,1.2341089
189,1778588185.6449075,0.4356422,-0.56743306,1.2488409,-1.9547603,-3.0519826,-0.7323693
190,1778588185.6654623,0.07809832,-0.34582913,1.5070535,-1.9547603,-3.0519826,-0.7323693
191,1778588185.686819,-0.08102701,-0.88421935,0.4502856,-1.0572749,-0.5800365,1.8967034
192,1778588185.707073,-0.08102701,-0.88421935,0.4502856,-1.0572749,-0.5800365,1.8967034
193,1778588185.7283013,-0.08102701,-0.88421935,0.4502856,-1.0572749,-0.5800365,1.8967034
194,1778588185.748581,0.77317333,-0.6023333,0.69409883,1.5211977,-0.24607609,0.7254451
195,1778588185.7699833,0.49201941,-0.6357691,0.18572757,2.8117654,-0.86872315,-0.1736381
196,1778588185.7908509,0.39488465,-0.5962319,0.024649782,2.8117654,-0.86872315,-0.1736381
197,1778588185.811359,0.39488465,-0.5962319,0.024649782,2.8117654,-0.86872315,-0.1736381
198,1778588185.8322015,0.39488465,-0.5962319,0.024649782,3.07169,-0.12783173,-0.9464875
199,1778588185.8530488,0.1403329,-0.0319715,0.030751213,2.731338,2.3062975,-1.6612799
200,1778588185.873761,0.1986626,-0.35925224,0.23893206,3.6581182,3.1654334,-1.6623452
201,1778588185.8946319,0.16620298,-1.424074,0.47639978,3.6581182,3.1654334,-1.6623452
202,1778588185.9158401,0.16620298,-1.424074,0.47639978,3.6581182,3.1654334,-1.6623452
203,1778588185.9365218,0.37413976,-3.2210677,0.49348375,3.1462586,-2.6035063,-1.4050838
204,1778588185.9571977,0.41148052,-1.3232784,-0.41245672,4.5598645,-1.8253306,-0.65726817
205,1778588185.9781353,0.8710403,-0.8793382,-0.6726217,3.518036,1.6442357,-0.6103965
206,1778588185.9986856,0.8710403,-0.8793382,-0.6726217,3.518036,1.6442357,-0.6103965
207,1778588186.0200446,0.8710403,-0.8793382,-0.6726217,3.518036,1.6442357,-0.6103965
208,1778588186.0404112,-0.4334457,0.09445015,0.07248501,-0.5629923,1.9765981,-0.41065946
209,1778588186.0613225,-0.67628264,0.3687705,0.18377511,-1.4812502,0.40266997,0.2412824
210,1778588186.0818305,-0.7053254,0.67579454,-0.4271002,-1.9856529,0.084155895,0.8900285
211,1778588186.1028495,-0.7053254,0.67579454,-0.4271002,-1.9856529,0.084155895,0.8900285
212,1778588186.1233006,-0.7053254,0.67579454,-0.4271002,-1.9856529,0.084155895,0.8900285
213,1778588186.1448405,0.70239675,-0.7070338,7.987262,-2.0394487,-4.3350935,0.9965549
214,1778588186.1654336,0.16400647,-1.4008886,1.2461562,6.9609704,-0.7222493,0.09640643
215,1778588186.1862817,0.16400647,-1.4008886,1.2461562,6.9609704,-0.7222493,0.09640643
216,1778588186.2069921,-0.12813005,-0.7302193,-1.6837509,3.2916672,1.2394352,-0.21624869
217,1778588186.2277756,-0.12813005,-0.7302193,-1.6837509,3.2916672,1.2394352,-0.21624869
218,1778588186.2482884,-0.36340126,-1.3410946,-1.2427394,-3.4173684,-1.7054884,0.17417073
219,1778588186.2695942,-0.021721095,-2.1054819,-1.4538491,-3.923369,-2.8320055,0.737163
220,1778588186.2903793,-0.1403329,-2.2904773,-0.9637821,-4.279167,-1.1387677,0.6945524
221,1778588186.3108048,-0.1403329,-2.2904773,-0.9637821,-4.279167,-1.1387677,0.6945524
222,1778588186.3315418,-0.1403329,-2.2904773,-0.9637821,-4.279167,-1.1387677,0.6945524
223,1778588186.3522913,1.8987653,-2.126227,0.15400012,-3.665575,-1.6319852,0.4644553
224,1778588186.3735106,1.4755701,-1.2566508,0.5920829,-3.0876691,-1.7896442,-0.65194184
225,1778588186.394502,1.04066,-0.8471227,1.0196712,-3.0876691,-1.7896442,-0.65194184
226,1778588186.4149535,1.04066,-0.8471227,1.0196712,-3.0876691,-1.7896442,-0.65194184
227,1778588186.436251,1.04066,-0.8471227,1.0196712,-3.0876691,-1.7896442,-0.65194184
228,1778588186.4566147,0.44491637,-0.61844105,0.7138674,-1.3954965,-0.59122175,1.1270498
229,1778588186.4778495,0.7577977,-0.36096066,0.8261338,-0.5858955,0.5203817,0.65460503
230,1778588186.4981556,0.7577977,-0.36096066,0.8261338,-0.5858955,0.5203817,0.65460503
231,1778588186.519205,0.7577977,-0.36096066,0.8261338,-0.5858955,0.5203817,0.65460503
232,1778588186.5398953,0.7577977,-0.36096066,0.8261338,-0.5858955,0.5203817,0.65460503
233,1778588186.5613282,-0.12032023,-0.04783522,-0.39488465,2.8554413,1.9046929,-1.438107
234,1778588186.5814168,-0.19231711,0.014887493,-0.27212384,2.8554413,1.9046929,-1.438107
235,1778588186.602367,-0.002928687,-0.42978483,-0.036608588,3.445598,2.737197,-1.1978899
236,1778588186.6230888,-0.002928687,-0.42978483,-0.036608588,3.445598,2.737197,-1.1978899
237,1778588186.644209,-0.002928687,-0.42978483,-0.036608588,3.445598,2.737197,-1.1978899
238,1778588186.6649225,-0.002928687,-0.42978483,-0.036608588,3.445598,2.737197,-1.1978899
239,1778588186.6857374,-0.002928687,-0.42978483,-0.036608588,3.445598,2.737197,-1.1978899
240,1778588186.7065566,-0.002928687,-0.42978483,-0.036608588,3.445598,2.737197,-1.1978899
241,1778588186.7273767,-0.002928687,-0.42978483,-0.036608588,3.445598,2.737197,-1.1978899
242,1778588186.747873,-0.002928687,-0.42978483,-0.036608588,3.445598,2.737197,-1.1978899
243,1778588186.768953,-0.38878322,0.011470691,-0.03441207,-0.21038973,1.0759171,0.09054748
244,1778588186.789787,-0.59110665,0.35144243,-0.029042812,-1.4530207,-0.5363607,0.8404937
245,1778588186.8106291,-0.759018,0.4554108,0.10494461,-2.4948494,-0.28975195,1.3550164
246,1778588186.8312316,-0.759018,0.4554108,0.10494461,-2.4948494,-0.28975195,1.3550164
247,1778588186.8525326,-0.759018,0.4554108,0.10494461,-2.4948494,-0.28975195,1.3550164
248,1778588186.8730526,0.298482,0.025137896,-0.6487042,-2.7089674,-1.9499665,1.8253306
249,1778588186.893888,0.27212384,-0.022453265,0.29067218,-2.728675,-3.0333405,1.2953615
250,1778588186.9149508,0.15473229,-1.9815009,1.2368821,4.0559945,-9.569803,-0.19547603
251,1778588186.936364,0.15473229,-1.9815009,1.2368821,4.0559945,-9.569803,-0.19547603
252,1778588186.9567747,0.15473229,-1.9815009,1.2368821,4.0559945,-9.569803,-0.19547603
253,1778588186.9773295,-0.6796995,-0.8031924,-0.7995315,-1.8903117,1.6580842,-0.6860303
254,1778588186.997491,-0.6411384,-1.4475036,-1.5334117,-2.7856665,-2.5901904,0.76965356
255,1778588187.018863,-0.40952805,-1.6937572,-1.5529363,-2.7856665,-2.5901904,0.76965356
256,1778588187.03975,-0.40952805,-1.6937572,-1.5529363,-2.7856665,-2.5901904,0.76965356
257,1778588187.0607584,-0.40952805,-1.6937572,-1.5529363,-2.7856665,-2.5901904,0.76965356
258,1778588187.081459,1.8270127,-3.3838537,1.3496367,-4.7739825,1.2841763,2.1459754
259,1778588187.1021786,1.9365941,-2.584078,0.7465711,-4.042679,0.23062976,1.2735237
260,1778588187.1227622,1.6940014,-1.6015036,0.2208718,-3.1947281,-2.2828617,-0.29933932
261,1778588187.1439734,1.6940014,-1.6015036,0.2208718,-3.1947281,-2.2828617,-0.29933932
262,1778588187.1649406,0.26065314,-0.88373125,0.39878955,-1.433846,-0.07669904,1.2772521
263,1778588187.1853528,0.27895743,-0.9396204,0.042465962,-1.3619406,0.65247446,1.7038904
264,1778588187.2057786,0.03734076,-0.66847277,0.36852646,-1.7507621,0.53742594,1.2815131
265,1778588187.2268844,0.03734076,-0.66847277,0.36852646,-1.7507621,0.53742594,1.2815131
266,1778588187.2475681,0.03734076,-0.66847277,0.36852646,-1.7507621,0.53742594,1.2815131
267,1778588187.268659,0.36242503,-0.45931572,0.19890666,2.7883296,0.28122982,-0.47297743
268,1778588187.2896872,0.15839316,-0.27822527,-0.008297946,3.1111047,-0.07989483,-1.077515
269,1778588187.3103073,0.08102701,-0.17425688,-0.3699908,2.8186898,0.19547603,-1.4040185
270,1778588187.3305905,0.029286869,-0.1295944,-0.35461518,2.8186898,0.19547603,-1.4040185
271,1778588187.3518019,0.029286869,-0.1295944,-0.35461518,2.8186898,0.19547603,-1.4040185
272,1778588187.3728065,0.16278619,-1.7198714,0.36803833,4.214186,3.9356196,-1.9382486
273,1778588187.3940926,0.7475473,-5.355348,1.9109682,4.252536,7.177752,-1.9702066
274,1778588187.414259,0.38146147,-5.2338076,2.042027,2.718555,2.540123,-1.9590213
275,1778588187.4355714,0.20354374,-4.3937626,1.4043053,2.718555,2.540123,-1.9590213
276,1778588187.4559712,0.20354374,-4.3937626,1.4043053,2.718555,2.540123,-1.9590213
277,1778588187.4767876,0.8005078,-0.61941725,-0.5645044,1.929194,3.035471,-0.58696073
278,1778588187.4980028,0.5537659,-0.5354616,-0.4234393,1.929194,3.035471,-0.58696073
279,1778588187.518649,-0.277005,-0.2633378,-0.14350566,0.41545314,3.426423,-0.74035877
280,1778588187.5392017,-0.277005,-0.2633378,-0.14350566,0.41545314,3.426423,-0.74035877
281,1778588187.5604656,-0.277005,-0.2633378,-0.14350566,0.41545314,3.426423,-0.74035877
282,1778588187.580856,-0.8959341,0.51349646,-0.41245672,-1.617604,-0.24554345,1.0727214
283,1778588187.6017203,-0.07687803,0.6218578,-1.210524,-2.7510455,-2.5289378,2.0266657
284,1778588187.622676,0.005857374,0.4131889,-1.138771,-2.7510455,-2.5289378,2.0266657
285,1778588187.643637,0.005857374,0.4131889,-1.138771,-2.7510455,-2.5289378,2.0266657
286,1778588187.6640882,0.005857374,0.4131889,-1.138771,-2.7510455,-2.5289378,2.0266657
287,1778588187.6850054,0.16205402,-0.6892177,-2.4835265,2.7601001,1.1867046,0.23702134
288,1778588187.705926,0.29091623,-0.6545615,-1.4645876,-2.0900488,0.18269286,-0.4889564
289,1778588187.7268083,0.002928687,-0.90447617,-0.86249834,-3.717773,1.4721955,-1.4695324
290,1778588187.7473762,0.002928687,-0.90447617,-0.86249834,-3.717773,1.4721955,-1.4695324
291,1778588187.7685657,0.002928687,-0.90447617,-0.86249834,-3.717773,1.4721955,-1.4695324
292,1778588187.7889347,-1.125592,-2.4247088,1.3576905,-3.6155076,-3.5212317,0.16618125
293,1778588187.8099978,-1.0992339,-3.4343739,0.96817505,-1.5494272,-1.3864417,2.0671456
294,1778588187.8309593,1.5788063,-2.826427,-0.2762728,-2.8160267,1.230913,2.761698
295,1778588187.8515558,1.5788063,-2.826427,-0.2762728,-2.8160267,1.230913,2.761698
296,1778588187.8725045,1.5788063,-2.826427,-0.2762728,-2.8160267,1.230913,2.761698
297,1778588187.8932788,0.69409883,-0.9637821,1.0616491,-2.1007016,-4.9593387,-0.79735047
298,1778588187.9139402,0.18523945,-0.84858704,0.46444094,-1.546764,-1.2500879,0.26365295
299,1778588187.9347827,0.18938842,-0.78488815,0.34241232,-1.5526229,1.1824435,1.1909657
300,1778588187.9555988,0.18938842,-0.78488815,0.34241232,-1.5526229,1.1824435,1.1909657
301,1778588187.977022,0.18938842,-0.78488815,0.34241232,-1.5526229,1.1824435,1.1909657
302,1778588187.9968112,0.6360132,-0.4271002,0.58280873,2.0410466,1.417867,-0.1635181
303,1778588188.0178814,0.6360132,-0.4271002,0.58280873,2.0410466,1.417867,-0.1635181
304,1778588188.0387847,0.19646609,-0.22697324,0.3219115,2.8309402,1.0663297,-0.8431568
305,1778588188.0595748,0.19646609,-0.22697324,0.3219115,2.8309402,1.0663297,-0.8431568
306,1778588188.0806088,0.19646609,-0.22697324,0.3219115,2.8309402,1.0663297,-0.8431568
307,1778588188.101797,0.23039004,-0.6638357,0.117147475,2.9236183,0.94808537,-1.3885722
308,1778588188.1220524,0.26162934,-1.607117,0.08005078,3.755057,1.7560885,-1.808819
309,1778588188.14301,0.26162934,-1.607117,0.08005078,3.755057,1.7560885,-1.808819
310,1778588188.1636004,0.26162934,-1.607117,0.08005078,3.755057,1.7560885,-1.808819
311,1778588188.1847277,0.26162934,-1.607117,0.08005078,3.755057,1.7560885,-1.808819
312,1778588188.205371,0.2604091,-0.9989263,-0.38975942,4.2599926,1.6106799,-0.03355583
313,1778588188.226866,0.76121455,-0.699224,-0.5191097,2.7041738,2.4325314,0.16937704
314,1778588188.2468982,0.5749989,-0.71191496,-0.41294485,0.96086854,3.3726273,-0.55340487
315,1778588188.2680156,0.5749989,-0.71191496,-0.41294485,0.96086854,3.3726273,-0.55340487
316,1778588188.2889187,0.5749989,-0.71191496,-0.41294485,0.96086854,3.3726273,-0.55340487
317,1778588188.3094158,-0.91619086,0.40098605,-0.102748096,-1.9350529,-0.15765914,0.8591358
318,1778588188.330534,-0.72729063,0.7487676,-0.4419877,-2.4469125,-0.29454562,1.5403724
319,1778588188.3513067,0.0017084008,0.8947139,-0.7326599,-2.6322684,-1.8679413,1.7827201
320,1778588188.3719745,0.0017084008,0.8947139,-0.7326599,-2.6322684,-1.8679413,1.7827201
321,1778588188.39437,2.170157,-0.9994144,7.6763325,4.828311,-6.321279,-1.0029465
322,1778588188.4137416,0.47273886,-1.1297411,0.68384844,4.828311,-6.321279,-1.0029465
323,1778588188.4344358,0.47273886,-1.1297411,0.68384844,4.828311,-6.321279,-1.0029465
324,1778588188.455065,-0.37999713,-0.38805103,-1.5668476,-1.1888351,-0.82824314,-0.86499476
325,1778588188.4760647,-0.37999713,-0.38805103,-1.5668476,-1.1888351,-0.82824314,-0.86499476
326,1778588188.4968345,-1.0245523,-1.8150537,-1.4470154,-3.1627703,-2.2136195,1.0205233
327,1778588188.517758,-0.70190865,-2.234832,-1.1104605,-3.1627703,-2.2136195,1.0205233
328,1778588188.5385125,-0.48494175,-2.315371,-0.9117979,-3.7982004,-1.7891116,2.0676782
329,1778588188.5599487,-0.48494175,-2.315371,-0.9117979,-3.7982004,-1.7891116,2.0676782
330,1778588188.5804887,-0.48494175,-2.315371,-0.9117979,-3.7982004,-1.7891116,2.0676782
331,1778588188.6008084,2.3517356,-2.191146,0.22282428,-3.7390783,-3.8280277,-1.2351742
332,1778588188.621581,0.35315084,-0.8432178,1.6317668,-3.7390783,-3.8280277,-1.2351742
333,1778588188.6431417,-0.40635532,-0.8756774,1.0948408,-2.3776703,-1.834918,-0.4426174
334,1778588188.663354,-0.40635532,-0.8756774,1.0948408,-2.3776703,-1.834918,-0.4426174
335,1778588188.6843371,-0.40635532,-0.8756774,1.0948408,-2.3776703,-1.834918,-0.4426174
336,1778588188.7051206,0.23429495,-0.6535853,0.71045065,-1.1813782,0.4511395,1.1648667
337,1778588188.7256477,0.47810817,-0.34387666,0.9374239,-1.1813782,0.4511395,1.1648667
338,1778588188.7466106,0.75218445,-0.5025139,0.6796995,1.7214674,-0.20080236,0.34621096
339,1778588188.7682748,0.75218445,-0.5025139,0.6796995,1.7214674,-0.20080236,0.34621096
340,1778588188.7886937,0.75218445,-0.5025139,0.6796995,1.7214674,-0.20080236,0.34621096
341,1778588188.8092957,0.21232979,-0.111046046,-0.2894519,2.8069718,0.62317973,-1.6783241
342,1778588188.8297894,0.073949344,0.029286869,-0.21550256,2.4580977,1.7614148,-1.9137475
343,1778588188.8507638,0.13911264,-0.25137895,0.040269446,2.799515,2.6429212,-1.9792614
344,1778588188.871537,0.13911264,-0.25137895,0.040269446,2.799515,2.6429212,-1.9792614
345,1778588188.892582,0.13911264,-0.25137895,0.040269446,2.799515,2.6429212,-1.9792614
346,1778588188.9137669,0.19158493,-5.4073324,1.9861377,4.0911484,-4.618454,-0.8111989
347,1778588188.9341207,0.14692247,-3.8856354,0.9952655,4.0911484,-4.618454,-0.8111989
348,1778588188.9555173,0.22453266,-1.4811834,-0.6343048,4.7260456,-1.7267936,-1.0210559
349,1778588188.976136,0.22453266,-1.4811834,-0.6343048,4.7260456,-1.7267936,-1.0210559
350,1778588188.996505,0.22453266,-1.4811834,-0.6343048,4.7260456,-1.7267936,-1.0210559
351,1778588189.0172603,-0.21306199,-0.15253578,-0.19646609,0.64714813,3.9105859,-1.2543489
352,1778588189.0381064,-0.41050428,0.025626011,-0.05051985,-1.5547534,0.45699844,0.45859635
353,1778588189.0587714,-0.8449261,0.2945771,-0.22575295,-1.9398465,0.056991648,1.3006879
354,1778588189.0795412,-0.8449261,0.2945771,-0.22575295,-1.9398465,0.056991648,1.3006879
355,1778588189.1004884,-0.8449261,0.2945771,-0.22575295,-1.9398465,0.056991648,1.3006879
356,1778588189.1214979,0.035144243,0.31263736,-0.81978834,-2.5102956,-3.762514,1.4647386
357,1778588189.1423507,0.61722076,0.23185438,1.4272468,-2.5102956,-3.762514,1.4647386
358,1778588189.1630685,0.5710939,-1.441158,4.9558268,-1.7491642,-3.099387,1.1030813
359,1778588189.1840162,0.5710939,-1.441158,4.9558268,-1.7491642,-3.099387,1.1030813
360,1778588189.204484,0.5710939,-1.441158,4.9558268,-1.7491642,-3.099387,1.1030813
361,1778588189.2254171,-0.51496077,-0.74486274,-0.29384494,-3.5388086,0.15499598,-0.25672874
362,1778588189.2460501,-0.59672,-0.91106576,-0.4339338,-2.6269422,-1.6335831,0.59761333
363,1778588189.2671638,-0.4385709,-1.2227268,-1.069947,-2.6269422,-1.6335831,0.59761333
364,1778588189.2877438,-0.4385709,-1.2227268,-1.069947,-2.6269422,-1.6335831,0.59761333
365,1778588189.3088381,-0.4385709,-1.2227268,-1.069947,-2.6269422,-1.6335831,0.59761333
366,1778588189.3297205,0.67579454,-4.4618545,1.0335824,-4.7755804,-0.6689861,0.96086854
367,1778588189.3509686,1.8323817,-2.8706014,0.4803047,-3.9292278,-2.2540996,0.11717909
368,1778588189.3715632,1.8480015,-2.3944457,0.17718557,-2.7883296,-2.433064,-1.0663297
369,1778588189.3923712,1.8480015,-2.3944457,0.17718557,-2.7883296,-2.433064,-1.0663297
370,1778588189.4126105,1.8480015,-2.3944457,0.17718557,-2.7883296,-2.433064,-1.0663297
371,1778588189.4338298,0.017572122,-0.56767714,0.018304294,-1.3853765,-0.5954828,1.9164108
372,1778588189.4544737,0.017572122,-0.56767714,0.018304294,-1.3853765,-0.5954828,1.9164108
373,1778588189.4755003,0.017572122,-0.56767714,0.018304294,-1.3853765,-0.5954828,1.9164108
374,1778588189.4962327,0.017572122,-0.56767714,0.018304294,-1.3853765,-0.5954828,1.9164108
375,1778588189.5172892,0.017572122,-0.56767714,0.018304294,-1.3853765,-0.5954828,1.9164108
376,1778588189.537709,0.027334413,-0.29384494,0.23478307,2.5007083,-0.21571605,-0.98590225
377,1778588189.5588756,-0.09542638,-0.2545517,0.07248501,2.5007083,-0.21571605,-0.98590225
378,1778588189.5800009,-0.09542638,-0.2545517,0.07248501,2.5007083,-0.21571605,-0.98590225
379,1778588189.6001174,-0.09542638,-0.2545517,0.07248501,2.5007083,-0.21571605,-0.98590225
380,1778588189.6209788,-0.09542638,-0.2545517,0.07248501,2.5007083,-0.21571605,-0.98590225
381,1778588189.6422122,1.0828819,-4.8408756,1.6046765,3.0131006,8.020908,-3.1883366
382,1778588189.6628857,-0.16986385,-3.7977748,1.3369455,3.482882,-1.0721886,-0.7717841
383,1778588189.6834989,-0.16986385,-3.7977748,1.3369455,3.482882,-1.0721886,-0.7717841
384,1778588189.7047606,-0.16986385,-3.7977748,1.3369455,3.482882,-1.0721886,-0.7717841
385,1778588189.7253609,0.48957884,-0.9440134,-0.19768637,3.3316145,2.9816751,-0.07563378
386,1778588189.7459445,0.6040417,-0.6672525,-0.48152497,2.1992385,2.0240026,-0.38136467
387,1778588189.766667,-0.23649146,-0.40220633,-0.14692247,0.65247446,2.2525017,-0.50653327
388,1778588189.7872405,-0.23649146,-0.40220633,-0.14692247,0.65247446,2.2525017,-0.50653327
389,1778588189.808616,-0.23649146,-0.40220633,-0.14692247,0.65247446,2.2525017,-0.50653327
390,1778588189.8293557,-0.5618198,0.65260905,-0.7748818,-1.8988339,0.20026971,1.8466359
391,1778588189.8501632,-0.048567392,0.88885653,-0.728999,-2.3467777,-0.66632295,2.5790052
392,1778588189.8708556,0.19719826,0.32996538,-0.835652,-1.9126823,-2.2844596,2.4602282
393,1778588189.891893,0.11226633,0.23844394,-0.5930591,-1.2367721,-3.248524,2.1859226
394,1778588189.9123244,0.11226633,0.23844394,-0.5930591,-1.2367721,-3.248524,2.1859226
395,1778588189.9334214,-0.25821257,-0.49592432,-2.2882807,-0.019707393,-1.7251958,-1.1984226
396,1778588189.9545085,-0.33777523,-0.5725583,-1.9529461,-0.019707393,-1.7251958,-1.1984226
397,1778588189.9752607,-0.622346,-0.9376679,-0.92961407,-2.9715552,-1.6202673,-0.8223842
398,1778588189.9959836,-0.622346,-0.9376679,-0.92961407,-2.9715552,-1.6202673,-0.8223842
399,1778588190.0164475,-0.622346,-0.9376679,-0.92961407,-2.9715552,-1.6202673,-0.8223842
400,1778588190.0372689,-0.5315567,-2.2472792,-0.5759751,-3.6549222,-1.0641992,2.4266725
401,1778588190.0587113,-0.5632841,-2.9857962,-0.040513504,-3.6549222,-1.0641992,2.4266725
402,1778588190.0789907,1.343291,-4.344951,0.84102124,-3.9111185,5.5942364,2.5395904
403,1778588190.10017,1.343291,-4.344951,0.84102124,-3.9111185,5.5942364,2.5395904
404,1778588190.1204395,1.343291,-4.344951,0.84102124,-3.9111185,5.5942364,2.5395904
405,1778588190.1413748,0.25674823,-0.5288721,1.4177285,-2.211489,-3.8099184,-1.8386464
406,1778588190.1624498,-0.16888762,-0.49104318,0.86518294,-2.211489,-3.8099184,-1.8386464
407,1778588190.183449,-0.21672285,-0.78415596,0.026358182,-1.4008228,0.20879184,1.7342505
408,1778588190.2040308,-0.21672285,-0.78415596,0.026358182,-1.4008228,0.20879184,1.7342505
409,1778588190.2251582,-0.21672285,-0.78415596,0.026358182,-1.4008228,0.20879184,1.7342505
410,1778588190.2455423,0.3577879,-0.17645338,1.1099724,0.104928546,1.3677995,1.0695255
411,1778588190.2666337,0.51618105,-0.42563587,0.07614586,2.6716833,-0.38083205,-0.6332997
412,1778588190.2874246,0.4966565,-0.37218732,-0.0388051,2.6652918,-0.6332997,-1.397627
413,1778588190.3083053,0.4966565,-0.37218732,-0.0388051,2.6652918,-0.6332997,-1.397627
414,1778588190.3286157,0.4966565,-0.37218732,-0.0388051,2.6652918,-0.6332997,-1.397627
415,1778588190.3498373,0.4966565,-0.37218732,-0.0388051,2.6652918,-0.6332997,-1.397627
416,1778588190.3705559,0.4966565,-0.37218732,-0.0388051,2.6652918,-0.6332997,-1.397627
417,1778588190.3917992,0.4966565,-0.37218732,-0.0388051,2.6652918,-0.6332997,-1.397627
418,1778588190.4120467,0.4966565,-0.37218732,-0.0388051,2.6652918,-0.6332997,-1.397627
419,1778588190.4330218,0.4966565,-0.37218732,-0.0388051,2.6652918,-0.6332997,-1.397627
420,1778588190.4538903,0.2545517,-0.86323047,-0.5108118,4.9273806,0.010120012,-0.41065946
421,1778588190.4748108,0.6199054,-0.77512586,-0.7153318,3.4850128,1.4402375,0.10652645
422,1778588190.4952354,0.8505395,-0.52911615,-0.6570021,1.6144083,2.9049761,-0.37017938
423,1778588190.5163698,0.8505395,-0.52911615,-0.6570021,1.6144083,2.9049761,-0.37017938
424,1778588190.537067,0.8505395,-0.52911615,-0.6570021,1.6144083,2.9049761,-0.37017938
425,1778588190.5575774,-0.78928113,0.507395,-0.12202863,-2.3787355,-0.21252026,1.365669
426,1778588190.5788243,-0.51788944,0.8049008,-0.52203846,-2.4985778,-0.34141725,2.3552997
427,1778588190.5997436,-0.21769907,0.8288184,-0.65285313,-2.4985778,-0.34141725,2.3552997
428,1778588190.620293,-0.21769907,0.8288184,-0.65285313,-2.4985778,-0.34141725,2.3552997
429,1778588190.6413412,-0.21769907,0.8288184,-0.65285313,-2.4985778,-0.34141725,2.3552997
430,1778588190.6622555,0.16425052,-0.80563295,-0.54790854,5.454154,-1.4008228,-0.21411815
431,1778588190.6827004,0.16425052,-0.80563295,-0.54790854,5.454154,-1.4008228,-0.21411815
432,1778588190.7032435,-0.35193056,-0.6604189,-0.9947773,-2.4218788,0.20399815,-0.93157375
433,1778588190.7243714,-0.35193056,-0.6604189,-0.9947773,-2.4218788,0.20399815,-0.93157375
434,1778588190.7458103,-0.35193056,-0.6604189,-0.9947773,-2.4218788,0.20399815,-0.93157375
435,1778588190.765994,-0.30677995,-2.0483723,-1.6163912,-4.4773064,-2.7073696,0.17630127
436,1778588190.7870455,-0.03294773,-2.2785184,-0.59964865,-4.286624,-0.99442434,0.6173208
437,1778588190.808072,0.07541369,-2.4837706,-0.5693855,-3.7103162,0.11025487,1.1025487
438,1778588190.8289156,0.07541369,-2.4837706,-0.5693855,-3.7103162,0.11025487,1.1025487
439,1778588190.8498125,0.21208574,-3.0836632,-0.14594623,-3.7103162,0.11025487,1.1025487
440,1778588190.869889,1.1326697,-1.1182703,0.94572186,-2.8479846,-1.3837786,-0.9550096
441,1778588190.891218,0.7365648,-0.68482465,1.343047,-1.8583539,-2.6690202,-1.158475
442,1778588190.9117935,0.7365648,-0.68482465,1.343047,-1.8583539,-2.6690202,-1.158475
443,1778588190.9328692,0.7365648,-0.68482465,1.343047,-1.8583539,-2.6690202,-1.158475
444,1778588190.953473,-0.033923957,-0.4471129,0.51666915,-0.85487473,-0.4314321,2.159291
445,1778588190.9746077,0.5801241,-0.19817449,0.7250941,0.14594123,0.24234766,1.6777915
446,1778588190.9952736,0.7180164,-0.34290043,0.60721445,2.4991105,-0.9763149,0.092145376
447,1778588191.0158372,0.7180164,-0.34290043,0.60721445,2.4991105,-0.9763149,0.092145376
448,1778588191.03687,0.7180164,-0.34290043,0.60721445,2.4991105,-0.9763149,0.092145376
449,1778588191.0576568,0.33069757,0.08566409,-0.0741934,2.3339944,1.0471549,-2.2599585
450,1778588191.0783396,0.19597797,0.04905551,0.07297312,2.3339944,1.0471549,-2.2599585
451,1778588191.099252,0.68140787,-0.76463133,-0.051007964,2.8378644,2.9768815,-2.3883228
452,1778588191.11999,0.665056,-1.6144388,0.10396838,2.8378644,2.9768815,-2.3883228
453,1778588191.141024,0.665056,-1.6144388,0.10396838,2.8378644,2.9768815,-2.3883228
454,1778588191.1620011,0.83125895,-4.8689423,1.2222387,4.230165,-1.1190603,-0.55127436
455,1778588191.183112,0.2936009,-2.2201886,-0.30677995,4.719654,0.97258645,-0.7669904
456,1778588191.2036,0.5523015,-0.8085616,-0.4075756,3.1888692,1.3385048,-0.15765914
457,1778588191.2240856,0.5523015,-0.8085616,-0.4075756,3.1888692,1.3385048,-0.15765914
458,1778588191.24499,0.5523015,-0.8085616,-0.4075756,3.1888692,1.3385048,-0.15765914
459,1778588191.2658992,-0.25894472,-0.19500175,-0.09518232,-0.34461305,1.8839202,-0.55979645
460,1778588191.2869701,-0.41929033,-0.026114125,-0.014399378,-1.0972224,0.50653327,0.30040458
461,1778588191.3088772,-1.0169866,0.4515059,-0.29433304,-1.7907095,-0.49960902,1.2857742
462,1778588191.328376,-1.0169866,0.4515059,-0.29433304,-1.7907095,-0.49960902,1.2857742
463,1778588191.3489792,-1.0169866,0.4515059,-0.29433304,-1.7907095,-0.49960902,1.2857742
464,1778588191.3701305,0.08542004,0.1164153,-0.40781966,-1.3076121,-1.6389093,2.6136262
465,1778588191.390888,0.62551874,0.22258021,1.3911263,-0.8069378,-1.4455639,2.2125542
466,1778588191.4119911,0.605506,-1.3208379,1.4194369,5.738047,-2.9981868,-0.5187838
467,1778588191.4324636,0.605506,-1.3208379,1.4194369,5.738047,-2.9981868,-0.5187838
468,1778588191.4535222,0.605506,-1.3208379,1.4194369,5.738047,-2.9981868,-0.5187838
469,1778588191.474193,-0.73729694,-1.0157663,-0.7053254,-2.4527714,-1.820537,-0.2876214
470,1778588191.4947786,-0.8607899,-1.291551,-0.9076489,-2.4527714,-1.820537,-0.2876214
471,1778588191.5154662,-0.36437747,-2.0112758,-0.9408407,-3.0594394,-1.4450313,2.108691
472,1778588191.536298,-0.36437747,-2.0112758,-0.9408407,-3.0594394,-1.4450313,2.108691
473,1778588191.5571625,-0.36437747,-2.0112758,-0.9408407,-3.0594394,-1.4450313,2.108691
474,1778588191.5780823,2.430078,-2.8237424,0.8332114,-3.516438,-0.36272255,1.6868463
475,1778588191.5986347,2.6148295,-2.1096308,0.2545517,-3.1190944,-2.8740835,-0.7366304
476,1778588191.6194386,1.1971008,-0.9711038,1.040416,-3.0919302,-3.2762208,-2.027731
477,1778588191.6404884,1.1971008,-0.9711038,1.040416,-3.0919302,-3.2762208,-2.027731
478,1778588191.6614847,1.1971008,-0.9711038,1.040416,-3.0919302,-3.2762208,-2.027731
479,1778588191.681991,0.050763905,-0.8102701,0.14814276,-1.6708673,-0.49375007,1.6421051
480,1778588191.703034,-0.03294773,-0.7485236,0.09542638,-1.6708673,-0.49375007,1.6421051
