id,timestamp,acc_x,acc_y,acc_z,gyro_x,gyro_y,gyro_z
1,1778585938.688176,0.37096703,0.084931925,0.73339206,0.37763625,-1.6740631,-0.13262543
2,1778585938.7505574,0.2294138,1.3120518,0.4932397,0.5970807,-1.2452941,-0.0958738
3,1778585938.8131635,-0.27334413,1.744277,1.0975254,0.2146508,-1.2895026,-0.23062976
4,1778585938.875858,-0.28261828,1.1485333,1.1478013,2.010154,-0.028229509,0.14327806
5,1778585938.938115,-0.11519502,0.460536,0.15082738,2.0330572,-0.076166406,-0.21678132
6,1778585939.0005093,-0.23405088,-0.059305906,-0.24332508,0.773382,0.6743124,-0.7664578
7,1778585939.0628872,-0.32947728,-0.36266908,0.00707766,0.35420042,0.6679208,-1.010936
8,1778585939.1252124,-0.5008055,-0.22965786,-0.24625377,-0.10066749,1.5504924,-1.0002834
9,1778585939.188038,-0.9237567,0.5186216,-0.041977845,-0.49801114,1.325189,-2.2652848
10,1778585939.25049,-1.9165816,1.4060138,0.97037166,-3.106311,1.5275892,-2.3313313
11,1778585939.3129451,-1.0819057,1.4255384,0.7214332,-0.091080114,2.676477,-1.5355787
12,1778585939.3753672,-0.33142975,1.1590278,0.09469421,-0.9624664,1.3848438,-1.3459617
13,1778585939.437931,-0.3612047,0.9010593,0.49079913,-1.139833,1.1568772,-0.73343456
14,1778585939.5006511,0.07809832,0.55913514,0.43881494,0.015978966,-0.38136467,0.6759103
15,1778585939.5629869,-0.082003236,1.0455412,0.40659937,0.76272935,-2.014415,1.5100124
16,1778585939.624984,-2.3641827,2.5826137,1.1177822,0.6695187,-0.31798145,2.2530344
17,1778585939.6876695,-2.1291554,1.4714211,1.3633038,1.3534185,-2.2210765,3.2613072
18,1778585939.7503192,-1.1768441,0.55059314,0.28505886,2.9603698,-0.5496765,3.3971283
19,1778585939.8126135,0.056133166,-0.38170552,-0.23673552,1.5472966,-1.1318434,1.0498182
20,1778585939.875089,-0.043198135,-0.5339973,-0.34558508,0.70200926,-0.25885928,-0.41438788
21,1778585939.9375782,-0.107629254,-0.61209553,-0.2831064,-0.39574575,0.04261058,-0.8676579
22,1778585939.9999,-0.5779276,-0.10933765,-0.4463807,-1.1057445,0.17150758,-2.7824707
23,1778585940.0626006,-2.6275203,1.1473131,0.69263446,-3.9734364,0.73290193,-3.6464002
24,1778585940.1238697,-1.8814374,1.7747843,0.95670444,-0.6764429,1.6042882,-2.1358552
25,1778585940.1863987,-0.8542004,1.4748379,0.20574026,-1.506284,0.80107886,-1.3012205
26,1778585940.2483563,-0.19915071,0.9488945,0.5349735,-0.54435015,1.8722023,-0.51718587
27,1778585940.3119483,-0.12056428,0.8163715,0.28042176,-0.50813115,0.019707393,0.572047
28,1778585940.3734045,-0.15766099,0.6743302,0.6296677,0.84581995,-1.1536814,1.5425029
29,1778585940.4361515,-0.5635282,1.7638018,0.6850687,0.08841695,-2.100169,0.94488955
30,1778585940.498854,-2.4237325,2.1887054,2.1645436,0.83996105,-2.8852687,2.9092371
31,1778585940.5625286,-1.1297411,0.53936654,0.09884319,3.571299,-0.551807,3.2650356
32,1778585940.6245627,-0.2294138,-0.28042176,-0.011470691,3.1084416,-0.7004114,1.8178738
33,1778585940.6865666,-0.016351834,-0.49616838,-0.50568664,1.6484967,-0.5629923,-0.014913702
34,1778585940.7491045,-0.33435842,-0.6313761,-0.18768002,0.8213189,0.46019423,-0.39840892
35,1778585940.8121068,-0.25357547,-0.26797485,-0.80587703,-1.0982877,-0.81918836,-2.3776703
36,1778585940.8739502,-1.9204865,0.7690244,-0.22453266,-3.2250881,1.963815,-4.0831585
37,1778585940.9366045,-2.029336,1.765022,0.41001618,-1.5845809,1.7134778,-3.2549155
38,1778585940.9992023,-1.0884954,1.4994878,0.17157225,-1.9217371,0.6423545,-2.0133498
39,1778585941.061798,-0.28627914,1.0003906,0.3355787,-1.2639363,0.96299905,-1.4146712
40,1778585941.1240263,-0.21501444,0.8439499,0.27139166,-1.4082797,0.29028457,-0.44315
41,1778585941.1872423,-0.37072295,0.9928249,0.46444094,-0.39734364,-2.2466428,1.3177321
42,1778585941.2484891,-0.895202,1.6612977,0.93278676,0.027164243,-3.50472,2.0383835
43,1778585941.3115466,-1.8980333,1.909992,1.1597601,3.899933,-1.4950987,3.3886063
44,1778585941.373869,-1.3388981,0.9606094,0.31825066,2.1017668,-1.5094798,2.8495824
45,1778585941.437424,-0.35607952,-0.113974735,-0.003172744,2.4357271,-0.28975195,0.88044107
46,1778585941.498611,-0.04490653,-0.3612047,-0.28920785,1.4775218,0.14114754,-0.53529537
47,1778585941.561356,-0.43149322,-0.33020946,-0.27505252,1.3464943,1.0913634,-0.53529537
48,1778585941.6235023,-0.2626056,-0.30677995,-0.3448529,-1.4887071,-0.39254996,-1.6809874
49,1778585941.6867468,-0.6228341,0.40318257,-0.38756293,-2.6274748,-0.36751625,-2.47674
50,1778585941.7486413,-2.2131112,1.4094306,0.66993713,-3.2533176,0.7137272,-2.6274748
51,1778585941.8115542,-1.462391,1.5407335,0.50568664,-1.3837786,1.4183996,-1.5515577
52,1778585941.8732855,-0.30287504,1.0223558,0.24405725,-1.4359765,0.98750013,-0.8996158
53,1778585941.9359872,-0.28627914,0.88055855,0.40098605,-0.23435818,1.7965685,-0.40533313
54,1778585941.9984953,-0.054424766,0.5994046,0.24405725,-0.077231675,-0.20399815,1.158475
55,1778585942.0609066,-0.23087814,1.1580516,0.22233616,0.5858955,-1.423726,2.2498386
56,1778585942.1236098,-1.582223,2.3478308,0.49470404,1.3385048,0.11930962,2.301504
57,1778585942.1857526,-1.7035197,1.338654,1.1131451,1.1872373,-2.8027108,2.8192225
58,1778585942.248155,-0.7392494,0.36315718,-0.16400647,2.5960495,-0.892159,2.4032366
59,1778585942.3107946,-0.0924977,-0.16815543,-0.19744232,1.4551512,-1.6570189,0.88044107
60,1778585942.3735754,-0.23258655,-0.41807005,-0.2762728,0.5592638,-0.96992326,0.16245283
61,1778585942.4355733,-0.16058967,-0.43124917,-0.4966565,-0.7547399,-0.5368933,-0.6535397
62,1778585942.4979045,-0.4544346,-0.049543623,-0.28554696,-2.130529,-0.09853696,-1.9584887
63,1778585942.5608785,-2.01152,1.1917315,0.10201593,-3.503122,1.2389026,-3.0189595
64,1778585942.6232247,-1.5578175,1.4743499,0.8505395,-2.240251,1.9009644,-2.3270702
65,1778585942.6858325,-0.5110559,1.0682385,0.15790504,-0.97418433,2.1885858,-1.419465
66,1778585942.748166,-0.409284,0.84248555,0.45711923,-1.5845809,1.7241305,-1.1653993
67,1778585942.8105242,-0.21745501,0.79611474,0.6057501,-1.0189254,0.66579026,-0.06657903
68,1778585942.8729377,-0.23307467,0.89666635,0.55401,0.011185277,-0.95128113,1.4082797
69,1778585942.936356,-1.5453705,2.1120715,1.2115002,1.6096146,-0.9150622,2.1672804
70,1778585942.9975572,-1.8738716,1.824572,1.1712307,0.7765778,-2.7851338,3.0088394
71,1778585943.0601907,-1.0982577,0.7370529,0.22135992,3.0887344,-0.9257148,3.193663
72,1778585943.1225305,-0.44882128,0.11543907,-0.16986385,0.7536746,-1.9126823,1.7869811
73,1778585943.1852665,-0.24918245,-0.3863426,-0.059549972,0.8767126,-1.4508902,0.046339005
74,1778585943.2475245,-0.22306833,-0.47762007,-0.14497001,0.7137272,-0.72651035,0.09374327
75,1778585943.3101063,-0.44906533,0.009518232,-0.5122762,0.49694586,0.31478566,-0.74302197
76,1778585943.3728106,-0.45370242,0.4458926,-0.5635282,-1.4024206,1.1217234,-2.5086977
77,1778585943.4453673,-1.7235322,1.3213259,0.28115395,-2.4911208,1.6990968,-2.9497173
78,1778585943.4955413,-1.1648853,1.3850248,0.099819414,-0.92944324,2.0644825,-2.4607608
79,1778585943.5498621,-1.1648853,1.3850248,0.099819414,-0.92944324,2.0644825,-2.4607608
80,1778585943.612858,-1.1648853,1.3850248,0.099819414,-0.92944324,2.0644825,-2.4607608
81,1778585943.6753807,-0.39244407,0.9298581,0.34924594,-1.427987,-0.0479369,-0.04314321
82,1778585943.737215,-0.22575295,1.0128375,0.5191097,-1.1046792,-1.1526161,1.653823
83,1778585943.8003173,-0.22575295,1.0128375,0.5191097,-1.1046792,-1.1526161,1.653823
84,1778585943.8424497,-1.9121885,2.0603313,1.3535415,-0.40906155,-3.1915324,2.47674
85,1778585943.9040666,-1.897057,1.5727049,1.8021187,0.5390238,-3.2293491,2.411226
86,1778585943.9673584,-1.897057,1.5727049,1.8021187,0.5390238,-3.2293491,2.411226
87,1778585944.0303924,0.004148973,-0.25748038,-0.40220633,1.8498317,-0.7749799,0.79735047
88,1778585944.09245,0.004148973,-0.25748038,-0.40220633,1.8498317,-0.7749799,0.79735047
89,1778585944.1546354,-0.36901456,-0.23917611,0.03172744,-0.10972224,0.5608617,-1.0743192
90,1778585944.1980438,-0.3128814,-0.06028214,-0.13520771,0.17789917,0.54914385,-1.4460965
91,1778585944.2591307,-1.5112025,1.360131,0.26358184,-2.4437168,1.6575515,-3.1313448
92,1778585944.3211515,-1.3025336,1.4421343,0.41001618,-1.9824572,1.1014835,-2.599778
93,1778585944.3840773,-1.3025336,1.4421343,0.41001618,-1.9824572,1.1014835,-2.599778
94,1778585944.447238,-0.37536004,0.99770606,0.29823795,-0.8447547,0.77391464,-0.46019423
95,1778585944.5091941,-0.08395569,1.0157663,0.3939084,0.2146508,-0.49747851,0.9624664
96,1778585944.5511613,-0.39805737,1.2898425,0.41904628,0.608266,-1.1696603,1.3592775
97,1778585944.6136482,-1.6842391,2.1545374,0.53106856,1.6484967,-0.94808537,2.732936
98,1778585944.6763208,-1.5663594,1.1399914,0.79611474,2.1422467,-1.2431636,3.415238
99,1778585944.7387986,-0.7648754,0.5098356,-0.33826336,1.8690065,-0.4165184,2.9017804
100,1778585944.8011684,-0.21452633,-0.022697324,-0.0976229,-0.32011196,-1.8535602,1.8796592
101,1778585944.8644977,-0.12080834,-0.43661842,0.044662476,0.43675843,-1.2149341,0.26738137
102,1778585944.9274163,-0.17742962,-0.4886026,-0.045882765,0.60240704,-0.16298546,-0.38029942
103,1778585944.9900062,0.020744866,0.0656514,-0.6211257,-0.04474111,0.3552657,-1.7299895
104,1778585945.0525382,-1.6620299,1.1961246,-0.10055158,-2.223207,1.0695255,-3.512177
105,1778585945.1141913,-1.7289016,1.5639188,0.45370242,-2.5150893,0.7339672,-3.4887412
106,1778585945.1775599,-0.61941725,1.2949678,0.17938207,-1.3864417,0.38029942,-1.639442
107,1778585945.2394989,-0.035876416,0.9401085,0.2111095,-0.50653327,1.784318,-1.383246
108,1778585945.3026447,-0.15155955,1.0492021,0.20769271,-0.99282646,-0.072970614,0.24394555
109,1778585945.3643296,-0.3807293,1.2141849,0.5474204,0.2130529,-1.9622171,1.6852484
110,1778585945.4274406,-1.6224926,2.1518528,0.84883106,1.6873789,-0.34088463,2.1688783
111,1778585945.4893985,-1.3923465,1.5053451,0.9781815,1.067395,-1.9984361,2.9129655
112,1778585945.557836,-0.7309515,0.49470404,0.0012202862,0.8697884,-1.4375744,2.1544974
113,1778585945.6166127,-0.2608972,-0.0353883,0.11568313,0.60773337,-1.7848506,1.1456919
114,1778585945.677304,-0.18133454,-0.36803833,-0.1181237,1.2218584,-0.7121293,0.44101948
115,1778585945.7399106,-0.07199689,-0.49250755,-0.35437113,0.5289038,0.7233146,-0.31158987
116,1778585945.8027854,-0.47151858,0.10201593,-0.39927766,-0.88470215,0.5550028,-1.8535602
117,1778585945.8652153,-1.6095576,1.1922196,0.32898918,-2.3148196,1.6202673,-3.1212249
118,1778585945.9273503,-1.4562895,1.5546447,0.41684976,-1.3156016,1.8535602,-2.7920582
119,1778585945.9908764,-0.9135063,1.4526287,0.37755656,-1.4226607,1.2303804,-1.7869811
120,1778585946.053066,-0.22916976,0.9701275,0.2767609,-0.8357,1.5680692,-0.9763149
121,1778585946.1155596,-0.29067218,0.8407772,0.37413976,-1.0215886,0.61891866,-0.020772656
122,1778585946.1774452,-0.1683995,0.9174112,0.47591165,0.6263755,-1.0146644,1.4764565
123,1778585946.2397747,-0.77122086,2.0449557,0.4729829,0.8836369,-1.6682042,1.9552929
124,1778585946.3031545,-1.7933327,1.8484896,1.0247964,0.55979645,-2.2258701,3.1132355
125,1778585946.3652198,-0.6377216,0.65065664,0.46419686,2.0133498,-2.211489,2.3281355
126,1778585946.4282417,-0.1769415,0.067847915,0.025137896,1.3592775,-1.3289174,1.045557
127,1778585946.4904666,0.0012202862,-0.28432667,-0.010738519,1.1020161,-0.644485,0.15393071
128,1778585946.5529203,-0.21306199,-0.50031734,-0.1313028,0.968858,0.18588865,-0.360592
129,1778585946.6198015,-0.2853029,-0.31995904,-0.048567392,-0.78936094,0.036751624,-1.8903117
130,1778585946.6792269,-0.9652464,0.48957884,-0.6587105,-1.7997643,1.2591426,-3.3087113
131,1778585946.7410357,-2.2062776,1.5873483,0.68994987,-2.6897926,1.2452941,-3.2032502
132,1778585946.8036923,-1.8152978,1.8580079,0.67799103,-1.4753913,1.4008228,-2.7281423
133,1778585946.8664138,-0.311173,1.0428566,0.34558508,-1.0982877,0.52624065,-1.6559536
134,1778585946.9285264,-0.25406358,0.9440134,0.30555966,-0.3291667,1.010936,-0.47404268
135,1778585946.9919846,-0.13398743,0.707766,0.33069757,-0.042077947,-0.50120693,1.117995
136,1778585947.054597,-0.5193538,1.082638,0.39024755,0.9619338,-1.9462382,2.7020433
137,1778585947.1178114,-2.4064045,2.3981063,0.9711038,1.2634037,-0.3110572,2.8932583
138,1778585947.1791685,-1.4721533,0.9752528,0.7602383,2.7686224,-2.0602214,3.4770231
139,1778585947.2419899,-0.3141017,0.003172744,-0.33460248,1.5664713,-1.3374395,1.4865766
140,1778585947.3046327,-0.0690682,-0.36632994,-0.108117364,0.15020229,-1.8540928,-0.17949706
141,1778585947.3678465,-0.1952458,-0.4888467,-0.13276714,0.12144015,-0.4426174,-0.5864281
142,1778585947.4299433,-0.46029195,-0.16766733,-0.4612682,-0.5747102,0.55766594,-0.9827065
143,1778585947.4924772,-1.5202327,0.80246025,-0.07224095,-1.7875137,2.1273332,-2.2919164
144,1778585947.5552213,-1.4299314,1.2288283,0.7150877,-3.2405345,0.90654004,-2.092712
145,1778585947.6176364,-1.3716017,1.4484798,0.71093875,-0.7552725,2.4746094,-1.6048208
146,1778585947.6819463,-0.2928687,1.0330943,0.17938207,-1.8125474,0.8996158,-1.0615361
147,1778585947.7433605,-0.20988922,0.8022162,0.5789038,-0.912399,1.123854,-0.31638354
148,1778585947.8063095,-0.15936938,0.8859278,0.4932397,-0.3190467,-0.5928197,1.0322412
149,1778585947.8682952,-0.44345203,1.4201691,0.75657743,0.6625945,-2.1891184,1.5712651
150,1778585947.930752,-1.5875924,1.9258556,1.1741594,1.8658108,-1.623463,2.1917815
151,1778585947.9931536,-1.219066,0.9964857,0.026846299,3.8157773,-0.5320996,2.7888622
152,1778585948.056805,-0.47786412,0.16547081,-0.09152147,1.1446266,-1.037035,1.9531624
153,1778585948.1190813,-0.0056133163,-0.31532198,-0.05296042,1.3475596,-0.44900897,0.72491246
154,1778585948.1815112,-0.10177187,-0.45809543,-0.20281157,0.44315,-0.3616573,-0.23276028
155,1778585948.2438736,-0.23697957,-0.353883,-0.14789869,-0.6673882,-0.00479369,-1.526524
156,1778585948.306931,-0.64089435,0.4756676,-0.46224442,-1.6500946,0.10066749,-2.7435887
157,1778585948.3689482,-2.0686293,1.5158396,0.3231318,-3.4051178,0.8165252,-2.514024
158,1778585948.431315,-1.32157,1.4926541,0.5747548,-1.7960359,1.5100124,-1.9052255
159,1778585948.4937556,-0.4497975,1.0853225,0.2894519,-1.2809805,0.9305085,-0.9150622
160,1778585948.5567856,-0.2945771,0.82100856,0.39317623,-0.90494215,1.325189,-0.32863408
161,1778585948.6187997,-0.122272685,0.7421781,0.41587353,-0.2615224,0.45486793,0.5475459
