id,timestamp,acc_x,acc_y,acc_z,gyro_x,gyro_y,gyro_z
1,1778588196.8039474,0.746083,-3.8780696,-0.16986385,-4.2962117,1.5201324,2.102832
2,1778588196.8239293,2.442525,-3.3396795,1.8824136,-5.122324,1.3938985,1.6729978
3,1778588196.8453996,1.9014499,-2.147704,0.46151224,-2.7015107,-0.4362258,0.23329292
4,1778588196.8653872,0.71728426,-1.0465174,0.63454884,-2.5683527,-1.7635453,-1.2852416
5,1778588196.8870833,-0.3275248,-0.50544256,1.4135796,-2.8858013,-2.728675,-0.9715212
6,1778588196.9076173,-0.093473926,-0.67677075,0.7878168,-1.7507621,-0.47031426,0.67484504
7,1778588196.9283228,0.26919514,-0.91448253,0.13520771,-1.2335763,-1.0641992,1.7672738
8,1778588196.9492378,0.3226437,-0.41099238,0.38146147,-1.3843112,-0.8809737,1.5893745
9,1778588196.970024,0.4097721,-0.043930303,1.0355349,-0.79202414,0.9507485,1.3060142
10,1778588196.990922,0.83809257,-0.24527754,0.9135063,1.0072075,0.8543421,0.7600662
11,1778588197.0120416,0.5047104,-0.27261195,0.15326795,2.8927257,-0.37124467,-0.67537767
12,1778588197.0321681,0.5047104,-0.27261195,0.15326795,2.8927257,-0.37124467,-0.67537767
13,1778588197.0534208,0.4249037,-0.17035197,-0.319715,2.4176178,1.5425029,-1.8924423
14,1778588197.0744896,0.50593066,-0.42417148,-0.12056428,2.4176178,1.5425029,-1.8924423
15,1778588197.0950196,0.5383903,-1.4784988,0.102748096,2.7670245,3.4099116,-2.521481
16,1778588197.1155996,0.19548985,-3.6501203,1.2251674,3.2218924,5.4110107,-2.8687572
17,1778588197.1368642,0.19548985,-3.6501203,1.2251674,3.2218924,5.4110107,-2.8687572
18,1778588197.1571686,0.775858,-3.678675,0.7197248,4.6259108,-1.3795174,-0.53795856
19,1778588197.1782293,0.673598,-2.2919416,-0.32947728,4.6259108,-1.3795174,-0.53795856
20,1778588197.1990566,0.37218732,-0.9757409,-0.42026657,3.3870084,1.0945592,-0.49375007
21,1778588197.2196147,0.7404697,-0.49299565,-0.8668914,1.9451729,2.935336,-0.40107206
22,1778588197.2406108,0.082247294,-0.3704789,-0.447601,0.31798145,4.6104646,-0.19121496
23,1778588197.2614787,-0.2169669,-0.2203837,-0.15790504,-0.57151437,2.2631543,0.47617322
24,1778588197.2823484,-0.40196228,0.107629254,0.032215554,-0.57151437,2.2631543,0.47617322
25,1778588197.3035765,-0.6999562,0.68384844,-0.6355251,-2.209891,-0.23062976,1.8301244
26,1778588197.323862,-0.4385709,0.8324793,-0.6062382,-2.6482475,-1.6197346,2.444782
27,1778588197.3450491,-0.022941383,0.72631437,-0.71167094,-2.6482475,-1.6197346,2.444782
28,1778588197.3655767,0.011470691,0.24869433,-0.1164153,-1.1840415,-4.3350935,2.0799289
29,1778588197.3863976,1.4501882,-0.64235866,5.3023877,3.943609,-0.99442434,0.11824436
30,1778588197.407125,-0.25552794,-0.6347929,-2.0227466,3.4099116,1.3630059,-0.984837
31,1778588197.4277477,-0.35607952,-0.6074585,-1.6271297,-0.8772453,-2.5007083,-0.8005462
32,1778588197.448753,-0.46834585,-0.7497439,-0.52252656,-2.5577,-2.076733,-0.58696073
33,1778588197.469552,-0.673842,-1.1565872,-0.6638357,-2.3297334,-0.74781567,-0.34674358
34,1778588197.4903443,-0.73388016,-1.4333482,-0.95011485,-2.420281,-1.8780613,0.41864893
35,1778588197.5114949,-0.21086545,-2.0637481,-0.83858067,-3.0546458,-0.6679208,1.31933
36,1778588197.5319142,-0.33753118,-2.8239865,-0.014399378,-3.0546458,-0.6679208,1.31933
37,1778588197.553058,-0.33753118,-2.8239865,-0.014399378,-3.0546458,-0.6679208,1.31933
38,1778588197.5739207,1.7398841,-3.0294826,0.37999713,-3.5899413,0.62531024,2.2050974
39,1778588197.5955627,2.178699,-1.6149268,0.302631,-2.9870014,-3.583017,-0.7302388
40,1778588197.6153193,1.1565872,-0.8993509,0.933519,-2.731338,-2.761698,-1.530785
41,1778588197.6360176,0.81295466,-0.73290396,1.108264,-2.058091,-1.0290455,-0.20133498
42,1778588197.656725,0.81295466,-0.73290396,1.108264,-2.058091,-1.0290455,-0.20133498
43,1778588197.6778738,0.23258655,-0.81319875,0.51642513,-2.0799289,0.2711098,0.73343456
44,1778588197.6987524,0.23258655,-0.81319875,0.51642513,-2.0799289,0.2711098,0.73343456
45,1778588197.7198858,0.1552204,-0.30385128,0.9969738,0.91452956,0.78723043,0.9901633
46,1778588197.740808,0.43368974,-0.28749946,0.8678676,2.2077606,0.84422207,0.16405073
47,1778588197.7612493,0.5879339,-0.4271002,0.3338703,2.9028456,0.18002969,-0.6508766
48,1778588197.781655,0.6369894,-0.20500809,-0.13911264,2.8650289,-0.0026631611,-1.2394352
49,1778588197.803001,0.30800024,-0.08615221,-0.18060236,2.4596956,1.0929613,-1.76248
50,1778588197.8235908,0.5132524,-0.4698102,0.02318544,2.5859294,2.1353226,-2.1225395
51,1778588197.8444123,0.53033644,-0.6101431,-0.031239327,3.5361454,3.560114,-2.5001757
52,1778588197.865003,0.82906246,-3.7133312,0.6882414,4.0762343,4.521515,-2.9273467
53,1778588197.8859148,0.71191496,-5.487383,1.5741693,2.2700787,4.726578,-3.1606395
54,1778588197.906874,0.35485923,-3.7179682,1.0296775,3.6069853,-0.6593987,-1.3954965
55,1778588197.9275753,0.23356278,-1.7084008,-0.839801,5.3002234,-1.464206,-1.0940266
56,1778588197.9482658,0.272856,-0.93327487,-0.6142921,3.9249668,1.0604708,-0.82185155
57,1778588197.969501,0.272856,-0.93327487,-0.6142921,3.9249668,1.0604708,-0.82185155
58,1778588197.9899836,0.058085624,-0.48445365,-0.2806658,0.40426785,4.375041,-0.9155948
59,1778588198.011264,-0.37145513,-0.2518671,-0.11275445,-1.0945592,0.42290998,0.72917354
60,1778588198.032253,-0.6894617,0.18304294,0.08908089,-1.0945592,0.42290998,0.72917354
61,1778588198.0527532,-0.9169231,0.4842096,-0.15595257,-2.1528995,-1.2612731,1.5174692
62,1778588198.0735064,-0.21623473,0.84907514,-0.6033095,-2.6471822,-1.1227888,2.422944
63,1778588198.0941498,-0.09542638,0.6157564,-0.7658516,-2.183792,-1.6612799,2.7361317
64,1778588198.1150622,0.18157859,0.12373702,-0.015375607,-0.75793564,-1.9947077,2.0005667
65,1778588198.136144,0.82711005,-1.6217605,3.8932014,6.289854,-2.4778051,-0.07403588
66,1778588198.1565545,0.82711005,-1.6217605,3.8932014,6.289854,-2.4778051,-0.07403588
67,1778588198.1776462,-0.097134784,-0.59281504,-1.5570853,-1.9835224,-2.0762005,-0.82824314
68,1778588198.1984363,-0.22258021,-0.61722076,-0.6914142,-3.1569111,-0.6689861,-1.0354371
69,1778588198.2190764,-0.6577343,-0.92814976,-0.5789038,-2.6823359,-0.6988135,-1.071656
70,1778588198.2400148,-0.9071608,-1.4267586,-1.0260166,-2.3276029,-2.249306,0.09640643
71,1778588198.2605815,-0.4846977,-1.8511744,-1.0128375,-2.6237464,-2.1177456,1.4045511
72,1778588198.2815013,-0.23575929,-2.2243378,-0.8102701,-2.99073,-0.85966843,1.9387813
73,1778588198.3024657,0.4720067,-3.930298,-0.6530972,-5.690643,1.7150757,2.487925
74,1778588198.3231776,2.5338023,-3.807537,2.2665596,-6.79692,1.6186694,2.020274
75,1778588198.3440986,1.7069364,-1.9985847,0.14497001,-2.7206855,-1.3081448,-0.19014971
76,1778588198.3644693,1.7069364,-1.9985847,0.14497001,-2.7206855,-1.3081448,-0.19014971
77,1778588198.3859491,-0.20061506,-0.47542354,1.3449996,-2.56782,-2.5289378,-0.8527442
78,1778588198.406778,-0.2255089,-0.56670094,0.9076489,-1.3592775,0.76592517,1.0482203
79,1778588198.4274025,0.1381364,-0.7438865,0.53985465,-1.186172,-0.5795039,2.0335898
80,1778588198.4479337,0.2801777,-0.40781966,1.0828819,-0.5773733,0.28122982,1.5611451
81,1778588198.4692276,0.7224094,-0.4790844,0.84517026,1.0476876,0.15446335,0.7781757
82,1778588198.489571,0.622346,-0.61502427,0.45174995,2.359028,-0.12676647,-0.11451593
83,1778588198.511578,0.5293602,-0.35412705,-0.038561042,2.9417279,-0.38296258,-0.8863
84,1778588198.531245,0.5422952,-0.18597162,-0.3648656,2.812298,-0.05273059,-1.5664713
85,1778588198.5523345,0.35315084,-0.071264714,-0.14692247,2.5774074,2.4905882,-2.4873924
86,1778588198.5729327,0.35315084,-0.071264714,-0.14692247,2.5774074,2.4905882,-2.4873924
87,1778588198.5935335,0.4339338,-1.7079126,0.12129646,3.8445394,5.037636,-2.4628913
88,1778588198.614367,0.7226535,-2.9020846,0.8261338,3.8445394,5.037636,-2.4628913
89,1778588198.6354268,0.46785772,-4.8708944,1.8123692,3.9702406,-0.046339005,-1.3182647
90,1778588198.6562319,0.22599702,-2.6275203,-0.2979939,5.451491,-1.0242518,-0.20080236
91,1778588198.6770756,0.33118567,-1.6076051,-0.6855568,4.1396174,1.7608821,0.13315806
92,1778588198.6979723,1.185142,-0.9689073,-0.64187056,2.5933864,2.0980384,0.058056913
93,1778588198.718615,1.1661055,-0.8668914,-0.4583395,2.5933864,2.0980384,0.058056913
94,1778588198.739498,-0.19231711,-0.1889003,-0.10958171,-0.104928546,1.6282567,-0.84688526
95,1778588198.7603729,-0.35290676,0.19475769,-0.050763905,-1.1307782,0.8479505,0.054328486
96,1778588198.7809458,-0.35290676,0.19475769,-0.050763905,-1.1307782,0.8479505,0.054328486
97,1778588198.8019595,-0.10884953,0.64772797,-0.8341876,-1.6650083,1.4322481,1.2287825
98,1778588198.822781,-0.10884953,0.64772797,-0.8341876,-1.9089539,0.17576863,2.406965
99,1778588198.8435836,0.070532545,0.073217176,-0.3431445,-1.9952403,-3.5542548,2.5944517
100,1778588198.8646002,0.44516042,-0.22062775,7.987262,-1.4476944,-4.077832,2.2040322
101,1778588198.8852687,0.11348662,-0.5342413,-0.30580372,5.431251,-2.564624,1.0466223
102,1778588198.9059377,-0.21062139,-0.25089085,-1.5934497,1.9441077,-1.4759239,-0.41065946
103,1778588198.9266062,-0.35656762,-0.45907167,-1.0201592,-0.64341974,-3.2112398,-0.78989357
104,1778588198.947472,-0.25308737,-0.56426036,-0.60599416,-1.7907095,-0.27483824,-0.964597
105,1778588198.9685187,-0.5232587,-1.3608632,-1.3359693,-2.3441145,0.3009372,-0.71159667
106,1778588198.9893281,-0.049543623,-2.0486166,-1.539025,-3.148389,-0.46924898,0.4111921
107,1778588199.0105093,0.24845028,-2.5196471,-1.1870944,-4.234426,0.010652645,1.0610034
108,1778588199.0311286,0.8232051,-3.537366,-0.008542004,-4.7526774,0.19600865,1.2399678
109,1778588199.0522006,2.118173,-2.4078689,0.18133454,-3.0328078,-1.1275824,1.6431705
110,1778588199.0725982,2.0881538,-1.9861377,0.2633378,-3.0328078,-1.1275824,1.6431705
111,1778588199.0940518,0.6967834,-0.82442534,1.1397473,-3.3593116,-4.0746365,-0.4181163
112,1778588199.1144924,0.27944556,-0.77659017,1.2815446,-2.1576931,-2.9012477,0.51718587
113,1778588199.1352642,0.38927132,-0.8222289,0.89007676,-2.1576931,-2.9012477,0.51718587
114,1778588199.155586,0.22990192,-0.8515157,0.2523552,-1.617604,-0.1768339,1.2085425
115,1778588199.1763647,0.19134088,-0.34924594,0.86469483,-1.2921658,-0.13848437,1.6058862
116,1778588199.1970367,0.19134088,-0.34924594,0.86469483,-1.2921658,-0.13848437,1.6058862
117,1778588199.21831,0.73632073,-0.46810177,0.48152497,2.1252027,0.76752305,-0.016511599
118,1778588199.239047,0.5195979,-0.39830142,0.2706595,2.1252027,0.76752305,-0.016511599
119,1778588199.260003,0.2706595,-0.12935033,0.06613952,2.9364014,0.6178534,-1.5078819
120,1778588199.280767,0.19500175,-0.08053889,-0.07199689,2.9364014,0.6178534,-1.5078819
121,1778588199.3018558,0.12666571,-0.25894472,-0.10030753,2.4863272,2.1193435,-1.8897791
122,1778588199.3221078,0.19109683,-0.36803833,-0.06369894,3.1968586,2.8186898,-2.0197413
123,1778588199.3437972,0.400742,-2.9911656,0.46029195,4.171043,3.802994,-2.2077606
124,1778588199.3640974,0.9545079,-5.6269836,2.4967055,2.9150963,8.38736,-2.372344
125,1778588199.3849561,0.23014598,-4.194856,1.4767904,2.7686224,0.48522797,-2.2445123
126,1778588199.4059122,0.23014598,-4.194856,1.4767904,2.7686224,0.48522797,-2.2445123
127,1778588199.4265463,0.39073566,-1.2942356,-0.80563295,4.074104,0.7499462,-0.7366304
128,1778588199.4472704,1.0172306,-0.6958072,-0.6133158,2.54758,2.5060346,-0.28495824
129,1778588199.4685426,0.102992155,-0.485918,-0.23331872,1.0045444,4.1193776,-1.0860372
130,1778588199.4892552,-0.37536004,-0.18231077,-0.10884953,-0.18109496,2.7766118,-0.79255676
131,1778588199.5099778,-0.5183776,0.12666571,0.078830495,-1.1749867,0.80374205,0.06391586
132,1778588199.5303726,-0.85127175,0.35656762,0.13081467,-2.052232,0.112918034,0.7701862
133,1778588199.551484,-0.39878955,0.9196077,-0.66969305,-2.2551649,0.14274544,1.5813851
134,1778588199.5720344,0.05418071,0.2936009,-0.7941623,-2.2599585,-0.84688526,2.2487733
135,1778588199.5927896,0.08297946,0.15448824,-0.49446,-2.2871227,-2.6072347,2.1278658
136,1778588199.6139572,0.08297946,0.15448824,-0.49446,-2.2871227,-2.6072347,2.1278658
137,1778588199.6343658,0.41245672,-1.6947334,3.3784842,1.0231866,-4.483698,1.0684602
138,1778588199.655479,0.41245672,-1.6947334,3.3784842,1.0231866,-4.483698,1.0684602
139,1778588199.6765506,-0.25406358,-0.66969305,-0.93205464,-2.5347967,0.13156016,-1.3321131
140,1778588199.6973228,-0.25406358,-0.66969305,-0.93205464,-2.5347967,0.13156016,-1.3321131
141,1778588199.7181215,-0.6967834,-1.3181533,-1.0906918,-2.766492,-2.088451,0.0063915867
142,1778588199.7385073,-0.6228341,-1.5497636,-1.2629962,-2.766492,-2.088451,0.0063915867
143,1778588199.760011,-0.23746772,-2.2594821,-0.73485637,-3.7529266,-1.9366508,1.6245283
144,1778588199.780422,-0.19280522,-4.0010743,1.0843463,-4.609932,-0.39947417,2.163552
145,1778588199.801298,1.8948604,-3.790453,0.66066295,-3.8392131,0.11611383,1.9126823
146,1778588199.8218334,2.5479577,-2.200664,0.41074833,-3.0131006,-0.8048073,0.27483824
147,1778588199.8431876,2.080344,-1.2637285,0.61722076,-3.0519826,-2.8623655,-1.6548884
148,1778588199.8634868,0.473227,-0.41221267,1.4353007,-2.4304008,-3.2724924,-0.59761333
149,1778588199.884496,0.12007617,-0.6035536,0.48957884,-1.1781825,0.14114754,1.212271
150,1778588199.9051285,0.12007617,-0.6035536,0.48957884,-1.1781825,0.14114754,1.212271
151,1778588199.9259703,-0.07248501,-0.5210622,0.8815348,-1.3060142,-0.0628506,1.6271914
152,1778588199.9466937,0.32972133,-0.36706212,1.0023432,0.7233146,0.79042625,1.206412
153,1778588199.9680388,0.72631437,-0.4510178,0.6572462,2.2386532,0.63010395,0.4181163
154,1778588199.988612,0.45467865,-0.45345837,0.16132185,3.0146985,0.26631612,-0.40426785
155,1778588200.0098155,0.45467865,-0.45345837,0.16132185,3.0146985,0.26631612,-0.40426785
156,1778588200.0299172,0.24771811,-0.09689073,-0.38707477,2.8181572,0.8974853,-1.6921726
157,1778588200.051164,0.11519502,-0.006833603,-0.12495731,2.6072347,2.202967,-1.9606192
158,1778588200.0722363,0.19622204,-0.4554108,0.08371163,3.2650356,2.57794,-2.117213
159,1778588200.0931108,0.08371163,-1.4084544,0.59183884,4.359595,3.5393412,-2.1523669
160,1778588200.1139061,1.5334117,-5.3265495,1.7891837,3.7939394,8.124772,-2.011752
161,1778588200.1343226,0.24527754,-3.2310739,0.36462155,5.3215284,-3.987285,-0.9102685
162,1778588200.1551075,0.55010504,-1.74745,-0.82296103,4.5252433,1.0066749,-0.76272935
163,1778588200.176045,0.8498074,-0.7890371,-0.75169635,2.8884647,2.8799424,-0.30466563
164,1778588200.1965194,0.8891005,-0.51618105,-0.56645685,0.8767126,4.2067294,-0.89375687
165,1778588200.2179923,-0.10152781,-0.37926495,-0.1803583,-0.4149205,2.6056368,-0.44368264
166,1778588200.2384806,-0.27432033,-0.19500175,-0.15619664,-1.3267869,0.8990832,0.37710363
167,1778588200.259409,-0.6452874,0.25479576,0.25430766,-2.1299963,0.07882957,1.0508834
168,1778588200.279738,-0.8808026,0.50544256,0.060770255,-2.1299963,0.07882957,1.0508834
169,1778588200.3009524,-0.88055855,0.6221019,0.011470691,-2.1603563,0.68816084,1.897236
170,1778588200.3217535,0.17084008,0.4729829,-0.98525906,-2.1108215,-2.6120284,1.7992316
171,1778588200.3425584,0.14887492,0.026358182,-0.15375607,-1.8157432,-3.657053,1.2511531
172,1778588200.3633542,0.17620933,0.021232981,0.49177536,-0.39627838,-4.443218,0.70147663
173,1778588200.3842957,0.09054524,-0.6535853,-0.99038434,4.035754,-3.2261534,-0.46498793
174,1778588200.405297,-0.1849954,-0.4698102,-1.4987555,-0.350472,-2.091114,-0.6924219
175,1778588200.4258199,-0.2677308,-0.4417436,-0.58988637,-2.0596888,0.14434333,-0.6689861
176,1778588200.4463701,-0.44052333,-0.56987363,-0.6635916,-2.2610238,0.77231675,-0.509729
177,1778588200.46751,-0.44052333,-0.56987363,-0.6635916,-2.2610238,0.77231675,-0.509729
178,1778588200.4885635,-0.03172744,-1.8894912,-1.2666571,-3.4887412,-1.1185277,1.4546186
179,1778588200.5092976,0.20696054,-2.6184902,-0.7819594,-3.942011,-0.2263687,1.5659387
180,1778588200.5298,0.20696054,-2.6184902,-0.7819594,-3.942011,-0.2263687,1.5659387
181,1778588200.550828,2.8874412,-3.2735398,2.2641191,-6.356433,-2.0314593,1.1414309
182,1778588200.571599,2.0054183,-2.0564265,0.71045065,-3.149987,-1.4354439,-0.20772657
183,1778588200.5925076,0.30433938,-0.7580418,0.94938266,-2.8927257,-2.4208136,-0.4293016
184,1778588200.6135683,-0.13862452,-0.6186851,1.1949043,-2.8927257,-2.4208136,-0.4293016
185,1778588200.6343617,0.16205402,-0.91057765,0.5017817,-0.96939063,-0.2860235,2.2833943
186,1778588200.6546843,0.6101431,-0.8793382,0.17889395,-0.96939063,-0.2860235,2.2833943
187,1778588200.6757867,0.41050428,-0.3099527,1.0084445,-0.101200126,0.74728304,0.9155948
188,1778588200.6967106,0.88836837,-0.43295756,0.7822035,1.6628778,-0.36751625,0.294013
189,1778588200.717397,0.7226535,-0.53643787,0.5637722,1.6628778,-0.36751625,0.294013
190,1778588200.7380073,0.36047253,-0.36779428,-0.02391761,3.0652986,0.60507023,-1.0279802
191,1778588200.7592075,0.15058333,-0.15668476,-0.24308102,2.7249465,1.4966966,-1.4088123
192,1778588200.7801192,0.088104665,0.014887493,-0.35974038,2.292449,2.5374599,-1.5707325
193,1778588200.8011243,0.24356914,-0.26577836,-0.06687169,2.809635,3.3321471,-1.6996294
194,1778588200.8214955,0.28505886,-1.1456047,0.29213652,3.9787626,3.8748994,-1.9041603
195,1778588200.8425167,0.81539524,-3.4800124,1.4165082,4.5864964,6.838465,-2.3222766
196,1778588200.8633075,0.8402891,-5.419047,1.7935767,3.37316,0.9667275,-2.5331988
197,1778588200.8838599,0.16717921,-4.309075,0.88055855,4.743623,-3.6597161,-0.6625945
198,1778588200.9045494,0.58207655,-1.4338363,-0.5544981,4.5209823,1.5755261,-0.4825648
199,1778588200.9255216,0.66115105,-1.1197346,-0.4041588,3.3523872,2.8932583,-0.31318775
200,1778588200.9461434,0.4144092,-0.7197248,-0.511788,1.7459685,3.323625,-0.90174633
201,1778588200.96696,-0.017328065,-0.61966133,-0.30067852,0.38722363,3.0200248,-0.9171927
202,1778588200.988194,-0.58256465,-0.036852647,0.0741934,-0.3653857,1.1536814,0.1470065
203,1778588201.0089355,-0.74315435,0.2853029,-0.08517598,-1.284709,-0.62371236,1.1771172
204,1778588201.0298984,-0.74315435,0.2853029,-0.08517598,-1.284709,-0.62371236,1.1771172
205,1778588201.050743,-0.3219115,1.0692148,-0.60648227,-2.283927,-2.010154,2.576342
206,1778588201.0711362,-0.039781332,0.7353445,-1.0484699,-2.283927,-2.3798008,2.2583606
207,1778588201.0921538,1.9434278,-0.30897647,6.619565,-2.1949775,-2.4671526,1.9382486
208,1778588201.1129513,0.5344854,-1.4499441,2.7190418,-0.90174633,-2.253567,1.1691277
209,1778588201.1340709,0.5344854,-1.4499441,2.7190418,6.035256,-1.0519487,-0.61838603
210,1778588201.1541388,-0.25211114,-0.27383223,-1.1968567,-1.9702066,-2.6359968,-0.36591834
211,1778588201.1753805,-0.23356278,-0.31141704,-0.8917852,-1.9702066,-2.6359968,-0.36591834
212,1778588201.1961434,-0.6491923,-0.7487676,-0.88739216,-2.427205,-1.700162,-0.32170987
213,1778588201.2173865,-0.8107582,-1.8128573,-1.5487872,-3.3779535,-1.5994946,1.0535465
214,1778588201.237434,-0.6560259,-2.1257386,-1.449456,-3.3779535,-1.5994946,1.0535465
215,1778588201.2586,0.17352471,-3.0128868,-0.9183875,-4.598747,0.95234644,1.8844528
216,1778588201.2797115,0.7643873,-4.305902,0.49812084,-5.797169,2.5960495,1.5707325
217,1778588201.3003557,2.6243474,-2.9191687,1.9541665,-4.2083273,-0.5906891,0.23062976
218,1778588201.320957,1.7149903,-1.986626,0.25284332,-4.2083273,-0.5906891,0.23062976
219,1778588201.3418443,1.7149903,-1.986626,0.25284332,-4.2083273,-0.5906891,0.23062976
220,1778588201.3629913,-0.15277983,-0.47713193,1.1353543,-1.8951055,-0.7946873,0.66152924
221,1778588201.3840451,-0.19817449,-0.6130718,0.7814713,-1.8951055,-0.7946873,0.66152924
222,1778588201.404955,0.37682438,-0.95524013,0.2518671,-1.3342438,0.25406557,1.6820526
223,1778588201.425284,0.3590082,-0.22672918,1.3786794,-0.35792887,1.454086,1.0695255
224,1778588201.4458594,0.82100856,-0.33362624,1.1919756,1.5275892,-0.28655612,0.5390238
225,1778588201.466848,0.52911615,-0.70288485,0.14472595,2.7846012,-1.0263823,-0.21678132
226,1778588201.4873726,0.52911615,-0.70288485,0.14472595,2.7846012,-1.0263823,-0.21678132
227,1778588201.5090144,0.25894472,-0.2203837,-0.53253293,2.9092371,0.6109292,-1.5286545
228,1778588201.5289228,0.23746772,-0.06760386,-0.38780698,2.453304,2.2226744,-1.8865833
229,1778588201.550156,0.3380193,-0.2979939,-0.23087814,2.817092,3.7603836,-2.027731
230,1778588201.5709655,0.20964517,-1.0684826,-0.29774985,3.419499,4.359062,-2.0330572
231,1778588201.591843,0.16180995,-2.9057455,1.1624447,3.3827472,6.321279,-2.0010993
232,1778588201.612634,0.6230781,-4.9099436,1.8909554,2.877812,4.553473,-1.7971011
233,1778588201.6341105,0.83784854,-3.4719584,0.32117933,3.733752,-2.2945797,-0.84422207
234,1778588201.6543589,0.32606047,-1.2627522,-0.48640612,3.4408042,2.3787355,-0.87351686
235,1778588201.6752498,0.47347105,-0.84199744,-0.60819066,2.382464,2.5454495,-0.24554345
236,1778588201.6957486,0.2208718,-0.51593703,-0.48518583,0.92997587,3.6618466,-0.2876214
237,1778588201.716966,-0.15790504,-0.25430766,-0.12910628,0.92997587,3.6618466,-0.2876214
238,1778588201.7376318,-0.2848148,-0.0993313,0.021721095,-0.1257012,2.0543625,0.15073492
239,1778588201.7581666,-0.83077085,0.5086153,-0.14594623,-2.0069582,-0.5422196,1.1728562
240,1778588201.779511,-0.75438094,0.98111016,-0.469078,-2.1736722,-0.5139901,1.9829898
241,1778588201.7995403,-0.24771811,0.85908157,-0.7822035,-1.5419703,-2.0714068,2.1475732
242,1778588201.8209047,0.10348027,0.20793676,-0.29872608,-1.5419703,-2.0714068,2.1475732
243,1778588201.8415747,0.10348027,0.20793676,-0.29872608,-0.96992326,-3.478621,1.7528926
244,1778588201.8625295,0.107385196,-0.92863786,-0.59842837,5.622998,-1.582983,-0.51452273
245,1778588201.8829665,-0.17645338,-0.73680884,-1.8299413,0.46658584,-0.53742594,-0.8016115
246,1778588201.903748,-0.17645338,-0.73680884,-1.8299413,0.46658584,-0.53742594,-0.8016115
247,1778588201.9247506,-0.49641246,-0.91521466,-0.52203846,-2.8186898,-0.89322424,-0.4000068
248,1778588201.9454498,-0.39244407,-1.6010156,-1.4819156,-2.7622306,-3.5824845,0.4857606
249,1778588201.966538,-0.39244407,-1.6010156,-1.4819156,-2.7622306,-3.5824845,0.4857606
250,1778588201.9872115,-0.10055158,-2.5838342,-0.81490713,-4.1657166,-0.77125144,1.0226538
251,1778588202.0084357,0.42954078,-3.6139996,-0.099575356,-4.1199102,-0.14647387,1.3544837
252,1778588202.0287259,2.450579,-3.6166844,2.12403,-5.225122,-1.0013486,1.4199976
253,1778588202.0498505,2.2785184,-2.9867725,0.96402615,-3.4461305,-1.4546186,0.4527374
254,1778588202.0704858,1.0272369,-1.120955,0.7145996,-2.441586,-1.4764565,-1.0088054
255,1778588202.0918937,0.36169282,-0.45370242,1.4858205,-2.4138892,-2.6860642,-1.1073424
256,1778588202.1121426,-0.059549972,-0.42685616,0.8422416,-1.4285196,-1.0349044,0.14114754
257,1778588202.1335196,0.18304294,-0.5181335,0.09493827,-1.4546186,-0.22530343,2.001632
258,1778588202.1536155,0.12398108,-0.31947094,0.55620646,-1.4546186,-0.22530343,2.001632
259,1778588202.1745207,0.12398108,-0.31947094,0.55620646,-1.4546186,-0.22530343,2.001632
260,1778588202.1954603,0.7844,-0.46419686,0.8546885,1.375789,0.84688526,0.53795856
261,1778588202.2172723,0.5000733,-0.4271002,0.08590815,3.0290794,-0.90174633,-0.7840346
262,1778588202.2366827,0.5051985,-0.1867038,-0.04759116,2.8160267,-0.3637878,-1.3448963
263,1778588202.2580638,0.4463807,-0.1181237,-0.22892569,2.8160267,-0.3637878,-1.3448963
264,1778588202.278737,0.27310005,-0.28042176,-0.12324891,2.748915,3.2921999,-1.8940402
265,1778588202.299553,0.42099872,-0.48103684,-0.079562664,2.748915,3.2921999,-1.8940402
266,1778588202.3200316,0.84663457,-2.6121447,0.03929322,3.6485307,5.7827883,-3.1057785
267,1778588202.341306,0.47103047,-5.4424767,1.8082201,2.593919,4.3404202,-3.2666335
268,1778588202.362051,-0.008297946,-5.336312,2.0652125,2.593919,4.3404202,-3.2666335
269,1778588202.3830733,0.47493544,-2.059843,-0.7592621,4.9811764,0.30040458,-0.38562572
270,1778588202.4038556,0.54864067,-1.5873483,-0.85127175,4.9811764,0.30040458,-0.38562572
271,1778588202.4245062,0.54864067,-1.5873483,-0.85127175,4.9811764,0.30040458,-0.38562572
272,1778588202.4457605,-0.042221904,-0.5427833,-0.19744232,0.18429075,3.6187034,-1.0386329
273,1778588202.4660735,-0.042221904,-0.5427833,-0.19744232,0.18429075,3.6187034,-1.0386329
274,1778588202.486573,-0.460536,0.03172744,0.1483868,-0.4149205,1.675661,-0.06178534
275,1778588202.5082362,-0.8866599,0.60599416,-0.15180361,-2.2786007,-0.3637878,1.2255868
276,1778588202.5284672,-0.6369894,0.89105296,-0.05832968,-2.4740767,-0.294013,2.0149477
277,1778588202.5491772,0.032703668,0.49982923,-0.7700006,-1.8540928,-2.2658174,2.3004386
278,1778588202.5702217,0.09884319,0.16595893,-0.47762007,-1.2921658,-3.4365432,1.9366508
279,1778588202.5912218,1.5504957,-0.31532198,6.779178,-0.8900285,-3.4594464,1.5909724
280,1778588202.6118271,0.69556314,-1.1487775,4.3415346,5.2437644,-2.9539783,-0.06657903
281,1778588202.6326308,-0.4876264,-0.76121455,-1.4018649,-1.4199976,-0.340352,-0.45486793
282,1778588202.6533775,-0.53058046,-0.8339436,-0.90398806,-1.4199976,-0.340352,-0.45486793
283,1778588202.6744463,-0.26748675,-0.681896,-0.6792113,-1.4199976,-0.340352,-0.45486793
284,1778588202.6952353,-0.07028849,-1.8606924,-1.5853959,-2.4240093,-1.1685951,-0.030360037
285,1778588202.7157197,0.10884953,-2.0139604,-1.0811737,-3.7587857,-0.58749336,0.93423694
286,1778588202.7371917,0.3612047,-2.8108072,-0.53863436,-4.2978096,-0.05912218,1.0828413
287,1778588202.7576776,0.98818773,-4.156295,1.0533512,-4.2978096,-0.05912218,1.0828413
288,1778588202.7786815,2.0947433,-2.5394156,0.8366282,-3.7300234,-3.0083067,0.40266997
289,1778588202.7988985,1.5087619,-1.786743,0.09176553,-2.4511735,-0.053795855,-0.66365975
290,1778588202.819955,1.5087619,-1.786743,0.09176553,-2.4511735,-0.053795855,-0.66365975
291,1778588202.840518,-0.127886,-0.60697037,1.3642801,-2.3366575,-1.6245283,0.8383631
292,1778588202.8614283,0.12983845,-0.77146494,0.8573731,-2.3366575,-1.6245283,0.8383631
293,1778588202.8825212,0.2882316,-0.8363842,0.027334413,-0.9166601,-0.37550572,1.5536882
294,1778588202.9030218,0.34729347,-0.039781332,1.3518331,-0.9981528,0.9683254,1.4881744
295,1778588202.9244623,0.8139309,-0.24356914,0.9518233,0.81013364,0.51718587,0.9150622
296,1778588202.9448726,0.647972,-0.54815257,0.49177536,2.3798008,-0.6103965,0.04261058
297,1778588202.9660594,0.48640612,-0.5357057,0.12935033,2.3798008,-0.6103965,0.04261058
298,1778588202.9867432,0.4724948,-0.4617563,-0.032459613,2.935336,-0.7797736,-0.6498113
299,1778588203.007369,0.27358818,-0.13252309,-0.30433938,2.4889903,1.0157297,-1.8024274
300,1778588203.027839,0.4412555,-0.44345203,-0.044418417,2.561961,2.295645,-2.1273332
301,1778588203.0492005,0.5774395,-0.8671354,0.09054524,3.3870084,4.0341563,-2.5411885
302,1778588203.0702574,0.4549227,-1.4016209,0.34338856,3.3870084,4.0341563,-2.5411885
303,1778588203.0907924,0.5891542,-5.1903653,1.6083373,2.7686224,4.06931,-3.125486
304,1778588203.1114604,0.6726217,-3.4734228,0.5776835,3.7310886,-1.6245283,-1.2522184
305,1778588203.1331646,0.50544256,-2.0095675,-0.3863426,4.9034123,-0.3637878,-0.96566224
306,1778588203.1533782,0.7809832,-0.81930023,-0.61844105,2.466087,2.360626,-0.16192019
307,1778588203.174173,0.8749452,-0.7063017,-0.7055695,2.466087,2.360626,-0.16192019
308,1778588203.1947415,-0.17108414,-0.50617474,-0.065163285,-0.10333065,2.9438584,0.099069595
309,1778588203.2160928,-0.3180066,-0.10640897,-0.0019524579,-0.10333065,2.9438584,0.099069595
310,1778588203.2364285,-0.5469323,0.20622836,0.12813005,-1.8487664,-0.531567,1.1829761
311,1778588203.2568238,-1.0164984,0.511544,0.10884953,-1.8487664,-0.531567,1.1829761
312,1778588203.2775483,-0.81783587,0.83077085,-0.36388937,-1.8530275,-0.76752305,1.9600866
313,1778588203.2996457,0.1718163,0.35510328,-0.9418169,-1.649562,-1.9132149,2.4740767
314,1778588203.3193965,0.117635585,0.20061506,-0.6203935,-1.8706044,-3.0626354,1.7134778
315,1778588203.3410656,1.4270028,-0.6411384,5.773418,2.3222766,-3.3784862,-0.28229508
316,1778588203.3607767,0.31361356,-0.9664667,0.22404456,3.1894019,-1.5430355,-1.2159994
317,1778588203.382369,-0.25894472,-0.77122086,-1.8819253,-1.3827133,-1.5377092,-1.2724584
318,1778588203.4025245,-0.25894472,-0.77122086,-1.8819253,-1.3827133,-1.5377092,-1.2724584
319,1778588203.4239354,-0.7080101,-1.3613514,-0.68531275,-3.0264163,0.080960095,-1.117995
320,1778588203.4441748,-0.60135704,-2.2135992,-0.8759214,-2.821353,-3.1164312,0.9108011
321,1778588203.4653585,-0.33240595,-2.583102,-0.10933765,-2.8176246,-2.4426515,1.8988339
322,1778588203.485618,-0.66188323,-2.8120277,0.5010495,-2.8005803,0.64395237,2.7622306
323,1778588203.5072176,1.4601945,-2.625568,0.04515059,-2.8021781,2.122007,3.2985914
324,1778588203.5275087,1.7450093,-2.335384,-0.038316987,-3.4892738,0.053263225,2.305765
325,1778588203.5485802,2.5689466,-1.564407,0.50446635,-4.0139165,-2.7494476,0.26897928
326,1778588203.569222,1.3381659,-1.0862988,1.095573,-3.709251,-3.94787,-1.7710022
327,1778588203.5903578,1.3381659,-1.0862988,1.095573,-3.709251,-3.94787,-1.7710022
328,1778588203.6116638,0.3141017,-1.0160104,0.13032657,-1.6255935,1.1424961,1.2399678
329,1778588203.632077,0.3141017,-1.0160104,0.13032657,-1.6255935,1.1424961,1.2399678
330,1778588203.6530297,0.12520137,-0.20866893,1.2878901,0.08362326,0.92731273,1.1733888
331,1778588203.6737576,0.65114474,-0.4097721,0.7438865,1.943575,0.13315806,0.53263223
332,1778588203.6944742,0.6457755,-0.51447266,0.33753118,1.943575,0.13315806,0.53263223
333,1778588203.714876,0.4339338,-0.31825066,0.045638707,3.0141659,-0.094808534,-1.0428939
334,1778588203.7363198,0.41416514,-0.22843759,-0.027334413,3.0141659,-0.094808534,-1.0428939
335,1778588203.757146,0.17084008,-0.011714748,-0.2762728,2.4666197,1.7667412,-1.8759307
336,1778588203.7773676,0.29482117,-0.25308737,0.016107777,2.855974,2.7419908,-2.072472
337,1778588203.798931,0.35998443,-0.3900035,0.0026846298,2.855974,2.7419908,-2.072472
338,1778588203.819356,0.8061211,-3.6818476,1.1482893,3.7385457,3.7619815,-2.398443
339,1778588203.8405755,0.9884319,-4.770343,1.4218775,3.3481262,5.5058193,-2.621616
340,1778588203.86138,0.6033095,-2.6563191,-0.0302631,4.524178,-3.0828753,-0.88044107
341,1778588203.8817546,0.5603554,-1.956607,-0.44808912,4.828311,0.026631612,-0.9518138
342,1778588203.902975,0.5603554,-1.956607,-0.44808912,4.828311,0.026631612,-0.9518138
343,1778588203.9236317,0.652365,-0.55523026,-0.3704789,1.3225259,3.7923415,-0.721184
344,1778588203.9449232,-0.21891935,-0.4041588,-0.14252943,0.0793622,3.6288233,-0.7451525
345,1778588203.965001,-0.37072295,-0.18182266,-0.1181237,-0.58962387,1.8722023,0.23542345
346,1778588203.9856842,-0.71899265,0.2169669,0.21940747,-1.5068166,0.4575311,0.9672601
347,1778588204.0069127,-1.0255286,0.52203846,0.002928687,-1.726261,-0.21624869,1.5978967
348,1778588204.0273485,-0.68384844,0.72704655,-0.67042524,-1.6255935,-0.76965356,2.4719462
349,1778588204.0487733,-0.26968327,0.72875494,-0.95377576,-1.6255935,-0.76965356,2.4719462
350,1778588204.0691538,0.12324891,0.15424417,0.03904916,-1.9180087,-3.683152,1.8903117
351,1778588204.0899885,1.5353642,-0.5789038,7.760533,-0.7350325,-3.4759579,1.2911005
352,1778588204.1111724,0.08542004,-0.7499879,-1.9412313,5.9473715,-0.83250415,-0.90973586
353,1778588204.1319914,-0.23600335,-0.7592621,-2.4129941,0.1304949,-2.3568976,-1.2069446
354,1778588204.1525323,-0.23600335,-0.7592621,-2.4129941,0.1304949,-2.3568976,-1.2069446
355,1778588204.173644,-0.5344854,-0.80563295,-0.43491003,-3.1537154,0.6945524,-0.6247776
356,1778588204.1938624,-0.3917119,-1.6508032,-1.2881342,-2.7771444,-1.3081448,0.40852892
357,1778588204.2149878,-0.3917119,-1.6508032,-1.2881342,-2.7771444,-1.3081448,0.40852892
358,1778588204.2356324,-0.122516744,-3.5751948,0.34704942,-4.6482816,-1.0396981,1.7294569
359,1778588204.2568066,1.777469,-3.3933718,1.0194272,-3.8738341,-0.95447695,1.5435683
360,1778588204.2775006,2.0073707,-2.3283062,0.46444094,-2.7867317,-0.31158987,0.07084008
361,1778588204.2985132,2.0017576,-1.9370824,0.31947094,-2.7867317,-0.31158987,0.07084008
362,1778588204.3188608,0.4378387,-0.6765267,1.3237665,-2.4735441,-2.7553065,-0.4000068
363,1778588204.3396032,0.1701079,-0.55718267,0.85639685,-1.0205233,-0.7568704,1.0828413
364,1778588204.3602448,0.28164205,-0.7856203,0.31605414,-1.0146644,-0.49534798,1.7635453
365,1778588204.382387,0.16132185,-0.5037342,0.25821257,-1.7193369,-0.3850931,1.6271914
366,1778588204.4020288,0.097134784,-0.38878322,0.48225713,-1.7193369,-0.3850931,1.6271914
367,1778588204.4238298,0.79538256,-0.17620933,1.1021625,1.1659319,0.8974853,0.5550028
368,1778588204.4436157,0.6784792,-0.38975942,0.67799103,1.1659319,0.8974853,0.5550028
369,1778588204.465193,0.6784792,-0.38975942,0.67799103,1.1659319,0.8974853,0.5550028
370,1778588204.4853868,0.3990336,-0.08688438,-0.19963883,2.5427864,-0.561927,-1.2389026
371,1778588204.5064235,0.25601605,-0.0021965152,-0.23893206,2.5427864,-0.561927,-1.2389026
372,1778588204.5271418,0.25601605,-0.0021965152,-0.23893206,2.5427864,-0.561927,-1.2389026
373,1778588204.5475097,0.6191732,-1.4362769,0.21257387,3.6804886,5.240036,-2.743056
374,1778588204.568764,0.9476743,-4.073804,1.0794652,3.9824913,5.9590893,-3.2320123
375,1778588204.5893087,0.14741059,-5.976718,1.9556307,2.6088326,1.8908445,-2.8687572
376,1778588204.6102717,0.27554062,-5.170353,1.4428664,4.708469,-2.5209484,-0.7185209
377,1778588204.6312637,0.40708748,-1.5910091,-0.6723777,4.9316416,0.6034723,-1.1488878
378,1778588204.6519444,0.57524294,-0.9010593,-0.45321432,3.4716969,2.08419,-0.7803062
379,1778588204.6731796,0.8422416,-0.5361938,-0.63918597,2.1241374,2.4666197,-0.57098174
380,1778588204.6937473,-0.23527117,-0.28237423,-0.11251039,0.4878911,3.6405413,-0.89855057
381,1778588204.714446,-0.23527117,-0.28237423,-0.11251039,0.4878911,3.6405413,-0.89855057
382,1778588204.7354379,-0.6079466,0.08712844,0.21086545,-1.27885,-0.28122982,0.6487461
383,1778588204.7563348,-1.0711672,0.46419686,-0.25528386,-1.8189391,-1.3480922,1.5030881
384,1778588204.777225,-0.25308737,0.70923036,-1.0374874,-2.0809941,-2.1598237,2.7308054
385,1778588204.7977092,-0.03929322,0.23136626,-0.75194037,-1.4327807,-3.2762208,2.4256072
386,1778588204.818802,-0.03929322,0.23136626,-0.75194037,-1.4327807,-3.2762208,2.4256072
387,1778588204.8394334,1.624201,-0.9091133,5.6662774,-0.9800433,-2.5427864,2.0953753
388,1778588204.8604808,0.8241814,-1.2442038,2.5328262,6.5018415,0.6673882,-0.44847634
389,1778588204.8811858,-0.06687169,-0.36706212,-1.8192028,-1.5978967,-3.2506545,-0.89162636
390,1778588204.9021802,-0.13618395,-0.562796,-0.8324793,-2.9981868,-1.0072075,-1.091896
391,1778588204.9231899,-0.26529023,-0.63308454,-0.72216535,-2.9981868,-1.0072075,-1.091896
392,1778588204.9438865,-0.6238103,-2.0381222,-1.2437156,-3.6724992,-2.0762005,0.5832323
393,1778588204.9644706,-0.6238103,-2.0381222,-1.2437156,-3.6724992,-2.0762005,0.5832323
394,1778588204.9853365,-0.0156196635,-3.2774446,-0.5645044,-3.4663706,-0.6673882,2.2530344
395,1778588205.005783,1.0933765,-4.5853477,0.99355704,-4.2717104,2.194445,2.5827336
396,1778588205.026729,1.0933765,-4.5853477,0.99355704,-4.2717104,2.194445,2.5827336
397,1778588205.0475013,2.2531364,-1.6898522,0.49860895,-3.307646,-2.0516994,-0.67218184
398,1778588205.0682726,0.4937278,-0.5288721,1.6281059,-2.8250813,-4.539092,-1.8823223
399,1778588205.089413,-0.35315084,-0.49006698,1.2773956,-1.5036207,-2.1353226,-0.4708469
400,1778588205.109833,-0.18084641,-0.94206095,0.19719826,-0.9150622,0.63383234,1.4221281
401,1778588205.130949,-0.044662476,-0.9205839,0.22355644,-1.32945,-0.39468047,1.9606192
402,1778588205.1517549,0.49763274,-0.2774931,1.2100358,0.9683254,0.9321064,0.9832391
403,1778588205.1724517,0.49763274,-0.2774931,1.2100358,0.9683254,0.9321064,0.9832391
404,1778588205.1931667,0.6433349,-0.57451075,0.13447554,2.3702135,-0.06231797,0.3797668
405,1778588205.21431,0.61746484,-0.2706595,-0.2072046,2.922553,-0.26418558,-1.1467572
406,1778588205.2480304,0.4634647,-0.054912884,-0.34387666,2.5662222,0.9310411,-1.8919097
407,1778588205.2634969,0.2328306,-0.019768637,-0.01952458,2.6423886,2.1656826,-2.2770028
408,1778588205.2844265,0.2328306,-0.019768637,-0.01952458,2.6423886,2.1656826,-2.2770028
409,1778588205.3055725,0.51666915,-2.3253775,0.473227,3.9462721,4.577441,-2.591256
410,1778588205.3259046,1.2464004,-4.2119403,1.2139407,2.6264095,5.834986,-2.8442562
411,1778588205.347002,0.17230442,-5.1308155,1.5360963,2.7739487,1.1723236,-2.417085
412,1778588205.3677537,0.69434285,-2.877191,-0.21086545,4.859204,-1.4647386,-0.5161206
413,1778588205.3886518,0.38561043,-1.1985651,-0.3863426,4.0970073,1.8338528,-0.47723848
414,1778588205.409427,0.77659017,-0.8319912,-0.6936107,2.7654266,1.9350529,-0.12783173
415,1778588205.4301267,0.7380291,-0.6999562,-0.58427304,2.7654266,1.9350529,-0.12783173
416,1778588205.4499872,-0.2362474,-0.33435842,-0.1769415,-0.06764429,2.5001757,-0.5273059
417,1778588205.4710777,-0.58964235,0.20818083,0.1564407,-0.8357,0.9395633,0.36485308
418,1778588205.4924502,-0.8993509,0.43100512,0.15009521,-1.5803198,-0.38029942,1.2436962
419,1778588205.5135665,-0.43759465,0.77829856,-0.63113207,-2.0021646,-1.8375812,2.5438516
420,1778588205.5334826,-0.02391761,0.5183776,-0.86371857,-2.0021646,-1.8375812,2.5438516
421,1778588205.5545008,0.057841565,0.17157225,-0.13935669,-1.0226538,-3.2053807,1.5648735
422,1778588205.575693,0.2550398,0.22697324,0.6045298,-1.0226538,-3.2053807,1.5648735
423,1778588205.6089063,-0.10030753,-0.5718261,-1.598819,3.1217575,-1.4567492,-0.5118596
424,1778588205.6310456,-0.33704305,-0.707766,-1.1975889,-1.7012273,-0.8277105,-0.50173956
425,1778588205.6511977,-0.0707766,-0.64187056,-0.5635282,-3.3113747,1.0120013,-0.5384912
426,1778588205.6711342,-0.2889638,-1.4204131,-1.0365112,-3.0439932,0.0026631611,-0.44208476
427,1778588205.692934,0.15473229,-2.2904773,-1.4099188,-2.9475868,-2.1209416,0.34461305
428,1778588205.7126832,0.22502078,-2.4112856,-0.71191496,-3.6400087,-1.2506205,0.85540736
429,1778588205.734405,0.22502078,-2.4112856,-0.71191496,-3.6400087,-1.2506205,0.85540736
430,1778588205.7542531,1.6466542,-3.6694007,0.9257092,-3.327886,-2.9379995,1.1009508
431,1778588205.7751074,1.8963249,-2.1298876,-0.0622346,-3.327886,-2.9379995,1.1009508
432,1778588205.7957792,1.3315763,-0.85273606,0.7455949,-2.9246836,0.056991648,0.11451593
433,1778588205.8173778,0.31703037,-0.64211464,1.5014402,-2.5310683,-2.179531,0.8527442
434,1778588205.8375316,0.39342028,-0.98428285,0.8546885,-1.1552793,-0.096939065,1.3576796
435,1778588205.858749,0.07199689,-1.0052718,0.19036464,-1.2468921,-0.4181163,1.194694
436,1778588205.879217,-0.3402158,-0.614048,0.7050814,-1.2468921,-0.4181163,1.194694
437,1778588205.901192,0.15766099,-0.3687705,1.052863,-1.2596753,-0.11984225,1.6623452
438,1778588205.9208267,0.7826916,-0.40293851,0.71118283,2.0506341,0.42237735,0.6870956
439,1778588205.942212,0.74291027,-0.41196862,0.5625519,2.0506341,0.42237735,0.6870956
440,1778588205.9625986,0.58110034,-0.16522676,0.0873725,2.8730183,0.4926848,-0.16777915
441,1778588205.9846203,0.56718904,-0.07492557,-0.27651685,3.069027,0.03568636,-0.93423694
442,1778588206.0050747,0.5630401,-0.23990828,-0.12568948,2.6477149,1.6181368,-2.2668827
443,1778588206.024692,0.6645679,-0.780251,-0.09396204,3.1148334,3.2421324,-2.6993802
444,1778588206.0456083,0.72045696,-1.2232149,0.09664667,3.1148334,3.2421324,-2.6993802
445,1778588206.066725,0.6560259,-4.343487,1.5236495,2.632801,3.209109,-3.5872781
446,1778588206.08849,0.31898284,-4.7552114,1.4082103,2.632801,3.209109,-3.5872781
447,1778588206.1088562,0.9005712,-2.613609,-0.090789296,4.6466837,-0.26631612,-0.7302388
448,1778588206.12979,0.7158199,-1.6019918,-0.14008886,3.5744948,0.76272935,-1.1435614
449,1778588206.151287,0.9257092,-1.0387076,-0.47444725,2.44638,1.4162691,-0.8580705
450,1778588206.1716723,0.3275248,-0.72216535,-0.37096703,1.0535465,3.820571,-1.2112057
451,1778588206.191895,0.055400997,-0.62503064,-0.2967736,1.0535465,3.820571,-1.2112057
452,1778588206.2123806,-0.39195594,-0.117391534,-0.17742962,-0.43249738,1.963815,0.5336975
453,1778588206.2334204,-0.86298645,0.51349646,-0.045638707,-2.1459754,-1.0428939,1.9600866
454,1778588206.2535698,-0.86298645,0.51349646,-0.045638707,-2.1459754,-1.0428939,1.9600866
455,1778588206.27465,-0.22111587,0.7839119,-0.9510911,-2.1443772,-2.107093,2.5262747
456,1778588206.295993,-0.09127741,0.37682438,-0.64235866,-1.7433053,-2.404302,2.1774006
457,1778588206.3163655,0.93937635,0.4549227,2.681945,0.83942837,0.39095205,0.8127968
458,1778588206.3370707,0.27724904,-0.5789038,0.7319277,3.956925,0.8245147,-0.30839407
459,1778588206.358093,-0.23161033,-0.3236199,-1.8279889,3.956925,0.8245147,-0.30839407
460,1778588206.3786123,-0.255772,-0.56011134,-1.4484798,0.5864281,-3.10205,-0.3850931
461,1778588206.399814,-0.25015867,-0.71826047,-0.8002637,-2.3494408,-1.2905679,-0.34993938
462,1778588206.4205213,-0.34607318,-1.6725243,-1.4994878,-3.2117724,-0.091080114,-0.21358553
463,1778588206.441374,-0.0605262,-2.387856,-1.58564,-3.4812841,-1.2703278,0.2711098
464,1778588206.461876,-0.11495096,-2.4508228,-1.2442038,-4.453338,-1.8216022,0.45912898
465,1778588206.4833963,-0.0622346,-4.105531,1.2005177,-3.9936764,-2.312689,1.257012
466,1778588206.503738,-0.0622346,-4.105531,1.2005177,-3.9936764,-2.312689,1.257012
467,1778588206.5249715,1.9588034,-2.025187,0.07980672,-3.0477216,-1.5030881,0.819721
468,1778588206.5452423,1.4104068,-0.8747012,0.8175918,-2.7457192,-1.2474247,-0.5454154
469,1778588206.566354,0.7138674,-0.32020313,1.4970472,-2.4623587,-3.3550503,-0.63862604
470,1778588206.586924,0.21062139,-0.47859627,0.67042524,-1.0705907,-1.6660736,0.5592638
471,1778588206.607616,0.21062139,-0.47859627,0.67042524,-1.0705907,-1.6660736,0.5592638
472,1778588206.628442,0.023673553,-0.48396555,0.8122225,-1.6048208,-0.27696875,1.6628778
473,1778588206.6492975,0.23844394,-0.2997023,1.3481722,-0.67218184,0.7238472,1.3869743
474,1778588206.6701474,0.82076454,-0.4527262,0.6562699,1.3401027,0.8127968,0.5118596
475,1778588206.6912265,0.5854933,-0.49226347,0.25943285,2.5150893,0.47670585,-0.18855181
476,1778588206.7115588,0.49641246,-0.353883,-0.07297312,2.5150893,0.47670585,-0.18855181
477,1778588206.7328827,0.35193056,-0.008297946,-0.2860351,2.4857945,0.42024684,-1.2186625
478,1778588206.7538123,0.29384494,-0.16254212,-0.07541369,2.111354,1.7928401,-1.6724652
479,1778588206.775288,0.29384494,-0.16254212,-0.07541369,2.111354,1.7928401,-1.6724652
