id,timestamp,acc_x,acc_y,acc_z,gyro_x,gyro_y,gyro_z
1,1778587921.047089,0.7602383,-0.4144092,0.9581688,-1.9355855,0.44421527,1.6399746
2,1778587921.109761,0.4271002,-0.2272173,0.16229807,3.384878,-0.8671253,-1.0934939
3,1778587921.1723437,0.123004854,-0.39976576,0.071020655,2.7851338,3.3710294,-2.457565
4,1778587921.248084,0.4583395,-5.239665,1.3240106,3.204848,-2.3339944,-1.0945592
5,1778587921.3061702,0.7575537,-0.5437595,-0.7575537,1.257012,3.1739554,-0.6689861
6,1778587921.3651838,-0.4527262,0.18401916,-0.14716652,-1.5947009,0.4745753,1.0439591
7,1778587921.4279559,0.08981306,0.4249037,-0.51496077,-2.8953888,-3.2096417,2.7808728
8,1778587921.4900086,0.06321083,-0.9772052,-1.3559821,4.36066,3.8067226,-0.85753787
9,1778587921.5532963,-0.45907167,-1.2476206,-0.59989274,-3.8440068,-1.2117383,-1.0333065
10,1778587921.6282911,-0.094206095,-3.095134,0.36047253,-2.390986,-0.67484504,1.7006947
11,1778587921.6700783,1.5282865,-3.2635336,0.32508424,-3.6661077,-0.12942964,1.8690065
12,1778587921.7332275,0.29774985,-1.2859375,0.1381364,-1.5472966,-1.4205302,1.081776
13,1778587921.796488,0.6496804,-0.469078,0.82125264,0.015446335,-0.1635181,1.5749935
14,1778587921.8581543,0.41611758,-0.13764828,-0.042465962,3.294863,0.31372038,-1.0327739
15,1778587921.921914,0.09225364,-0.041001618,-0.020500809,3.1302795,2.2610238,-2.0516994
16,1778587921.9839008,1.1063116,-5.2667556,1.3823403,3.095126,4.5614624,-2.7425234
17,1778587922.0469515,0.62551874,-0.3824377,-0.71728426,1.7427727,3.8615837,-0.43995422
18,1778587922.1088781,-0.5000733,0.21037734,0.08322352,-1.8732675,-0.16245283,1.7406421
19,1778587922.1708553,0.13398743,0.37633628,-0.3431445,-2.6700854,-2.6317358,2.3845944
20,1778587922.2340043,0.14960709,-1.0596966,-0.22624107,5.074387,0.22690132,-1.2016183
21,1778587922.2953923,-0.20159128,-0.4544346,-0.8881243,-3.9979374,-0.35313517,-1.0641992
22,1778587922.357859,0.44540447,-2.6863382,-1.0355349,-2.6423886,0.17736652,1.8056233
23,1778587922.4203503,0.9999026,-1.3225462,0.6804316,-3.965447,-0.98590225,-0.94329166
24,1778587922.4830275,0.1461903,-1.121199,0.2020794,-1.8913771,-0.45859635,1.4258565
25,1778587922.5449538,0.81295466,-0.47981656,0.6626154,1.778459,-0.9155948,0.11611383
26,1778587922.6074283,0.30726805,-0.22160399,-0.15375607,2.9854035,1.0199907,-2.14491
27,1778587922.6704788,0.34168017,-1.6403086,-0.026358182,3.5936697,4.1966095,-2.6881948
28,1778587922.7325134,0.61795294,-2.9867725,-0.20110317,4.9753175,-2.492719,-0.08522116
29,1778587922.795064,0.10884953,-0.014643434,-0.32069123,1.202151,3.4812841,-0.716923
30,1778587922.8576903,-0.64235866,0.810026,-0.3692586,-2.850115,0.1257012,1.8642128
31,1778587922.9201899,0.6433349,0.40635532,0.9859913,-1.7566211,-3.184608,2.026133
32,1778587922.9822757,-0.5859815,-0.47078642,-1.1878266,-1.6676716,-0.35952675,-0.91186637
33,1778587923.0445948,-0.66700846,-1.8616686,-1.4265146,-3.2943304,-1.9936424,-0.2908172
34,1778587923.1072824,0.46834585,-2.9562654,-0.90472025,-3.1664987,0.4708469,1.6389093
35,1778587923.1697493,0.4058672,-0.69336665,1.1795286,-1.9425098,-2.5374599,-1.005077
36,1778587923.2339854,0.24283697,-0.16229807,1.2354177,-2.1268005,0.007989483,1.9558256
37,1778587923.294664,0.5771954,-0.4556549,0.5264315,2.7601001,-0.21038973,-0.34194988
38,1778587923.3568594,0.2169669,-0.32215557,-0.025381953,2.6296053,0.4261058,-1.5840483
39,1778587923.4202013,0.635281,-1.6466542,-0.3214234,3.7113814,4.6339,-2.8916605
40,1778587923.481667,0.21281794,-1.0941086,-0.44491637,4.5673213,1.2873721,-0.14913702
41,1778587923.5445294,-0.22819352,-0.29897013,-0.06858008,-0.78776306,0.89109373,0.23222765
42,1778587923.6068175,-0.80392456,0.47078642,-0.91521466,-2.7675571,0.7728494,1.9078887
43,1778587923.669915,0.5791479,-0.737541,5.316543,6.236058,-3.8418763,-0.40053943
44,1778587923.731818,-0.2723679,-0.6469958,-0.49641246,-3.0567763,-1.7406421,-0.9986854
45,1778587923.7953,-0.08371163,-1.9710064,-0.8844635,-3.1643682,-1.6298546,0.82344943
46,1778587923.8579648,2.2543569,-2.55772,-0.19475769,-3.8099184,-4.6919575,1.5803198
47,1778587923.9201272,0.19671014,-0.91448253,0.74193406,-2.2466428,-1.0934939,0.24767399
48,1778587923.9818718,0.40781966,-0.2255089,1.1485333,-1.2676647,1.417867,2.0341225
49,1778587924.0447667,0.4087959,-0.084687866,-0.14008886,3.0274816,-0.042077947,-1.1531488
50,1778587924.107369,0.09469421,-0.27480847,-0.0134231495,3.118029,2.8927257,-1.7507621
51,1778587924.1691058,0.4166057,-6.159761,1.9634405,2.7174897,0.9443569,-1.861017
52,1778587924.232557,0.37804466,-0.62356627,-0.74413055,3.5824845,2.8554413,0.27537087
53,1778587924.2940392,-0.18938842,0.10958171,-0.08371163,-1.3795174,0.68869346,-0.068176925
54,1778587924.356464,-0.18938842,0.10958171,-0.08371163,-1.3795174,0.68869346,-0.068176925
55,1778587924.4198031,0.33265,0.23673552,0.6552937,-2.1523669,-4.5337653,0.7392935
56,1778587924.4822392,0.33265,0.23673552,0.6552937,-2.1523669,-4.5337653,0.7392935
57,1778587924.544605,-0.13886857,-1.9331775,-0.6386978,-2.2082932,-0.70680296,0.8293084
58,1778587924.6070473,2.3583252,-2.0476403,0.032459613,-3.8184404,-1.6618125,0.26205507
59,1778587924.6697874,0.08151512,-0.8422416,0.69117016,-1.3171995,-0.37603834,1.1808456
60,1778587924.7318919,-0.14545812,-0.62356627,0.64040625,-1.8258632,1.3747238,1.7475663
61,1778587924.7941854,-0.14545812,-0.62356627,0.64040625,-1.8258632,1.3747238,1.7475663
62,1778587924.8570328,0.3180066,-1.0213796,0.13325526,3.406183,3.04133,-1.5371766
63,1778587924.9195595,0.08590815,-3.671353,0.5708499,3.137204,-0.09161274,-2.7840686
64,1778587924.980758,0.08590815,-3.671353,0.5708499,3.137204,-0.09161274,-2.7840686
65,1778587925.0444095,0.08590815,-3.671353,0.5708499,3.137204,-0.09161274,-2.7840686
66,1778587925.1069107,-0.8110022,0.52960426,-0.80685323,-2.8767467,0.39574575,2.2093585
67,1778587925.1690266,0.21232979,0.2421048,0.2877435,-2.4596956,-2.5294704,2.2354574
68,1778587925.2319245,0.21232979,0.2421048,0.2877435,-2.4596956,-2.5294704,2.2354574
69,1778587925.2941725,-0.13179092,-2.7307565,0.15692882,-2.9470541,-1.7971011,1.861017
70,1778587925.356586,2.0986483,-2.6114125,0.11006982,-3.8557248,1.0476876,1.4391723
71,1778587925.4189565,2.0986483,-2.6114125,0.11006982,-3.8557248,1.0476876,1.4391723
72,1778587925.4818294,0.8505395,-0.44369608,0.70337296,2.0698087,0.09427591,-0.072970614
73,1778587925.5439687,0.36291313,-0.26992732,-0.067847915,3.0157638,-0.86659265,-1.6106799
74,1778587925.6065426,0.36291313,-0.26992732,-0.067847915,3.0157638,-0.86659265,-1.6106799
75,1778587925.6686788,0.43491003,-5.7187495,1.9924834,3.0658312,0.28975195,-1.468467
76,1778587925.7315829,0.50617474,-0.21501444,-0.3333822,1.1467572,4.376639,-0.64182186
77,1778587925.7939403,0.20915705,-0.16717921,-0.24503349,1.1467572,4.376639,-0.64182186
78,1778587925.856292,0.2591888,0.41684976,1.206619,-2.7601001,-4.3004727,1.9904467
79,1778587925.9186704,0.051007964,-0.46297657,-2.2177482,0.24341293,0.74035877,-0.4000068
80,1778587925.9802682,0.0021965152,-0.43124917,-0.61160743,-3.713512,-3.009372,-0.58749336
81,1778587926.0427926,0.0021965152,-0.43124917,-0.61160743,-3.713512,-3.009372,-0.58749336
82,1778587926.1050475,0.77854264,-0.47688788,1.4350566,-2.3228092,-1.5691346,-0.5022722
83,1778587926.1673806,0.20549619,-1.0079564,0.03734076,-1.865278,-0.26418558,1.2325109
84,1778587926.2300162,0.20549619,-1.0079564,0.03734076,-1.865278,-0.26418558,1.2325109
85,1778587926.2924411,-0.09640261,-0.13618395,-0.122272685,3.228284,0.7004114,-1.7518274
86,1778587926.3549817,0.77756643,-2.0339732,0.07028849,3.8434741,4.9449577,-3.1228228
87,1778587926.417369,0.77756643,-2.0339732,0.07028849,3.8434741,4.9449577,-3.1228228
88,1778587926.4799488,0.35876414,-0.45370242,-0.37072295,0.11558119,3.7992656,-0.15819177
89,1778587926.5429986,-0.82296103,0.50837123,-0.32020313,-3.1265512,-1.1265172,2.7984498
90,1778587926.6050944,-0.82296103,0.50837123,-0.32020313,-3.1265512,-1.1265172,2.7984498
91,1778587926.6679332,-0.82296103,0.50837123,-0.32020313,-3.1265512,-1.1265172,2.7984498
92,1778587926.729964,-0.71118283,-1.4848443,-1.0157663,-2.6093652,-2.0863204,-0.13475595
93,1778587926.7923994,-0.12154051,-2.200664,-0.79513854,-2.5688853,-0.92305166,1.6447684
94,1778587926.8546093,-0.12154051,-2.200664,-0.79513854,-2.5688853,-0.92305166,1.6447684
95,1778587926.917599,-0.087616555,-0.7829357,0.48909074,-2.3281355,1.267132,1.8445054
96,1778587926.9795623,0.98379475,-0.64235866,0.7726852,1.1371698,-0.5704491,0.92038846
97,1778587927.0431178,0.98379475,-0.64235866,0.7726852,1.1371698,-0.5704491,0.92038846
98,1778587927.1044667,0.20232345,-2.2289748,0.46273252,3.7491982,5.53831,-1.865278
99,1778587927.1669724,0.45907167,-1.7027875,-0.5952556,4.295679,0.44101948,-0.45540056
100,1778587927.229089,0.45907167,-1.7027875,-0.5952556,4.295679,0.44101948,-0.45540056
101,1778587927.292108,0.45907167,-1.7027875,-0.5952556,4.295679,0.44101948,-0.45540056
102,1778587927.3541353,0.12495731,-0.912286,5.6716466,-0.5273059,-3.577158,0.7281082
103,1778587927.4178605,0.10030753,-1.4028411,2.7944553,8.408665,-2.376605,-0.4111921
104,1778587927.4790232,0.10030753,-1.4028411,2.7944553,8.408665,-2.376605,-0.4111921
105,1778587927.5430574,2.30268,-4.490165,1.1155857,-3.5558527,0.18908444,1.6490294
106,1778587927.603979,0.96256185,-1.0338265,1.1744035,-3.8461373,-1.5531555,-0.9582054
107,1778587927.667385,0.96256185,-1.0338265,1.1744035,-3.8461373,-1.5531555,-0.9582054
108,1778587927.730178,0.5645044,-0.60941094,0.4407674,2.974751,-1.7587516,-0.9321064
109,1778587927.7917423,0.17816179,-0.1969542,-0.10689708,3.0376017,2.9859362,-2.100169
110,1778587927.8537364,0.17816179,-0.1969542,-0.10689708,3.0376017,2.9859362,-2.100169
111,1778587927.916459,0.17816179,-0.1969542,-0.10689708,3.0376017,2.9859362,-2.100169
112,1778587927.9788725,-0.4385709,0.067847915,0.08566409,-0.7259777,0.6194513,0.386691
113,1778587928.0414414,-0.6042857,0.12886222,-0.038561042,-1.7465011,-1.2032162,1.2554141
114,1778587928.103568,-0.6042857,0.12886222,-0.038561042,-1.7465011,-1.2032162,1.2554141
115,1778587928.166477,-0.2111095,-0.48665017,-0.31068486,-3.4418695,-2.1571605,0.14913702
116,1778587928.229668,-0.8002637,-1.3144923,-0.9196077,-2.14491,-2.5715485,0.21837921
117,1778587928.2920632,-0.8002637,-1.3144923,-0.9196077,-2.14491,-2.5715485,0.21837921
118,1778587928.3542683,0.1403329,-0.74193406,0.7285109,-1.4125407,-1.2133362,0.57790595
119,1778587928.416829,-0.05686534,-0.1181237,1.5124228,-1.2804478,1.7869811,2.0431771
120,1778587928.4783108,0.2518671,-0.22062775,0.113974735,3.216566,-1.4093449,-1.31933
121,1778587928.5410178,0.36584184,-0.49104318,-0.27895743,3.035471,2.9161615,-1.7917749
122,1778587928.6030881,0.31581008,-5.8869047,2.1359892,3.3374736,6.2259383,-3.2666335
123,1778587928.6657908,0.916435,-0.5920829,-0.7551131,2.3073628,2.7361317,-0.41918156
124,1778587928.7281997,-0.55523026,0.17742962,0.043198135,-1.3374395,0.2609898,0.20932446
125,1778587928.7910554,-0.32215557,0.44052333,-0.6884855,-3.6139097,-1.5275892,2.9321404
126,1778587928.8539374,0.119343996,-1.4748379,1.5063213,7.3263564,-2.005893,-0.0058589545
127,1778587928.9164176,-0.070532545,-0.6984919,-0.8346757,-3.230947,-1.9313245,-0.44421527
128,1778587928.9781423,-0.057841565,-2.4825501,-0.75267255,-5.283712,-1.9089539,0.041012682
129,1778587929.0422416,2.3168354,-3.970323,0.22868164,-2.8149614,-3.6448023,1.0583402
130,1778587929.1037245,-0.019768637,-0.5266756,1.0714114,-0.91985583,-1.2452941,1.3907027
131,1778587929.1670234,0.6631035,-0.2809099,1.0330943,0.64768076,1.2373047,1.7449032
132,1778587929.2278373,0.44394013,-0.17523311,-0.08127106,2.9055088,-0.74035877,-1.180313
133,1778587929.291398,0.11275445,-0.33509058,0.12983845,3.012568,1.3709954,-1.8967034
134,1778587929.3537378,0.5400987,-5.820033,1.9983407,3.7752972,6.5705514,-2.369681
135,1778587929.416081,0.9025237,-0.464685,-0.54668826,2.8959215,3.10205,-0.36272255
136,1778587929.477835,-0.6221019,0.23307467,-0.10665302,-1.252751,1.381648,0.8809737
137,1778587929.5411253,0.16717921,0.5086153,-0.8022162,-3.4445326,-1.8716697,2.211489
138,1778587929.6033113,0.016107777,-0.82052046,-1.8911997,3.91751,1.2436962,-0.2609898
139,1778587929.666028,-0.43515408,-1.4540931,-0.84565836,-4.176369,-2.9875343,-0.23116238
140,1778587929.7287014,0.2604091,-3.1451657,1.3850248,-2.775014,-0.7850999,0.8538095
141,1778587929.790048,2.145019,-1.6093135,0.17108414,-4.2392197,0.28655612,-0.60720074
142,1778587929.853294,0.0039049159,-1.2590914,0.093473926,-1.6847157,0.66152924,1.2639363
143,1778587929.9163167,0.90472025,-0.48909074,0.72045696,1.4519554,0.44474792,1.2713932
144,1778587929.9780438,0.38780698,-0.15717287,-0.4327135,3.184608,-0.5725796,-1.7710022
145,1778587930.0410922,0.18157859,-0.61209553,0.052472305,3.3204293,3.6053874,-1.7726
146,1778587930.1031742,0.2936009,-5.1047015,1.4916779,3.4125748,-0.83516735,-1.7715348
147,1778587930.1661346,0.8000197,-0.0134231495,-0.3053156,2.660498,5.256015,-0.96779275
148,1778587930.2280648,-1.0289453,0.40952805,-0.11568313,-2.2828617,-0.525708,1.7779263
149,1778587930.2907794,0.21550256,0.17303659,-0.41587353,-3.1894019,-3.584615,1.5393071
150,1778587930.3528116,-0.33118567,-0.5100796,-1.9924834,3.468501,0.8026768,-0.92997587
151,1778587930.415516,-0.56548065,-1.1499978,-0.9432813,-3.4887412,-0.763262,-0.10439592
152,1778587930.47776,-0.13838045,-2.6126328,-0.89080894,-3.8764973,-2.6525085,1.3571469
153,1778587930.5402074,1.5190123,-1.3945432,0.7743936,-3.9867523,-2.5545042,-0.98377174
154,1778587930.6022067,-0.1889003,-0.77732235,0.8217408,-2.2530344,0.6988135,2.2152174
155,1778587930.664302,0.63186425,-0.47932845,0.3648656,2.7947214,-0.77231675,-0.15978967
156,1778587930.7278183,0.2660224,0.044418417,-0.16107778,3.4610443,0.35153726,-1.6389093
157,1778587930.7896338,0.38268176,-0.8053889,0.12056428,3.4663706,4.3196473,-1.6570189
158,1778587930.8529367,0.33997175,-2.4420369,-0.34192422,4.3164515,-0.9502159,-0.6423545
159,1778587930.9151385,0.0014643435,0.003172744,-0.20696054,0.56938386,4.2445464,-1.2314457
160,1778587930.977376,-1.1438963,0.37365165,-0.7399816,-2.450641,-0.65194184,1.1808456
