id,timestamp,acc_x,acc_y,acc_z,gyro_x,gyro_y,gyro_z
1,1778588226.9274924,0.7844,-2.374677,-0.89813066,5.556952,-2.5124261,-3.3662357
2,1778588226.9484985,0.66896087,-0.25845662,-0.7770783,2.218413,3.9020636,-1.0594054
3,1778588226.9703505,0.43246946,-0.2923806,-0.3328941,0.47031426,5.6762614,-0.79628515
4,1778588226.9905438,-0.12324891,-0.34216827,-0.06980037,-0.28975195,3.6272254,-0.49002165
5,1778588227.0111074,-0.70117646,-0.13203497,-0.090789296,-0.5113269,0.44474792,0.6823019
6,1778588227.0317833,-0.70117646,-0.13203497,-0.090789296,-0.5113269,0.44474792,0.6823019
7,1778588227.0530214,-0.70117646,-0.13203497,-0.090789296,-0.5113269,0.44474792,0.6823019
8,1778588227.0733476,-0.70117646,-0.13203497,-0.090789296,-0.5113269,0.44474792,0.6823019
9,1778588227.0943942,-0.70117646,-0.13203497,-0.090789296,-0.5113269,0.44474792,0.6823019
10,1778588227.115019,-0.70117646,-0.13203497,-0.090789296,-0.5113269,0.44474792,0.6823019
11,1778588227.1360478,-0.70117646,-0.13203497,-0.090789296,-0.5113269,0.44474792,0.6823019
12,1778588227.156499,-0.39927766,-0.47273886,-1.7725879,3.5883434,-4.1705103,-1.1467572
13,1778588227.1779299,-0.8070973,-1.0069802,-2.0261633,1.0045444,-7.535148,-1.1020161
14,1778588227.198048,-0.5598673,-0.83809257,-0.5010495,-2.6290727,-1.7864485,-0.6556703
15,1778588227.2192235,-0.65797836,-1.0811737,-0.5222825,-2.9939258,-1.3864417,0.06711166
16,1778588227.2399518,-0.65797836,-1.0811737,-0.5222825,-2.9939258,-1.3864417,0.06711166
17,1778588227.260876,-0.65797836,-1.0811737,-0.5222825,-2.9939258,-1.3864417,0.06711166
18,1778588227.281476,-0.65797836,-1.0811737,-0.5222825,-2.9939258,-1.3864417,0.06711166
19,1778588227.3023884,-0.65797836,-1.0811737,-0.5222825,-2.9939258,-1.3864417,0.06711166
20,1778588227.3232758,-0.65797836,-1.0811737,-0.5222825,-2.9939258,-1.3864417,0.06711166
21,1778588227.3443704,-0.74437463,-1.3440232,-0.7494998,-2.9939258,-1.3864417,0.06711166
22,1778588227.364807,0.8598137,0.0014643435,1.4955828,-0.360592,-3.3704967,-1.1595404
23,1778588227.3858926,0.41880223,-0.117391534,0.69409883,-0.360592,-3.3704967,-1.1595404
24,1778588227.4065745,-0.0976229,-0.5086153,-0.2894519,-1.5121429,0.48363006,1.9451729
25,1778588227.4275866,0.2238005,-0.34802565,0.42807645,-1.5121429,0.48363006,1.9451729
26,1778588227.4479413,0.2238005,-0.34802565,0.42807645,-1.5121429,0.48363006,1.9451729
27,1778588227.4692085,0.2238005,-0.34802565,0.42807645,-1.5121429,0.48363006,1.9451729
28,1778588227.490179,0.2238005,-0.34802565,0.42807645,-1.5121429,0.48363006,1.9451729
29,1778588227.51061,0.2238005,-0.34802565,0.42807645,-1.5121429,0.48363006,1.9451729
30,1778588227.531434,0.2238005,-0.34802565,0.42807645,-1.5121429,0.48363006,1.9451729
31,1778588227.5524085,-0.1615659,-0.0051252022,-0.45589894,1.9787288,4.0080576,-1.9489013
32,1778588227.5732243,0.48152497,-0.6543175,-0.38756293,2.6264095,3.8701057,-1.9552929
33,1778588227.5940247,0.48152497,-0.6543175,-0.38756293,3.4269557,3.9755669,-2.5454495
34,1778588227.6150448,3.3601801,-7.098161,4.0616007,1.4658039,11.838284,-3.942011
35,1778588227.6360788,3.3601801,-7.098161,4.0616007,1.4658039,11.838284,-3.942011
36,1778588227.6566887,3.3601801,-7.098161,4.0616007,1.4658039,11.838284,-3.942011
37,1778588227.6773655,3.3601801,-7.098161,4.0616007,1.4658039,11.838284,-3.942011
38,1778588227.6983147,3.3601801,-7.098161,4.0616007,1.4658039,11.838284,-3.942011
39,1778588227.7187011,3.3601801,-7.098161,4.0616007,1.4658039,11.838284,-3.942011
40,1778588227.7403712,1.1697664,0.111046046,-0.49763274,0.67005134,3.683152,-0.79681784
41,1778588227.7608292,-1.0601847,0.09835507,0.035876416,-1.9254655,0.2263687,0.43675843
42,1778588227.781978,-1.4902135,0.20134723,-0.9432813,-1.9387813,-1.5787219,2.3212113
43,1778588227.8025174,-1.0518868,0.24747404,-1.6386005,-1.7646105,-1.1552793,4.245079
44,1778588227.8230617,-0.29116032,0.15229172,-0.88373125,-0.964597,-3.891411,4.2354913
45,1778588227.8438125,-0.29116032,0.15229172,-0.88373125,-0.964597,-3.891411,4.2354913
46,1778588227.8647127,-0.29116032,0.15229172,-0.88373125,-0.964597,-3.891411,4.2354913
47,1778588227.8854077,-0.29116032,0.15229172,-0.88373125,-0.964597,-3.891411,4.2354913
48,1778588227.90666,-0.29116032,0.15229172,-0.88373125,-0.964597,-3.891411,4.2354913
49,1778588227.927178,-0.29116032,0.15229172,-0.88373125,-0.964597,-3.891411,4.2354913
50,1778588227.9485052,-0.39586085,-0.9196077,-1.1024066,-3.73535,-1.5851135,-0.9635317
51,1778588227.968891,-0.41758195,-1.1963686,-1.1931958,-3.9910133,-2.0751352,0.80800307
52,1778588227.9901257,-0.26919514,-1.5443943,-1.1463369,-4.5161886,-1.5361114,2.5081651
53,1778588228.0114255,0.36510965,-2.915264,-1.0164984,-4.353736,-2.1268005,3.8173752
54,1778588228.0313225,1.7127937,-5.255529,0.08322352,-4.1353564,-2.3105586,4.1177797
55,1778588228.052214,1.7127937,-5.255529,0.08322352,-4.1353564,-2.3105586,4.1177797
56,1778588228.0733998,1.7127937,-5.255529,0.08322352,-4.1353564,-2.3105586,4.1177797
57,1778588228.0938067,1.7127937,-5.255529,0.08322352,-4.1353564,-2.3105586,4.1177797
58,1778588228.1149528,1.7127937,-5.255529,0.08322352,-4.1353564,-2.3105586,4.1177797
59,1778588228.1353395,1.7127937,-5.255529,0.08322352,-4.1353564,-2.3105586,4.1177797
60,1778588228.1560676,1.7127937,-5.255529,0.08322352,-4.1353564,-2.3105586,4.1177797
61,1778588228.1769757,0.8266219,0.056377225,1.5783182,-1.3017532,0.86020106,1.6101472
62,1778588228.1975403,0.8266219,0.056377225,1.5783182,-1.3017532,0.86020106,1.6101472
63,1778588228.2188187,0.74193406,-0.47810817,-0.022209208,2.25623,-1.8919097,0.08362326
64,1778588228.2395384,0.47932845,-0.05418071,-0.17987019,2.2860575,-1.8466359,-1.0072075
65,1778588228.260286,0.24283697,0.08175918,-0.04515059,1.3044163,-0.62584287,-1.9350529
66,1778588228.2817445,0.10055158,-0.09274176,-0.36022848,1.3592775,4.567854,-2.3323965
67,1778588228.3020477,0.3743838,-0.26236153,-0.2511349,1.3592775,4.567854,-2.3323965
68,1778588228.3229222,1.4082103,-2.9089184,0.4656612,3.610714,5.92287,-3.3438652
69,1778588228.3442857,2.2360525,-4.7896237,2.0134723,3.610714,5.92287,-3.3438652
70,1778588228.3642905,1.8487337,-6.8675275,3.1175873,2.4080303,6.54605,-4.6552057
71,1778588228.385509,1.2261436,-3.0656033,-1.9385467,5.680523,0.61572284,-4.298875
72,1778588228.406309,0.25845662,-1.1063116,-1.1370627,5.680523,0.61572284,-4.298875
73,1778588228.427268,0.8949579,0.1010397,-0.8019721,1.8455707,4.2674494,-0.5502091
74,1778588228.4479506,0.71948075,0.016107777,-0.5715821,-0.03195793,5.731123,-0.54168695
75,1778588228.4690247,0.23185438,-0.0036608586,-0.2706595,-0.03195793,5.731123,-0.54168695
76,1778588228.4899693,-0.77805454,0.19963883,-0.11665936,-1.2074772,-0.007989483,0.81226414
77,1778588228.5106668,-1.292283,0.2518671,-0.40000984,-1.6804547,-1.4556838,2.275405
78,1778588228.531526,-1.1373067,0.34582913,-1.26202,-2.112952,-2.209891,3.9239016
79,1778588228.5521505,-0.45394647,0.23722363,-0.8002637,-2.005893,-2.843191,4.24934
80,1778588228.5726836,-0.45394647,0.23722363,-0.8002637,-2.005893,-2.843191,4.24934
81,1778588228.5941837,2.161859,-0.7814713,7.987262,-0.9720538,-1.3811153,2.732936
82,1778588228.61446,0.82393724,-1.1099724,4.193636,2.483664,13.066534,-1.2948289
83,1778588228.6352258,-0.27846932,-0.48445365,-1.483624,2.5033715,-0.23169503,-1.6634104
84,1778588228.6558647,-0.43881494,-0.76219076,-2.7654128,1.892975,-7.942079,-1.7257284
85,1778588228.676875,-0.59916055,-0.88934463,-1.4016209,-1.3933659,-5.974003,-1.3550164
86,1778588228.697272,-0.8049008,-1.4950947,-0.8432178,-3.277286,-3.0061762,-0.47510794
87,1778588228.718334,-0.6994681,-1.7293897,-0.9642702,-3.914847,-1.8546255,1.0242518
88,1778588228.7385478,-0.3128814,-2.1977355,-0.5422952,-4.3191147,-2.030394,2.3973777
89,1778588228.7603211,0.29116032,-3.5532293,-0.21257387,-3.6884782,-2.5800705,3.4637074
90,1778588228.7808385,0.29116032,-3.5532293,-0.21257387,-3.2879388,-0.28336033,4.0298953
91,1778588228.802126,3.2032514,-2.988725,0.44857723,-5.0520167,-0.88203895,3.0589068
92,1778588228.8227146,3.311857,-2.3568609,0.9030118,-4.579039,-3.9718385,1.2783173
93,1778588228.8438656,0.9003272,-0.21184167,1.0282133,-1.7763284,-5.731123,-1.3699301
94,1778588228.8642347,-0.32581642,-0.3756041,-0.3572998,-0.6876282,0.20559604,-0.93636745
95,1778588228.8853927,-0.4234393,-0.48152497,0.3917119,-2.3728766,2.0543625,2.1454427
96,1778588228.9057183,0.733148,-0.536926,1.6539761,-1.7928401,2.3957798,2.2514365
97,1778588228.92699,1.1158297,-0.2997023,1.3784354,-1.7928401,2.3957798,2.2514365
98,1778588228.9470923,0.9752528,-0.5464442,0.15741692,2.4975126,-0.07829694,-0.8341021
99,1778588228.9685955,0.53009236,-0.40269446,-0.26455808,2.534264,0.15233281,-1.9734024
100,1778588228.989062,0.53009236,-0.40269446,-0.26455808,2.534264,0.15233281,-1.9734024
101,1778588229.0098126,-0.23942018,0.029286869,-0.4249037,2.1443772,2.6434538,-2.437325
102,1778588229.0303862,-0.25845662,0.035632357,-0.4322254,2.1443772,2.6434538,-2.437325
103,1778588229.0524235,0.5100796,-1.0726316,-1.0645777,2.8788772,3.858388,-2.1885858
104,1778588229.07226,1.023576,-3.6642756,0.113974735,2.863431,6.230732,-2.713761
105,1778588229.0933893,1.7835704,-5.0148883,2.0981603,2.863431,6.230732,-2.713761
106,1778588229.1135967,1.5934497,-3.1070929,-1.3969837,5.347095,-1.9302592,-1.7981664
107,1778588229.1351695,0.66188323,-1.3833165,-1.5336558,6.612629,-1.3214606,-2.893791
108,1778588229.1555274,0.36632994,-0.2511349,0.0051252022,3.361442,4.4133906,-2.279666
109,1778588229.1766717,0.95597225,0.14692247,-0.5208182,1.9036276,2.740393,-0.6876282
110,1778588229.1971498,0.95597225,0.14692247,-0.5208182,1.9036276,2.740393,-0.6876282
111,1778588229.218302,-0.41733786,-0.029042812,-0.053936653,-0.88949585,2.102832,-0.036751624
112,1778588229.2387977,-0.86225426,0.025137896,-0.24356914,-1.3539511,-0.09054748,1.1925635
113,1778588229.2601588,-1.223703,0.16742326,-0.7924539,-1.510545,-0.69508505,2.770753
114,1778588229.280533,-0.39537275,0.30555966,-1.645434,-1.8082864,-0.20186761,4.2919507
115,1778588229.3020232,-0.099819414,0.15888128,-1.2717823,-1.9952403,-1.9952403,4.3713126
116,1778588229.322345,0.079318605,0.09737884,-0.30287504,-0.9938917,-3.7795582,3.7433393
117,1778588229.3434522,0.46541715,0.4322254,-0.032459613,-0.8793758,-3.8503983,3.0876691
118,1778588229.364006,-0.17084008,-0.47176263,-0.92229235,3.409379,-4.974252,-1.5904398
119,1778588229.3849342,-0.260165,-0.51496077,-1.8689904,3.409379,-4.974252,-1.5904398
120,1778588229.4053197,-0.55645055,-0.86201024,-1.5058333,-1.6575515,-1.6010925,-1.8263959
121,1778588229.426042,-0.5786598,-0.8747012,-0.97037166,-1.6575515,-1.6010925,-1.8263959
122,1778588229.446957,-0.5786598,-0.8747012,-0.97037166,-1.6575515,-1.6010925,-1.8263959
123,1778588229.4677005,0.0061014313,-1.7618494,-0.8402891,-4.0298953,-2.034655,2.1459754
124,1778588229.4888299,0.33484653,-2.6282525,-0.62014943,-4.2163167,-3.4519894,3.10205
125,1778588229.5094223,0.33484653,-2.6282525,-0.62014943,-4.2163167,-3.4519894,3.10205
126,1778588229.5300484,3.0165477,-4.0564756,-0.23331872,-3.882889,-1.3241237,3.739611
127,1778588229.5514636,3.0817108,-1.4606826,1.2051547,-3.0466564,-1.4727281,1.3502227
128,1778588229.5715985,1.7154784,-0.22282428,2.1669843,-2.2109563,-4.54069,-1.3124058
129,1778588229.5925763,1.7154784,-0.22282428,2.1669843,-2.2109563,-4.54069,-1.3124058
130,1778588229.6135974,0.099575356,-0.5876899,-0.28432667,-0.011185277,0.30839407,1.1611383
131,1778588229.6352003,-0.04515059,-0.44491637,0.6160005,-1.5755261,0.572047,2.072472
132,1778588229.6552932,0.91253006,-0.25699228,1.1524384,-1.1531488,0.85966843,1.7528926
133,1778588229.6766124,1.1290088,-0.30385128,0.27017137,1.0743192,1.1797804,0.23009712
134,1778588229.696877,0.9752528,-0.30922052,0.13057062,2.098571,0.26205507,-0.73609775
135,1778588229.718459,0.48518583,-0.010006348,-0.15473229,1.7560885,-0.34674358,-1.6096146
136,1778588229.738274,0.42270714,0.12568948,0.13764828,1.0679276,0.19121496,-2.1640847
137,1778588229.7593875,-0.014887493,0.1010397,-0.09518232,1.3981596,2.2972429,-2.3473103
138,1778588229.7798615,0.34607318,-0.21428227,-0.122516744,1.794438,4.4773064,-2.2003038
139,1778588229.8010292,0.5791479,-0.58183247,0.22184804,2.7020433,5.171859,-2.576342
140,1778588229.8214924,2.1003566,-4.690048,0.7770783,4.6823697,5.387575,-3.0205574
141,1778588229.8423996,2.8303318,-6.9353743,2.9257584,1.9691414,4.8288436,-4.8741174
142,1778588229.8634253,1.2483528,-3.4724464,-0.33533466,4.8091364,-1.4705976,-3.300722
143,1778588229.8850815,0.23161033,-0.2037878,-0.31654227,2.8229508,3.671434,-1.6213325
144,1778588229.9053886,0.49128726,0.0134231495,-0.50495446,2.8229508,3.671434,-1.6213325
145,1778588229.926354,0.33875147,0.15912533,-0.05515694,-0.2908172,4.013384,-0.551807
146,1778588229.9463468,0.05515694,0.08005078,-0.028066583,-0.2908172,4.013384,-0.551807
147,1778588229.9680994,-0.77366143,-0.016107777,-0.26114124,-1.5648735,-0.7680557,0.98377174
148,1778588229.988263,-1.5231613,0.1889003,-0.0024405725,-1.8466359,-1.1552793,2.6248116
149,1778588230.0094106,-1.189047,0.16888762,-1.6007715,-1.4002901,-0.8111989,4.4613276
150,1778588230.0295212,-0.2596769,0.10470056,-1.3042419,-2.010154,-1.5984293,4.7798414
151,1778588230.050758,-0.15595257,0.024893839,-0.8956901,-2.010154,-1.5984293,4.7798414
152,1778588230.0717223,2.226046,0.71020657,5.384635,-0.8410263,-1.4679344,3.4290862
153,1778588230.0930824,0.29116032,-0.84834296,1.4950947,4.0123186,6.8033113,-0.5699165
154,1778588230.1132607,-0.37413976,-0.54790854,-2.3573492,2.9422605,-5.0972905,-1.4950987
155,1778588230.1344278,-0.5632841,-0.79513854,-2.187241,0.9869675,-8.032627,-1.7108147
156,1778588230.1550274,-0.58183247,-0.7912336,-0.9474302,-2.4074976,-0.9720538,-1.4583471
157,1778588230.176171,-0.6980037,-1.1861182,-0.8671354,-3.4519894,-0.31265512,-0.3749731
158,1778588230.1962957,-0.30360723,-1.7418365,-0.9608534,-3.7939394,-1.8572886,1.0562097
159,1778588230.217697,-0.30360723,-1.7418365,-0.9608534,-3.7939394,-1.8572886,1.0562097
160,1778588230.2378988,0.117391534,-4.0781965,0.3904916,-4.101801,-3.743872,2.7659593
161,1778588230.2590942,1.7213358,-4.6612496,-0.48542988,-3.2373388,0.19867182,3.4626422
162,1778588230.2801533,3.4482849,-3.1746967,0.08615221,-4.4117928,0.23489082,2.604039
163,1778588230.301364,3.2049599,-1.5214529,1.9692979,-4.5833,-2.427205,0.066046394
164,1778588230.3212595,0.86567104,0.043198135,1.5756336,-1.9691414,-5.766809,-2.25623
165,1778588230.3428338,0.35583547,0.08590815,0.8066092,-1.9691414,-5.766809,-2.25623
166,1778588230.3628292,0.35583547,0.08590815,0.8066092,-1.9691414,-5.766809,-2.25623
167,1778588230.3842354,0.69898,-0.25821257,1.581491,-0.8277105,1.0056096,2.4985778
168,1778588230.405059,1.1619565,-0.33533466,0.5623079,1.8706044,0.15180019,0.5704491
169,1778588230.425573,1.1619565,-0.33533466,0.5623079,1.8706044,0.15180019,0.5704491
170,1778588230.4459367,1.1619565,-0.33533466,0.5623079,1.8706044,0.15180019,0.5704491
171,1778588230.4669275,1.1619565,-0.33533466,0.5623079,1.8706044,0.15180019,0.5704491
172,1778588230.4880533,0.12593354,0.16595893,-0.3572998,1.6410398,2.8378644,-2.21575
173,1778588230.5088468,0.4417436,-0.057109397,-0.22672918,1.8642128,5.028048,-2.0421119
174,1778588230.529313,0.4417436,-0.057109397,-0.22672918,1.8642128,5.028048,-2.0421119
175,1778588230.5502515,0.4417436,-0.057109397,-0.22672918,1.8642128,5.028048,-2.0421119
176,1778588230.5710986,0.4417436,-0.057109397,-0.22672918,1.8642128,5.028048,-2.0421119
177,1778588230.5919895,1.5148634,-3.4143608,-0.32972133,3.7156425,0.5336975,-5.0088735
178,1778588230.6126866,0.9798898,-2.293894,-0.9479183,5.167598,0.2050634,-3.0509174
179,1778588230.6337507,0.47859627,-0.49079913,-0.44467232,2.8309402,2.4698157,-1.7246631
180,1778588230.6544566,0.47859627,-0.49079913,-0.44467232,2.8309402,2.4698157,-1.7246631
181,1778588230.6755636,0.47859627,-0.49079913,-0.44467232,2.8309402,2.4698157,-1.7246631
182,1778588230.696251,-0.3922,-0.10592084,-0.09786696,-0.7957525,2.4319987,-0.35153726
183,1778588230.7171764,-1.0672623,0.0976229,0.05588911,-1.1073424,-0.4607269,0.6247776
184,1778588230.7373374,-1.0672623,0.0976229,0.05588911,-1.1073424,-0.4607269,0.6247776
185,1778588230.758744,-1.0672623,0.0976229,0.05588911,-1.1073424,-0.4607269,0.6247776
186,1778588230.779607,-1.0672623,0.0976229,0.05588911,-1.1073424,-0.4607269,0.6247776
187,1778588230.8002186,-0.08786061,0.10836142,-0.340948,-0.84368944,-1.7502295,2.9358687
188,1778588230.8212214,1.2388345,0.94816244,1.6144388,-0.7771104,-1.0737866,2.6221485
189,1778588230.8419657,0.43710655,-0.83809257,1.9968764,0.6199839,6.6595006,0.37390783
190,1778588230.8627515,0.43710655,-0.83809257,1.9968764,0.6199839,6.6595006,0.37390783
191,1778588230.8840506,0.43710655,-0.83809257,1.9968764,0.6199839,6.6595006,0.37390783
192,1778588230.9043329,-0.7141115,-1.4392056,-1.1351103,-2.4501083,0.8990832,-1.154214
193,1778588230.9254322,-0.5779276,-1.6876558,-1.5829554,-2.6035063,-0.50653327,0.11504856
194,1778588230.945662,-0.5779276,-1.6876558,-1.5829554,-2.6035063,-0.50653327,0.11504856
195,1778588230.9668224,-0.5779276,-1.6876558,-1.5829554,-2.6035063,-0.50653327,0.11504856
196,1778588230.9874883,-0.5779276,-1.6876558,-1.5829554,-2.6035063,-0.50653327,0.11504856
197,1778588231.008497,2.617758,-3.407771,-0.6884855,-2.9555762,-0.5454154,2.952913
198,1778588231.029286,2.617758,-3.407771,-0.6884855,-2.9555762,-0.5454154,2.952913
199,1778588231.050162,3.107337,-0.98013395,1.3991802,-3.4930022,-1.6511599,0.64714813
200,1778588231.0704758,3.107337,-0.98013395,1.3991802,-3.4930022,-1.6511599,0.64714813
201,1778588231.0920541,3.107337,-0.98013395,1.3991802,-3.4930022,-1.6511599,0.64714813
202,1778588231.112853,-0.40659937,-0.28798756,0.8151512,-1.9249328,1.1845741,1.5446335
203,1778588231.1335592,0.20842488,-0.30946457,1.8272567,-1.0396981,1.2106731,2.0138824
204,1778588231.154081,0.20842488,-0.30946457,1.8272567,-1.0396981,1.2106731,2.0138824
205,1778588231.1750402,0.20842488,-0.30946457,1.8272567,-1.0396981,1.2106731,2.0138824
206,1778588231.1957073,0.20842488,-0.30946457,1.8272567,-1.0396981,1.2106731,2.0138824
207,1778588231.2169094,0.17840585,0.22355644,0.40342662,1.0231866,0.13901702,-2.038916
208,1778588231.2482483,-0.099087246,0.07907455,-0.29774985,2.269546,3.9302933,-1.6383767
209,1778588231.2584336,-0.099087246,0.07907455,-0.29774985,2.269546,3.9302933,-1.6383767
210,1778588231.268807,-0.099087246,0.07907455,-0.29774985,2.269546,3.9302933,-1.6383767
211,1778588231.2788959,-0.099087246,0.07907455,-0.29774985,2.269546,3.9302933,-1.6383767
212,1778588231.2904768,-0.099087246,0.07907455,-0.29774985,2.269546,3.9302933,-1.6383767
213,1778588231.3100314,3.840485,-5.8776307,2.4398403,2.2945797,7.0685625,-4.021906
214,1778588231.3317652,3.2786648,-6.8077326,3.3140533,2.2945797,7.0685625,-4.021906
215,1778588231.3520734,3.2786648,-6.8077326,3.3140533,2.2945797,7.0685625,-4.021906
216,1778588231.3733127,3.2786648,-6.8077326,3.3140533,2.2945797,7.0685625,-4.021906
217,1778588231.394255,3.2786648,-6.8077326,3.3140533,2.2945797,7.0685625,-4.021906
218,1778588231.4153006,0.09200958,-0.0353883,0.005857374,-0.007456851,4.4826326,-1.3156016
219,1778588231.435991,-0.71826047,-0.08566409,-0.029530926,-0.7813715,2.6690202,-0.9603359
220,1778588231.456865,-0.8712844,-0.08053889,-0.05906185,-1.4535533,-0.716923,0.3110572
221,1778588231.477287,-0.8712844,-0.08053889,-0.05906185,-1.4535533,-0.716923,0.3110572
222,1778588231.4981954,-0.8712844,-0.08053889,-0.05906185,-1.4535533,-0.716923,0.3110572
223,1778588231.5189202,-0.5762192,0.119343996,-1.2800802,-0.6695187,-2.5944517,4.0240364
224,1778588231.5399792,-0.25333142,0.00024405724,-0.4497975,-0.6695187,-2.5944517,4.0240364
225,1778588231.560382,-0.25333142,0.00024405724,-0.4497975,-0.6695187,-2.5944517,4.0240364
226,1778588231.5915442,-0.25333142,0.00024405724,-0.4497975,-0.6695187,-2.5944517,4.0240364
227,1778588231.6036088,-0.25333142,0.00024405724,-0.4497975,-0.6695187,-2.5944517,4.0240364
228,1778588231.6243763,-0.40000984,-0.72826684,-1.9036466,-0.7302388,-4.757471,-1.7006947
229,1778588231.6443915,-0.40000984,-0.72826684,-1.9036466,-0.7302388,-4.757471,-1.7006947
230,1778588231.665759,-0.40000984,-0.72826684,-1.9036466,-0.7302388,-4.757471,-1.7006947
231,1778588231.6853602,-0.40000984,-0.72826684,-1.9036466,-0.7302388,-4.757471,-1.7006947
232,1778588231.7073133,-0.45931572,-0.8105141,-1.2712942,-0.7302388,-4.757471,-1.7006947
233,1778588231.7281933,0.7609705,-3.9588525,0.4429639,-3.5942023,-1.5052186,4.042146
234,1778588231.749052,2.6919515,-3.1112418,-0.5994046,-2.684999,0.8676579,3.6788907
235,1778588231.770075,2.9655397,-2.622395,-0.3104408,-3.9473374,-0.70467246,1.9094865
236,1778588231.7908816,2.9655397,-2.622395,-0.3104408,-3.9473374,-0.70467246,1.9094865
237,1778588231.8114312,0.7409578,0.047103047,1.8899792,-1.0375676,-3.9079227,-0.20559604
238,1778588231.8330412,0.110801995,-0.88958865,-0.10909359,-1.4183996,0.4394216,1.7156084
239,1778588231.8531384,-0.25943285,-0.8251576,0.33997175,-1.4183996,0.4394216,1.7156084
240,1778588231.873913,-0.026358182,-0.6128277,1.2949678,-0.9177253,0.61891866,1.8386464
241,1778588231.8945796,-0.026358182,-0.6128277,1.2949678,-0.9177253,0.61891866,1.8386464
242,1778588231.9155972,0.82393724,-0.40220633,-0.04075756,2.7217507,-0.28336033,-1.23837
243,1778588231.9459383,0.35144243,0.1901206,-0.067847915,1.8524948,-0.3387541,-1.7955033
244,1778588231.9582677,0.18426323,0.31873876,0.110801995,1.8524948,-0.3387541,-1.7955033
245,1778588231.9788156,0.18426323,0.31873876,0.110801995,1.8524948,-0.3387541,-1.7955033
246,1778588232.0003567,0.18426323,0.31873876,0.110801995,1.8524948,-0.3387541,-1.7955033
247,1778588232.0209377,0.7080101,-0.6272271,-0.1244692,3.6868804,4.434163,-2.4208136
248,1778588232.0422292,2.0022457,-4.215357,1.4084544,3.3971283,6.0570936,-3.4344127
249,1778588232.0621712,1.0787331,-6.215406,3.0648708,2.0900488,2.961435,-6.0602894
250,1778588232.083549,1.0787331,-6.215406,3.0648708,2.0900488,2.961435,-6.0602894
251,1778588232.1039503,1.0787331,-6.215406,3.0648708,2.0900488,2.961435,-6.0602894
252,1778588232.1248379,0.83736044,-0.55840296,-0.55669457,2.1630194,1.6532904,-1.4215955
253,1778588232.1454782,0.8407772,-0.28701133,-0.64211464,2.1630194,1.6532904,-1.4215955
254,1778588232.166607,-0.40489095,-0.10372432,-0.06443111,-0.8069378,3.9297607,-1.4508902
255,1778588232.1873395,-0.40489095,-0.10372432,-0.06443111,-0.8069378,3.9297607,-1.4508902
256,1778588232.2082233,-0.40489095,-0.10372432,-0.06443111,-0.8069378,3.9297607,-1.4508902
257,1778588232.2290444,-1.5231613,0.21501444,-0.95279956,-1.5052186,-2.1534321,3.323625
258,1778588232.2494683,-1.3508569,0.328257,-1.1609803,-1.8849854,-2.9534457,4.862932
259,1778588232.270487,-0.41294485,0.039537273,-0.7292431,-0.9534117,-2.9411952,5.2299156
260,1778588232.2999969,-0.41294485,0.039537273,-0.7292431,-0.9534117,-2.9411952,5.2299156
261,1778588232.3129935,-0.41294485,0.039537273,-0.7292431,-0.9534117,-2.9411952,5.2299156
262,1778588232.332935,-0.13862452,-0.37316352,-1.2942356,2.7148266,-5.583584,-0.7387609
263,1778588232.3535001,-0.16547081,-0.42148685,-1.9326893,2.7148266,-5.583584,-0.7387609
264,1778588232.3749597,-0.08127106,-0.532777,-1.97784,0.048469532,-6.7974524,-0.9917612
265,1778588232.3952892,-0.08127106,-0.532777,-1.97784,0.048469532,-6.7974524,-0.9917612
266,1778588232.417087,-0.08127106,-0.532777,-1.97784,0.048469532,-6.7974524,-0.9917612
267,1778588232.4368525,-0.2421048,-2.1689367,-0.96768695,-4.499677,-1.7560885,0.8655274
268,1778588232.4585867,-0.076389916,-2.4303222,-0.7914777,-4.9763827,-2.6519759,1.9313245
269,1778588232.478874,0.26968327,-4.133353,0.94962674,-4.1715755,-2.6913908,2.5795379
270,1778588232.4994986,0.26968327,-4.133353,0.94962674,-4.1715755,-2.6913908,2.5795379
271,1778588232.5203547,0.26968327,-4.133353,0.94962674,-4.1715755,-2.6913908,2.5795379
272,1778588232.5406904,2.0688734,-0.8649389,1.7596527,-3.6890109,-2.9800773,-0.32277513
273,1778588232.5630162,0.32996538,-0.111046046,0.916435,-0.07882957,-1.1515509,0.29507825
274,1778588232.5829954,-0.043930303,-0.58988637,-0.26358184,-1.0013486,0.55979645,1.9808593
275,1778588232.60373,-0.043930303,-0.58988637,-0.26358184,-1.0013486,0.55979645,1.9808593
276,1778588232.6253927,-0.043930303,-0.58988637,-0.26358184,-1.0013486,0.55979645,1.9808593
277,1778588232.6533136,1.2461562,-0.4881145,0.24845028,2.0181434,0.07243799,-0.2412824
278,1778588232.668076,0.635281,-0.33655494,-0.17303659,2.5023062,-0.5299691,-1.5078819
279,1778588232.6888654,0.47542354,-0.19548985,-0.2774931,2.5023062,-0.5299691,-1.5078819
280,1778588232.7101252,0.47542354,-0.19548985,-0.2774931,2.5023062,-0.5299691,-1.5078819
281,1778588232.7307508,0.47542354,-0.19548985,-0.2774931,2.5023062,-0.5299691,-1.5078819
282,1778588232.7513013,0.4790844,-0.38805103,-0.2550398,2.1156151,5.1590757,-2.299906
283,1778588232.7719223,0.5027579,-1.5749013,0.6037976,3.268764,4.850682,-2.9454563
284,1778588232.7932694,0.5027579,-1.5749013,0.6037976,3.268764,4.850682,-2.9454563
285,1778588232.8138015,0.5027579,-1.5749013,0.6037976,3.268764,4.850682,-2.9454563
286,1778588232.834759,0.9576807,-2.1520967,-1.3376778,6.088519,-1.9941751,-2.481001
287,1778588232.855167,0.53863436,-0.6543175,-0.2403964,2.5523736,2.5987127,-0.6956177
288,1778588232.8761146,0.53863436,-0.6543175,-0.2403964,2.5523736,2.5987127,-0.6956177
289,1778588232.8969817,0.53863436,-0.6543175,-0.2403964,2.5523736,2.5987127,-0.6956177
290,1778588232.9178936,0.53863436,-0.6543175,-0.2403964,2.5523736,2.5987127,-0.6956177
291,1778588232.9385338,-0.7839119,0.065163285,-0.30873242,-0.9901633,-1.3752564,1.4929681
292,1778588232.9594555,-1.3491484,0.2511349,-0.15155955,-1.0418286,-0.59761333,2.777677
293,1778588232.9800534,-1.5400012,0.3162982,-0.24527754,-1.0418286,-0.59761333,2.777677
294,1778588233.0078797,-0.8463905,0.37145513,-1.4482356,-0.85061365,-1.171791,4.2109904
295,1778588233.0226924,-0.8463905,0.37145513,-1.4482356,-0.85061365,-1.171791,4.2109904
296,1778588233.043065,1.9297606,1.1458488,3.453654,-1.8082864,-0.23489082,2.5310683
297,1778588233.0639026,1.5522041,-0.8768977,4.6285458,3.6804886,-0.64714813,-1.0626013
298,1778588233.0844212,-0.2672427,-0.28701133,-1.6573927,3.3752904,-10.195646,-1.8684739
299,1778588233.105112,-0.2672427,-0.28701133,-1.6573927,3.3752904,-10.195646,-1.8684739
300,1778588233.126097,-0.2672427,-0.28701133,-1.6573927,3.3752904,-10.195646,-1.8684739
301,1778588233.1465867,-0.55767083,-1.6356717,-0.5110559,-4.1843586,0.046339005,0.19600865
302,1778588233.167877,-0.55767083,-1.6356717,-0.5110559,-4.1843586,0.046339005,0.19600865
303,1778588233.1890306,-0.10323621,-3.8314545,0.6872652,-3.289004,-6.748983,3.0850058
304,1778588233.2096176,-0.10323621,-3.8314545,0.6872652,-3.289004,-6.748983,3.0850058
305,1778588233.2307315,-0.10323621,-3.8314545,0.6872652,-3.289004,-6.748983,3.0850058
306,1778588233.2510133,3.3684783,-2.4796216,0.06687169,-4.5966163,0.6098639,2.2077606
307,1778588233.2719007,2.6104362,-0.6877533,1.8560555,-4.0788975,-4.6291065,-0.44528055
308,1778588233.2942822,0.94669807,0.014643434,1.8182266,-0.83889574,-5.180381,-1.041296
309,1778588233.3134701,0.94669807,0.014643434,1.8182266,-0.83889574,-5.180381,-1.041296
310,1778588233.3345976,0.94669807,0.014643434,1.8182266,-0.83889574,-5.180381,-1.041296
311,1778588233.3614385,0.55401,-0.40684342,1.4423783,0.5773733,0.8863,1.1872373
312,1778588233.3770661,1.091668,-0.3607166,1.0047837,0.5773733,0.8863,1.1872373
313,1778588233.397842,0.87030816,-0.4356422,-0.051740136,2.100169,-0.11717909,-1.0439591
314,1778588233.4177587,0.87030816,-0.4356422,-0.051740136,2.100169,-0.11717909,-1.0439591
315,1778588233.4394653,0.87030816,-0.4356422,-0.051740136,2.100169,-0.11717909,-1.0439591
316,1778588233.4600217,-0.008053889,0.16473864,-0.46322066,2.3526366,3.5723643,-1.5254587
317,1778588233.480018,0.0605262,0.04807928,-0.21232979,2.6264095,3.7603836,-1.5451661
318,1778588233.5010364,0.53765815,-0.4046469,-0.11202228,2.6264095,3.7603836,-1.5451661
319,1778588233.52254,0.53765815,-0.4046469,-0.11202228,2.6264095,3.7603836,-1.5451661
320,1778588233.5435133,0.53765815,-0.4046469,-0.11202228,2.6264095,3.7603836,-1.5451661
321,1778588233.564107,1.6715481,-5.5564513,0.822717,4.8757153,-2.1576931,-5.215002
322,1778588233.5841103,0.9850151,-2.2814472,-1.2283401,4.6845,0.6263755,-3.5169706
323,1778588233.6055512,0.45297024,-0.92180425,-0.84199744,2.0229373,2.338788,-2.0309267
324,1778588233.6255677,0.45297024,-0.92180425,-0.84199744,2.0229373,2.338788,-2.0309267
325,1778588233.647435,0.45297024,-0.92180425,-0.84199744,2.0229373,2.338788,-2.0309267
326,1778588233.667877,-0.7873287,0.12910628,0.15107143,-1.5041534,1.3081448,-0.76272935
327,1778588233.6890414,-0.9669548,0.12861817,0.10152781,-1.5041534,1.3081448,-0.76272935
328,1778588233.715372,-1.667399,0.10421244,-0.35095432,-1.8658108,-2.7542412,2.4106934
329,1778588233.7323627,-1.667399,0.10421244,-0.35095432,-1.8658108,-2.7542412,2.4106934
330,1778588233.752056,-1.667399,0.10421244,-0.35095432,-1.8658108,-2.7542412,2.4106934
331,1778588233.7724721,0.83223516,0.5730464,1.1697664,0.38775626,6.761766,3.3071134
332,1778588233.7935958,2.2231174,-0.20769271,6.217358,0.38775626,6.761766,3.3071134
333,1778588233.8142326,0.8163715,-1.0675064,2.7170894,2.7595675,2.6178875,-0.1784318
334,1778588233.8349705,0.8163715,-1.0675064,2.7170894,2.7595675,2.6178875,-0.1784318
335,1778588233.8556654,0.8163715,-1.0675064,2.7170894,2.7595675,2.6178875,-0.1784318
336,1778588233.8765485,-0.5625519,-1.1197346,-0.9691513,-3.0727553,-0.48735848,-0.5438175
337,1778588233.8974564,-0.5625519,-1.1197346,-0.9691513,-3.0727553,-0.48735848,-0.5438175
338,1778588233.9181712,-0.4253918,-2.3951778,-1.3464638,-3.5116444,-1.8594191,0.96779275
339,1778588233.9389105,-0.4253918,-2.3951778,-1.3464638,-3.5116444,-1.8594191,0.96779275
340,1778588233.9606333,0.42124277,-3.756041,0.46932206,-2.632801,1.2106731,4.196077
341,1778588233.9804575,2.6072636,-2.9938502,-0.41880223,-3.3854105,-0.027696876,3.1590416
342,1778588234.0020957,3.2337587,-2.209206,0.051252022,-3.840811,-4.16838,0.8841695
343,1778588234.0222855,3.2942846,-1.7384197,0.8463905,-3.840811,-4.16838,0.8841695
344,1778588234.043131,3.2942846,-1.7384197,0.8463905,-3.840811,-4.16838,0.8841695
345,1778588234.0687563,0.0873725,-0.733148,0.0078098318,-0.5363607,1.2442288,2.130529
346,1778588234.0859861,0.345341,-0.42270714,1.0155222,-1.7395768,0.1587244,2.402704
347,1778588234.1063175,1.2073512,-0.21159762,1.002099,-0.21518342,1.242631,1.3374395
348,1778588234.1274846,1.2073512,-0.21159762,1.002099,-0.21518342,1.242631,1.3374395
349,1778588234.1479805,1.2073512,-0.21159762,1.002099,-0.21518342,1.242631,1.3374395
350,1778588234.168874,0.36901456,-0.09054524,-0.117147475,2.1081583,-0.07403588,-1.953695
351,1778588234.1897664,-0.017084008,0.19085276,0.12056428,1.5201324,0.32330775,-2.3062975
352,1778588234.210737,-0.10152781,0.14741059,-0.28554696,1.9936424,2.7020433,-2.1763353
353,1778588234.2319963,-0.10152781,0.14741059,-0.28554696,1.9936424,2.7020433,-2.1763353
354,1778588234.2524536,-0.10152781,0.14741059,-0.28554696,1.9936424,2.7020433,-2.1763353
355,1778588234.2729697,3.469518,-5.4051356,2.085225,4.209925,6.6669574,-2.9321404
356,1778588234.2942607,1.6366479,-6.003076,1.3596429,1.8903117,5.110606,-5.048821
357,1778588234.3145967,1.01479,-2.7212384,-1.3230344,4.815528,1.9441077,-3.0652986
358,1778588234.335976,1.01479,-2.7212384,-1.3230344,4.815528,1.9441077,-3.0652986
359,1778588234.3561914,1.01479,-2.7212384,-1.3230344,4.815528,1.9441077,-3.0652986
360,1778588234.3767335,0.15229172,-0.14521407,-0.3053156,-0.25726137,4.1209755,-0.9582054
361,1778588234.3981342,-0.1444819,-0.14497001,-0.09689073,-0.25726137,4.1209755,-0.9582054
362,1778588234.4229705,-0.89032084,0.13618395,0.08102701,-0.87138635,2.0788636,-0.3552657
363,1778588234.4419935,-0.89032084,0.13618395,0.08102701,-0.87138635,2.0788636,-0.3552657
364,1778588234.4618263,-0.89032084,0.13618395,0.08102701,-0.87138635,2.0788636,-0.3552657
365,1778588234.4824464,-0.61160743,0.24503349,-1.274467,-0.43356264,-2.111354,4.523113
366,1778588234.5024438,-0.19573392,0.13935669,-0.72485006,0.13848437,-3.274623,4.0847564
367,1778588234.5239725,0.7878168,1.2976524,-1.0304097,-3.1190944,-0.7621967,1.9430424
368,1778588234.5450819,0.7878168,1.2976524,-1.0304097,-3.1190944,-0.7621967,1.9430424
369,1778588234.5653915,0.7878168,1.2976524,-1.0304097,-3.1190944,-0.7621967,1.9430424
370,1778588234.5863252,-0.18109047,-0.8471227,-2.937229,1.9004318,-6.0853233,-1.5659387
371,1778588234.6070282,-0.36315718,-0.9698835,-1.0889834,-3.367301,0.41172472,-1.2128036
372,1778588234.6282425,-0.36315718,-0.9698835,-1.0889834,-3.367301,0.41172472,-1.2128036
373,1778588234.6488047,-0.36315718,-0.9698835,-1.0889834,-3.367301,0.41172472,-1.2128036
374,1778588234.669593,-0.36315718,-0.9698835,-1.0889834,-3.367301,0.41172472,-1.2128036
375,1778588234.6903934,-0.07614586,-4.5587454,2.0342171,-3.4493263,-2.62854,3.5345476
376,1778588234.7109277,1.7020552,-3.9322505,-0.44418418,-2.2919164,1.1653993,4.087952
377,1778588234.7319505,2.5801733,-2.79592,-0.5288721,-3.3971283,-0.21624869,2.5481126
378,1778588234.752418,2.5801733,-2.79592,-0.5288721,-3.3971283,-0.21624869,2.5481126
379,1778588234.7770803,2.5801733,-2.79592,-0.5288721,-3.3971283,-0.21624869,2.5481126
380,1778588234.7944512,0.54205114,-0.67506236,-0.26211748,-1.3171995,1.1350393,1.748099
381,1778588234.8154612,0.54205114,-0.67506236,-0.26211748,-1.3171995,1.1350393,1.748099
382,1778588234.8363864,0.1701079,-0.268463,1.2781278,-2.3963125,0.8346347,1.7827201
383,1778588234.8571582,0.1701079,-0.268463,1.2781278,-2.3963125,0.8346347,1.7827201
384,1778588234.878135,0.1701079,-0.268463,1.2781278,-2.3963125,0.8346347,1.7827201
385,1778588234.8985846,0.3829258,-0.15888128,-0.09200958,1.7209347,0.34514567,-1.8876486
386,1778588234.9195614,0.14521407,0.1010397,0.2779812,1.7209347,0.34514567,-1.8876486
387,1778588234.9401834,0.0319715,0.119099945,0.15326795,1.417867,0.89109373,-2.1827269
388,1778588234.9617844,0.0319715,0.119099945,0.15326795,1.417867,0.89109373,-2.1827269
389,1778588234.9819314,0.0319715,0.119099945,0.15326795,1.417867,0.89109373,-2.1827269
390,1778588235.0027223,1.0223558,-2.9950705,0.6994681,2.9539783,6.890663,-3.588876
391,1778588235.023499,1.6566606,-6.5778313,3.1022117,2.5965822,4.0181775,-5.074387
392,1778588235.04452,1.6566606,-6.5778313,3.1022117,2.5965822,4.0181775,-5.074387
393,1778588235.065167,1.6566606,-6.5778313,3.1022117,2.5965822,4.0181775,-5.074387
394,1778588235.0868042,0.46248847,-0.42685616,-0.61038715,2.728675,1.7939054,-1.284709
395,1778588235.1069474,0.6230781,-0.0707766,-0.635281,1.2239889,2.8900626,-0.70680296
396,1778588235.1307087,-0.15668476,0.023429496,-0.16303024,-0.2066613,4.422978,-1.019458
397,1778588235.1509073,-0.50666285,0.16473864,-0.03441207,-0.58696073,1.9877834,-0.034621093
398,1778588235.1704397,-0.50666285,0.16473864,-0.03441207,-0.58696073,1.9877834,-0.034621093
399,1778588235.1906002,-1.4982674,0.5442477,-0.8297946,-1.6676716,-1.1307782,2.8527782
400,1778588235.2115567,-0.83028275,0.50031734,-1.8018748,-1.7939054,-2.056493,4.895423
401,1778588235.2334187,-0.08102701,-0.03734076,-0.73388016,-0.5837649,-1.6229304,4.937501
402,1778588235.2537367,-0.08102701,-0.03734076,-0.73388016,-0.5837649,-1.6229304,4.937501
403,1778588235.2743065,-0.08102701,-0.03734076,-0.73388016,-0.5837649,-1.6229304,4.937501
404,1778588235.2951171,-0.3917119,-0.34607318,-1.3388981,2.6945865,-6.8800106,-2.3377228
405,1778588235.3162422,-0.9906283,-0.60989904,-2.2738814,-0.0026631611,-6.3415194,-2.108691
406,1778588235.3371918,-0.9906283,-0.60989904,-2.2738814,-0.0026631611,-6.3415194,-2.108691
407,1778588235.3576941,-0.6369894,-0.7482795,-0.46932206,-3.323625,0.49641323,-0.9534117
408,1778588235.3789425,-0.6369894,-0.7482795,-0.46932206,-3.323625,0.49641323,-0.9534117
409,1778588235.3992002,-0.0776102,-2.0578907,-1.4138237,-4.086887,-2.3441145,2.1576931
410,1778588235.4200408,0.58207655,-3.4338853,-0.375116,-4.134291,-2.4234767,2.5662222
411,1778588235.4409888,1.1221752,-4.768635,0.36901456,-3.5089812,-0.02876214,2.7856665
412,1778588235.4619195,1.1221752,-4.768635,0.36901456,-3.5089812,-0.02876214,2.7856665
413,1778588235.4845378,1.1221752,-4.768635,0.36901456,-3.5089812,-0.02876214,2.7856665
414,1778588235.504629,0.9200958,0.08175918,1.4745939,-1.293231,-4.283428,-0.69135666
415,1778588235.525237,0.9200958,0.08175918,1.4745939,-1.293231,-4.283428,-0.69135666
416,1778588235.5457194,0.042221904,-0.51496077,0.15546446,-0.97045594,-0.104928546,1.9643476
417,1778588235.5665264,0.042221904,-0.51496077,0.15546446,-0.97045594,-0.104928546,1.9643476
418,1778588235.5875144,0.042221904,-0.51496077,0.15546446,-0.97045594,-0.104928546,1.9643476
419,1778588235.6087568,1.2698299,-0.43832684,0.340948,1.7544906,0.44741106,0.23062976
420,1778588235.6290376,0.6972716,-0.4502856,-0.009030119,2.6530411,-0.42077947,-0.67271453
421,1778588235.6497507,0.6972716,-0.4502856,-0.009030119,2.6530411,-0.42077947,-0.67271453
422,1778588235.6707335,0.6972716,-0.4502856,-0.009030119,2.6530411,-0.42077947,-0.67271453
423,1778588235.6913738,0.6972716,-0.4502856,-0.009030119,2.6530411,-0.42077947,-0.67271453
424,1778588235.7130082,0.635281,-0.5176454,-0.22331238,3.4471958,5.1873055,-2.8304076
425,1778588235.733332,1.8262804,-3.8731883,1.1814811,3.8488004,6.523147,-3.7028592
426,1778588235.754118,2.9701767,-5.4400363,1.9888225,3.8488004,6.523147,-3.7028592
427,1778588235.7751412,2.9701767,-5.4400363,1.9888225,3.8488004,6.523147,-3.7028592
428,1778588235.7961075,2.9701767,-5.4400363,1.9888225,3.8488004,6.523147,-3.7028592
429,1778588235.816584,0.46810177,-0.21379416,-0.8188121,2.6509106,2.6317358,-0.9187906
430,1778588235.83881,0.68458056,-0.00976229,-0.92961407,2.6509106,2.6317358,-0.9187906
431,1778588235.85956,0.6042857,0.27456442,-0.5649925,0.6013418,4.4251084,-0.42290998
432,1778588235.8804307,0.6042857,0.27456442,-0.5649925,0.6013418,4.4251084,-0.42290998
433,1778588235.9004478,0.6042857,0.27456442,-0.5649925,0.6013418,4.4251084,-0.42290998
434,1778588235.9215105,-1.619808,0.25748038,0.14301755,-0.9374327,-2.9071066,3.196326
435,1778588235.943114,-1.1531705,0.29604146,-1.9490411,-0.628506,-3.3039176,3.4977958
436,1778588235.9638004,-0.79440635,0.234539,-1.3723339,-0.91452956,-3.033873,2.732936
437,1778588235.984178,-0.79440635,0.234539,-1.3723339,-0.91452956,-3.033873,2.732936
438,1778588236.0046995,-0.79440635,0.234539,-1.3723339,-0.91452956,-3.033873,2.732936
439,1778588236.025839,-0.011470691,-0.46370876,-0.16351835,2.7590349,-3.496198,-1.2602079
440,1778588236.0466359,-0.29482117,-0.40513504,-1.9256116,2.770753,-9.598033,-1.7230653
441,1778588236.0675669,-0.2779812,-0.73388016,-2.6036026,-0.8511463,-2.9577067,-1.6378441
442,1778588236.088329,-0.2779812,-0.73388016,-2.6036026,-0.8511463,-2.9577067,-1.6378441
443,1778588236.1083083,-0.2779812,-0.73388016,-2.6036026,-0.8511463,-2.9577067,-1.6378441
444,1778588236.129931,0.012935034,-3.167619,-0.5269196,-3.4312167,-2.6951191,2.3574302
445,1778588236.1504564,0.012935034,-3.167619,-0.5269196,-3.4312167,-2.6951191,2.3574302
446,1778588236.1715388,0.20476402,-3.7816672,0.7250941,-2.0293288,0.37923414,4.607269
447,1778588236.191839,0.20476402,-3.7816672,0.7250941,-2.0293288,0.37923414,4.607269
448,1778588236.2144043,3.4243672,-0.9340071,1.5746574,-3.52496,-2.428803,2.4325314
449,1778588236.2339146,3.1727443,-0.4881145,1.9297606,-3.3177662,-6.346313,0.40426785
450,1778588236.2550569,0.6457755,-0.37096703,-0.16303024,-0.3371562,0.26418558,1.540905
451,1778588236.27563,0.6457755,-0.37096703,-0.16303024,-0.3371562,0.26418558,1.540905
452,1778588236.296872,0.6457755,-0.37096703,-0.16303024,-0.3371562,0.26418558,1.540905
453,1778588236.3171766,0.9835507,-0.234539,1.3459758,0.34940675,1.3299826,0.76113147
454,1778588236.3381984,1.2078394,-0.4751795,0.44320798,1.7827201,0.531567,-0.53795856
455,1778588236.3587642,0.99502134,-0.48640612,0.2604091,1.7827201,0.531567,-0.53795856
456,1778588236.3803632,0.99502134,-0.48640612,0.2604091,1.7827201,0.531567,-0.53795856
457,1778588236.4004462,0.99502134,-0.48640612,0.2604091,1.7827201,0.531567,-0.53795856
458,1778588236.42223,-0.1300825,-0.025381953,-0.35754386,2.1555626,3.029612,-2.2540996
459,1778588236.4423847,0.18792409,-0.19329333,-0.2111095,2.5731463,3.1680965,-2.2429142
460,1778588236.4631486,0.3226437,-0.29994637,-0.17059602,2.5731463,3.1680965,-2.2429142
461,1778588236.483813,0.3226437,-0.29994637,-0.17059602,2.5731463,3.1680965,-2.2429142
462,1778588236.5050373,0.3226437,-0.29994637,-0.17059602,2.5731463,3.1680965,-2.2429142
463,1778588236.5253794,1.7184072,-2.9953146,-1.0433447,6.0283318,-2.3489082,-3.0333405
464,1778588236.546492,0.50715095,-0.73680884,-0.5449798,3.184608,2.6525085,-2.501241
465,1778588236.567055,0.72533816,-0.45004156,-0.64309084,3.184608,2.6525085,-2.501241
466,1778588236.5880854,0.72533816,-0.45004156,-0.64309084,3.184608,2.6525085,-2.501241
467,1778588236.6086493,0.72533816,-0.45004156,-0.64309084,3.184608,2.6525085,-2.501241
468,1778588236.6295278,-0.70068836,0.010738519,-0.0873725,-1.5393071,0.34834146,0.5901565
469,1778588236.6503184,-1.1434082,0.110557936,0.099575356,-2.1997712,-1.4322481,1.7699369
470,1778588236.6712456,-1.1434082,0.110557936,0.099575356,-2.1997712,-1.4322481,1.7699369
471,1778588236.69197,-1.1434082,0.110557936,0.099575356,-2.1997712,-1.4322481,1.7699369
472,1778588236.712799,-1.1434082,0.110557936,0.099575356,-2.1997712,-1.4322481,1.7699369
473,1778588236.7333577,1.1414558,0.7883049,1.2742229,-0.8692558,3.83655,1.6474315
474,1778588236.7545307,1.1414558,0.7883049,1.2742229,-0.8692558,3.83655,1.6474315
475,1778588236.7754834,-0.22209209,-0.49616838,-0.65382934,2.7260118,-6.802246,-0.92038846
476,1778588236.7963338,-0.22209209,-0.49616838,-0.65382934,2.7260118,-6.802246,-0.92038846
477,1778588236.817048,-0.22209209,-0.49616838,-0.65382934,2.7260118,-6.802246,-0.92038846
478,1778588236.8380206,-0.652365,-1.244936,-0.86103404,-2.936934,-2.3457124,0.4777711
479,1778588236.8585346,-0.22209209,-1.9231712,-1.475082,-3.4045851,-2.363289,1.567004
480,1778588236.8794944,-0.22209209,-1.9231712,-1.475082,-3.4045851,-2.363289,1.567004
481,1778588236.90002,-0.22209209,-1.9231712,-1.475082,-3.4045851,-2.363289,1.567004
