id,timestamp,acc_x,acc_y,acc_z,gyro_x,gyro_y,gyro_z
1,1778588242.000307,0.49616838,-2.4361794,-0.6203935,-3.9286952,-2.6178875,2.4181504
2,1778588242.021306,0.49616838,-2.4361794,-0.6203935,-3.9286952,-2.6178875,2.4181504
3,1778588242.0432217,0.49616838,-2.4361794,-0.6203935,-3.9286952,-2.6178875,2.4181504
4,1778588242.063639,2.6677897,-1.2312689,0.75950617,-2.68926,-0.9757822,0.6988135
5,1778588242.0847607,2.2416658,-0.6025773,1.2734908,-2.3153522,-3.0626354,0.9624664
6,1778588242.1051085,2.2416658,-0.6025773,1.2734908,-2.3153522,-3.0626354,0.9624664
7,1778588242.1260583,2.2416658,-0.6025773,1.2734908,-2.3153522,-3.0626354,0.9624664
8,1778588242.146456,2.2416658,-0.6025773,1.2734908,-2.3153522,-3.0626354,0.9624664
9,1778588242.167484,1.0240642,-0.15961345,0.7556012,-0.4495416,0.69721556,1.6500946
10,1778588242.188453,1.0240642,-0.15961345,0.7556012,-0.4495416,0.69721556,1.6500946
11,1778588242.2093153,0.8000197,-0.21013328,0.08444381,2.2967103,-0.16085494,-0.76113147
12,1778588242.2298489,0.8000197,-0.21013328,0.08444381,2.2967103,-0.16085494,-0.76113147
13,1778588242.250574,0.8000197,-0.21013328,0.08444381,2.2967103,-0.16085494,-0.76113147
14,1778588242.2722657,0.12666571,-0.05735345,-0.20305562,2.7377295,3.850931,-2.3350596
15,1778588242.2932067,0.5945235,-0.7487676,0.05027579,3.6533244,3.6304212,-3.1148334
16,1778588242.3133292,0.7324158,-1.5629426,0.61941725,3.6533244,3.6304212,-3.1148334
17,1778588242.3337345,0.7324158,-1.5629426,0.61941725,3.6533244,3.6304212,-3.1148334
18,1778588242.3550606,0.7324158,-1.5629426,0.61941725,3.6533244,3.6304212,-3.1148334
19,1778588242.3759148,0.3521746,-1.5007081,-1.0933765,3.9116511,1.8221349,-3.025351
20,1778588242.3965478,0.3521746,-1.5007081,-1.0933765,3.9116511,1.8221349,-3.025351
21,1778588242.4178293,0.3521746,-1.5007081,-1.0933765,3.9116511,1.8221349,-3.025351
22,1778588242.4385076,0.3521746,-1.5007081,-1.0933765,3.9116511,1.8221349,-3.025351
23,1778588242.4592776,0.28969595,-0.9061846,-1.0177187,3.9116511,1.8221349,-3.025351
24,1778588242.4794836,-0.8922733,-0.0053692595,-0.12715383,-1.8466359,-2.0442424,1.8279938
25,1778588242.5009646,-1.615415,0.3316738,-0.010982576,-1.6799221,-3.7460024,3.3071134
26,1778588242.5217004,-1.4440868,0.3441207,-0.810026,-1.6799221,-3.7460024,3.3071134
27,1778588242.5425274,-1.4440868,0.3441207,-0.810026,-1.6799221,-3.7460024,3.3071134
28,1778588242.5631514,-1.4440868,0.3441207,-0.810026,-1.6799221,-3.7460024,3.3071134
29,1778588242.5844884,2.0564265,-1.3681849,5.998195,0.59601545,7.2938657,0.5816344
30,1778588242.6045296,-0.26675457,-0.49982923,-0.3355787,2.952913,-6.5002437,-1.3310479
31,1778588242.6258206,-0.26675457,-0.49982923,-0.3355787,2.952913,-6.5002437,-1.3310479
32,1778588242.6467214,-0.26675457,-0.49982923,-0.3355787,2.952913,-6.5002437,-1.3310479
33,1778588242.6670947,-0.5976962,-1.462147,-1.4824038,-1.9835224,-2.5656893,0.7701862
34,1778588242.6878393,-0.29530928,-1.7796655,-2.1889493,-2.698315,-3.0535805,2.0037625
35,1778588242.708939,-0.10177187,-1.8777765,-1.956607,-2.698315,-3.0535805,2.0037625
36,1778588242.7297754,-0.10177187,-1.8777765,-1.956607,-2.698315,-3.0535805,2.0037625
37,1778588242.7506623,-0.10177187,-1.8777765,-1.956607,-2.698315,-3.0535805,2.0037625
38,1778588242.7713034,3.0936697,-3.6806273,-0.30726805,-3.2186966,-0.31691617,0.57151437
39,1778588242.7921858,2.4151905,-1.3037539,0.7138674,-3.2186966,-0.31691617,0.57151437
40,1778588242.8128905,2.0273836,-0.59964865,1.4760582,-2.4362597,-2.321744,1.3603427
41,1778588242.8337584,1.2124764,-0.13691612,1.1543908,-0.60240704,-1.6847157,1.8413097
42,1778588242.8545983,1.2124764,-0.13691612,1.1543908,-0.60240704,-1.6847157,1.8413097
43,1778588242.8755398,0.14643435,-0.1769415,1.1997855,-0.3787015,1.7997643,1.8018948
44,1778588242.8961911,1.0621371,-0.09176553,1.0423685,-0.3787015,1.7997643,1.8018948
45,1778588242.917473,0.89861876,-0.3385074,0.2884757,2.6434538,-0.5161206,-0.54168695
46,1778588242.9381123,0.89861876,-0.3385074,0.2884757,2.6434538,-0.5161206,-0.54168695
47,1778588242.9588885,0.89861876,-0.3385074,0.2884757,2.6434538,-0.5161206,-0.54168695
48,1778588242.9798148,0.13862452,0.073461235,-0.47688788,2.247708,2.7888622,-1.5941683
49,1778588243.000588,0.32679266,-0.033923957,-0.46834585,2.3446472,4.2855587,-1.9451729
50,1778588243.021469,0.96036524,-0.5989165,-0.45248213,3.2629051,4.926848,-3.1696944
51,1778588243.0422075,0.96036524,-0.5989165,-0.45248213,3.2629051,4.926848,-3.1696944
52,1778588243.0629022,0.96036524,-0.5989165,-0.45248213,3.2629051,4.926848,-3.1696944
53,1778588243.0837975,0.9586569,-6.369162,1.7362232,5.9106197,-3.4045851,-3.7470677
54,1778588243.1046197,1.3579346,-2.971885,-1.2739788,5.9106197,-3.4045851,-3.7470677
55,1778588243.1259882,0.59037447,-0.25821257,-0.79782313,2.1662152,2.098571,-1.5041534
56,1778588243.1464655,0.59037447,-0.25821257,-0.79782313,2.1662152,2.098571,-1.5041534
57,1778588243.1670775,0.59037447,-0.25821257,-0.79782313,2.1662152,2.098571,-1.5041534
58,1778588243.1875992,-0.55815893,-0.035632357,-0.28725538,-1.2974921,1.6682042,0.2727077
59,1778588243.2083678,-0.77170897,0.051740136,-0.20842488,-1.9089539,-0.5470133,1.5382419
60,1778588243.2293978,-1.415044,0.46761367,-1.0245523,-1.8018948,-1.8700718,3.3992589
61,1778588243.2507792,-1.415044,0.46761367,-1.0245523,-1.8018948,-1.8700718,3.3992589
62,1778588243.270923,-1.415044,0.46761367,-1.0245523,-1.8018948,-1.8700718,3.3992589
63,1778588243.2919154,0.12471326,0.28871974,0.17328064,-0.14061491,-0.99229383,2.9364014
64,1778588243.3128026,1.11705,-1.1277885,4.93801,0.8538095,7.3151712,0.37603834
65,1778588243.3342547,-0.13154685,-0.6211257,0.17620933,3.1132355,-3.4168358,-1.4524881
66,1778588243.3542678,-0.13154685,-0.6211257,0.17620933,3.1132355,-3.4168358,-1.4524881
67,1778588243.3752744,-0.13154685,-0.6211257,0.17620933,3.1132355,-3.4168358,-1.4524881
68,1778588243.3958957,-0.4166057,-1.2607998,-1.2363939,-2.5758095,-3.0109699,1.649562
69,1778588243.4167016,-0.4166057,-1.2607998,-1.2363939,-2.5758095,-3.0109699,1.649562
70,1778588243.4381747,-0.006345488,-1.7406163,-1.3945432,-4.130563,-1.9382486,2.3792682
71,1778588243.458479,-0.006345488,-1.7406163,-1.3945432,-4.130563,-1.9382486,2.3792682
72,1778588243.4788978,-0.006345488,-1.7406163,-1.3945432,-4.130563,-1.9382486,2.3792682
73,1778588243.4998398,3.4946556,-3.627179,0.7643873,-3.743872,-2.3025692,-0.72437984
74,1778588243.5208864,1.7594087,-1.6024799,0.87982637,-2.0687435,-1.5606124,-0.62584287
75,1778588243.5421894,1.3672087,-0.8407772,1.1526824,-2.0687435,-1.5606124,-0.62584287
76,1778588243.5624905,1.3672087,-0.8407772,1.1526824,-2.0687435,-1.5606124,-0.62584287
77,1778588243.5834634,1.3672087,-0.8407772,1.1526824,-2.0687435,-1.5606124,-0.62584287
78,1778588243.6041605,0.5462001,-0.11251039,0.460536,-1.1899004,0.7456851,2.354767
79,1778588243.6253164,1.2539662,-0.18865626,0.6472398,0.38722363,1.1776499,0.94116116
80,1778588243.6457202,1.1246158,-0.26284966,0.5051985,0.38722363,1.1776499,0.94116116
81,1778588243.6671228,1.1246158,-0.26284966,0.5051985,0.38722363,1.1776499,0.94116116
82,1778588243.6874232,1.1246158,-0.26284966,0.5051985,0.38722363,1.1776499,0.94116116
83,1778588243.7085397,0.22331238,-0.05296042,-0.43100512,2.141714,2.4074976,-1.5899072
84,1778588243.729256,0.7167961,-0.41538543,-0.6101431,2.0996363,5.0285807,-1.8226675
85,1778588243.7497218,1.0064921,-0.58158845,-0.58939826,2.0996363,5.0285807,-1.8226675
86,1778588243.7704535,1.0064921,-0.58158845,-0.58939826,2.0996363,5.0285807,-1.8226675
87,1778588243.7920642,1.6627622,-6.4860654,1.1966126,6.311159,-2.1598237,-3.3784862
88,1778588243.812309,1.7098651,-4.958267,-0.45467865,6.311159,-2.1598237,-3.3784862
89,1778588243.8331351,0.1615659,-1.7025435,-0.93303084,4.606736,1.8572886,-3.639476
90,1778588243.853598,0.1615659,-1.7025435,-0.93303084,4.606736,1.8572886,-3.639476
91,1778588243.8747263,0.1615659,-1.7025435,-0.93303084,4.606736,1.8572886,-3.639476
92,1778588243.895529,0.34851375,0.12324891,-0.7243619,-0.29241508,5.3753242,-1.055677
93,1778588243.9167552,-0.6562699,0.14521407,-0.34778157,-0.90707266,-0.22796659,1.2239889
94,1778588243.9376023,-1.3340169,0.26651052,-0.44516042,-0.90707266,-0.22796659,1.2239889
95,1778588243.9582515,-1.4687365,0.2848148,-1.3171769,-1.7369137,-2.424542,2.660498
96,1778588243.9792647,-1.4687365,0.2848148,-1.3171769,-1.7369137,-2.424542,2.660498
97,1778588244.0005198,-0.3863426,0.27822527,-0.30165476,0.15286545,-1.8439728,2.5220137
98,1778588244.0206327,1.3162007,0.5959878,2.7876217,-1.1004182,8.312259,0.55553544
99,1778588244.0421712,0.23429495,-0.801484,1.4721533,2.6035063,-1.4919028,-1.0210559
100,1778588244.0619998,0.23429495,-0.801484,1.4721533,2.6035063,-1.4919028,-1.0210559
101,1778588244.0832205,0.23429495,-0.801484,1.4721533,2.6035063,-1.4919028,-1.0210559
102,1778588244.1041894,-0.61844105,-1.3964956,-0.53643787,-3.13241,-0.4346279,-0.29454562
103,1778588244.1248133,-0.49201941,-1.7066923,-0.7380291,-2.7563717,-1.8359833,1.0823087
104,1778588244.1453958,-0.07565775,-2.3270857,-0.9022797,-3.0700922,-2.6759443,1.9979035
105,1778588244.166111,-0.07565775,-2.3270857,-0.9022797,-3.0700922,-2.6759443,1.9979035
106,1778588244.1866174,-0.07565775,-2.3270857,-0.9022797,-3.0700922,-2.6759443,1.9979035
107,1778588244.2078195,1.8438525,-3.2039835,-0.6711574,-2.1422467,0.009054748,4.314321
108,1778588244.22886,2.8505886,-2.6324015,-0.584029,-3.5542548,0.11025487,2.692456
109,1778588244.2499154,3.129302,-1.1546348,1.1541467,-3.2858083,-3.9052596,0.38456047
110,1778588244.2702377,3.129302,-1.1546348,1.1541467,-3.2858083,-3.9052596,0.38456047
111,1778588244.291272,3.129302,-1.1546348,1.1541467,-3.2858083,-3.9052596,0.38456047
112,1778588244.3118331,0.11543907,-0.63625723,0.2945771,-1.8855181,1.9020296,1.7443706
113,1778588244.33305,-0.59183884,-0.5615757,1.2012497,-2.372344,1.0167949,1.5883093
114,1778588244.3534307,0.6550496,-0.27822527,1.0794652,0.3323625,0.9262474,1.8066885
115,1778588244.3744285,0.6550496,-0.27822527,1.0794652,0.3323625,0.9262474,1.8066885
116,1778588244.3948982,0.6550496,-0.27822527,1.0794652,0.3323625,0.9262474,1.8066885
117,1778588244.416059,0.30800024,0.15741692,0.29921418,1.4945661,0.30679616,-2.408563
118,1778588244.4375994,0.17889395,0.08664032,-0.12715383,1.4945661,0.30679616,-2.408563
119,1778588244.4579384,0.17889395,0.08664032,-0.12715383,1.4945661,0.30679616,-2.408563
120,1778588244.4785788,0.17889395,0.08664032,-0.12715383,1.4945661,0.30679616,-2.408563
121,1778588244.499383,0.17889395,0.08664032,-0.12715383,1.4945661,0.30679616,-2.408563
122,1778588244.5203176,2.460585,-5.9532886,2.361986,2.9774141,1.1579424,-5.852563
123,1778588244.5417438,1.3196175,-5.538147,1.539025,5.960687,-2.065015,-3.038667
124,1778588244.561725,0.6970275,-1.8714309,-1.334505,4.2743735,1.3736585,-2.4873924
125,1778588244.5825937,0.6970275,-1.8714309,-1.334505,4.2743735,1.3736585,-2.4873924
126,1778588244.6037884,0.6970275,-1.8714309,-1.334505,4.2743735,1.3736585,-2.4873924
127,1778588244.6242223,-0.46639338,-0.3355787,-0.023429496,-0.7824367,3.0578415,-0.968858
128,1778588244.6450515,-0.55962324,-0.27651685,-0.065407336,-1.103614,0.8857674,0.24341293
129,1778588244.665939,-0.55962324,-0.27651685,-0.065407336,-1.103614,0.8857674,0.24341293
130,1778588244.6864128,-0.55962324,-0.27651685,-0.065407336,-1.103614,0.8857674,0.24341293
131,1778588244.7073317,-0.55962324,-0.27651685,-0.065407336,-1.103614,0.8857674,0.24341293
132,1778588244.7283485,-0.22624107,0.06687169,-0.8000197,-0.5800365,-1.2974921,4.1832933
133,1778588244.74924,0.5515694,0.7226535,0.73558855,0.20612867,-0.18056233,3.4083135
134,1778588244.7699275,1.9322013,0.7170402,3.883195,-0.6040049,6.107161,1.4764565
135,1778588244.7910876,1.9322013,0.7170402,3.883195,-0.6040049,6.107161,1.4764565
136,1778588244.8116093,1.9322013,0.7170402,3.883195,-0.6040049,6.107161,1.4764565
137,1778588244.832579,-0.64431113,-1.0545714,-0.71264714,-1.8801918,0.14221281,-0.66206187
138,1778588244.8532462,-0.69287854,-1.3157127,-0.82003236,-1.8801918,0.14221281,-0.66206187
139,1778588244.8741565,-0.43173727,-1.8716751,-1.6398207,-1.839179,-2.218413,0.94542223
140,1778588244.8949401,-0.43173727,-1.8716751,-1.6398207,-1.839179,-2.218413,0.94542223
141,1778588244.9158773,-0.43173727,-1.8716751,-1.6398207,-1.839179,-2.218413,0.94542223
142,1778588244.9366424,2.0347052,-3.8829505,1.2424954,-4.8655953,-3.2724924,2.58806
143,1778588244.9575245,2.0347052,-3.8829505,1.2424954,-4.8655953,-3.2724924,2.58806
144,1778588244.9780834,3.0199645,-1.5766098,-0.065163285,-2.3622239,0.2977414,2.2253375
145,1778588244.9990952,3.0199645,-1.5766098,-0.065163285,-2.3622239,0.2977414,2.2253375
146,1778588245.020295,0.59794027,-0.46200037,0.022941383,-0.5091964,0.10173275,1.4679344
147,1778588245.0410717,-0.017084008,-0.50885934,0.06687169,-1.7848506,0.5752428,1.5243934
148,1778588245.061684,0.24283697,-0.46370876,1.3120518,-1.7166736,0.96140116,1.8253306
149,1778588245.0825994,0.58110034,-0.28871974,1.5051011,-1.7166736,0.96140116,1.8253306
150,1778588245.1033063,0.58110034,-0.28871974,1.5051011,-1.7166736,0.96140116,1.8253306
151,1778588245.1243074,0.6718896,-0.30897647,-0.082491346,2.2913837,-0.65034395,-0.892159
152,1778588245.1446905,0.30385128,0.3184947,0.7072779,1.2250541,-0.8069378,-1.438107
153,1778588245.165871,0.30385128,0.3184947,0.7072779,1.2250541,-0.8069378,-1.438107
154,1778588245.186104,0.30385128,0.3184947,0.7072779,1.2250541,-0.8069378,-1.438107
155,1778588245.2073429,0.30385128,0.3184947,0.7072779,1.2250541,-0.8069378,-1.438107
156,1778588245.2280054,1.3723339,-2.088642,0.56694496,3.9004657,4.7159257,-3.9776974
157,1778588245.2496123,3.2606049,-6.776982,2.3588133,2.6993802,5.2075453,-5.8994346
158,1778588245.2696939,1.1651293,-6.4950953,2.190414,4.3686495,-1.4034859,-5.243232
159,1778588245.291731,1.1651293,-6.4950953,2.190414,4.3686495,-1.4034859,-5.243232
160,1778588245.3114123,1.1651293,-6.4950953,2.190414,4.3686495,-1.4034859,-5.243232
161,1778588245.3325794,0.6782351,0.19768637,-0.6667644,0.92944324,4.28982,-1.0327739
162,1778588245.3529255,-0.23112221,-0.05588911,-0.0078098318,-1.1488878,3.2671661,-0.1304949
163,1778588245.3737316,-0.23112221,-0.05588911,-0.0078098318,-1.1488878,3.2671661,-0.1304949
164,1778588245.3947988,-0.23112221,-0.05588911,-0.0078098318,-1.1488878,3.2671661,-0.1304949
165,1778588245.4153183,-0.23112221,-0.05588911,-0.0078098318,-1.1488878,3.2671661,-0.1304949
166,1778588245.4360654,-1.1377949,0.50544256,-1.6305465,-0.6791061,-2.67914,4.1992726
167,1778588245.4569783,-0.9076489,0.3380193,-1.2544543,-0.6791061,-2.67914,4.1992726
168,1778588245.4778597,0.24234885,0.49250755,0.30409533,0.43249738,-0.5949502,3.603257
169,1778588245.498827,0.24234885,0.49250755,0.30409533,0.43249738,-0.5949502,3.603257
170,1778588245.5194347,0.24234885,0.49250755,0.30409533,0.43249738,-0.5949502,3.603257
171,1778588245.5404184,-0.4639528,-0.8305268,-2.899156,2.9955237,-7.6347504,-0.9720538
172,1778588245.5610836,-0.47639978,-0.99404514,-2.4288578,0.94755274,-7.933557,-1.2548815
173,1778588245.581872,-0.6648119,-1.4243181,-0.8642067,-2.992328,-0.7771104,-1.005077
174,1778588245.6024954,-0.6648119,-1.4243181,-0.8642067,-2.992328,-0.7771104,-1.005077
175,1778588245.6235745,-0.6648119,-1.4243181,-0.8642067,-2.992328,-0.7771104,-1.005077
176,1778588245.6443975,0.21965154,-3.8212042,1.2844733,-3.3726273,-1.5126755,3.397661
177,1778588245.6649892,1.3352373,-3.7047892,0.31385764,-2.417085,1.2144015,4.247742
178,1778588245.685793,2.9491878,-2.4740083,-0.3773125,-3.1792817,-0.8793758,3.184608
179,1778588245.70704,2.9491878,-2.4740083,-0.3773125,-3.1792817,-0.8793758,3.184608
180,1778588245.7276998,2.9491878,-2.4740083,-0.3773125,-3.1792817,-0.8793758,3.184608
181,1778588245.748921,0.7573096,-0.28749946,0.03636453,-0.19867182,-1.7736653,1.2500879
182,1778588245.7689943,0.61844105,-0.68433654,-0.13471961,-1.4567492,1.468467,2.3196135
183,1778588245.790181,-0.2608972,-0.63357264,1.1155857,-2.9166942,1.4333134,1.7821875
184,1778588245.8109245,-0.2608972,-0.63357264,1.1155857,-2.9166942,1.4333134,1.7821875
185,1778588245.8318274,-0.2608972,-0.63357264,1.1155857,-2.9166942,1.4333134,1.7821875
186,1778588245.8523645,0.72704655,-0.2716357,0.007565775,2.6210833,0.5502091,-0.9864349
187,1778588245.8734896,0.29994637,0.017328065,0.19402552,2.065015,0.0958738,-1.9089539
188,1778588245.8942525,0.29994637,0.017328065,0.19402552,2.065015,0.0958738,-1.9089539
189,1778588245.9151292,0.29994637,0.017328065,0.19402552,2.065015,0.0958738,-1.9089539
190,1778588245.935985,0.29994637,0.017328065,0.19402552,2.065015,0.0958738,-1.9089539
191,1778588245.9567094,2.301216,-3.3604243,1.0565238,3.235208,8.753811,-4.294614
192,1778588245.9775178,2.3080494,-6.4355454,2.9059896,3.235208,8.753811,-4.294614
193,1778588245.9984417,0.73778504,-5.9689083,2.2392251,3.0754185,1.9947077,-6.8352695
194,1778588246.0193317,0.73778504,-5.9689083,2.2392251,3.0754185,1.9947077,-6.8352695
195,1778588246.0401115,0.73778504,-5.9689083,2.2392251,3.0754185,1.9947077,-6.8352695
196,1778588246.0603924,0.596964,0.025137896,-0.5547421,0.0058589545,3.6826193,-1.5142734
197,1778588246.0820582,-0.39830142,-0.003172744,0.012935034,-1.1696603,3.85679,-0.83996105
198,1778588246.10244,-0.39830142,-0.003172744,0.012935034,-1.1696603,3.85679,-0.83996105
199,1778588246.1231365,-0.39830142,-0.003172744,0.012935034,-1.1696603,3.85679,-0.83996105
200,1778588246.1439993,-0.39830142,-0.003172744,0.012935034,-1.1696603,3.85679,-0.83996105
201,1778588246.1654656,-0.9959976,0.4463807,-1.705228,-1.2287825,-3.187804,4.196077
202,1778588246.185663,-0.4544346,0.0012202862,-1.0555476,-0.62531024,-2.9220204,3.9366848
203,1778588246.2062516,-0.25406358,0.026358182,-0.6621273,-0.06498113,-1.7470337,3.4296188
204,1778588246.2269478,-0.25406358,0.026358182,-0.6621273,-0.06498113,-1.7470337,3.4296188
205,1778588246.2489946,0.32972133,-0.7170402,0.5981843,2.666357,1.4833808,0.14221281
206,1778588246.268842,-0.3414361,-0.5935472,-1.8262804,1.8828549,-9.228919,-0.64395237
207,1778588246.290063,-0.2421048,-0.9061846,-1.8453168,-0.32437304,-6.041115,-1.0689929
208,1778588246.3107486,-0.2421048,-0.9061846,-1.8453168,-0.32437304,-6.041115,-1.0689929
209,1778588246.332082,-0.2421048,-0.9061846,-1.8453168,-0.32437304,-6.041115,-1.0689929
210,1778588246.3522375,0.11495096,-2.2709527,-0.579636,-3.0610373,-3.3859432,2.915629
211,1778588246.3734884,0.26187342,-4.179724,1.2346857,-3.0610373,-3.3859432,2.915629
212,1778588246.3939095,1.1722069,-4.440377,0.51618105,-2.984871,-2.7883296,3.759851
213,1778588246.4151077,1.1722069,-4.440377,0.51618105,-2.984871,-2.7883296,3.759851
214,1778588246.4359639,1.1722069,-4.440377,0.51618105,-2.984871,-2.7883296,3.759851
215,1778588246.45657,2.625568,-0.42685616,1.4038173,-1.7923075,-4.524178,0.29614353
216,1778588246.4775035,0.79489446,0.1432616,0.8190561,-0.37444046,-3.0365362,1.3086774
217,1778588246.49814,0.21672285,-0.44027928,0.24234885,-1.9504992,1.2495552,2.5832663
218,1778588246.5190518,0.21672285,-0.44027928,0.24234885,-1.9504992,1.2495552,2.5832663
219,1778588246.540229,0.21672285,-0.44027928,0.24234885,-1.9504992,1.2495552,2.5832663
220,1778588246.5606694,1.1004542,-0.31654227,0.3231318,2.150769,0.4415521,-0.7419567
221,1778588246.581782,0.52960426,-0.14643435,-0.122760795,2.150769,0.4415521,-0.7419567
222,1778588246.6023765,0.4339338,-0.013911263,-0.09054524,1.6293219,-0.103863284,-1.6026903
223,1778588246.623122,0.4339338,-0.013911263,-0.09054524,1.6293219,-0.103863284,-1.6026903
224,1778588246.6436875,0.4339338,-0.013911263,-0.09054524,1.6293219,-0.103863284,-1.6026903
225,1778588246.664595,0.52203846,-0.647972,-0.417826,3.7795582,3.4163032,-2.8165593
226,1778588246.6850524,0.68604493,-1.4628792,-0.14179726,4.301538,6.177469,-3.4392064
227,1778588246.7064478,3.3250358,-7.30561,4.0989413,1.4450313,7.6485987,-5.823268
228,1778588246.726994,3.3250358,-7.30561,4.0989413,1.4450313,7.6485987,-5.823268
229,1778588246.747982,3.3250358,-7.30561,4.0989413,1.4450313,7.6485987,-5.823268
230,1778588246.7687247,0.3275248,-0.4639528,-0.528628,2.954511,2.9406626,-2.0698087
231,1778588246.78981,0.86225426,0.13545178,-0.85566473,1.0141318,4.223241,-1.0615361
232,1778588246.8102498,-0.07541369,0.08395569,-0.1444819,-0.8586032,6.000102,-0.9752496
233,1778588246.8317237,-0.07541369,0.08395569,-0.1444819,-0.8586032,6.000102,-0.9752496
234,1778588246.8524492,-0.07541369,0.08395569,-0.1444819,-0.8586032,6.000102,-0.9752496
235,1778588246.872634,-1.3911263,0.31361356,-0.6360132,-1.3885722,-3.6511939,4.10766
236,1778588246.8934603,-1.274711,0.38268176,-1.2002735,-1.3885722,-3.6511939,4.10766
237,1778588246.914528,-0.72753465,0.15082738,-1.4235859,-1.2026836,-3.6330845,3.7348173
238,1778588246.9354641,-0.72753465,0.15082738,-1.4235859,-1.2026836,-3.6330845,3.7348173
239,1778588246.95603,-0.72753465,0.15082738,-1.4235859,-1.2026836,-3.6330845,3.7348173
240,1778588246.976689,-0.06418706,-0.5400987,-0.15058333,2.625877,-8.27817,-1.4157364
241,1778588246.9981105,-0.3482697,-0.47273886,-2.2558212,0.69774824,-7.4605794,-1.5456988
242,1778588247.0184867,-0.49348375,-0.7656076,-1.3496367,0.69774824,-7.4605794,-1.5456988
243,1778588247.0395157,-0.49348375,-0.7656076,-1.3496367,0.69774824,-7.4605794,-1.5456988
244,1778588247.0601265,-0.49348375,-0.7656076,-1.3496367,0.69774824,-7.4605794,-1.5456988
245,1778588247.0811684,-0.2945771,-2.1774788,-1.0038075,-3.1116376,-3.0306773,2.8788772
246,1778588247.1018887,0.2328306,-3.6003325,-0.622346,-3.1116376,-3.0306773,2.8788772
247,1778588247.1228626,0.5972081,-4.253674,0.56743306,-4.3670516,-3.0131006,3.8333542
248,1778588247.143555,0.5972081,-4.253674,0.56743306,-4.3670516,-3.0131006,3.8333542
249,1778588247.16577,0.5972081,-4.253674,0.56743306,-4.3670516,-3.0131006,3.8333542
250,1778588247.1851065,1.6317668,-0.29213652,1.3420708,-1.526524,-4.6248455,-0.94116116
251,1778588247.2065687,0.9130182,0.0319715,1.036023,-0.53742594,-1.4732608,-0.22903186
252,1778588247.2263374,0.9130182,0.0319715,1.036023,-0.53742594,-1.4732608,-0.22903186
253,1778588247.247811,0.9130182,0.0319715,1.036023,-0.53742594,-1.4732608,-0.22903186
254,1778588247.2680686,0.9130182,0.0319715,1.036023,-0.53742594,-1.4732608,-0.22903186
255,1778588247.289141,1.4291992,-0.28969595,0.7807391,1.194694,0.74461985,0.3850931
256,1778588247.3099554,0.827354,-0.3829258,0.06662763,2.2386532,-0.76113147,-0.7755125
257,1778588247.3307042,0.827354,-0.3829258,0.06662763,2.2386532,-0.76113147,-0.7755125
258,1778588247.3514802,0.827354,-0.3829258,0.06662763,2.2386532,-0.76113147,-0.7755125
259,1778588247.3723674,0.827354,-0.3829258,0.06662763,2.2386532,-0.76113147,-0.7755125
260,1778588247.3930511,0.47835222,-0.38805103,-0.37536004,1.8998991,4.603008,-2.6178875
261,1778588247.4143498,1.6605655,-3.4097238,1.6749649,3.862649,8.987637,-4.055462
262,1778588247.4352808,2.890126,-4.9001813,2.767121,3.862649,8.987637,-4.055462
263,1778588247.4556422,2.890126,-4.9001813,2.767121,3.862649,8.987637,-4.055462
264,1778588247.4765875,2.890126,-4.9001813,2.767121,3.862649,8.987637,-4.055462
265,1778588247.4971018,0.48567393,-1.5695322,-0.8932495,3.7673078,1.8956381,-3.410977
266,1778588247.5178072,0.7721971,-0.12349297,-0.92131615,0.5187838,4.1135187,-1.5952336
267,1778588247.5391052,0.5976962,-0.022697324,-0.79709095,0.5187838,4.1135187,-1.5952336
268,1778588247.5595415,0.5976962,-0.022697324,-0.79709095,0.5187838,4.1135187,-1.5952336
269,1778588247.5811238,-1.0926442,0.058573738,0.099819414,-1.4040185,-2.251969,1.6426378
270,1778588247.6013336,-1.4636112,0.0026846298,-0.5786598,-1.478587,-3.5968654,3.3289514
271,1778588247.6224403,-1.3171769,0.26797485,-1.4174845,-1.4615428,-4.457599,4.0858216
272,1778588247.643096,-1.151218,0.2853029,-1.4099188,-1.4615428,-4.457599,4.0858216
273,1778588247.66388,-1.151218,0.2853029,-1.4099188,-1.4615428,-4.457599,4.0858216
274,1778588247.6845858,2.911603,-0.579636,7.987262,0.37550572,9.707755,1.6852484
275,1778588247.705772,0.78684056,-1.0504224,2.4281254,3.0019152,-3.2149682,-0.46392268
276,1778588247.7261791,-0.32166746,-0.4829893,-2.2816913,1.9238676,-11.052651,-1.063134
277,1778588247.7473278,-0.32166746,-0.4829893,-2.2816913,1.9238676,-11.052651,-1.063134
278,1778588247.767802,-0.32166746,-0.4829893,-2.2816913,1.9238676,-11.052651,-1.063134
279,1778588247.7884793,-0.7106947,-1.9197543,-1.1251038,-3.1451933,-0.70627034,0.91985583
280,1778588247.809286,-0.24991462,-2.5052476,-1.0806855,-2.9933932,-2.4762073,2.604039
281,1778588247.8304586,-0.03929322,-2.6665695,-0.8600578,-2.9933932,-2.4762073,2.604039
282,1778588247.851194,-0.03929322,-2.6665695,-0.8600578,-2.9933932,-2.4762073,2.604039
283,1778588247.8721073,-0.03929322,-2.6665695,-0.8600578,-2.9933932,-2.4762073,2.604039
284,1778588247.8927748,3.508079,-2.8393621,-0.409284,-3.9750342,-1.9446403,2.010154
285,1778588247.9135618,2.7222145,-0.47444725,2.0139604,-0.1603223,-4.615258,-0.41705105
286,1778588247.934307,0.30019042,-0.46785772,-0.12178457,-0.22849922,1.2271847,2.1917815
287,1778588247.9553971,0.30019042,-0.46785772,-0.12178457,-0.22849922,1.2271847,2.1917815
288,1778588247.9758296,0.30019042,-0.46785772,-0.12178457,-0.22849922,1.2271847,2.1917815
289,1778588247.9970188,1.219066,-0.3443648,1.2783719,2.3861923,0.4394216,-0.06924219
290,1778588248.0175834,0.90130347,-0.5293602,-0.022697324,2.8085697,0.40533313,-1.2713932
291,1778588248.0384734,0.733148,-0.4556549,-0.10396838,2.8085697,0.40533313,-1.2713932
292,1778588248.059598,0.733148,-0.4556549,-0.10396838,2.8085697,0.40533313,-1.2713932
293,1778588248.0806355,0.733148,-0.4556549,-0.10396838,2.8085697,0.40533313,-1.2713932
294,1778588248.101179,0.027090356,0.010006348,-0.23844394,2.6141589,3.7811563,-2.294047
295,1778588248.122342,0.30409533,-0.27334413,-0.1564407,2.6141589,3.7811563,-2.294047
296,1778588248.1428926,0.835408,-1.3579346,-0.7324158,4.0543966,4.615791,-3.6085835
297,1778588248.1641386,0.835408,-1.3579346,-0.7324158,4.0543966,4.615791,-3.6085835
298,1778588248.1840641,0.835408,-1.3579346,-0.7324158,4.0543966,4.615791,-3.6085835
299,1778588248.205155,0.56767714,-1.5958903,-0.9003272,4.328702,-0.1917476,-2.7537086
300,1778588248.225843,1.1297411,-0.3943965,-1.1058234,2.8591697,2.7542412,-1.5739282
301,1778588248.246843,0.9191196,-0.1564407,-0.882511,0.41545314,5.5351143,-1.6708673
302,1778588248.2670739,0.9191196,-0.1564407,-0.882511,0.41545314,5.5351143,-1.6708673
303,1778588248.288391,0.9191196,-0.1564407,-0.882511,0.41545314,5.5351143,-1.6708673
304,1778588248.3092175,-1.0096649,0.05662128,0.10128376,-1.7369137,-1.8397117,1.6799221
305,1778588248.3298025,-1.4267586,0.2626056,-0.13203497,-1.5483619,-2.4975126,2.6498454
306,1778588248.3512177,-1.4267586,0.2626056,-0.13203497,-1.5483619,-2.4975126,2.6498454
307,1778588248.372119,-1.4267586,0.2626056,-0.13203497,-1.5483619,-2.4975126,2.6498454
308,1778588248.3924243,-1.4267586,0.2626056,-0.13203497,-1.5483619,-2.4975126,2.6498454
309,1778588248.4133477,0.8332114,0.43881494,1.2944796,-0.65247446,1.7534252,1.6080167
310,1778588248.4344015,-0.16010156,-0.23722363,-1.1192465,0.9528791,-8.72931,-0.6668556
311,1778588248.4553804,-0.19207305,-0.34778157,-1.5927176,0.9528791,-8.72931,-0.6668556
312,1778588248.4757698,-0.19207305,-0.34778157,-1.5927176,0.9528791,-8.72931,-0.6668556
313,1778588248.4970462,-0.19207305,-0.34778157,-1.5927176,0.9528791,-8.72931,-0.6668556
314,1778588248.5174806,-0.4983649,-2.3300145,-1.1326697,-2.412824,-2.0879183,2.0474384
315,1778588248.538912,0.23575929,-3.0409532,-0.032459613,-2.412824,-2.0879183,2.0474384
316,1778588248.5591488,0.23575929,-3.0409532,-0.032459613,-2.412824,-2.0879183,2.0474384
317,1778588248.5799038,0.23575929,-3.0409532,-0.032459613,-2.412824,-2.0879183,2.0474384
318,1778588248.601188,0.23575929,-3.0409532,-0.032459613,-2.412824,-2.0879183,2.0474384
319,1778588248.622266,2.259238,-0.46541715,2.2882807,-3.8429415,-4.9508166,-0.040480047
320,1778588248.641881,2.259238,-0.46541715,2.2882807,-3.8429415,-4.9508166,-0.040480047
321,1778588248.663318,2.259238,-0.46541715,2.2882807,-3.8429415,-4.9508166,-0.040480047
322,1778588248.6838133,2.259238,-0.46541715,2.2882807,-3.8429415,-4.9508166,-0.040480047
323,1778588248.704518,2.259238,-0.46541715,2.2882807,-3.8429415,-4.9508166,-0.040480047
324,1778588248.7253795,1.1395032,-0.43637437,1.0431006,1.7283915,0.45699844,0.47297743
325,1778588248.746779,0.8473667,-0.44101146,0.051740136,2.6269422,-1.194694,-0.6466155
326,1778588248.7670915,0.6460195,-0.35925224,-0.07516963,2.7425234,-1.5606124,-1.4050838
327,1778588248.7883022,0.6460195,-0.35925224,-0.07516963,2.7425234,-1.5606124,-1.4050838
328,1778588248.8087516,0.13081467,0.31825066,0.15400012,1.6458336,1.3427658,-2.0165455
329,1778588248.829945,0.08639627,0.22282428,-0.3909797,1.8663434,3.7289581,-1.8338528
330,1778588248.8508487,0.33020946,0.108117364,-0.2169669,2.680738,4.9247174,-1.9446403
331,1778588248.8717103,0.5954997,-0.3014107,-0.25821257,2.680738,4.9247174,-1.9446403
332,1778588248.8923495,0.5954997,-0.3014107,-0.25821257,2.680738,4.9247174,-1.9446403
333,1778588248.912944,0.5954997,-0.3014107,-0.25821257,2.680738,4.9247174,-1.9446403
334,1778588248.9334505,1.2795922,-3.490995,-0.44906533,4.609932,-3.0067089,-4.882107
335,1778588248.9547055,0.25357547,-0.97427654,-0.7856203,3.3768883,0.5550028,-3.2591765
336,1778588248.9752984,0.25357547,-0.97427654,-0.7856203,3.3768883,0.5550028,-3.2591765
337,1778588248.9964612,0.25357547,-0.97427654,-0.7856203,3.3768883,0.5550028,-3.2591765
338,1778588249.0170224,-0.36291313,-0.090789296,-0.10518867,-1.2873721,4.5151234,-0.628506
339,1778588249.0382073,-0.9344952,0.13374338,-0.013179091,-2.0474384,-1.9457055,1.6932379
340,1778588249.0590029,-1.2476206,0.20598431,0.19744232,-2.0474384,-1.9457055,1.6932379
341,1778588249.0799563,-1.2476206,0.20598431,0.19744232,-2.0474384,-1.9457055,1.6932379
342,1778588249.1005423,-1.2476206,0.20598431,0.19744232,-2.0474384,-1.9457055,1.6932379
343,1778588249.1215498,-1.713282,0.3385074,-0.14204131,-1.4562165,-3.1521175,3.4045851
344,1778588249.1428285,1.4702009,-1.4309076,6.9954123,-2.499643,11.545336,0.8452873
345,1778588249.1633103,0.03465613,-0.6487042,0.22868164,3.2719598,-4.598747,-0.96299905
346,1778588249.184046,0.03465613,-0.6487042,0.22868164,3.2719598,-4.598747,-0.96299905
347,1778588249.2047164,0.03465613,-0.6487042,0.22868164,3.2719598,-4.598747,-0.96299905
348,1778588249.225353,-0.5530337,-1.0079564,-0.8937377,-3.7832868,0.37816888,-0.47723848
349,1778588249.2465208,-0.5710939,-1.6869236,-1.0897156,-3.3017871,0.02130529,0.80800307
350,1778588249.2668867,-0.15107143,-2.6075077,-0.72704655,-3.3380063,-1.8130801,2.4442494
351,1778588249.287727,-0.15107143,-2.6075077,-0.72704655,-3.3380063,-1.8130801,2.4442494
352,1778588249.308494,-0.15107143,-2.6075077,-0.72704655,-3.3380063,-1.8130801,2.4442494
353,1778588249.3296046,2.740763,-3.1737204,-0.38902727,-2.9438584,1.0594054,4.010188
354,1778588249.3511238,3.0846395,-2.6829214,-0.07248501,-2.9438584,1.0594054,4.010188
355,1778588249.3712995,2.614097,-0.5193538,1.3496367,-2.599778,-5.278385,-0.3616573
356,1778588249.391973,2.614097,-0.5193538,1.3496367,-2.599778,-5.278385,-0.3616573
357,1778588249.4129667,2.614097,-0.5193538,1.3496367,-2.599778,-5.278385,-0.3616573
358,1778588249.4335032,0.2767609,-0.37609223,1.4599504,-0.7078682,1.3310479,1.3853765
359,1778588249.454787,0.6828722,-0.358032,1.3079028,-0.7078682,1.3310479,1.3853765
360,1778588249.474876,1.0823939,-0.43198135,0.1381364,1.743838,0.8655274,0.012250541
361,1778588249.4963107,1.0823939,-0.43198135,0.1381364,1.743838,0.8655274,0.012250541
362,1778588249.5166879,1.0823939,-0.43198135,0.1381364,1.743838,0.8655274,0.012250541
363,1778588249.5374842,-0.19988288,0.022697324,0.046614934,1.6852484,0.9321064,-2.5976474
364,1778588249.5584433,-0.033923957,-0.026846299,-0.37584817,2.713761,3.4812841,-2.1140172
365,1778588249.5793746,0.32801294,-0.31190515,-0.13374338,2.713761,3.4812841,-2.1140172
366,1778588249.5999835,0.32801294,-0.31190515,-0.13374338,2.713761,3.4812841,-2.1140172
367,1778588249.620963,0.32801294,-0.31190515,-0.13374338,2.713761,3.4812841,-2.1140172
368,1778588249.6413698,1.4025971,-6.421634,1.6900965,2.1353226,5.2666674,-5.680523
369,1778588249.6627362,0.524479,-1.1443844,-0.76511943,5.9052935,-5.047223,-4.2077947
370,1778588249.6834943,0.47859627,-0.61502427,-0.6740861,2.5784726,3.558516,-2.1236048
371,1778588249.704379,0.47859627,-0.61502427,-0.6740861,2.5784726,3.558516,-2.1236048
372,1778588249.724868,0.47859627,-0.61502427,-0.6740861,2.5784726,3.558516,-2.1236048
373,1778588249.7461479,-0.76804817,0.2550398,0.07443746,-1.2010857,1.7933728,0.3850931
374,1778588249.7665327,-1.1268123,0.27554062,0.09152147,-1.4450313,-2.1997712,1.6666062
375,1778588249.7877774,-1.3899059,0.27383223,-0.08078295,-1.4450313,-2.1997712,1.6666062
376,1778588249.8084235,-1.3899059,0.27383223,-0.08078295,-1.4450313,-2.1997712,1.6666062
377,1778588249.8291988,-1.3899059,0.27383223,-0.08078295,-1.4450313,-2.1997712,1.6666062
378,1778588249.8497214,-1.3899059,0.27383223,-0.08078295,-1.4450313,-2.1997712,1.6666062
379,1778588249.8706663,-1.3899059,0.27383223,-0.08078295,-1.4450313,-2.1997712,1.6666062
380,1778588249.8918343,-1.3899059,0.27383223,-0.08078295,-1.4450313,-2.1997712,1.6666062
381,1778588249.9125893,-1.3899059,0.27383223,-0.08078295,-1.4450313,-2.1997712,1.6666062
382,1778588249.9330688,-1.3899059,0.27383223,-0.08078295,-1.4450313,-2.1997712,1.6666062
383,1778588249.9545074,-0.73436826,-1.3957634,-1.0880072,-2.9656963,-1.2010857,-0.8426242
384,1778588249.9745626,-0.7268025,-1.5212089,-1.1634209,-3.6011264,-1.5100124,0.21891184
385,1778588249.9958327,-0.64211464,-1.5675796,-1.1280326,-3.6011264,-1.5100124,0.21891184
386,1778588250.0166905,-0.64211464,-1.5675796,-1.1280326,-3.6011264,-1.5100124,0.21891184
387,1778588250.0392218,1.7105973,-4.1299367,-0.30580372,-3.9702406,-0.45486793,4.0251017
388,1778588250.0581195,3.1183195,-3.552009,-0.73632073,-2.8005803,0.11824436,3.6820867
389,1778588250.0789385,3.3216193,-2.3778498,0.09152147,-3.953729,-1.3283848,1.6074841
390,1778588250.0995114,3.3216193,-2.3778498,0.09152147,-3.953729,-1.3283848,1.6074841
391,1778588250.1206043,3.3216193,-2.3778498,0.09152147,-3.953729,-1.3283848,1.6074841
392,1778588250.1417856,0.13105874,-0.7004443,-0.2523552,-0.11504856,0.64341974,1.3464943
393,1778588250.162844,0.42270714,-0.6967834,1.6212723,-1.6948358,1.1201255,2.3659523
394,1778588250.1833787,0.42270714,-0.6967834,1.6212723,-1.6948358,1.1201255,2.3659523
395,1778588250.2038314,0.42270714,-0.6967834,1.6212723,-1.6948358,1.1201255,2.3659523
396,1778588250.2251666,0.42270714,-0.6967834,1.6212723,-1.6948358,1.1201255,2.3659523
397,1778588250.2457743,0.29652956,0.12544543,0.25650415,1.6399746,-0.31158987,-1.7528926
398,1778588250.2664738,0.038316987,0.11617125,-0.4053791,2.0964406,1.9483687,-2.0240026
399,1778588250.2874959,0.02318544,0.122272685,-0.45199403,2.0964406,1.9483687,-2.0240026
400,1778588250.307863,0.19817449,0.027822526,-0.38853914,2.2972429,3.9425437,-2.0048277
401,1778588250.329015,0.19817449,0.027822526,-0.38853914,2.2972429,3.9425437,-2.0048277
402,1778588250.3495631,1.3274274,-2.2833996,1.6691074,4.1571946,5.290636,-2.928412
403,1778588250.3706799,2.2301953,-6.2300496,2.1801634,3.632552,4.4496098,-4.153999
404,1778588250.391439,1.6263975,-6.4579988,1.7757605,3.2969935,-0.7052051,-6.018744
405,1778588250.4121826,1.6263975,-6.4579988,1.7757605,3.2969935,-0.7052051,-6.018744
406,1778588250.4331787,1.6263975,-6.4579988,1.7757605,3.2969935,-0.7052051,-6.018744
407,1778588250.4537666,-0.10665302,0.038316987,-0.057841565,-0.38242993,5.1564126,-1.1249193
408,1778588250.4745712,-0.42929673,0.10006347,-0.00073217176,-1.0301107,3.5840824,-0.5411543
409,1778588250.495407,-1.0089327,0.24991462,0.14374973,-1.3092101,-0.7099988,0.5640575
410,1778588250.5162084,-1.0089327,0.24991462,0.14374973,-1.3092101,-0.7099988,0.5640575
411,1778588250.5370696,-1.0089327,0.24991462,0.14374973,-1.3092101,-0.7099988,0.5640575
412,1778588250.5582044,-0.6125837,0.119343996,-0.9969738,-0.5613944,-1.9222697,2.9630332
413,1778588250.578773,-0.5122762,0.19671014,-0.601113,-0.5613944,-1.9222697,2.9630332
414,1778588250.599212,3.432665,-1.7306099,7.987262,-0.05539375,2.7164245,2.396845
415,1778588250.6203816,3.432665,-1.7306099,7.987262,-0.05539375,2.7164245,2.396845
416,1778588250.6409168,3.432665,-1.7306099,7.987262,-0.05539375,2.7164245,2.396845
417,1778588250.6622152,-0.5469323,-0.737541,-0.9947773,0.62317973,-7.4866786,-1.0562097
418,1778588250.6827288,-0.72338563,-1.1360865,-0.9669548,-1.8290591,-2.3579628,-1.0173275
419,1778588250.703865,-0.82711005,-1.6981503,-1.4360328,-2.176868,-2.1571605,-0.13422333
420,1778588250.7245545,-0.82711005,-1.6981503,-1.4360328,-2.176868,-2.1571605,-0.13422333
421,1778588250.7456408,-0.82711005,-1.6981503,-1.4360328,-2.176868,-2.1571605,-0.13422333
422,1778588250.7657433,1.4199251,-3.7504277,0.10421244,-3.0663638,1.2362394,5.0482883
423,1778588250.7866194,2.7170894,-2.9923859,-0.8092938,-3.290602,0.036218993,3.8067226
424,1778588250.807386,2.7170894,-2.9923859,-0.8092938,-3.290602,0.036218993,3.8067226
425,1778588250.8287044,2.7170894,-2.9923859,-0.8092938,-3.290602,0.036218993,3.8067226
426,1778588250.84944,2.7170894,-2.9923859,-0.8092938,-3.290602,0.036218993,3.8067226
427,1778588250.8699348,-0.01854835,-0.70264083,-0.09689073,-0.5704491,1.4370418,2.021872
428,1778588250.8907292,0.048567392,-0.4322254,1.5265781,-2.15503,1.0205233,2.0948424
429,1778588250.911564,1.3437792,-0.36340126,0.89813066,-2.15503,1.0205233,2.0948424
430,1778588250.9324343,1.3437792,-0.36340126,0.89813066,-2.15503,1.0205233,2.0948424
431,1778588250.9537818,1.3437792,-0.36340126,0.89813066,-2.15503,1.0205233,2.0948424
432,1778588250.9742978,0.20964517,-0.14472595,-0.21330604,2.2109563,-0.4990764,-2.1315942
433,1778588250.9952347,-0.24845028,0.11690342,-0.2255089,1.695901,0.55287224,-2.4319987
434,1778588251.0160592,-0.24845028,0.11690342,-0.2255089,1.695901,0.55287224,-2.4319987
435,1778588251.0376554,-0.24845028,0.11690342,-0.2255089,1.695901,0.55287224,-2.4319987
436,1778588251.0576828,-0.24845028,0.11690342,-0.2255089,1.695901,0.55287224,-2.4319987
437,1778588251.0780897,4.142872,-5.7060585,3.3906875,3.9207058,8.947156,-2.8900626
438,1778588251.0989597,1.360131,-6.826281,2.7981162,2.3989756,2.1901836,-5.878662
439,1778588251.1198618,1.3079028,-3.1354034,-1.0897156,5.5255265,-4.4980793,-3.6815538
440,1778588251.1404452,1.3079028,-3.1354034,-1.0897156,5.5255265,-4.4980793,-3.6815538
441,1778588251.1616077,1.3079028,-3.1354034,-1.0897156,5.5255265,-4.4980793,-3.6815538
442,1778588251.1822262,0.07614586,-0.114218794,-0.30458343,0.28655612,4.4251084,-1.4972292
443,1778588251.2034054,-0.72070104,0.0061014313,-0.05027579,-1.3704628,0.8905611,0.29241508
444,1778588251.2239344,-0.72070104,0.0061014313,-0.05027579,-1.3704628,0.8905611,0.29241508
445,1778588251.2450914,-0.72070104,0.0061014313,-0.05027579,-1.3704628,0.8905611,0.29241508
446,1778588251.2666128,-1.4345685,0.33899552,-0.082247294,-1.5542208,-2.2397184,3.1808796
447,1778588251.2872844,-0.84517026,0.15595257,-1.8633771,-1.144094,-3.6080508,4.04694
448,1778588251.3084505,0.04759116,0.29433304,0.1581491,-0.27803403,-2.0921793,3.581419
449,1778588251.3290763,0.04759116,0.29433304,0.1581491,-0.27803403,-2.0921793,3.581419
450,1778588251.3495073,0.04759116,0.29433304,0.1581491,-0.27803403,-2.0921793,3.581419
451,1778588251.3703575,-0.1444819,-0.5347294,-1.964905,2.564624,-9.243833,-1.0711234
452,1778588251.3906002,-0.3248402,-0.83833665,-1.765022,-1.4727281,-4.639227,-1.4737934
453,1778588251.4115977,-0.40171823,-0.844194,-0.7963588,-4.023504,-0.113983296,-0.92464954
454,1778588251.4320872,-0.48128092,-1.0072243,-0.8319912,-4.023504,-0.113983296,-0.92464954
455,1778588251.4532914,-0.48128092,-1.0072243,-0.8319912,-4.023504,-0.113983296,-0.92464954
456,1778588251.473823,0.073217176,-2.5689466,-0.81417495,-3.6581182,-3.8530614,3.0003173
457,1778588251.4955919,0.25528386,-4.000098,-0.091033354,-3.165966,-3.9430764,3.4205642
458,1778588251.5157678,3.141749,-3.8595212,0.7321718,-4.6770434,0.3073288,2.0096214
459,1778588251.536869,3.141749,-3.8595212,0.7321718,-4.6770434,0.3073288,2.0096214
460,1778588251.5579252,3.141749,-3.8595212,0.7321718,-4.6770434,0.3073288,2.0096214
461,1778588251.5782354,0.4378387,0.07224095,0.9510911,-0.41598576,-4.428304,-0.7701862
462,1778588251.5988955,-0.20183535,-0.3219115,-0.22843759,-1.3427658,1.1408982,2.3292007
463,1778588251.619673,0.5432714,-0.33142975,1.2754432,-1.4498249,0.75793564,2.283927
464,1778588251.6403942,0.5432714,-0.33142975,1.2754432,-1.4498249,0.75793564,2.283927
465,1778588251.661251,0.5432714,-0.33142975,1.2754432,-1.4498249,0.75793564,2.283927
466,1778588251.6817687,0.45809543,-0.22160399,-0.21501444,2.481001,-0.41438788,-0.43782368
467,1778588251.70289,0.3226437,0.034168016,-0.10689708,1.1664646,-0.5182512,-1.5749935
468,1778588251.723861,0.3226437,0.034168016,-0.10689708,1.1664646,-0.5182512,-1.5749935
469,1778588251.7446725,0.3226437,0.034168016,-0.10689708,1.1664646,-0.5182512,-1.5749935
470,1778588251.7652485,0.3226437,0.034168016,-0.10689708,1.1664646,-0.5182512,-1.5749935
471,1778588251.786111,1.3113196,-2.4830384,1.2837411,4.4176517,4.415521,-2.893791
472,1778588251.8068256,2.2265344,-4.16142,1.615903,3.361442,5.65975,-4.577974
473,1778588251.8280723,1.1436522,-6.34256,1.441158,4.0762343,-1.4029533,-5.7747984
474,1778588251.848776,1.1436522,-6.34256,1.441158,4.0762343,-1.4029533,-5.7747984
475,1778588251.8697019,1.1436522,-6.34256,1.441158,4.0762343,-1.4029533,-5.7747984
476,1778588251.8896725,0.7946504,-0.082735404,-0.97696114,1.6671388,2.91989,-1.6724652
477,1778588251.9109476,0.37096703,0.10006347,-0.60867876,-0.58056915,5.777462,-1.6074841
478,1778588251.9316761,-0.4544346,0.022453265,-0.09322987,-1.0929613,3.7087183,-0.4676511
479,1778588251.9524856,-0.4544346,0.022453265,-0.09322987,-1.0929613,3.7087183,-0.4676511
480,1778588251.973441,-0.4544346,0.022453265,-0.09322987,-1.0929613,3.7087183,-0.4676511
