id,timestamp,acc_x,acc_y,acc_z,gyro_x,gyro_y,gyro_z
1,1778588287.2205913,1.900718,-0.5605995,2.4442334,-3.0637007,-3.792874,0.35153726
2,1778588287.2411442,0.959145,-0.6186851,0.7141115,-0.2561961,-1.6298546,0.7435546
3,1778588287.2624512,0.20549619,-0.90374404,-0.32606047,-1.2415657,0.2609898,1.026915
4,1778588287.2827008,0.20549619,-0.90374404,-0.32606047,-1.2415657,0.2609898,1.026915
5,1778588287.3050518,0.20549619,-0.90374404,-0.32606047,-1.2415657,0.2609898,1.026915
6,1778588287.3234334,1.1853861,-0.34753752,0.26065314,1.6479641,-0.624245,0.39095205
7,1778588287.3461127,0.7660957,-0.27944556,-0.1010397,2.0080235,-1.5201324,-0.39947417
8,1778588287.36604,0.45907167,-0.054912884,0.17987019,1.438107,-0.6743124,-1.0578076
9,1778588287.386948,0.45907167,-0.054912884,0.17987019,1.438107,-0.6743124,-1.0578076
10,1778588287.407522,0.45907167,-0.054912884,0.17987019,1.438107,-0.6743124,-1.0578076
11,1778588287.4283283,0.8358961,-0.25601605,-0.17254847,2.5092304,6.31542,-1.4247912
12,1778588287.448742,1.2908187,-0.8346757,-0.20134723,3.5276232,5.195295,-2.5182853
13,1778588287.4704487,1.2908187,-0.8346757,-0.20134723,3.5276232,5.195295,-2.5182853
14,1778588287.491084,1.2908187,-0.8346757,-0.20134723,3.5276232,5.195295,-2.5182853
15,1778588287.5116055,1.2908187,-0.8346757,-0.20134723,3.5276232,5.195295,-2.5182853
16,1778588287.533118,0.4837215,-0.2186753,-0.72021294,2.1294637,2.4884577,-2.747317
17,1778588287.5533197,0.48640612,0.11177822,-0.63186425,2.1294637,2.4884577,-2.747317
18,1778588287.5741763,0.48640612,0.11177822,-0.63186425,2.1294637,2.4884577,-2.747317
19,1778588287.5951707,0.48640612,0.11177822,-0.63186425,2.1294637,2.4884577,-2.747317
20,1778588287.6146758,0.48640612,0.11177822,-0.63186425,2.1294637,2.4884577,-2.747317
21,1778588287.6367106,-1.5836874,0.21086545,-0.10177187,-1.7012273,-1.2618058,2.7553065
22,1778588287.6569257,-1.0113733,0.2933568,-2.1232982,-1.3523532,-3.0189595,6.044843
23,1778588287.6781979,-0.63357264,0.24991462,-1.888759,-1.3523532,-3.0189595,6.044843
24,1778588287.6991336,-0.63357264,0.24991462,-1.888759,-1.3523532,-3.0189595,6.044843
25,1778588287.7201996,-0.63357264,0.24991462,-1.888759,-1.3523532,-3.0189595,6.044843
26,1778588287.7405853,1.1665937,-1.3615954,6.01894,-0.753142,6.1268687,0.7344999
27,1778588287.7621522,-1.0472497,-0.9967298,-2.5979893,0.104928546,-10.439591,-0.96779275
28,1778588287.7824047,-1.0472497,-0.9967298,-2.5979893,0.104928546,-10.439591,-0.96779275
29,1778588287.803243,-1.0472497,-0.9967298,-2.5979893,0.104928546,-10.439591,-0.96779275
30,1778588287.824054,-1.0472497,-0.9967298,-2.5979893,0.104928546,-10.439591,-0.96779275
31,1778588287.8446603,-0.13496366,-2.570411,-0.34265637,-3.0519826,-4.08955,2.4847293
32,1778588287.86554,-0.13496366,-2.570411,-0.34265637,-3.0519826,-4.08955,2.4847293
33,1778588287.8864315,-0.13496366,-2.570411,-0.34265637,-3.0519826,-4.08955,2.4847293
34,1778588287.9072633,-0.13496366,-2.570411,-0.34265637,-3.0519826,-4.08955,2.4847293
35,1778588287.9281485,1.9456245,-3.9507985,-0.9088692,-1.7678064,3.594735,5.1707935
36,1778588287.9489224,3.6672041,-1.1961246,2.093523,-1.9606192,-5.964948,-1.1851068
37,1778588287.969929,0.4036707,-0.15717287,0.50617474,-0.96619487,-1.6895094,-0.5752428
38,1778588287.990336,0.4036707,-0.15717287,0.50617474,-0.96619487,-1.6895094,-0.5752428
39,1778588288.011605,0.4036707,-0.15717287,0.50617474,-0.96619487,-1.6895094,-0.5752428
40,1778588288.0322123,1.325963,-0.52472305,0.77732235,0.46392268,2.6658244,0.45060685
41,1778588288.0533586,1.1050912,-0.7326599,0.12471326,2.1198764,0.20559604,-0.80747044
42,1778588288.0739374,0.3863426,-0.44564855,-0.15961345,2.4554346,-0.24607609,-2.6780748
43,1778588288.094891,0.3863426,-0.44564855,-0.15961345,2.4554346,-0.24607609,-2.6780748
44,1778588288.115529,0.3863426,-0.44564855,-0.15961345,2.4554346,-0.24607609,-2.6780748
45,1778588288.1367228,0.07614586,-0.053936653,-0.19500175,3.016829,2.2487733,-2.2471755
46,1778588288.1571193,0.13911264,-0.16913168,-0.29897013,3.016829,2.2487733,-2.2471755
47,1778588288.1780758,1.7718556,-3.29941,1.091424,3.417901,10.26329,-3.2389367
48,1778588288.1988041,1.7718556,-3.29941,1.091424,3.417901,10.26329,-3.2389367
49,1778588288.2197502,1.7718556,-3.29941,1.091424,3.417901,10.26329,-3.2389367
50,1778588288.240409,0.2489384,-1.7303659,-1.1546348,3.7273602,2.1145499,-3.9372175
51,1778588288.2615192,0.3397277,-0.10030753,-1.1346222,2.4458473,4.1747713,-1.7385116
52,1778588288.2820742,0.3397277,-0.10030753,-1.1346222,2.4458473,4.1747713,-1.7385116
53,1778588288.3026469,0.3397277,-0.10030753,-1.1346222,2.4458473,4.1747713,-1.7385116
54,1778588288.3236854,0.3397277,-0.10030753,-1.1346222,2.4458473,4.1747713,-1.7385116
55,1778588288.3449247,-1.4985116,0.2403964,-0.24576566,-1.9249328,-0.43089947,2.3510387
56,1778588288.3653917,-1.9788162,0.22404456,-0.8080735,-1.5664713,-1.1547467,3.7838194
57,1778588288.3861444,-0.9757409,0.39146784,-2.1503885,-2.6727486,-3.0945933,3.9585228
58,1778588288.4068036,-0.9757409,0.39146784,-2.1503885,-2.6727486,-3.0945933,3.9585228
59,1778588288.428073,-0.9757409,0.39146784,-2.1503885,-2.6727486,-3.0945933,3.9585228
60,1778588288.4484684,1.0177187,-1.3964956,4.4293947,3.1292143,3.594735,-0.9816412
61,1778588288.4697206,-0.48835856,-0.6074585,-2.9257584,3.6282907,-9.231582,-1.7097495
62,1778588288.4903135,-0.48835856,-0.6074585,-2.9257584,3.6282907,-9.231582,-1.7097495
63,1778588288.5113633,-0.48835856,-0.6074585,-2.9257584,3.6282907,-9.231582,-1.7097495
64,1778588288.5318046,-0.48835856,-0.6074585,-2.9257584,3.6282907,-9.231582,-1.7097495
65,1778588288.5529437,0.15448824,-2.438132,-0.694831,-3.0360036,-3.7838194,2.9566414
66,1778588288.5732985,0.15448824,-2.438132,-0.694831,-3.0360036,-3.7838194,2.9566414
67,1778588288.594322,0.32020313,-3.4192421,-0.37243137,-2.0831246,-2.0916467,3.784352
68,1778588288.6152325,0.32020313,-3.4192421,-0.37243137,-2.0831246,-2.0916467,3.784352
69,1778588288.6358411,0.32020313,-3.4192421,-0.37243137,-2.0831246,-2.0916467,3.784352
70,1778588288.657023,1.6957097,-0.2203837,2.1511204,-0.55553544,-6.2046328,-0.92464954
71,1778588288.6781757,0.36169282,-0.5100796,0.05832968,0.5022722,-1.0684602,0.44687843
72,1778588288.698778,0.011958805,-0.77659017,-0.66822875,0.5022722,-1.0684602,0.44687843
73,1778588288.7195282,0.011958805,-0.77659017,-0.66822875,0.5022722,-1.0684602,0.44687843
74,1778588288.7402158,0.011958805,-0.77659017,-0.66822875,0.5022722,-1.0684602,0.44687843
75,1778588288.7610302,1.0094208,-0.42563587,0.03294773,1.8674086,-1.5819178,-0.8181231
76,1778588288.7815416,0.49982923,-0.22135992,-0.12471326,1.4748586,-1.6511599,-1.73212
77,1778588288.8024573,0.14179726,0.06638357,0.43881494,1.4748586,-1.6511599,-1.73212
78,1778588288.823325,0.14179726,0.06638357,0.43881494,1.4748586,-1.6511599,-1.73212
79,1778588288.844198,0.14179726,0.06638357,0.43881494,1.4748586,-1.6511599,-1.73212
80,1778588288.8655152,0.77244115,-0.46151224,-0.42417148,2.6210833,6.012885,-1.8951055
81,1778588288.8865952,2.0054183,-2.6414316,2.054718,3.452522,5.672533,-2.501241
82,1778588288.9067438,2.8103192,-4.080637,2.8483922,3.6261601,5.139901,-4.747884
83,1778588288.9280794,2.8103192,-4.080637,2.8483922,3.6261601,5.139901,-4.747884
84,1778588288.9480622,2.8103192,-4.080637,2.8483922,3.6261601,5.139901,-4.747884
85,1778588288.9689372,0.29164842,-0.8027043,-0.4378387,3.641074,2.973153,-2.4975126
86,1778588288.9893756,0.77781045,-0.22062775,-0.8175918,2.0122845,2.4277377,-1.2543489
87,1778588289.0105455,0.48713827,0.10884953,-0.47225076,0.1965413,4.379302,-1.3587449
88,1778588289.0316508,0.48713827,0.10884953,-0.47225076,0.1965413,4.379302,-1.3587449
89,1778588289.0539584,-0.8097819,0.33118567,-0.28164205,-1.067395,0.47191215,0.84368944
90,1778588289.072993,-1.6581249,0.45321432,-0.061014313,-1.7465011,-1.347027,2.2540996
91,1778588289.0942016,-1.7752724,0.38902727,-1.2032022,-1.419465,-1.3097427,4.2429485
92,1778588289.1148248,-0.7668279,0.20818083,-2.4459417,-2.4053671,-2.14491,5.3763895
93,1778588289.1356094,-0.7668279,0.20818083,-2.4459417,-2.4053671,-2.14491,5.3763895
94,1778588289.1562462,1.7513548,-1.7296337,7.423001,3.3870084,5.745504,-0.4463458
95,1778588289.177527,-0.30409533,-0.54815257,-1.1900232,3.37316,-7.4216976,-1.4833808
96,1778588289.1982248,-0.5127643,-0.74339837,-2.851565,3.37316,-7.4216976,-1.4833808
97,1778588289.2193263,-0.5127643,-0.74339837,-2.851565,3.37316,-7.4216976,-1.4833808
98,1778588289.2395635,-0.5127643,-0.74339837,-2.851565,3.37316,-7.4216976,-1.4833808
99,1778588289.2606094,-0.6130718,-1.5810028,-1.4931422,-3.222425,-3.307646,1.2133362
100,1778588289.281404,-0.46834585,-1.709377,-0.9386441,-3.7955372,-3.3380063,2.6972497
101,1778588289.30231,-0.46834585,-1.709377,-0.9386441,-3.7955372,-3.3380063,2.6972497
102,1778588289.3227212,-0.46834585,-1.709377,-0.9386441,-3.7955372,-3.3380063,2.6972497
103,1778588289.3435094,-0.46834585,-1.709377,-0.9386441,-3.7955372,-3.3380063,2.6972497
104,1778588289.364742,3.831943,-1.5534244,2.335872,-4.9060755,-3.92763,0.6327671
105,1778588289.3852339,2.0054183,-0.27480847,2.177723,-1.0727214,-5.456817,-1.3688648
106,1778588289.4070556,0.28383857,-0.5876899,-0.35119838,0.13688648,0.094808534,0.014913702
107,1778588289.4269137,0.28383857,-0.5876899,-0.35119838,0.13688648,0.094808534,0.014913702
108,1778588289.448032,0.28383857,-0.5876899,-0.35119838,0.13688648,0.094808534,0.014913702
109,1778588289.4689715,1.244692,-0.31068486,0.4234393,0.753142,1.3624732,0.7259777
110,1778588289.4895477,0.8092938,-0.35876414,0.053692598,2.0889835,-0.92464954,-0.9102685
111,1778588289.5103567,0.49568027,-0.25479576,-0.1403329,2.0112193,-1.5952336,-1.6287893
112,1778588289.5311675,0.49568027,-0.25479576,-0.1403329,2.0112193,-1.5952336,-1.6287893
113,1778588289.551854,0.49568027,-0.25479576,-0.1403329,2.0112193,-1.5952336,-1.6287893
114,1778588289.5731175,-0.033435844,0.017572122,-0.46224442,2.6168222,5.002482,-1.8189391
115,1778588289.593827,0.9689073,-0.68262815,-0.68262815,3.4253578,5.9590893,-2.5704832
116,1778588289.6144621,1.5041249,-1.5212089,0.05588911,3.4253578,5.9590893,-2.5704832
117,1778588289.6353054,1.5041249,-1.5212089,0.05588911,3.4253578,5.9590893,-2.5704832
118,1778588289.6563532,1.5041249,-1.5212089,0.05588911,3.4253578,5.9590893,-2.5704832
119,1778588289.677672,0.4253918,-1.3818521,-1.1133891,4.2354913,2.5459821,-2.6951191
120,1778588289.6975248,0.55864704,-0.028554698,-0.88275504,2.027731,2.3068302,-1.117995
121,1778588289.718786,0.571338,0.36510965,-0.55620646,-0.07882957,4.76333,-0.7888283
122,1778588289.7394733,0.571338,0.36510965,-0.55620646,-0.07882957,4.76333,-0.7888283
123,1778588289.7604136,0.571338,0.36510965,-0.55620646,-0.07882957,4.76333,-0.7888283
124,1778588289.7809765,-1.1304731,0.31556603,-0.2294138,-1.3049489,-2.412824,2.6780748
125,1778588289.8020477,-1.7701472,0.34290043,-0.33875147,-1.3049489,-2.412824,2.6780748
126,1778588289.8229055,-1.0787331,0.21306199,-2.0386102,-1.1462245,-3.0317426,4.167847
127,1778588289.8440504,-1.0787331,0.21306199,-2.0386102,-1.1462245,-3.0317426,4.167847
128,1778588289.8644748,-1.0787331,0.21306199,-2.0386102,-1.1462245,-3.0317426,4.167847
129,1778588289.8854384,0.6723777,-1.1844097,3.619125,1.9249328,3.690076,0.103863284
130,1778588289.9061785,0.6723777,-1.1844097,3.619125,1.9249328,3.690076,0.103863284
131,1778588289.9271176,-0.25211114,-0.63454884,-3.6396258,1.133974,-7.9607215,-1.2969595
132,1778588289.9475906,-0.25211114,-0.63454884,-3.6396258,1.133974,-7.9607215,-1.2969595
133,1778588289.9690068,-0.25211114,-0.63454884,-3.6396258,1.133974,-7.9607215,-1.2969595
134,1778588289.9892242,-0.15107143,-2.2414217,-0.5615757,-3.9409459,-1.1227888,1.1787151
135,1778588290.0104146,0.03807293,-2.6204426,-0.4458926,-3.5457327,-4.3872914,2.983273
136,1778588290.0309942,0.03807293,-2.6204426,-0.4458926,-3.5457327,-4.3872914,2.983273
137,1778588290.0522466,0.03807293,-2.6204426,-0.4458926,-3.5457327,-4.3872914,2.983273
138,1778588290.0723712,0.03807293,-2.6204426,-0.4458926,-3.5457327,-4.3872914,2.983273
139,1778588290.0942996,1.5871042,-0.055400997,1.9241474,-0.77391464,-5.7167416,-0.89801794
140,1778588290.1140752,0.63918597,-0.036852647,0.8920292,0.011185277,0.55766594,1.5025555
141,1778588290.1352072,0.35022214,-0.44027928,0.11519502,0.011185277,0.55766594,1.5025555
142,1778588290.1559923,0.35022214,-0.44027928,0.11519502,0.011185277,0.55766594,1.5025555
143,1778588290.1771493,0.35022214,-0.44027928,0.11519502,0.011185277,0.55766594,1.5025555
144,1778588290.1971252,1.437009,-0.41123646,-0.18353106,1.6330504,-0.6562029,-0.6311692
145,1778588290.2185123,1.437009,-0.41123646,-0.18353106,1.6330504,-0.6562029,-0.6311692
146,1778588290.2392113,0.39146784,-0.03904916,-0.018060237,1.3699301,-1.0247844,-1.2926984
147,1778588290.2609587,0.39146784,-0.03904916,-0.018060237,1.3699301,-1.0247844,-1.2926984
148,1778588290.2819355,-0.16595893,0.119588055,-0.5095915,2.2082932,4.705273,-1.7156084
149,1778588290.301999,0.22502078,-0.12764193,-0.15253578,2.7318707,4.647749,-1.6197346
150,1778588290.3224635,0.44394013,-0.5535218,-0.67799103,4.149738,3.9659796,-2.1875205
151,1778588290.3433425,0.5850052,-1.0418804,-1.3706255,4.149738,3.9659796,-2.1875205
152,1778588290.3640192,0.5850052,-1.0418804,-1.3706255,4.149738,3.9659796,-2.1875205
153,1778588290.385319,0.4915313,-2.3161032,-1.3913703,5.7012954,-4.9540124,-3.788613
154,1778588290.4059746,0.20085911,-1.3611072,-1.1446284,4.01871,1.8492991,-3.5441349
155,1778588290.427082,0.614048,0.18914436,-0.86103404,2.5070999,3.6884782,-1.8439728
156,1778588290.4473014,0.614048,0.18914436,-0.86103404,2.5070999,3.6884782,-1.8439728
157,1778588290.4683735,0.614048,0.18914436,-0.86103404,2.5070999,3.6884782,-1.8439728
158,1778588290.4890714,-1.1121689,0.2848148,-0.1632743,-1.4578145,0.07456851,0.6498113
159,1778588290.5102613,-1.9924834,0.21232979,-0.8254016,-1.6719326,-2.0543625,2.4905882
160,1778588290.530888,-1.9924834,0.21232979,-0.8254016,-1.6719326,-2.0543625,2.4905882
161,1778588290.551539,-1.9924834,0.21232979,-0.8254016,-1.6719326,-2.0543625,2.4905882
162,1778588290.572565,-1.9924834,0.21232979,-0.8254016,-1.6719326,-2.0543625,2.4905882
163,1778588290.5927722,2.1306198,0.22990192,5.423684,-0.6066681,0.8671253,2.91989
164,1778588290.6141899,0.7819594,-1.4077222,3.4587793,3.675695,7.2475266,-0.14114754
165,1778588290.6351233,-0.24478942,-0.6801876,-2.924538,0.4809669,-8.58976,-1.4801849
166,1778588290.6556146,-0.24478942,-0.6801876,-2.924538,0.4809669,-8.58976,-1.4801849
167,1778588290.6767933,-0.24478942,-0.6801876,-2.924538,0.4809669,-8.58976,-1.4801849
168,1778588290.6973994,-0.40489095,-2.209206,-0.8412653,-3.9111185,-2.283927,0.8543421
169,1778588290.7185373,-0.08419975,-2.3466103,0.11348662,-3.1121702,-2.4437168,2.424542
170,1778588290.738893,-0.3824377,-3.2981894,0.6621273,-1.6458336,-0.06178534,4.503938
171,1778588290.7594302,-0.3824377,-3.2981894,0.6621273,-1.6458336,-0.06178534,4.503938
172,1778588290.7805989,-0.3824377,-3.2981894,0.6621273,-1.6458336,-0.06178534,4.503938
173,1778588290.8013504,3.3184462,-2.174062,0.8007518,-4.9076734,-3.0897996,0.75101143
174,1778588290.8221295,2.77127,-0.4588276,2.3871238,-2.2706113,-8.601478,-1.1254519
175,1778588290.843176,2.77127,-0.4588276,2.3871238,-2.2706113,-8.601478,-1.1254519
176,1778588290.8639956,2.77127,-0.4588276,2.3871238,-2.2706113,-8.601478,-1.1254519
177,1778588290.8844826,2.77127,-0.4588276,2.3871238,-2.2706113,-8.601478,-1.1254519
178,1778588290.9060733,1.2244352,-0.447601,0.3951287,0.8900285,0.5811018,1.6005598
179,1778588290.9266918,1.0164984,-0.4795725,-0.07980672,2.159291,-0.29667616,-0.29614353
180,1778588290.9468205,0.6365013,-0.35876414,-0.13252309,1.8604844,-0.2657835,-1.6410398
181,1778588290.9684074,0.6365013,-0.35876414,-0.13252309,1.8604844,-0.2657835,-1.6410398
182,1778588290.9885902,0.6365013,-0.35876414,-0.13252309,1.8604844,-0.2657835,-1.6410398
183,1778588291.0104563,-0.016351834,0.08956901,-0.37023485,2.656237,3.3119073,-2.3691483
184,1778588291.030406,0.34387666,-0.12568948,-0.1786499,3.1473238,4.190218,-2.372344
185,1778588291.0511343,0.34387666,-0.12568948,-0.1786499,3.1473238,4.190218,-2.372344
186,1778588291.0718699,0.34387666,-0.12568948,-0.1786499,3.1473238,4.190218,-2.372344
187,1778588291.092556,0.34387666,-0.12568948,-0.1786499,3.1473238,4.190218,-2.372344
188,1778588291.1136932,0.9081371,-2.2616785,-1.1704986,6.1274014,-3.5254927,-3.7081857
189,1778588291.1346934,0.5613316,-1.4694687,-0.87958235,3.9760995,1.8125474,-3.180347
190,1778588291.1553414,0.635281,0.18304294,-0.59794027,2.0426445,3.5537221,-1.979794
191,1778588291.175976,0.635281,0.18304294,-0.59794027,2.0426445,3.5537221,-1.979794
192,1778588291.1967711,0.635281,0.18304294,-0.59794027,2.0426445,3.5537221,-1.979794
193,1778588291.217237,-1.1558552,0.1398448,-0.00024405724,-1.675661,-1.7598169,2.9289446
194,1778588291.2486267,-1.5941819,0.29823795,-0.6450433,-1.0620687,-2.4309335,4.000601
195,1778588291.2586937,-1.5941819,0.29823795,-0.6450433,-1.0620687,-2.4309335,4.000601
196,1778588291.2699344,-1.5941819,0.29823795,-0.6450433,-1.0620687,-2.4309335,4.000601
197,1778588291.2800362,-1.5941819,0.29823795,-0.6450433,-1.0620687,-2.4309335,4.000601
198,1778588291.2910886,-1.5941819,0.29823795,-0.6450433,-1.0620687,-2.4309335,4.000601
199,1778588291.3117833,0.925221,0.758774,1.7640458,-0.9507485,0.6556703,1.8626149
200,1778588291.3321962,3.1278377,-0.82100856,7.987262,-0.6498113,3.1899345,0.4777711
201,1778588291.3538854,-1.00576,-1.0125935,-1.8189586,0.80747044,-8.058725,-0.76485986
202,1778588291.3741386,-1.00576,-1.0125935,-1.8189586,0.80747044,-8.058725,-0.76485986
203,1778588291.3952885,-1.00576,-1.0125935,-1.8189586,0.80747044,-8.058725,-0.76485986
204,1778588291.4160435,-0.10348027,-2.3573492,-1.4955828,-3.752394,-1.9057581,1.8807244
205,1778588291.4369676,0.36315718,-2.6633968,-0.5952556,-3.3518546,-3.400324,2.4213462
206,1778588291.4575465,0.50544256,-2.882316,0.6125837,-1.8104169,-1.4620755,3.8456047
207,1778588291.4785213,0.50544256,-2.882316,0.6125837,-1.8104169,-1.4620755,3.8456047
208,1778588291.4992697,0.50544256,-2.882316,0.6125837,-1.8104169,-1.4620755,3.8456047
209,1778588291.5204625,3.364085,-1.2776396,2.1381855,-4.7814393,-3.6245623,-0.23222765
210,1778588291.5404859,1.2532339,0.050031736,1.8340902,-0.74728304,-6.06242,-0.012250541
211,1778588291.561488,1.2532339,0.050031736,1.8340902,-0.74728304,-6.06242,-0.012250541
212,1778588291.592538,1.2532339,0.050031736,1.8340902,-0.74728304,-6.06242,-0.012250541
213,1778588291.6049712,1.2532339,0.050031736,1.8340902,-0.74728304,-6.06242,-0.012250541
214,1778588291.6249025,1.3579346,-0.5037342,0.20305562,0.7526093,1.8892465,0.6823019
215,1778588291.645465,0.83174706,-0.43466598,0.05588911,1.7491642,0.5816344,-0.64714813
216,1778588291.6665657,0.46932206,-0.2630937,0.11177822,1.8684739,0.23915187,-1.4418354
217,1778588291.6878393,0.46932206,-0.2630937,0.11177822,1.8684739,0.23915187,-1.4418354
218,1778588291.7081842,0.46932206,-0.2630937,0.11177822,1.8684739,0.23915187,-1.4418354
219,1778588291.7292562,0.107385196,-0.08322352,-0.33240595,3.2085764,4.0804954,-1.6927053
220,1778588291.7500415,0.59916055,-0.609655,-0.78928113,3.7614489,3.9052596,-1.8956381
221,1778588291.7707639,1.5419537,-3.081955,1.2088156,4.0730386,4.3516054,-2.6897926
222,1778588291.7917504,1.5419537,-3.081955,1.2088156,4.0730386,4.3516054,-2.6897926
223,1778588291.812455,1.5419537,-3.081955,1.2088156,4.0730386,4.3516054,-2.6897926
224,1778588291.8331738,0.45687518,-0.84199744,-1.065554,2.936934,3.3662357,-2.5726137
225,1778588291.8538196,0.45687518,-0.84199744,-1.065554,2.936934,3.3662357,-2.5726137
226,1778588291.8741438,0.43515408,0.060770255,-0.49982923,1.1297129,5.197958,-1.7656758
227,1778588291.8954813,0.43515408,0.060770255,-0.49982923,1.1297129,5.197958,-1.7656758
228,1778588291.9160595,0.43515408,0.060770255,-0.49982923,1.1297129,5.197958,-1.7656758
229,1778588291.9461844,-1.7943089,0.21135357,-1.3501247,-1.856756,-1.4892397,3.3587787
230,1778588291.958018,-1.7943089,0.21135357,-1.3501247,-1.856756,-1.4892397,3.3587787
231,1778588291.979041,-1.7943089,0.21135357,-1.3501247,-1.856756,-1.4892397,3.3587787
232,1778588291.9999073,-1.7943089,0.21135357,-1.3501247,-1.856756,-1.4892397,3.3587787
233,1778588292.0203001,-1.7943089,0.21135357,-1.3501247,-1.856756,-1.4892397,3.3587787
234,1778588292.0412111,0.6977597,-1.1307173,3.5866654,2.931075,0.18642128,-0.5289038
235,1778588292.0620031,0.16742326,-0.7228975,0.7477914,2.931075,0.18642128,-0.5289038
236,1778588292.0829227,-0.5623079,-0.5547421,-2.3202522,2.6770096,-8.370848,-1.2548815
237,1778588292.103948,-0.5623079,-0.5547421,-2.3202522,2.6770096,-8.370848,-1.2548815
238,1778588292.1252642,-0.44052333,-1.9917512,-1.2661691,-4.5524077,-1.4993597,0.49960902
239,1778588292.1455047,-0.16278619,-2.1642997,-0.8766537,-3.7071204,-2.7302728,1.5041534
240,1778588292.1664317,-0.9967298,-3.1144145,2.8532734,-2.7441213,-3.97823,2.310026
241,1778588292.1870246,0.60184515,-3.78606,-0.2882316,-2.7441213,-3.97823,2.310026
242,1778588292.2080352,0.60184515,-3.78606,-0.2882316,-2.7441213,-3.97823,2.310026
243,1778588292.2290206,3.7972867,-1.8235958,1.240787,-5.1782503,-1.0167949,1.866876
244,1778588292.2496934,3.6510963,-1.0204034,2.2060335,-4.0788975,-5.7678742,0.087884314
245,1778588292.2701197,1.2537221,-0.2945771,0.38268176,-0.49854377,-5.7273946,1.0024139
246,1778588292.300432,0.9855032,-0.63503695,-0.17254847,-0.78563255,2.283927,1.7512947
247,1778588292.3139408,0.9855032,-0.63503695,-0.17254847,-0.78563255,2.283927,1.7512947
248,1778588292.33307,0.5176454,-0.60013676,1.4599504,-1.212271,1.4476944,1.4887071
249,1778588292.3545702,0.9813542,-0.42148685,0.09298581,1.5899072,0.77391464,0.0053263223
250,1778588292.3754237,0.37682438,-0.24478942,0.016595893,1.5494272,-0.7281082,-1.9574234
251,1778588292.3961227,0.37682438,-0.24478942,0.016595893,1.5494272,-0.7281082,-1.9574234
252,1778588292.417365,0.37682438,-0.24478942,0.016595893,1.5494272,-0.7281082,-1.9574234
253,1778588292.4377918,-0.043198135,0.05832968,-0.3192269,2.9193573,4.433098,-1.8322549
254,1778588292.4583087,0.6145361,-0.36974674,-0.35632357,3.8003309,4.1417484,-2.1555626
255,1778588292.4791176,1.3877095,-1.8619128,0.36437747,3.90739,4.8400292,-3.0658312
256,1778588292.5004916,1.3877095,-1.8619128,0.36437747,3.90739,4.8400292,-3.0658312
257,1778588292.5213072,1.3877095,-1.8619128,0.36437747,3.90739,4.8400292,-3.0658312
258,1778588292.5420644,0.4417436,-2.0522776,-1.3276714,5.5516257,-0.47404268,-3.9127164
259,1778588292.5626433,0.6406503,-0.3572998,-0.99453324,3.1430628,2.1278658,-2.2365227
260,1778588292.5837576,0.6406503,-0.3572998,-0.99453324,3.1430628,2.1278658,-2.2365227
261,1778588292.603366,0.6406503,-0.3572998,-0.99453324,3.1430628,2.1278658,-2.2365227
262,1778588292.6258283,0.6406503,-0.3572998,-0.99453324,3.1430628,2.1278658,-2.2365227
263,1778588292.6534133,-0.9113098,0.3372871,-0.07980672,-1.2905679,-0.43995422,1.9835224
264,1778588292.669247,-1.5712405,0.4080637,-0.4790844,-1.5233282,-1.484446,2.9411952
265,1778588292.6897616,-1.517548,0.31190515,-1.4104068,-1.5233282,-1.484446,2.9411952
266,1778588292.711089,-1.517548,0.31190515,-1.4104068,-1.5233282,-1.484446,2.9411952
267,1778588292.7315927,-1.517548,0.31190515,-1.4104068,-1.5233282,-1.484446,2.9411952
268,1778588292.7524307,2.5660179,-1.4819156,7.987262,-1.0700581,0.664725,1.937716
269,1778588292.7728362,0.1295944,-0.7907455,0.10470056,3.3438652,-0.809601,-0.27803403
270,1778588292.7944443,-0.81441903,-0.7819594,-2.732465,2.3995082,-9.893111,-1.0743192
271,1778588292.8147223,-0.81441903,-0.7819594,-2.732465,2.3995082,-9.893111,-1.0743192
272,1778588292.8359396,-0.81441903,-0.7819594,-2.732465,2.3995082,-9.893111,-1.0743192
273,1778588292.8561575,0.03465613,-2.0954754,-0.6299118,-3.4914043,-1.9829898,2.369681
274,1778588292.8775163,0.7055695,-2.6731591,0.39781332,-3.7071204,-4.4192495,2.928412
275,1778588292.8975134,0.42465958,-3.1407728,0.818568,-3.7071204,-4.4192495,2.928412
276,1778588292.9187646,0.42465958,-3.1407728,0.818568,-3.7071204,-4.4192495,2.928412
277,1778588292.939696,0.42465958,-3.1407728,0.818568,-3.7071204,-4.4192495,2.928412
278,1778588292.9602191,3.171524,-0.83125895,3.2225318,-4.1614556,-4.7766457,-0.6066681
279,1778588292.9810023,3.171524,-0.83125895,3.2225318,-4.1614556,-4.7766457,-0.6066681
280,1778588293.0079916,0.65065664,-0.51471674,-0.10201593,0.10066749,-3.6490633,0.30679616
281,1778588293.0249975,0.65065664,-0.51471674,-0.10201593,0.10066749,-3.6490633,0.30679616
282,1778588293.044775,0.65065664,-0.51471674,-0.10201593,0.10066749,-3.6490633,0.30679616
283,1778588293.0656092,1.0640897,-0.5130083,0.21940747,1.3278521,1.1755193,0.24714136
284,1778588293.0868528,1.0640897,-0.5130083,0.21940747,1.3278521,1.1755193,0.24714136
285,1778588293.1069212,0.5051985,-0.38219365,-0.011958805,2.0948424,-0.30679616,-1.015197
286,1778588293.1278505,0.5051985,-0.38219365,-0.011958805,2.0948424,-0.30679616,-1.015197
287,1778588293.14911,-0.1901206,-0.034168016,-0.28676724,2.855974,4.069843,-2.2572954
288,1778588293.169768,-0.13374338,-0.07199689,-0.31727442,3.095126,4.8666606,-1.875398
289,1778588293.1903644,0.707522,-0.6887296,-0.9925808,3.6847498,4.1731734,-2.0229373
290,1778588293.2111077,1.5761217,-1.7086449,0.12398108,3.6709013,5.103682,-2.6072347
291,1778588293.2320457,1.5761217,-1.7086449,0.12398108,3.6709013,5.103682,-2.6072347
292,1778588293.2528405,1.5978427,-4.1213946,-0.584029,5.716209,-2.299906,-4.424043
293,1778588293.273601,0.24259292,-0.6357691,-0.7753699,5.3566823,0.83996105,-3.3854105
294,1778588293.2978768,0.75657743,0.174745,-0.6560259,1.1494204,3.6474655,-1.2170646
295,1778588293.3168492,0.75657743,0.174745,-0.6560259,1.1494204,3.6474655,-1.2170646
296,1778588293.336467,0.75657743,0.174745,-0.6560259,1.1494204,3.6474655,-1.2170646
297,1778588293.360267,-1.1275444,0.36144876,-0.1632743,-1.8636801,-2.0836573,1.3970944
298,1778588293.3807561,-1.3955194,0.31556603,-0.19548985,-1.8636801,-2.0836573,1.3970944
299,1778588293.4014635,-1.599063,0.39854547,-2.369552,-2.1209416,-3.1393344,3.5388086
300,1778588293.42145,-1.599063,0.39854547,-2.369552,-2.1209416,-3.1393344,3.5388086
301,1778588293.4428933,-1.599063,0.39854547,-2.369552,-2.1209416,-3.1393344,3.5388086
302,1778588293.4632306,1.104603,-1.4079663,6.1448736,-0.74035877,4.6743803,1.0114686
303,1778588293.484925,0.08371163,-0.5027579,0.7748818,2.2264028,3.2059133,-0.26418558
304,1778588293.5052037,-0.39244407,-0.48152497,-2.3666232,2.6003106,-7.8968053,-0.63862604
305,1778588293.5255814,-0.39244407,-0.48152497,-2.3666232,2.6003106,-7.8968053,-0.63862604
306,1778588293.547012,-0.39244407,-0.48152497,-2.3666232,2.6003106,-7.8968053,-0.63862604
307,1778588293.5679023,-0.15741692,-2.9377172,-0.44955346,-5.697567,-0.793622,0.5651228
308,1778588293.5884593,0.13496366,-3.4158251,0.6804316,-3.3028524,-1.4956313,1.9371834
309,1778588293.608503,0.40830776,-2.60946,0.5930591,-1.5398397,-3.530819,4.266384
310,1778588293.6309445,0.40830776,-2.60946,0.5930591,-1.5398397,-3.530819,4.266384
311,1778588293.65065,0.40830776,-2.60946,0.5930591,-1.5398397,-3.530819,4.266384
312,1778588293.6716647,3.7323673,-0.90642864,2.2836437,-6.2946477,-3.99847,1.4636734
313,1778588293.692514,2.8657203,-0.75096416,1.4875289,-1.8967034,-8.344216,-0.71532506
314,1778588293.715763,0.2135501,-0.9359596,0.01952458,-0.61891866,0.54168695,0.05006743
315,1778588293.73547,0.2135501,-0.9359596,0.01952458,-0.61891866,0.54168695,0.05006743
316,1778588293.7560542,0.2135501,-0.9359596,0.01952458,-0.61891866,0.54168695,0.05006743
317,1778588293.7767534,1.1927078,-0.43368974,0.15253578,1.7837853,-0.2860235,-0.25406557
318,1778588293.797504,1.0606729,-0.45077375,0.1010397,1.7837853,-0.2860235,-0.25406557
319,1778588293.818099,0.6740861,-0.33753118,0.04344219,2.0112193,-1.0998856,-1.4689997
320,1778588293.8389242,0.6740861,-0.33753118,0.04344219,2.0112193,-1.0998856,-1.4689997
321,1778588293.859779,0.6740861,-0.33753118,0.04344219,2.0112193,-1.0998856,-1.4689997
322,1778588293.8807979,-0.15595257,0.14789869,-0.5869577,3.333745,5.0536146,-1.6266588
323,1778588293.9024365,0.12007617,0.058573738,-0.5776835,3.333745,5.0536146,-1.6266588
324,1778588293.9231873,0.12007617,0.058573738,-0.5776835,3.333745,5.0536146,-1.6266588
325,1778588293.942737,0.12007617,0.058573738,-0.5776835,3.333745,5.0536146,-1.6266588
326,1778588293.9644578,0.12007617,0.058573738,-0.5776835,3.333745,5.0536146,-1.6266588
327,1778588293.9846292,0.32044718,-2.1672285,-1.2546983,5.259743,-0.49854377,-3.37316
328,1778588294.006396,0.8700641,-0.39293218,-1.3093672,3.0525153,1.6479641,-1.7736653
329,1778588294.0268993,1.0750722,0.119099945,-0.8027043,0.7861652,5.367335,-1.6719326
330,1778588294.0476017,1.0750722,0.119099945,-0.8027043,0.7861652,5.367335,-1.6719326
331,1778588294.0699282,1.0750722,0.119099945,-0.8027043,0.7861652,5.367335,-1.6719326
332,1778588294.0893903,-1.415044,0.34045988,-0.3018988,-2.0021646,-1.6325178,1.2879047
333,1778588294.110319,-1.7359792,0.30385128,-1.5827112,-1.8588865,-0.7344999,2.871953
334,1778588294.131482,-1.4365209,0.39488465,-2.1001127,-1.979794,-1.3773869,3.609116
335,1778588294.1519678,-1.4365209,0.39488465,-2.1001127,-1.979794,-1.3773869,3.609116
336,1778588294.1731715,0.15204766,0.7917217,-0.006345488,-1.9845877,-4.6903596,1.2575446
337,1778588294.1936717,1.2366381,-1.3532975,6.995169,-2.9012477,5.580388,-0.5837649
338,1778588294.2144296,-0.61502427,-0.5252112,-1.4506763,4.1747713,-8.024637,-0.7526093
339,1778588294.2351546,-0.61502427,-0.5252112,-1.4506763,4.1747713,-8.024637,-0.7526093
340,1778588294.256098,-0.61502427,-0.5252112,-1.4506763,4.1747713,-8.024637,-0.7526093
341,1778588294.2773147,-0.21574661,-1.6300584,-1.4699568,-5.0999537,-0.8090684,1.6149409
342,1778588294.2979212,-0.10152781,-1.9800364,-1.5407335,-5.0999537,-0.8090684,1.6149409
343,1778588294.3187563,0.23990828,-2.8066583,-0.7124031,-3.790211,-5.474394,4.2136536
344,1778588294.3392894,-0.15180361,-3.6808712,1.3264512,-3.790211,-5.474394,4.2136536
345,1778588294.3601732,-0.15180361,-3.6808712,1.3264512,-3.790211,-5.474394,4.2136536
346,1778588294.3812346,3.529312,-2.464246,0.13105874,-5.232579,-4.9540124,1.5701998
347,1778588294.4022224,3.7443264,-1.5363404,1.9553868,-5.232579,-4.9540124,1.5701998
348,1778588294.424281,0.76194674,-0.045638707,0.609655,1.1930962,-2.6365294,-0.41225734
349,1778588294.4445941,0.2660224,-0.47103047,-0.18694785,1.1930962,-2.6365294,-0.41225734
350,1778588294.4653141,0.2660224,-0.47103047,-0.18694785,1.1930962,-2.6365294,-0.41225734
351,1778588294.4862223,1.5907651,-0.51569295,1.4040614,0.12197278,2.427205,1.0705907
352,1778588294.5070758,1.2049106,-0.49348375,-0.14252943,1.1190603,0.25832662,-0.4362258
353,1778588294.5275326,0.67140144,-0.31825066,-0.13081467,1.2516857,0.21837921,-1.3443637
354,1778588294.5484633,0.67140144,-0.31825066,-0.13081467,1.2516857,0.21837921,-1.3443637
355,1778588294.5692158,0.67140144,-0.31825066,-0.13081467,1.2516857,0.21837921,-1.3443637
356,1778588294.5903947,-0.26236153,0.09005712,-0.39756927,2.0463731,4.6701193,-1.7646105
357,1778588294.611004,-0.2403964,0.06467517,-0.33582276,2.321744,5.0434947,-1.3800501
358,1778588294.6319163,0.19134088,-0.70996255,-0.7890371,3.590474,4.098605,-1.5899072
359,1778588294.6529458,0.19134088,-0.70996255,-0.7890371,3.590474,4.098605,-1.5899072
360,1778588294.6741834,0.19134088,-0.70996255,-0.7890371,3.590474,4.098605,-1.5899072
361,1778588294.6947594,1.4043053,-3.558843,-1.9746673,6.1673484,-4.3713126,-2.5326662
362,1778588294.7148404,1.4043053,-3.558843,-1.9746673,5.6272593,0.2775014,-2.6844664
363,1778588294.735731,0.76292294,-0.3380193,-1.1270564,3.4248252,3.9755669,-1.6761936
364,1778588294.7568812,0.76292294,-0.3380193,-1.1270564,3.4248252,3.9755669,-1.6761936
365,1778588294.7775266,0.76292294,-0.3380193,-1.1270564,3.4248252,3.9755669,-1.6761936
366,1778588294.7982798,0.76292294,-0.3380193,-1.1270564,3.4248252,3.9755669,-1.6761936
367,1778588294.8189902,-1.7623373,0.28994003,-1.5551329,-1.3837786,-0.6130597,1.5749935
368,1778588294.8399036,-1.7623373,0.28994003,-1.5551329,-1.3837786,-0.6130597,1.5749935
369,1778588294.8610573,-1.7623373,0.28994003,-1.5551329,-1.3837786,-0.6130597,1.5749935
370,1778588294.881964,-1.7623373,0.28994003,-1.5551329,-1.3837786,-0.6130597,1.5749935
371,1778588294.903293,0.50666285,-1.2776396,4.4108467,0.48043427,3.709251,-0.12250541
372,1778588294.9235442,0.50666285,-1.2776396,4.4108467,0.48043427,3.709251,-0.12250541
373,1778588294.9439855,-0.27358818,-0.6787232,-2.88256,3.4930022,-7.28055,-0.6993461
374,1778588294.9652367,-0.27358818,-0.6787232,-2.88256,3.4930022,-7.28055,-0.6993461
375,1778588294.9863472,-0.27358818,-0.6787232,-2.88256,3.4930022,-7.28055,-0.6993461
376,1778588295.0067554,0.62014943,-2.6075077,-0.3968371,-4.6653256,-2.257828,0.65673554
377,1778588295.02741,0.358032,-2.6101923,0.20671648,-3.9009984,-3.8573227,1.6303873
378,1778588295.0481842,0.10006347,-2.8791435,0.65334123,-3.0626354,-5.5180697,3.2032502
379,1778588295.069135,0.10006347,-2.8791435,0.65334123,-3.0626354,-5.5180697,3.2032502
380,1778588295.0900457,0.10006347,-2.8791435,0.65334123,-3.0626354,-5.5180697,3.2032502
381,1778588295.1103377,3.1444337,-1.9934596,0.62503064,-5.2336445,-0.9576728,1.6564863
382,1778588295.1314526,3.5866654,-1.2205303,2.3380685,-5.1015515,-8.179633,0.39574575
383,1778588295.152383,0.9967298,-0.59183884,-0.007321717,0.3121225,-4.46186,-0.43356264
384,1778588295.1731894,0.9967298,-0.59183884,-0.007321717,0.3121225,-4.46186,-0.43356264
385,1778588295.1939905,0.9967298,-0.59183884,-0.007321717,0.3121225,-4.46186,-0.43356264
386,1778588295.2147248,1.4533609,-0.44686884,1.6898522,-0.65460503,2.1518342,1.4045511
387,1778588295.2355878,0.7839119,-0.37804466,-0.010738519,1.7678064,-1.7816548,-1.490305
388,1778588295.256377,0.7314396,-0.33411437,-0.08029483,1.7678064,-1.7816548,-1.490305
389,1778588295.2773464,0.7314396,-0.33411437,-0.08029483,1.7678064,-1.7816548,-1.490305
390,1778588295.2980123,0.7314396,-0.33411437,-0.08029483,1.7678064,-1.7816548,-1.490305
391,1778588295.3187556,-0.35754386,0.05344854,-0.3951287,2.1880531,5.5393753,-1.6021577
392,1778588295.3397868,0.17450093,-0.14277348,-0.22135992,2.650378,4.3105927,-1.2825783
393,1778588295.3604965,0.25430766,-0.24918245,-0.21208574,2.650378,4.3105927,-1.2825783
394,1778588295.3815014,0.25430766,-0.24918245,-0.21208574,2.650378,4.3105927,-1.2825783
395,1778588295.402372,3.141505,-6.6949787,3.6076543,3.2027175,1.9643476,-6.8773475
396,1778588295.4231431,1.461903,-3.3106365,-1.6317668,6.988135,-2.1438446,-3.0461237
397,1778588295.4438956,0.255772,-0.62063754,-0.94572186,4.185424,4.4560013,-2.3787355
398,1778588295.4644094,0.255772,-0.62063754,-0.94572186,4.185424,4.4560013,-2.3787355
399,1778588295.4855094,0.255772,-0.62063754,-0.94572186,4.185424,4.4560013,-2.3787355
400,1778588295.5061643,-0.5127643,-0.0051252022,-0.16571487,-1.1765846,2.6397252,-0.63702816
401,1778588295.5270042,-1.0011228,0.013667206,-0.34509695,-1.474326,-0.24181503,0.36112466
402,1778588295.5480223,-1.790648,-0.12398108,-1.2239472,-1.9718045,-1.3768543,1.9973708
403,1778588295.56874,-1.790648,-0.12398108,-1.2239472,-1.9718045,-1.3768543,1.9973708
404,1778588295.5897038,-1.790648,-0.12398108,-1.2239472,-1.9718045,-1.3768543,1.9973708
405,1778588295.6102202,-0.25308737,0.14960709,-0.23405088,-0.8330368,-5.5809207,3.5654402
406,1778588295.631467,1.2239472,0.39293218,2.4928007,-0.24394555,-3.4418695,2.7095
407,1778588295.6519852,1.2239472,0.39293218,2.4928007,-0.24394555,-3.4418695,2.7095
408,1778588295.6732948,1.2239472,0.39293218,2.4928007,-0.24394555,-3.4418695,2.7095
409,1778588295.694001,1.2239472,0.39293218,2.4928007,-0.24394555,-3.4418695,2.7095
410,1778588295.714579,-0.25552794,-1.2249234,-1.4860646,-4.3441486,-0.030360037,0.004261058
411,1778588295.735283,0.030751213,-1.6237129,-0.9371798,-4.3441486,-0.030360037,0.004261058
412,1778588295.7562888,0.3756041,-2.0466642,-0.42807645,-4.711132,-3.252785,2.6232138
413,1778588295.7766657,0.3756041,-2.0466642,-0.42807645,-4.711132,-3.252785,2.6232138
414,1778588295.7982187,0.3756041,-2.0466642,-0.42807645,-4.711132,-3.252785,2.6232138
415,1778588295.8185081,0.3756041,-2.0466642,-0.42807645,-4.711132,-3.252785,2.6232138
416,1778588295.8394742,3.257188,-2.621663,-0.16717921,-4.065582,-0.829841,1.8530275
417,1778588295.8600278,3.257188,-2.621663,-0.16717921,-4.065582,-0.829841,1.8530275
418,1778588295.881259,3.257188,-2.621663,-0.16717921,-4.065582,-0.829841,1.8530275
419,1778588295.9019525,3.257188,-2.621663,-0.16717921,-4.065582,-0.829841,1.8530275
420,1778588295.9227293,0.45638704,-0.71167094,1.7598969,-0.72970617,1.5520903,1.8439728
421,1778588295.9440792,1.0533512,-0.49299565,1.3798997,1.8242654,-0.05486112,0.25300032
422,1778588295.964572,1.04066,-0.49397188,0.04881145,2.6146915,-2.1800637,-0.42077947
423,1778588295.9851234,1.04066,-0.49397188,0.04881145,2.6146915,-2.1800637,-0.42077947
424,1778588296.0061688,1.04066,-0.49397188,0.04881145,2.6146915,-2.1800637,-0.42077947
425,1778588296.0268044,-0.093717985,0.18109047,-0.2711476,1.9094865,2.7217507,-2.26635
426,1778588296.0476668,-0.11324256,0.19915071,-0.47151858,2.2913837,4.619519,-1.9457055
427,1778588296.068821,0.2255089,0.07809832,-0.21232979,2.8969867,5.096758,-1.7401094
428,1778588296.0892067,0.2255089,0.07809832,-0.21232979,2.8969867,5.096758,-1.7401094
429,1778588296.1100872,0.2255089,0.07809832,-0.21232979,2.8969867,5.096758,-1.7401094
430,1778588296.13082,1.8865626,-7.5023203,2.4718118,3.4056504,1.6911073,-6.3596287
431,1778588296.1517522,2.0183535,-6.8785095,1.0396838,5.2954297,-3.500459,-4.6770434
432,1778588296.17238,0.3360668,-1.1304731,-0.77903074,3.7460024,-0.017576864,-3.581419
433,1778588296.1934192,0.3360668,-1.1304731,-0.77903074,3.7460024,-0.017576864,-3.581419
434,1778588296.2143407,0.3360668,-1.1304731,-0.77903074,3.7460024,-0.017576864,-3.581419
435,1778588296.2346933,-0.61844105,0.024405725,0.119099945,-1.2554141,4.7484164,-0.50813115
436,1778588296.2561162,-0.9608534,0.18011424,0.05515694,-1.4998924,-0.28442562,0.99495703
437,1778588296.2765803,-1.6295702,0.4790844,-0.1415532,-2.069276,-3.3779535,2.3307986
438,1778588296.2979176,-1.6295702,0.4790844,-0.1415532,-2.069276,-3.3779535,2.3307986
439,1778588296.3179686,-1.6295702,0.4790844,-0.1415532,-2.069276,-3.3779535,2.3307986
440,1778588296.3394022,0.1666911,0.6343048,-0.3738957,-1.1462245,0.27537087,2.9390647
441,1778588296.359862,0.7753699,0.873725,0.4949481,-1.1462245,0.27537087,2.9390647
442,1778588296.3804703,0.5132524,-1.155123,3.0746331,-2.8272119,4.5209823,1.1291803
443,1778588296.4015198,0.5132524,-1.155123,3.0746331,-2.8272119,4.5209823,1.1291803
444,1778588296.4224272,0.5132524,-1.155123,3.0746331,-2.8272119,4.5209823,1.1291803
445,1778588296.4433546,-0.49421594,-1.5626985,-1.3933228,-3.9574575,-0.30786142,0.11824436
446,1778588296.4640212,-0.49421594,-1.5626985,-1.3933228,-3.9574575,-0.30786142,0.11824436
447,1778588296.4848487,-0.36584184,-2.664861,-1.768927,-3.4946,-1.5180018,0.8165252
448,1778588296.5057075,-0.36584184,-2.664861,-1.768927,-3.4946,-1.5180018,0.8165252
449,1778588296.5260413,-0.36584184,-2.664861,-1.768927,-3.4946,-1.5180018,0.8165252
450,1778588296.5474787,3.7287066,-3.2845223,-0.9513352,-4.565191,-0.27643612,4.315919
451,1778588296.567988,4.2234106,-1.824816,1.5370725,-4.927913,-3.3156357,1.6314526
452,1778588296.589062,4.2234106,-1.824816,1.5370725,-4.927913,-3.3156357,1.6314526
453,1778588296.609609,4.2234106,-1.824816,1.5370725,-4.927913,-3.3156357,1.6314526
454,1778588296.6307263,-0.54815257,-0.82149667,1.0064921,-1.9036276,4.0208406,1.4418354
455,1778588296.651227,-0.31239328,-0.41684976,1.7220681,-1.5116103,1.5733956,1.8700718
456,1778588296.672382,1.3374337,-0.47713193,0.10421244,1.695901,0.65726817,1.6074841
457,1778588296.6926968,0.6958072,-0.39024755,-0.33094162,1.6154735,0.0005326322,-1.5861788
458,1778588296.7137258,0.6958072,-0.39024755,-0.33094162,1.6154735,0.0005326322,-1.5861788
459,1778588296.7344875,0.19915071,0.03441207,-0.21965154,1.4519554,2.2327943,-2.499643
460,1778588296.7553582,-0.04490653,0.1969542,-0.264314,1.7092168,3.516438,-2.2801986
461,1778588296.7761898,-0.030751213,0.21940747,-0.13349932,1.7092168,3.516438,-2.2801986
462,1778588296.7973964,0.18450728,-0.108117364,0.11177822,2.948652,3.432282,-2.278068
463,1778588296.8178236,0.06882414,-0.4463807,-0.32850105,4.755873,1.8578212,-2.8740835
464,1778588296.8384378,3.5639682,-5.827599,3.141993,2.9726205,4.957741,-4.252536
465,1778588296.8596609,2.6919515,-5.3197155,-0.20988922,4.3457465,-6.124738,-4.9540124
466,1778588296.8812888,0.878362,-1.9607558,-0.7438865,3.9329565,0.53742594,-4.2546663
467,1778588296.901122,0.6574902,0.027090356,-0.839801,2.6136262,4.4267063,-2.8831382
468,1778588296.9217196,0.6574902,0.027090356,-0.839801,2.6136262,4.4267063,-2.8831382
469,1778588296.9425452,-0.58378494,-0.08639627,-0.4170938,-0.5225122,3.9547944,-0.099069595
470,1778588296.963605,-0.6367454,-0.12178457,-0.42929673,-1.4604776,0.8586032,1.6117451
471,1778588296.9847374,-1.3315763,0.084687866,-0.2208718,-1.7576864,-1.158475,2.9220204
472,1778588297.0051658,-1.9263439,0.4087959,-0.7822035,-1.2516857,-1.5952336,3.432282
473,1778588297.0259783,-1.9263439,0.4087959,-0.7822035,-1.2516857,-1.5952336,3.432282
474,1778588297.0469568,-0.50617474,0.5259434,-1.1395032,-1.3187973,-0.9827065,2.2386532
475,1778588297.0678506,0.6303999,1.1995413,1.1797727,-2.0256004,-1.7544906,1.8892465
476,1778588297.0888474,0.6303999,1.1995413,1.1797727,-2.0256004,-1.7544906,1.8892465
477,1778588297.1096601,-0.9025237,-1.0897156,-1.3418267,4.191283,-8.9285145,-1.2191951
478,1778588297.12989,-0.57329047,-1.1136333,-2.272661,0.7456851,-3.6964676,-1.1685951
479,1778588297.1510339,-0.4283205,-1.3733101,-1.1487775,-3.1510522,1.2895026,-0.5544701
480,1778588297.1717753,-0.033923957,-1.8455609,-1.5287746,-3.1872714,-1.051416,0.83729786
481,1778588297.1928184,0.54034275,-2.3710163,-0.63015586,-3.657053,-3.724697,2.7973845
