id,timestamp,acc_x,acc_y,acc_z,gyro_x,gyro_y,gyro_z
1,1778588257.0702426,-0.39415246,-0.16888762,-0.06613952,-1.1201255,5.0184608,-0.89801794
2,1778588257.0922313,-0.39415246,-0.16888762,-0.06613952,-1.1201255,5.0184608,-0.89801794
3,1778588257.1124933,-1.0894716,0.06467517,0.28969595,-1.9265307,-1.2900352,1.5520903
4,1778588257.1335454,-1.5070535,0.3756041,-1.1517061,-1.7465011,-3.7454698,2.5555694
5,1778588257.1547055,-1.5070535,0.3756041,-1.1517061,-1.7465011,-3.7454698,2.5555694
6,1778588257.1745057,-0.8776299,0.19793043,-1.0626253,-0.83996105,-3.2474587,3.3843453
7,1778588257.1964192,0.05027579,0.5281399,0.3660859,0.24394555,-1.2516857,2.97049
8,1778588257.2160816,3.3679898,-0.9942892,7.987262,0.64768076,6.6424565,1.7821875
9,1778588257.2370539,0.5845171,-0.6972716,1.0665302,1.7550232,2.0133498,0.28495824
10,1778588257.258584,-0.17035197,-0.60062486,-2.3912728,-0.39148468,-7.1031833,-1.0689929
11,1778588257.2787552,-0.2638259,-0.9117979,-1.6876558,-3.3587787,-0.9896307,-0.88683265
12,1778588257.2996948,-0.64211464,-1.7772248,-1.1392592,-3.869573,0.5901565,0.11664646
13,1778588257.3210008,-0.45199403,-2.3090258,-0.7485236,-3.0045784,-0.5954828,2.0256004
14,1778588257.3408523,-0.28115395,-2.548934,-0.6216138,-3.0045784,-0.5954828,2.0256004
15,1778588257.366275,0.21794313,-4.073804,0.80636513,-3.700196,-0.17576863,4.486361
16,1778588257.3850484,1.8506861,-3.295749,-0.42783237,-3.0961912,1.170193,4.5529404
17,1778588257.4048245,2.7278278,-2.4093332,-0.18987654,-3.6256275,-1.1419635,3.3822145
18,1778588257.425046,3.2588966,-1.1653733,1.0352908,-3.2341428,-4.8959556,1.0189254
19,1778588257.4459155,0.94962674,-0.12495731,1.4672722,-1.639442,-4.7713194,-0.33822146
20,1778588257.4670281,0.19426957,-0.7407138,-0.09200958,-0.38083205,0.9395633,1.510545
21,1778588257.487929,0.26114124,-0.6152683,0.5649925,-1.490305,0.9683254,2.4080303
22,1778588257.5085957,1.001367,-0.4127008,1.2146729,-1.0604708,1.041296,1.6937705
23,1778588257.5294366,1.457998,-0.45785138,0.485918,0.9395633,0.93423694,0.23595607
24,1778588257.5501401,1.1146095,-0.5264315,0.13935669,1.8780613,-0.11504856,-1.0088054
25,1778588257.5711567,0.48665017,-0.34290043,-0.12837411,1.834918,-0.19760656,-1.952097
26,1778588257.591705,0.06272271,0.14106509,0.58842206,1.4066817,0.30146983,-2.5023062
27,1778588257.612442,0.06272271,0.14106509,0.58842206,1.4066817,0.30146983,-2.5023062
28,1778588257.6332552,-0.13789235,0.079318605,-0.5400987,2.343582,3.8733015,-2.417085
29,1778588257.6540773,0.3682824,-0.36340126,-0.32459614,3.0104373,4.5630603,-2.441586
30,1778588257.6750293,1.7115735,-4.173379,1.6588572,2.7244139,7.659784,-3.8717036
31,1778588257.6959538,2.5469816,-6.167083,2.9897013,2.7244139,7.659784,-3.8717036
32,1778588257.7195616,1.5238935,-4.1504374,-0.5357057,5.8744006,-3.2884715,-3.5531895
33,1778588257.7382493,0.4829893,-1.3171769,-0.73510045,3.5201664,1.820537,-2.9278793
34,1778588257.7591972,0.4978768,-0.775858,-0.43661842,3.5201664,1.820537,-2.9278793
35,1778588257.7803097,0.4978768,-0.775858,-0.43661842,3.5201664,1.820537,-2.9278793
36,1778588257.8010976,-0.32679266,0.11226633,-0.017816179,-0.9805759,4.156662,-0.6508766
37,1778588257.8225312,-0.60184515,0.20988922,-0.12910628,-1.1680624,1.0828413,0.6593987
38,1778588257.8427877,-0.97500867,0.31190515,0.10079564,-1.7017599,-1.8125474,1.8706044
39,1778588257.8641229,-1.4091865,0.42978483,-0.86249834,-1.3608754,-2.9481194,3.316701
40,1778588257.8841019,-1.010397,0.3909797,-1.8965688,-1.1073424,-3.679956,4.000068
41,1778588257.9049392,-1.010397,0.3909797,-1.8965688,-1.1073424,-3.679956,4.000068
42,1778588257.9259832,0.13740423,0.43368974,0.06687169,-0.4676511,-0.72970617,3.2234902
43,1778588257.947017,1.4589742,-1.6700838,6.5124235,-1.9675435,7.942079,1.5126755
44,1778588257.9665797,1.4589742,-1.6700838,6.5124235,-1.9675435,7.942079,1.5126755
45,1778588257.9883947,-0.30800024,-0.6728658,-2.6160498,2.3803334,-9.414274,-1.0024139
46,1778588258.0092206,-0.43124917,-1.0499343,-1.9475769,-1.3171995,-5.656554,-1.2159994
47,1778588258.0304263,-0.72655845,-1.3586667,-1.0596966,-3.8530614,-1.9499665,-0.67324716
48,1778588258.0509353,-0.66700846,-1.5675796,-1.1014304,-3.7854173,-2.1544974,0.74728304
49,1778588258.0744312,0.008542004,-2.4200716,-0.25406358,-3.355583,-1.5765914,3.3768883
50,1778588258.0945802,0.17791773,-3.6681805,0.49763274,-2.838397,1.5488945,4.491688
51,1778588258.1142375,0.5876899,-3.8592772,0.12593354,-2.838397,1.5488945,4.491688
52,1778588258.1350055,3.2762244,-2.6101923,0.31532198,-5.0434947,-2.241849,2.0463731
53,1778588258.156129,3.1522434,-1.1153417,2.2402015,-2.876214,-4.96573,-0.45060685
54,1778588258.17702,0.7985553,-0.27041543,0.9967298,-0.091080114,-2.7957866,-0.85700524
55,1778588258.1977003,0.41562948,-0.47713193,0.018304294,-0.30519825,0.6508766,0.9827065
56,1778588258.2183397,-0.18109047,-0.3648656,0.5608435,-2.0271983,0.71106404,2.1177456
57,1778588258.2392595,0.6233222,-0.2865232,1.5087619,-0.8564726,1.7741979,1.4114754
58,1778588258.2596276,1.2954559,-0.3773125,0.53253293,1.5355787,0.3930826,-0.22370553
59,1778588258.2814817,0.95719254,-0.48103684,0.10177187,2.122007,-1.0253171,-1.5536882
60,1778588258.3019478,0.44027928,-0.3018988,-0.08175918,1.4663365,-0.9369001,-2.3915186
61,1778588258.3228478,-0.10006347,0.040513504,0.42807645,1.8024274,1.478587,-2.7728834
62,1778588258.3430886,-0.20842488,-0.0156196635,-0.47810817,2.5443842,3.8237667,-2.5129588
63,1778588258.3637524,-0.047103047,-0.08127106,-0.42807645,2.6818032,4.5007424,-2.172607
64,1778588258.3847227,0.88275504,-0.99111646,-0.6467517,3.5723643,4.807006,-2.551841
65,1778588258.4055622,3.8788018,-5.470299,3.0839074,2.8346686,6.87788,-3.6240296
66,1778588258.4277978,1.9424516,-6.441891,2.9321036,2.8554413,3.1931303,-6.4736123
67,1778588258.447966,1.2983845,-4.2024217,-0.2923806,6.2749405,-2.6093652,-3.3896716
68,1778588258.4688354,0.6347929,-1.9959,-1.304486,4.4075317,2.3936493,-2.873551
69,1778588258.4891589,0.4612682,-0.40781966,-0.3956168,2.469283,2.7606328,-1.3480922
70,1778588258.5094314,0.5767073,0.08297946,-0.6269831,0.8229168,3.6112466,-0.90973586
71,1778588258.5310738,-0.58256465,0.050763905,0.07224095,-0.80533993,4.5060687,-0.7680557
72,1778588258.5513585,-0.6782351,0.044418417,0.050763905,-1.4386396,0.79202414,0.2695119
73,1778588258.5729473,-1.0306537,0.13764828,0.09298581,-1.7092168,-2.7984498,1.4823155
74,1778588258.59329,-1.5631866,0.31947094,-1.2027141,-1.0205233,-3.1856732,4.078365
75,1778588258.6137807,-1.3957634,0.38512233,-1.9592916,-1.0205233,-3.1856732,4.078365
76,1778588258.6343834,-0.3338703,0.041977845,-0.6879974,-0.24660872,-1.3432984,3.861051
77,1778588258.6562493,0.12032023,0.22575295,0.06760386,-0.24660872,-1.3432984,3.861051
78,1778588258.6762834,1.6315227,0.21184167,3.516865,-1.0498182,3.6474655,2.6221485
79,1778588258.6971262,-0.13569583,-0.383658,-0.5718261,2.8032434,-9.049954,-1.572863
80,1778588258.7181962,-0.20403185,-0.4046469,-1.7120615,2.8032434,-9.049954,-1.572863
81,1778588258.7391045,-0.5095915,-0.95377576,-1.3994243,-3.483415,-0.78936094,-1.5622103
82,1778588258.7595892,-0.7487676,-1.2722704,-0.8925173,-3.96811,-0.70680296,-0.32756883
83,1778588258.7818434,-0.83858067,-1.4841121,-0.7834238,-3.96811,-0.70680296,-0.32756883
84,1778588258.8025765,-0.6118515,-3.7924054,1.0387076,-2.8261466,-3.5622444,3.3475935
85,1778588258.8232348,-0.106164895,-4.0022945,0.6203935,-2.5731463,3.8674426,4.980111
86,1778588258.8431852,0.77317333,-4.0918636,0.16937573,-2.9193573,1.3342438,4.859204
87,1778588258.864887,3.358716,-2.5689466,-0.15619664,-4.6770434,-2.7798076,3.6336172
88,1778588258.8853405,3.358716,-2.5689466,-0.15619664,-4.6770434,-2.7798076,3.6336172
89,1778588258.906548,2.7139168,-0.37755656,1.5792944,-0.660464,-5.5127435,-1.1531488
90,1778588258.926999,0.99502134,0.30800024,0.84785485,0.25726137,-0.97471696,1.0791129
91,1778588258.9477155,0.485918,-0.41684976,-0.13935669,-1.4663365,2.2855248,2.6141589
92,1778588258.967779,0.25284332,-0.22331238,1.4992436,-2.595517,2.2530344,2.1528995
93,1778588258.990429,1.2119883,-0.55401,1.4130914,0.3568636,1.4982945,0.082025364
94,1778588259.0105548,0.8829991,-0.44271985,0.17889395,1.9297266,0.58429754,-1.6426378
95,1778588259.0316007,0.5662128,-0.30580372,-0.03807293,1.9457055,0.42983422,-2.3446472
96,1778588259.0521717,-0.058817793,-0.08297946,0.14570218,1.5014902,1.0535465,-2.763296
97,1778588259.073477,-0.36803833,-0.031239327,-0.2933568,2.15503,4.076767,-2.126268
98,1778588259.092869,-0.3568117,-0.047347106,-0.3734076,2.15503,4.076767,-2.126268
99,1778588259.1150422,0.4881145,-0.6489482,-0.58988637,3.459979,5.0434947,-2.3036344
100,1778588259.1352725,0.4881145,-0.6489482,-0.58988637,3.459979,5.0434947,-2.3036344
101,1778588259.1561627,2.9303954,-6.2683663,3.9241965,3.9931438,0.30466563,-4.588627
102,1778588259.1757576,1.1870944,-4.0518384,-0.5789038,6.516755,-2.3718114,-2.5747442
103,1778588259.1980019,1.1870944,-4.0518384,-0.5789038,6.516755,-2.3718114,-2.5747442
104,1778588259.2182732,0.79660285,-0.39293218,-0.6662763,2.241849,2.6146915,-1.0583402
105,1778588259.2395453,0.8876362,-0.057841565,-0.6811638,0.505468,3.9926112,-1.27885
106,1778588259.2601516,-0.21574661,0.11251039,-0.071264714,-0.34780884,3.073288,-0.7286409
107,1778588259.2809215,-0.5725583,0.14423785,-0.11519502,-0.98856544,0.45806372,0.49215218
108,1778588259.3021183,-1.087031,0.17352471,-0.08444381,-1.7113473,-1.6708673,1.9329224
109,1778588259.3230202,-1.4172405,0.23185438,-1.0828819,-1.6239957,-0.5965481,3.303385
110,1778588259.3440192,-1.4172405,0.23185438,-1.0828819,-1.6239957,-0.5965481,3.303385
111,1778588259.3649557,-0.54888475,0.16010156,-1.4911898,-1.7880464,-3.2533176,3.5910065
112,1778588259.385661,-0.019768637,0.13496366,-0.14008886,-1.1329087,-3.3944652,3.4732947
113,1778588259.4057906,-0.019768637,0.13496366,-0.14008886,-1.1329087,-3.3944652,3.4732947
114,1778588259.426964,0.26211748,-0.68994987,-0.020012695,3.351322,-3.1425302,-0.16884442
115,1778588259.447388,0.26211748,-0.68994987,-0.020012695,3.351322,-3.1425302,-0.16884442
116,1778588259.468304,-0.31507793,-1.057256,-1.6451898,-0.99442434,-2.7190876,-1.7182716
117,1778588259.4894505,-0.6723777,-1.2551864,-0.81466305,-3.2288165,0.70200926,-1.1920309
118,1778588259.5100167,-0.5435155,-1.4221216,-1.0313859,-3.0929954,-1.2410331,0.6125271
119,1778588259.5309215,0.27993366,-2.1616151,-0.7080101,-3.6836846,-1.9968382,2.117213
120,1778588259.5516832,0.5103237,-3.3867826,1.099966,-4.568919,-3.025351,3.0418627
121,1778588259.573382,2.430078,-3.8734326,-1.0933765,-3.228284,-2.6903255,3.5776906
122,1778588259.5933266,3.1024559,-3.6345007,-1.138283,-2.5076325,0.023435818,2.5262747
123,1778588259.6146672,2.2011523,-0.822717,1.9180459,-3.5361454,-3.9606533,-0.5342301
124,1778588259.6349235,0.86615914,-0.09835507,1.8372629,-0.6498113,-1.5281218,0.8586032
125,1778588259.655879,0.86615914,-0.09835507,1.8372629,-0.6498113,-1.5281218,0.8586032
126,1778588259.676596,-0.06638357,-0.70093244,-0.07150877,-1.6580842,0.3834952,1.9718045
127,1778588259.6974247,-0.06638357,-0.70093244,-0.07150877,-1.6580842,0.3834952,1.9718045
128,1778588259.7191045,1.3491484,-0.19329333,1.551472,1.4519554,0.44847634,0.28975195
129,1778588259.7393055,1.0008788,-0.51788944,0.17620933,2.7031085,-1.383246,-0.6087986
130,1778588259.7600281,0.63235235,-0.43368974,-0.1849954,2.6296053,-1.1914983,-1.3896375
131,1778588259.781083,0.24967057,-0.028554698,-0.27529657,1.4311827,-0.41545314,-1.8977686
132,1778588259.8018136,0.021477038,0.20354374,0.34168017,1.7353158,2.705239,-2.1283984
133,1778588259.8234591,-0.0873725,0.10836142,-0.2818861,2.0943098,4.332963,-1.9238676
134,1778588259.8431814,0.1403329,0.012690976,-0.19158493,2.999252,4.0661144,-1.9973708
135,1778588259.8641126,0.46492904,-0.56596875,-0.54156303,4.495949,3.5196338,-2.4825988
136,1778588259.884823,4.2182856,-6.6429944,4.1140733,1.8343854,8.484832,-3.6836846
137,1778588259.9055297,2.8234982,-7.3546653,4.109192,2.8708878,1.4855113,-5.8983693
138,1778588259.9263809,0.5630401,-1.8892472,-1.2627522,6.053898,-2.2967103,-3.8434741
139,1778588259.947573,0.48274526,-1.2163813,-1.0716554,3.510579,2.8527782,-2.7888622
140,1778588259.9681036,1.078489,-0.10884953,-0.8266219,1.8338528,4.2008705,-1.222391
141,1778588259.9890196,0.30336314,-0.17669745,-0.22746135,-0.03195793,5.596367,-1.3598101
142,1778588260.0097854,-0.40147418,-0.18987654,-0.06687169,-0.8724516,3.2820797,-0.8527442
143,1778588260.0305731,-0.40147418,-0.18987654,-0.06687169,-0.8724516,3.2820797,-0.8527442
144,1778588260.0512516,-1.3388981,0.105676785,-0.29067218,-1.9563582,-1.8551581,2.0980384
145,1778588260.072503,-1.3069266,0.29189247,-1.5573293,-1.5020229,-1.5515577,4.51246
146,1778588260.0927327,-0.58329684,0.38927132,-1.8323817,-1.5020229,-1.5515577,4.51246
147,1778588260.114014,-0.4249037,0.21257387,-1.39796,-1.5840483,-2.88953,4.0458746
148,1778588260.134572,-0.4249037,0.21257387,-1.39796,-1.5840483,-2.88953,4.0458746
149,1778588260.155437,2.634598,-0.9818423,7.987262,-1.6729978,4.3457465,1.397627
150,1778588260.1765907,-0.33704305,-0.63162017,-1.743545,2.7387948,-7.609184,-1.2378373
151,1778588260.1973796,-0.39146784,-1.0972813,-2.5128136,-2.3276029,-3.9457395,-1.2341089
152,1778588260.217655,-0.39146784,-1.0972813,-2.5128136,-2.3276029,-3.9457395,-1.2341089
153,1778588260.2387254,-0.58378494,-1.5177921,-1.3789234,-3.6820867,-3.8908784,0.85327685
154,1778588260.2597942,-0.5298483,-1.6940014,-1.483624,-3.6820867,-3.8908784,0.85327685
155,1778588260.2808673,-0.30677995,-1.8892472,-0.48957884,-3.0099046,-2.245045,3.089267
156,1778588260.301111,0.006833603,-3.9124818,0.55815893,-1.6836505,3.6117792,5.0232544
157,1778588260.3227513,3.036072,-3.4224148,-0.72753465,-4.3382893,-0.8064052,4.102866
158,1778588260.3429832,3.7021043,-2.446918,0.38951537,-4.5369616,-3.8903458,1.6218652
159,1778588260.3639352,3.7021043,-2.446918,0.38951537,-4.5369616,-3.8903458,1.6218652
160,1778588260.3846967,0.62014943,0.32239962,1.103871,-0.36911413,-4.6317697,-1.8743328
161,1778588260.4053035,0.3385074,-0.49812084,-0.5037342,-0.4394216,1.5435683,1.5579493
162,1778588260.4261606,0.3385074,-0.49812084,-0.5037342,-0.4394216,1.5435683,1.5579493
163,1778588260.4468637,0.48957884,-0.31751847,1.3862451,-1.9302592,1.2538162,1.865278
164,1778588260.4675999,0.48957884,-0.31751847,1.3862451,-1.9302592,1.2538162,1.865278
165,1778588260.488275,0.66090703,-0.2757847,0.10201593,2.047971,0.6130597,-1.139833
166,1778588260.5094054,0.3402158,-0.18768002,0.07590181,1.75236,0.21678132,-2.108691
167,1778588260.5303333,0.3402158,-0.18768002,0.07590181,1.75236,0.21678132,-2.108691
168,1778588260.5510669,-0.06687169,-0.016107777,-0.38487828,2.564624,2.8671594,-2.3670175
169,1778588260.5720735,0.5293602,-0.43491003,-0.18963248,3.820571,4.167847,-2.417085
170,1778588260.5929406,1.0440769,-1.1902672,-0.74242216,3.9201732,5.6879797,-3.3720946
171,1778588260.6135366,1.5927176,-2.8239865,0.060038086,3.9201732,5.6879797,-3.3720946
172,1778588260.6340823,2.9430861,-6.7520876,3.76922,1.3187973,7.0973244,-5.7151437
173,1778588260.6552267,0.9135063,-2.7004936,-1.4362769,5.75083,0.36751625,-3.035471
174,1778588260.6758773,0.5867136,-1.138527,-0.94279313,3.0450585,2.7324033,-1.984055
175,1778588260.6966383,0.83858067,-0.24283697,-0.65675807,1.5824504,2.5198832,-0.99762017
176,1778588260.7175846,0.9530435,-0.14887492,-0.6962953,1.5824504,2.5198832,-0.99762017
177,1778588260.7391624,-0.4556549,-0.010982576,0.017328065,-0.8330368,2.346245,-0.17257284
178,1778588260.7594388,-0.7053254,0.04881145,-0.07834238,-1.5313177,-1.2085425,1.0950918
179,1778588260.779961,-1.3838046,0.17279254,0.2306341,-1.7571537,-1.9808593,2.654639
180,1778588260.8005173,-1.5317032,0.20671648,-0.46322066,-1.2655342,-0.64714813,4.1209755
181,1778588260.821907,-0.7192367,0.30165476,-1.9822329,-1.1488878,-1.5451661,4.588627
182,1778588260.8426387,-0.7192367,0.30165476,-1.9822329,-1.1488878,-1.5451661,4.588627
183,1778588260.863557,0.6633476,0.42783237,0.32020313,-0.6135923,-0.56618804,3.4562504
184,1778588260.8841975,4.9070153,-0.22135992,7.987262,1.9600866,0.7275756,-0.10173275
185,1778588260.9047606,-0.30946457,-0.2723679,-0.946454,1.7901769,-8.918394,-1.6879115
186,1778588260.9255276,-0.5876899,-0.7385172,-1.227852,-0.034088463,-7.278952,-2.1427794
187,1778588260.946924,-0.6382097,-0.77732235,-0.9127741,-2.6620958,0.47297743,-1.6490294
188,1778588260.9671204,-0.87274873,-1.4479916,-1.1997855,-2.8442562,-0.50387007,-0.39787626
189,1778588260.988264,-0.45760733,-1.7679508,-1.380876,-2.793656,-2.0714068,1.582983
190,1778588261.0089738,0.031239327,-2.1765025,-0.9447456,-3.200587,-1.9616845,3.0232205
191,1778588261.029793,0.52203846,-2.8945189,-0.44784504,-3.3230925,-1.9973708,3.482882
192,1778588261.0506737,2.763216,-4.332748,-0.5191097,-3.3997915,0.47351006,3.4754252
193,1778588261.0714958,3.508079,-2.9001322,-0.06931226,-4.1124535,0.06018744,2.1518342
194,1778588261.092484,2.4444773,-0.5232587,1.7886956,-3.5334823,-2.6578348,0.7813715
195,1778588261.113491,0.6152683,-0.3441207,0.26626647,-0.26738137,-1.0849719,1.3891048
196,1778588261.1337585,0.5444917,-0.6299118,-0.13960074,-0.26738137,-1.0849719,1.3891048
197,1778588261.1550999,0.5444917,-0.6299118,-0.13960074,-0.26738137,-1.0849719,1.3891048
198,1778588261.175966,0.2848148,-0.29530928,1.5529363,-1.9563582,1.0988203,2.3995082
199,1778588261.1968968,1.3586667,-0.28798756,0.524479,2.036253,0.014913702,-0.013848438
200,1778588261.2174356,0.7670719,-0.38731885,-0.05832968,2.3979104,-0.79415464,-1.0104034
201,1778588261.2382915,0.59964865,-0.33484653,-0.14594623,2.3979104,-0.79415464,-1.0104034
202,1778588261.2590218,0.21599068,0.119588055,0.31873876,1.3241237,0.051132694,-2.0698087
203,1778588261.2798402,0.071020655,0.21574661,0.5183776,1.3241237,0.051132694,-2.0698087
204,1778588261.3005059,0.22697324,0.0053692595,-0.2923806,2.6296053,3.865312,-2.176868
205,1778588261.3219156,0.541319,-0.2626056,-0.20061506,3.9750342,5.139901,-2.7105653
206,1778588261.3421571,0.93107843,-1.2378583,0.0776102,3.9750342,5.139901,-2.7105653
207,1778588261.3631585,1.7445213,-6.625666,2.9352765,2.3078954,3.1302795,-6.1108894
208,1778588261.3837655,1.0518868,-6.258604,1.5309712,5.7827883,-3.4882085,-4.902347
209,1778588261.4051192,0.58280873,-1.2439598,-0.86567104,4.459197,0.92944324,-3.6400087
210,1778588261.4252396,0.822717,-0.28408262,-0.7404697,2.2706113,2.763296,-1.9995013
211,1778588261.4462667,0.822717,-0.28408262,-0.7404697,2.2706113,2.763296,-1.9995013
212,1778588261.4667425,-0.20671648,-0.14716652,-0.0924977,-1.0098706,5.8227353,-0.7946873
213,1778588261.4880254,-0.6125837,-0.03929322,-0.016351834,-1.3843112,2.5049694,0.35420042
214,1778588261.508603,-1.0550594,0.17645338,0.20476402,-1.8194717,-1.506284,1.768339
215,1778588261.5297577,-1.4804512,0.43027294,0.005857374,-1.649562,-3.1766186,3.1819448
216,1778588261.5502696,-1.4804512,0.43027294,0.005857374,-1.649562,-3.1766186,3.1819448
217,1778588261.5712714,-0.52496713,0.0605262,-1.4782547,-0.24074976,-2.2466428,4.056527
218,1778588261.5913808,-0.37023485,0.10323621,-1.0841023,0.14966966,-1.7411747,3.2341428
219,1778588261.6129873,2.1733298,-1.5392691,7.987262,-2.0437098,2.786199,1.8764633
220,1778588261.6337547,0.11543907,-0.87201655,1.2036903,3.9414785,-7.9665804,-1.0258497
221,1778588261.6545272,0.11543907,-0.87201655,1.2036903,3.9414785,-7.9665804,-1.0258497
222,1778588261.6749747,-0.5344854,-1.0426126,-2.7361257,0.9917612,-7.3055835,-0.8511463
223,1778588261.696946,-0.58036816,-1.2927712,-1.001611,-3.8056574,-2.0287962,0.8607337
224,1778588261.7165453,-0.42246306,-1.7667305,-1.2595794,-3.1680965,-2.3526366,1.8572886
225,1778588261.7377386,-0.16888762,-1.9844296,-0.8956901,-2.9465215,-2.6029737,2.6695528
226,1778588261.7585168,-0.2443013,-3.5112517,0.8793382,-2.7324033,-2.3558323,2.9768815
227,1778588261.779453,0.7167961,-4.461611,0.42441553,-3.5254927,2.5816684,3.7188382
228,1778588261.8000116,0.7167961,-4.461611,0.42441553,-3.5254927,2.5816684,3.7188382
229,1778588261.8208723,3.7562852,-2.0749748,1.0006347,-3.9910133,-3.991546,0.8293084
230,1778588261.8416088,2.055694,-0.11202228,1.8963249,-1.1158645,-5.58891,-0.96566224
231,1778588261.8625703,0.5125202,-0.27651685,0.13667206,-0.0005326322,-0.4660532,0.628506
232,1778588261.883473,-0.011714748,-0.50690687,-0.2923806,-1.3747238,2.0005667,1.6367788
233,1778588261.9043717,-0.22233616,-0.44418418,0.19939478,-1.3747238,2.0005667,1.6367788
234,1778588261.9249096,1.091668,-0.28237423,0.6550496,0.4676511,1.8093517,0.6151902
235,1778588261.946111,0.9654905,-0.44686884,0.11177822,2.0921793,0.020772656,-0.67218184
236,1778588261.966507,0.9654905,-0.44686884,0.11177822,2.0921793,0.020772656,-0.67218184
237,1778588261.9879792,0.19402552,-0.099819414,-0.09615856,1.6948358,-0.25193503,-2.0096214
238,1778588262.0083263,-0.012690976,0.08786061,-0.10470056,1.8013622,1.3177321,-2.1081583
239,1778588262.0294778,0.026358182,0.1010397,-0.45785138,2.2913837,3.2027175,-1.9760655
240,1778588262.0494406,0.38927132,-0.11373068,-0.25772443,2.777677,4.094344,-2.21575
241,1778588262.0704343,0.9188756,-1.0513986,-0.19402552,3.7630467,5.009406,-3.035471
242,1778588262.0915751,3.269879,-5.252356,3.0638947,2.8234835,6.42461,-4.252536
243,1778588262.1130552,1.8475134,-4.3244505,-0.5530337,2.9710226,1.1227888,-6.7452545
244,1778588262.1335416,1.3137602,-2.855958,-1.3152245,5.9835906,-3.83655,-4.356399
245,1778588262.154371,0.58842206,-1.1238836,-0.93376297,3.96811,1.1558119,-3.7758298
246,1778588262.1749895,0.36364532,0.2638259,-0.5361938,-0.035153728,4.9795785,-1.010936
247,1778588262.1959558,0.19500175,0.26236153,-0.37023485,-0.035153728,4.9795785,-1.010936
248,1778588262.216692,-0.53643787,0.015375607,-0.20671648,-1.4801849,1.700162,0.9576728
249,1778588262.2374716,-1.1773322,0.14741059,0.10006347,-1.7417074,-2.082592,2.3355923
250,1778588262.2581797,-1.6451898,0.25430766,-0.029286869,-1.5291871,-3.956925,3.8983352
251,1778588262.278951,-1.4714211,0.38707477,-1.7506226,-1.3736585,-4.3840957,4.6062036
252,1778588262.2997718,-0.8537123,0.18987654,-1.1775762,-0.561927,-2.4240093,3.913249
253,1778588262.3213916,-0.045638707,0.44320798,0.23356278,0.49002165,1.0711234,2.9177594
254,1778588262.341539,0.6286915,0.30385128,0.6047739,-1.1195929,9.520802,1.4668691
255,1778588262.3623185,0.49348375,-0.89617825,1.6778935,2.4133565,-3.2133703,-0.4511395
256,1778588262.3828156,-0.27407628,-0.45394647,-1.5746574,2.0469058,-11.072891,-0.9331717
257,1778588262.4038668,-0.383658,-0.67530644,-2.6963444,-0.91985583,-5.4749265,-1.0583402
258,1778588262.4249218,-0.61892915,-1.1565872,-0.8139309,-3.7614489,0.5091964,-0.41438788
259,1778588262.4457965,-0.50593066,-2.0932791,-0.9686632,-3.3859432,0.19760656,0.7845673
260,1778588262.4662015,-0.3141017,-2.3302586,-0.9884319,-2.8815403,-0.9166601,2.4501083
261,1778588262.4872732,0.32166746,-3.6454833,-0.07541369,-3.2581112,-2.07407,3.496198
262,1778588262.5077174,0.29652956,-3.8565927,0.5339973,-3.8647795,-0.727043,4.3095274
263,1778588262.5299945,2.8144681,-2.476937,0.29189247,-3.6490633,0.63010395,3.4796863
264,1778588262.5497253,3.158589,-1.6700838,0.87348086,-4.1225734,-2.9364014,1.7411747
265,1778588262.5705366,2.7529657,-0.76853627,1.5375606,-2.2311964,-5.3012886,-0.5320996
266,1778588262.5917406,0.5942794,-0.018060237,0.68311626,-0.4250405,-3.5542548,-0.74941355
267,1778588262.6122518,-0.0656514,-0.70971847,0.22892569,-0.8159926,0.9502159,1.8535602
268,1778588262.6329331,0.010982576,-1.0428566,1.649339,-2.3904533,1.6229304,2.5928538
269,1778588262.6538763,1.6037002,-0.51398456,0.42197496,2.308428,0.31638354,0.406931
270,1778588262.6746933,1.6037002,-0.51398456,0.42197496,2.308428,0.31638354,0.406931
271,1778588262.6954749,0.6047739,-0.25845662,-0.31727442,1.9899141,0.04314321,-1.7912422
272,1778588262.7161124,0.47542354,-0.16644704,-0.2997023,1.9899141,0.04314321,-1.7912422
273,1778588262.736934,0.008297946,0.07809832,-0.44735694,1.3598101,2.973153,-2.6530411
274,1778588262.757921,0.15717287,-0.04075756,-0.05027579,2.038916,3.9670448,-2.6056368
275,1778588262.7788,0.15717287,-0.04075756,-0.05027579,2.038916,3.9670448,-2.6056368
276,1778588262.7994025,0.48738232,-3.091473,1.0477377,5.2453623,7.926633,-2.9752836
277,1778588262.820475,1.3991802,-4.535804,1.9885784,5.2453623,7.926633,-2.9752836
278,1778588262.841063,1.4404259,-5.0881057,0.83858067,5.069061,-4.3979445,-3.1894019
279,1778588262.8622754,0.74364245,-2.2641191,-1.1492655,4.6525426,-0.46392268,-3.119627
280,1778588262.8829103,0.53106856,-1.4243181,-0.7721971,4.6525426,-0.46392268,-3.119627
281,1778588262.904105,0.22648512,0.12154051,-0.5022698,0.5432849,4.3366914,-2.0815268
282,1778588262.9246714,-0.5464442,0.091033354,-0.13154685,-0.79415464,4.0804954,-1.0173275
283,1778588262.9456642,-0.72070104,0.029774986,-0.27651685,-1.1132014,1.3747238,0.7302388
284,1778588262.9660323,-1.2439598,0.07004443,0.15839316,-1.8530275,-1.0902982,1.9845877
285,1778588262.9867656,-1.5912533,0.23429495,-0.4834774,-1.7315874,-2.5987127,3.026949
286,1778588263.0075612,-1.0067362,0.5588911,-1.381364,-1.9068234,-3.4226947,3.824832
287,1778588263.0287385,-0.7721971,0.47835222,-1.2510375,-1.4487597,-2.13479,3.5878108
288,1778588263.049389,0.18548352,0.3973252,0.35974038,-0.5294364,-0.5161206,3.2032502
289,1778588263.0700881,4.263924,-0.97134787,7.987262,0.18748654,4.2759714,2.3707461
290,1778588263.090833,4.263924,-0.97134787,7.987262,0.18748654,4.2759714,2.3707461
291,1778588263.1118367,-0.0924977,-1.0982577,-1.9395229,0.6018744,-8.588695,-1.3800501
292,1778588263.1328983,-0.4742032,-1.0638455,-0.7812273,-3.522297,-2.4612935,-1.3789848
293,1778588263.153419,-0.7963588,-1.4540931,-0.64260274,-3.1627703,-1.8365159,-0.48363006
294,1778588263.1741998,-0.52960426,-1.7218238,-1.3374337,-1.988316,-3.299124,1.4125407
295,1778588263.1958961,-0.5632841,-3.1876316,1.2461562,-3.3023198,0.20559604,4.1923485
296,1778588263.215634,0.69214636,-3.440475,0.50495446,-2.9859362,2.763296,4.9273806
297,1778588263.2365627,1.8841219,-3.7792265,-0.41196862,-3.252785,-0.63862604,3.8679752
298,1778588263.257413,3.4382787,-2.9582179,-0.5649925,-4.369182,-2.4362597,1.5387745
299,1778588263.2784708,3.3662815,-1.513643,1.2715383,-4.369182,-2.4362597,1.5387745
300,1778588263.3007314,0.7382732,-0.07272906,1.6134624,-0.77924097,-2.2807312,0.26525086
301,1778588263.3194366,0.38121742,-0.60916686,-0.067847915,-0.56459016,2.1672804,1.4146712
302,1778588263.3400414,0.38121742,-0.60916686,-0.067847915,-0.56459016,2.1672804,1.4146712
303,1778588263.3608599,-0.4583395,-0.21550256,1.6390884,-1.2665994,0.9938917,1.9451729
304,1778588263.3813376,0.25796852,-0.4300289,1.6034561,-1.2665994,0.9938917,1.9451729
305,1778588263.402792,0.7665838,-0.34631723,-0.077122085,2.2386532,-1.274589,-0.53529537
306,1778588263.4233358,0.5964759,-0.28920785,-0.20671648,1.937716,-1.9691414,-1.3859091
307,1778588263.4442556,0.5964759,-0.28920785,-0.20671648,1.937716,-1.9691414,-1.3859091
308,1778588263.4647038,0.1786499,0.08005078,-0.48103684,1.9164108,1.5504924,-2.12467
309,1778588263.485756,0.48542988,-0.053204484,-0.36388937,2.040514,4.026167,-2.1614215
310,1778588263.5063763,1.0247964,-0.72485006,-0.16522676,2.773416,5.969209,-2.5262747
311,1778588263.5271466,1.3899059,-1.5792944,1.0077124,4.1699777,5.5212655,-3.0940607
312,1778588263.5482862,2.0871775,-6.527555,2.1367211,3.652259,2.3409185,-5.0072756
313,1778588263.5685544,0.6047739,-6.104116,0.8912971,3.8227015,-1.0700581,-7.0291476
314,1778588263.5896027,1.2690977,-3.9400604,-0.25650415,4.8331046,-1.5904398,-4.412858
315,1778588263.6106112,0.59842837,-0.5208182,-0.48665017,2.9433258,1.6532904,-3.294863
316,1778588263.6309958,0.69385475,-0.09835507,-0.6452874,1.4215955,3.0141659,-1.6612799
317,1778588263.6532726,-0.2860351,-0.26919514,-0.12202863,-1.1994878,3.5313516,-0.406931
318,1778588263.6737216,-0.6555378,-0.17328064,-0.0993313,-1.1994878,3.5313516,-0.406931
319,1778588263.6947467,-0.80587703,-0.088104665,-0.0388051,-1.5078819,0.8175905,1.0396981
320,1778588263.7153392,-1.3960074,0.5400987,-0.27871338,-1.3518206,-2.8671594,3.9808934
321,1778588263.736109,-1.3589108,0.70410514,-0.67042524,-1.3518206,-2.8671594,3.9808934
322,1778588263.7572231,-0.31239328,0.13667206,-1.189047,-0.38083205,-0.34461305,4.0911484
323,1778588263.7779295,0.018060237,0.19475769,-0.40903994,-0.091080114,1.3443637,3.2240229
324,1778588263.7985625,0.22013964,0.28432667,-0.0034168016,-0.091080114,1.3443637,3.2240229
325,1778588263.8199677,0.46932206,-0.7465711,0.98330665,2.5406556,-5.519135,-1.0588728
326,1778588263.8402362,-0.5662128,-0.5872018,-1.6988826,2.5406556,-5.519135,-1.0588728
327,1778588263.8614953,-0.95646036,-0.89007676,-1.300093,-2.3659523,0.65886605,-1.1883025
328,1778588263.8821566,-0.65212095,-1.253478,-1.0125935,-3.097789,0.8271778,-0.39254996
329,1778588263.9032514,-0.65212095,-1.253478,-1.0125935,-3.097789,0.8271778,-0.39254996
330,1778588263.9236152,-0.045882765,-2.4188514,-1.027481,-4.138552,-2.9097698,1.4966966
331,1778588263.9447694,0.15229172,-2.477425,-0.6897058,-4.0501356,-4.1470747,2.082592
332,1778588263.9654806,0.86982006,-4.2805204,0.24015234,-1.568602,0.9331717,3.0567763
333,1778588263.9863853,2.9692004,-3.334066,-0.7812273,-3.1286817,0.1667139,2.8948562
334,1778588264.0071518,2.9692004,-3.334066,-0.7812273,-3.1286817,0.1667139,2.8948562
335,1778588264.0279605,2.830088,-0.44686884,1.9043787,-2.2567627,-5.2421665,-0.101200126
336,1778588264.048538,1.3169329,0.23331872,1.292283,-2.2567627,-5.2421665,-0.101200126
337,1778588264.0693233,0.3738957,-0.50763905,-0.14594623,0.046339005,0.9305085,2.1603563
338,1778588264.0903192,0.059305906,-0.43466598,0.5034901,-1.7108147,2.4559672,2.4080303
339,1778588264.1114547,0.059305906,-0.43466598,0.5034901,-1.7108147,2.4559672,2.4080303
340,1778588264.1322405,1.0509106,-0.29164842,0.17889395,1.7779263,0.26525086,0.15233281
341,1778588264.153069,1.0509106,-0.29164842,0.17889395,1.7779263,0.26525086,0.15233281
342,1778588264.1736953,0.37584817,0.12129646,0.31507793,1.4088123,-0.0479369,-1.0764498
343,1778588264.1947238,-0.051740136,0.12935033,-0.09786696,2.1720743,1.6069515,-2.1747375
344,1778588264.2152991,-0.051740136,0.12935033,-0.09786696,2.1720743,1.6069515,-2.1747375
345,1778588264.236227,0.36096066,-0.3372871,-0.29506522,3.0178943,2.8687572,-2.320146
346,1778588264.2569888,0.6706693,-0.8768977,-0.55010504,3.9254994,3.6442697,-2.8740835
347,1778588264.2781518,2.9860406,-5.2411294,2.4147024,3.6000612,7.9431443,-4.1923485
348,1778588264.2985444,2.2624106,-7.180652,3.1173432,3.5084486,-0.850081,-6.8917284
349,1778588264.3198876,1.2202863,-3.3279648,-1.3647681,5.5516257,-3.2783513,-4.357997
350,1778588264.340017,0.3372871,-1.5668476,-1.0950848,3.144128,2.5816684,-3.371562
351,1778588264.3610363,0.8351639,-0.268463,-0.5852493,1.6735305,3.196326,-1.973935
352,1778588264.3820543,0.58891016,-0.014887493,-0.6745742,0.09374327,5.485047,-1.7550232
353,1778588264.4027386,-0.5127643,-0.17962612,-0.102259986,-0.8223842,4.4629254,-0.8223842
354,1778588264.423075,-0.7365648,-0.1901206,-0.13960074,-1.284709,0.53103435,0.7302388
355,1778588264.4443095,-1.4172405,0.08029483,0.10982577,-1.8194717,-2.6237464,2.2194786
356,1778588264.4649575,-1.4172405,0.08029483,0.10982577,-1.8194717,-2.6237464,2.2194786
357,1778588264.4858944,-0.9266854,0.4085518,-1.5051011,-0.97258645,-3.4669032,4.0645165
358,1778588264.506653,-0.28261828,0.29555333,-0.35315084,-0.08841695,-1.8301244,3.7294908
359,1778588264.5274613,-0.28261828,0.29555333,-0.35315084,-0.08841695,-1.8301244,3.7294908
360,1778588264.5482514,0.91399443,-1.1024066,3.1795778,-1.7049558,9.813216,1.216532
361,1778588264.5691626,-0.29164842,-0.31947094,-1.6852154,3.3129725,-6.3500414,-1.0812434
362,1778588264.5901186,-0.49250755,-0.6386978,-2.6716948,0.99442434,-10.502442,-1.2879047
363,1778588264.610859,-0.47737598,-0.6894617,-1.8555672,-3.0967238,-2.67914,-0.92731273
364,1778588264.631566,-0.70337296,-1.2974083,-0.6816519,-4.2951465,0.56245965,-0.28229508
365,1778588264.6520264,-0.86225426,-1.790648,-0.85493255,-3.4418695,-0.22849922,0.7462177
366,1778588264.672929,-0.2853029,-3.0382686,-0.80465674,-3.0621028,-3.4477284,2.4362597
367,1778588264.6944313,-0.835408,-4.2409825,0.78366786,-3.0519826,-4.615791,3.4983284
368,1778588264.7143683,1.2568948,-4.2646565,-0.3184947,-2.378203,2.6093652,4.6466837
369,1778588264.735275,3.3909314,-2.8322842,0.345341,-4.9582734,-1.7358484,2.5806031
370,1778588264.7562635,3.3265002,-1.1573195,1.4025971,-2.6626284,-6.946057,-0.57417756
371,1778588264.7776284,1.7762486,-0.20696054,1.4755701,-0.53103435,-5.1127367,-1.5664713
372,1778588264.7982256,0.31361356,-0.19353738,0.029530926,-0.36804888,2.0809941,1.3539511
373,1778588264.8190942,0.25845662,-0.58378494,-0.07150877,-2.0335898,2.6045716,2.5092304
374,1778588264.839584,0.25845662,-0.58378494,-0.07150877,-2.0335898,2.6045716,2.5092304
375,1778588264.8604565,0.8390688,-0.307024,1.04066,0.76592517,1.5270566,1.778459
376,1778588264.8812418,0.9650024,-0.40440285,0.024161667,1.73212,0.76272935,0.11025487
377,1778588264.9025352,0.65090066,-0.29701766,-0.10958171,1.7475663,0.77870834,-1.1941614
378,1778588264.9229712,0.41294485,-0.0690682,0.009274175,1.7475663,0.77870834,-1.1941614
379,1778588264.9440622,-0.3077562,0.019280521,-0.29530928,2.3973777,1.7310548,-2.23599
380,1778588264.9650168,-0.23331872,-0.040513504,-0.23527117,2.718555,2.7712855,-1.7981664
381,1778588264.9858716,0.5635282,-0.93620354,0.18792409,3.3305492,2.8016455,-1.7928401
382,1778588265.0061262,0.98525906,-1.9212188,0.40635532,4.6738477,4.688229,-2.1885858
383,1778588265.0274143,3.3057554,-5.2767615,2.0903504,4.5795717,9.522932,-4.286624
384,1778588265.0479484,0.5691415,-5.3065367,0.52472305,4.581702,-2.6626284,-6.150837
385,1778588265.0691586,0.89056486,-3.8348715,-1.1997855,5.9558935,-3.174488,-3.0503848
386,1778588265.089782,0.5432714,-0.7614586,-0.56011134,3.8551922,2.3153522,-2.6695528
387,1778588265.110997,0.71045065,-0.1295944,-0.80441266,2.7057717,2.3089607,-1.6069515
388,1778588265.1309965,-0.19280522,0.17718557,-0.31873876,1.0343717,3.7896783,-1.6650083
389,1778588265.1524549,-0.19280522,0.17718557,-0.31873876,1.0343717,3.7896783,-1.6650083
390,1778588265.1729841,-1.0067362,0.35046622,-0.03636453,-1.3885722,1.051416,0.41705105
391,1778588265.1944718,-1.5734371,0.47786412,-1.2229708,-1.2873721,-2.9630332,3.361442
392,1778588265.214577,-1.2473766,0.4144092,-2.5965252,-1.464206,-3.568636,3.8685079
393,1778588265.2481089,-0.33704305,0.2042759,-0.4080637,-0.81226414,-1.655421,3.8578553
394,1778588265.2663352,3.150291,-0.38731885,7.987262,-0.4111921,0.9262474,3.4764905
395,1778588265.286032,0.6855568,-1.3235224,3.342364,1.4098775,6.5652246,0.56885123
396,1778588265.3061657,-0.23185438,-0.47347105,-2.557964,3.428021,-7.328487,-0.8900285
397,1778588265.327326,-0.4412555,-0.562796,-2.8950071,1.1121361,-9.67846,-1.5398397
398,1778588265.3475301,-0.4412555,-0.562796,-2.8950071,1.1121361,-9.67846,-1.5398397
399,1778588265.3680663,-0.5891542,-1.0643337,-0.601113,-3.9531963,1.7518274,-0.9102685
400,1778588265.389352,-0.32679266,-1.6224926,-0.46273252,-3.536678,0.2514024,0.4383563
401,1778588265.4100606,0.1683995,-2.7246552,-0.40440285,-3.3934,-2.2082932,1.9132149
402,1778588265.4305184,0.22990192,-4.058428,0.49812084,-4.272243,-5.2011538,2.8751488
403,1778588265.4515512,1.4860646,-4.483576,-1.0987457,-2.1038973,-2.858637,3.8738341
404,1778588265.4721134,2.791771,-2.843999,-0.5269196,-2.2674153,1.4919028,3.016829
405,1778588265.4929733,2.791771,-2.843999,-0.5269196,-2.2674153,1.4919028,3.016829
406,1778588265.514137,1.3042419,-0.10372432,1.6918048,-3.3619747,-5.078648,-0.294013
407,1778588265.534768,0.16132185,-0.5857374,-0.16498269,-0.33129725,0.06657903,1.3331785
408,1778588265.5560827,-0.19207305,-0.45052966,0.63162017,-1.8913771,0.40107206,1.9888487
409,1778588265.5766003,0.63015586,-0.2853029,1.308879,-0.8431568,1.0306433,1.8498317
410,1778588265.6091552,1.1600041,-0.34704942,0.19719826,1.423726,0.6487461,0.60720074
411,1778588265.631562,0.6728658,-0.3338703,-0.18450728,1.9547603,-0.45380265,-0.3355583
412,1778588265.6512077,0.57402265,-0.26748675,-0.17742962,1.6026903,-0.12410331,-1.0599382
413,1778588265.6712797,0.117147475,0.20525214,0.57451075,1.3278521,0.8591358,-1.6825852
414,1778588265.6932247,-0.018060237,0.123004854,0.18011424,2.1928468,2.884736,-2.0112193
415,1778588265.7142575,0.31361356,-0.37243137,-0.11324256,3.4594464,3.8514636,-2.156628
416,1778588265.7350302,1.1136333,-2.6577835,0.35559142,4.6216497,3.1127028,-2.4250746
417,1778588265.754751,1.1136333,-2.6577835,0.35559142,4.6216497,3.1127028,-2.4250746
418,1778588265.7760887,2.1088986,-6.7938213,3.380437,3.341202,0.17257284,-6.646185
419,1778588265.797029,0.81344277,-2.907942,-1.3572023,6.0123525,-2.459163,-3.3550503
420,1778588265.8173943,0.44784504,-1.2712942,-0.86371857,3.4993937,1.9371834,-2.314287
421,1778588265.838262,0.9454777,-0.18548352,-0.53082454,1.7752632,2.952913,-1.520665
422,1778588265.8590398,0.54912883,0.16205402,-0.35754386,-0.03089267,4.1012683,-1.8631475
423,1778588265.8798308,-0.45638704,0.29140437,-0.017328065,-1.0434265,3.0493195,-0.9518138
424,1778588265.900472,-0.45638704,0.29140437,-0.017328065,-1.0434265,3.0493195,-0.9518138
425,1778588265.9213436,-1.4501882,0.13545178,-0.281398,-1.6325178,-1.2559468,2.420281
426,1778588265.9420435,-1.5583055,0.11006982,-1.836775,-1.4567492,-0.85753787,3.8056574
427,1778588265.963074,-0.7414459,0.42514774,-1.5548887,-1.8988339,-2.047971,3.9025962
428,1778588265.9839625,-0.7414459,0.42514774,-1.5548887,-1.8988339,-2.047971,3.9025962
429,1778588266.0050054,-0.7414459,0.42514774,-1.5548887,-1.8988339,-2.047971,3.9025962
430,1778588266.025239,1.0199152,-1.4123594,4.470885,0.8452873,7.226754,0.396811
431,1778588266.0465782,-0.21647878,-0.6743302,-0.010738519,0.8452873,7.226754,0.396811
432,1778588266.0674376,-0.44223174,-0.52960426,-1.8089523,1.3171995,-9.413742,-1.1632688
433,1778588266.0881014,-0.44223174,-0.52960426,-1.8089523,1.3171995,-9.413742,-1.1632688
434,1778588266.1091566,-0.44223174,-0.52960426,-1.8089523,1.3171995,-9.413742,-1.1632688
435,1778588266.1299193,-0.52399087,-1.9409873,-1.4650756,-2.9060414,-2.376605,0.9768475
436,1778588266.150715,-0.52399087,-1.9409873,-1.4650756,-2.9060414,-2.376605,0.9768475
437,1778588266.1715918,-0.33704305,-3.3491976,1.9790602,-2.6881948,-2.591256,2.8277445
438,1778588266.1920154,-0.33704305,-3.3491976,1.9790602,-2.6881948,-2.591256,2.8277445
439,1778588266.212528,-0.33704305,-3.3491976,1.9790602,-2.6881948,-2.591256,2.8277445
440,1778588266.2335389,3.764095,-1.5285306,1.4179726,-5.2304482,-2.2045648,2.091114
441,1778588266.2544432,2.2538686,-0.40611124,2.5032952,-4.175304,-5.963883,-0.27057716
442,1778588266.2753785,0.66115105,-0.35363895,1.257383,-0.79415464,-3.1334753,0.53476274
443,1778588266.296033,0.66115105,-0.35363895,1.257383,-0.79415464,-3.1334753,0.53476274
444,1778588266.3170834,0.66115105,-0.35363895,1.257383,-0.79415464,-3.1334753,0.53476274
445,1778588266.3381765,1.4082103,-0.54912883,0.20647243,1.866876,0.6514092,-0.082025364
446,1778588266.3585777,1.2061309,-0.5535218,0.10323621,1.866876,0.6514092,-0.082025364
447,1778588266.3792446,0.68482465,-0.37072295,-0.21428227,2.612561,-0.783502,-1.1749867
448,1778588266.4001777,0.68482465,-0.37072295,-0.21428227,2.612561,-0.783502,-1.1749867
449,1778588266.421012,0.68482465,-0.37072295,-0.21428227,2.612561,-0.783502,-1.1749867
450,1778588266.442189,0.054668825,0.15400012,-0.4036707,1.9606192,3.5920718,-1.9765981
451,1778588266.4628973,0.19231711,0.052716363,-0.29116032,1.9606192,3.5920718,-1.9765981
452,1778588266.4838345,0.5774395,-0.66871685,-0.6372335,2.948652,5.080246,-2.2226744
453,1778588266.5044305,0.5774395,-0.66871685,-0.6372335,2.948652,5.080246,-2.2226744
454,1778588266.5252693,1.5112025,-6.8955936,2.088886,4.2935486,-1.8578212,-6.1258035
455,1778588266.545856,0.25552794,-1.6620299,-0.61819696,4.7723846,-0.7206514,-3.5153728
456,1778588266.5673084,0.59110665,-0.6491923,-0.8573731,3.3172336,2.3382554,-1.8232001
457,1778588266.5874312,0.82296103,-0.33265,-0.9813542,2.0937772,4.0165796,-0.7861652
458,1778588266.6085193,0.82296103,-0.33265,-0.9813542,2.0937772,4.0165796,-0.7861652
459,1778588266.6291559,-0.73412424,0.12202863,-0.4288086,-0.45859635,3.128149,-0.08522116
460,1778588266.6501331,-1.0096649,0.23673552,-0.44613665,-0.81545997,-0.002130529,1.0966897
461,1778588266.6713676,-1.0096649,0.23673552,-0.44613665,-0.81545997,-0.002130529,1.0966897
462,1778588266.692062,-1.5275543,0.48567393,-1.0113733,-0.9896307,-2.4250746,3.4365432
463,1778588266.7130308,-1.5275543,0.48567393,-1.0113733,-0.9896307,-2.4250746,3.4365432
464,1778588266.7335436,0.45467865,1.1582958,0.2630937,-1.7864485,-1.6751283,1.7113473
465,1778588266.7543218,2.361986,-1.039928,7.987262,-0.11132014,5.910087,0.03355583
466,1778588266.775374,2.361986,-1.039928,7.987262,-0.11132014,5.910087,0.03355583
467,1778588266.7959528,-0.2672427,-0.6186851,-0.37145513,4.131628,-4.263721,-1.4849787
468,1778588266.817206,-0.2672427,-0.6186851,-0.37145513,4.131628,-4.263721,-1.4849787
469,1778588266.8377974,-0.51740134,-1.4094306,-0.7143555,-3.336941,-2.111354,-0.16192019
470,1778588266.858321,-0.35315084,-1.8880268,-1.0887394,-2.6690202,-3.4253578,1.6383767
471,1778588266.8792143,-0.10030753,-2.6536345,-0.3214234,-3.2826123,-2.0628846,3.3433325
472,1778588266.900105,-0.10030753,-2.6536345,-0.3214234,-3.2826123,-2.0628846,3.3433325
473,1778588266.9208033,-0.10030753,-2.6536345,-0.3214234,-3.2826123,-2.0628846,3.3433325
474,1778588266.9411664,3.198126,-2.8613272,-0.006833603,-3.8647795,-0.72651035,2.9635658
475,1778588266.9623911,3.0790262,-2.2543569,0.4549227,-3.8647795,-0.72651035,2.9635658
476,1778588266.983375,1.036023,-0.3990336,1.3076587,-1.5659387,-3.2096417,-1.4002901
477,1778588267.0038145,1.036023,-0.3990336,1.3076587,-1.5659387,-3.2096417,-1.4002901
478,1778588267.024854,1.036023,-0.3990336,1.3076587,-1.5659387,-3.2096417,-1.4002901
479,1778588267.0459065,-0.08395569,-0.13960074,0.24064046,-1.526524,-0.6466155,2.364887
