id,timestamp,acc_x,acc_y,acc_z,gyro_x,gyro_y,gyro_z
1,1778585925.2394419,-0.84517026,0.66944903,0.9540198,-0.80747044,1.3773869,1.2186625
2,1778585925.3018703,-0.94206095,0.4131889,1.2017379,-2.2849922,1.7651432,0.13315806
3,1778585925.364733,-0.94206095,0.4131889,1.2017379,-2.2849922,1.7651432,0.13315806
4,1778585925.4264016,-0.94206095,0.4131889,1.2017379,-2.2849922,1.7651432,0.13315806
5,1778585925.489192,-0.94206095,0.4131889,1.2017379,-2.2849922,1.7651432,0.13315806
6,1778585925.5512936,-0.94206095,0.4131889,1.2017379,-2.2849922,1.7651432,0.13315806
7,1778585925.613869,-2.216528,2.5333142,2.0659447,2.9582393,-0.83942837,2.020274
8,1778585925.6762428,-1.6915607,0.9647583,0.9654905,3.685815,-1.5334482,3.2810144
9,1778585925.7391002,-1.40699,0.6721336,0.3943965,4.1049967,-0.8857674,3.4099116
10,1778585925.8012364,-1.40699,0.6721336,0.3943965,4.1049967,-0.8857674,3.4099116
11,1778585925.8641877,-1.40699,0.6721336,0.3943965,4.1049967,-0.8857674,3.4099116
12,1778585925.9264178,-1.40699,0.6721336,0.3943965,4.1049967,-0.8857674,3.4099116
13,1778585925.9898689,-0.15473229,-0.9030118,0.1701079,-0.1635181,-0.17097494,0.025033714
14,1778585926.0513513,-1.5038807,0.2779812,-0.69409883,-3.5212317,1.7225326,-3.6677055
15,1778585926.1141763,-2.0837607,1.973935,0.4790844,-1.871137,1.8290591,-3.244263
16,1778585926.1758735,-2.050325,1.9729588,0.49421594,-1.871137,1.8290591,-3.244263
17,1778585926.2386587,-2.050325,1.9729588,0.49421594,-1.871137,1.8290591,-3.244263
18,1778585926.3006337,-2.050325,1.9729588,0.49421594,-1.871137,1.8290591,-3.244263
19,1778585926.3636706,-2.050325,1.9729588,0.49421594,-1.871137,1.8290591,-3.244263
20,1778585926.4264882,-2.0432472,2.2895012,1.2354177,1.7406421,-0.49534798,1.6831179
21,1778585926.4898307,-2.5813935,1.9075515,0.5269196,1.8908445,-1.7603495,3.9302933
22,1778585926.5507686,-2.1374533,1.2854495,0.30360723,1.9052255,-1.2958943,4.1827607
23,1778585926.6132007,-2.1374533,1.2854495,0.30360723,1.9052255,-1.2958943,4.1827607
24,1778585926.6756864,-2.1374533,1.2854495,0.30360723,1.9052255,-1.2958943,4.1827607
25,1778585926.739708,-0.50495446,-0.12837411,-0.102504045,1.202151,-1.7811222,3.220827
26,1778585926.8010457,0.11275445,-0.82125264,-0.08517598,-0.7488809,0.1965413,-1.2921658
27,1778585926.863124,-1.6678872,0.28042176,-0.037584815,-3.4301515,1.8200043,-5.1340423
28,1778585926.925461,-2.2733932,1.0621371,1.138039,-4.247742,1.0407634,-4.334561
29,1778585926.9883196,-2.4086008,1.4047935,1.8706989,-2.4623587,1.5435683,-3.6101813
30,1778585927.0510426,-2.4086008,1.4047935,1.8706989,-2.4623587,1.5435683,-3.6101813
31,1778585927.112658,-2.4086008,1.4047935,1.8706989,-2.4623587,1.5435683,-3.6101813
32,1778585927.1755261,-2.4086008,1.4047935,1.8706989,-2.4623587,1.5435683,-3.6101813
33,1778585927.2382364,-1.1236396,1.5268221,1.0936205,1.6543556,-1.7965685,2.3190808
34,1778585927.3002217,-2.3629622,1.7977256,1.4492118,3.2128377,-0.85700524,3.2298818
35,1778585927.3630815,-1.1065556,0.50593066,0.23112221,1.9973708,-1.4434333,3.7822216
36,1778585927.4252248,-1.1065556,0.50593066,0.23112221,1.9973708,-1.4434333,3.7822216
37,1778585927.4886088,-1.1065556,0.50593066,0.23112221,1.9973708,-1.4434333,3.7822216
38,1778585927.5499375,-1.1065556,0.50593066,0.23112221,1.9973708,-1.4434333,3.7822216
39,1778585927.6126685,-0.079318605,-0.5637722,-0.29091623,0.8671253,0.1107875,-0.5182512
40,1778585927.6750276,-1.3579346,0.59159476,-0.5208182,-0.89109373,2.1049626,-3.643737
41,1778585927.7375631,-2.174062,1.3066825,0.9554841,-2.470881,1.0887003,-3.6980655
42,1778585927.8000863,-2.1469717,1.4985116,1.0462735,-1.4988271,1.3960291,-3.2735577
43,1778585927.8626277,-2.1469717,1.4985116,1.0462735,-1.4988271,1.3960291,-3.2735577
44,1778585927.925105,-2.1469717,1.4985116,1.0462735,-1.4988271,1.3960291,-3.2735577
45,1778585927.9873636,-2.1469717,1.4985116,1.0462735,-1.4988271,1.3960291,-3.2735577
46,1778585928.0496192,-1.0882512,1.6576368,0.81441903,1.3954965,-1.4098775,2.0756679
47,1778585928.112273,-2.3585694,1.9873582,0.6374775,0.8341021,-1.5456988,4.1337585
48,1778585928.1745412,-1.6303024,0.79513854,0.4288086,2.0197413,-1.4056164,4.290353
49,1778585928.2367647,-1.6303024,0.79513854,0.4288086,2.0197413,-1.4056164,4.290353
50,1778585928.2998438,-1.6303024,0.79513854,0.4288086,2.0197413,-1.4056164,4.290353
51,1778585928.3622444,-1.6303024,0.79513854,0.4288086,2.0197413,-1.4056164,4.290353
52,1778585928.4244835,-0.1696198,-0.37682438,-0.24161668,-0.23702134,0.112918034,-1.8423749
53,1778585928.4876814,-1.3369455,0.64138246,-0.25333142,-1.748099,2.0112193,-4.453871
54,1778585928.5495007,-2.207742,1.6944895,0.5437595,-2.1076257,1.2841763,-3.5457327
55,1778585928.6113572,-2.207742,1.6944895,0.5437595,-2.1076257,1.2841763,-3.5457327
56,1778585928.6744046,-2.207742,1.6944895,0.5437595,-2.1076257,1.2841763,-3.5457327
57,1778585928.7366438,-2.207742,1.6944895,0.5437595,-2.1076257,1.2841763,-3.5457327
58,1778585928.7992814,-2.207742,1.6944895,0.5437595,-2.1076257,1.2841763,-3.5457327
59,1778585928.8619704,-2.207742,1.6944895,0.5437595,-2.1076257,1.2841763,-3.5457327
60,1778585928.9244533,-1.3606192,1.9612441,0.97696114,0.9912286,-1.2841763,1.4615428
61,1778585928.9870934,-1.5736811,0.91253006,0.643823,2.6312032,-1.6724652,3.9792955
62,1778585929.0489285,-1.5736811,0.91253006,0.643823,2.6312032,-1.6724652,3.9792955
63,1778585929.1117415,-1.5736811,0.91253006,0.643823,2.6312032,-1.6724652,3.9792955
64,1778585929.1740375,-1.5736811,0.91253006,0.643823,2.6312032,-1.6724652,3.9792955
65,1778585929.2364907,-1.5736811,0.91253006,0.643823,2.6312032,-1.6724652,3.9792955
66,1778585929.2989032,-1.3791674,0.34973404,-0.18206671,-2.952913,3.0722227,-3.9750342
67,1778585929.3613188,-2.153073,1.539025,1.0387076,-2.1864552,1.6953684,-3.187804
68,1778585929.4238505,-2.153073,1.539025,1.0387076,-2.1864552,1.6953684,-3.187804
69,1778585929.4862552,-2.153073,1.539025,1.0387076,-2.1864552,1.6953684,-3.187804
70,1778585929.5487938,-2.153073,1.539025,1.0387076,-2.1864552,1.6953684,-3.187804
71,1778585929.6110663,-2.153073,1.539025,1.0387076,-2.1864552,1.6953684,-3.187804
72,1778585929.6736085,-2.153073,1.539025,1.0387076,-2.1864552,1.6953684,-3.187804
73,1778585929.7376463,-0.7656076,1.6207842,0.51447266,0.8527442,-1.7475663,1.8413097
74,1778585929.7985444,-2.0146925,1.2468885,1.3530535,2.902313,-2.1694112,3.4631748
75,1778585929.861123,-2.0146925,1.2468885,1.3530535,2.902313,-2.1694112,3.4631748
76,1778585929.9236205,-2.0146925,1.2468885,1.3530535,2.902313,-2.1694112,3.4631748
77,1778585929.9860933,-2.0146925,1.2468885,1.3530535,2.902313,-2.1694112,3.4631748
78,1778585930.0497017,0.024893839,-0.45516676,-0.22843759,0.9310411,-0.68176925,0.0314253
79,1778585930.1106513,-0.51544887,0.1330112,-0.47859627,-1.0626013,2.0032299,-3.0850058
80,1778585930.1742213,-2.0193298,1.3410946,0.5120321,-2.3883228,1.5132082,-3.3832798
81,1778585930.2360382,-1.8536148,1.4841121,0.6875093,-2.3174827,1.5339808,-3.3662357
82,1778585930.2982075,-1.8536148,1.4841121,0.6875093,-2.3174827,1.5339808,-3.3662357
83,1778585930.3604474,-1.8536148,1.4841121,0.6875093,-2.3174827,1.5339808,-3.3662357
84,1778585930.4231648,-1.8128573,1.5297508,0.7924539,-2.1571605,1.6660736,-3.3784862
85,1778585930.4861703,-0.16351835,1.1282767,0.35925224,0.5230448,-1.0647318,1.2373047
86,1778585930.5479715,-1.9585594,2.1989558,0.9408407,1.2639363,-0.7930894,1.6911073
87,1778585930.6102264,-2.3422174,1.692537,1.0238202,1.8743328,-1.7726,3.7145772
88,1778585930.6730719,-2.3422174,1.692537,1.0238202,1.8743328,-1.7726,3.7145772
89,1778585930.7350874,-2.3422174,1.692537,1.0238202,1.8743328,-1.7726,3.7145772
90,1778585930.7977762,-2.3422174,1.692537,1.0238202,1.8743328,-1.7726,3.7145772
91,1778585930.8602633,-0.11568313,-0.64211464,-0.27334413,0.34301516,0.5006743,-0.62371236
92,1778585930.9223692,0.05906185,-0.4803047,-0.36242503,-0.350472,0.27483824,-2.1118867
93,1778585930.9861717,-2.6289847,1.5011961,0.009518232,-3.3284187,1.7965685,-4.7526774
94,1778585931.047315,-2.0276275,1.5707525,0.90838104,-4.0485377,0.26205507,-3.163303
95,1778585931.1102035,-2.0276275,1.5707525,0.90838104,-4.0485377,0.26205507,-3.163303
96,1778585931.1727002,-2.0276275,1.5707525,0.90838104,-4.0485377,0.26205507,-3.163303
97,1778585931.2351947,-2.0276275,1.5707525,0.90838104,-4.0485377,0.26205507,-3.163303
98,1778585931.2975664,-2.0276275,1.5707525,0.90838104,-4.0485377,0.26205507,-3.163303
99,1778585931.3602874,-2.614097,2.3819988,1.0164984,1.0791129,-1.0471549,2.1273332
100,1778585931.4222531,-2.003466,1.2991167,0.8534682,2.3036344,-1.7779263,4.2589273
101,1778585931.482977,-1.6466542,1.0033194,0.5742667,2.7366643,-1.1744541,4.167847
102,1778585931.5452068,-1.6466542,1.0033194,0.5742667,2.7366643,-1.1744541,4.167847
103,1778585931.607888,-1.6466542,1.0033194,0.5742667,2.7366643,-1.1744541,4.167847
104,1778585931.670144,0.06028214,-0.8673795,-0.42807645,-0.1768339,0.25566345,-1.5840483
105,1778585931.7328205,-0.6428468,0.0102504045,-0.50715095,-0.41225734,1.015197,-3.3806167
106,1778585931.7968879,-2.421048,1.3237665,0.21769907,-2.3382554,1.9952403,-4.9928946
107,1778585931.8584836,-2.0185976,1.934886,0.7497439,-1.7640779,1.176052,-3.3667684
108,1778585931.9210372,-2.0185976,1.934886,0.7497439,-1.7640779,1.176052,-3.3667684
109,1778585931.9834957,-2.0185976,1.934886,0.7497439,-1.7640779,1.176052,-3.3667684
110,1778585932.045888,-2.0185976,1.934886,0.7497439,-1.7640779,1.176052,-3.3667684
111,1778585932.108315,-0.39073566,1.0003906,0.33411437,0.57151437,-0.95234644,1.7369137
112,1778585932.1717024,-0.31898284,1.2544543,0.05588911,0.49375007,-1.4008228,2.10443
113,1778585932.2341785,-2.221165,1.9256116,0.6540734,-0.44315,-2.336125,3.0381343
114,1778585932.2965286,-1.790404,1.2913069,0.89080894,-0.04527374,-3.1521175,3.2362735
115,1778585932.3591416,-1.790404,1.2913069,0.89080894,-0.04527374,-3.1521175,3.2362735
116,1778585932.4214485,-1.790404,1.2913069,0.89080894,-0.04527374,-3.1521175,3.2362735
117,1778585932.4839458,-1.790404,1.2913069,0.89080894,-0.04527374,-3.1521175,3.2362735
118,1778585932.5466864,0.16913168,-0.43539813,-0.28579104,1.27885,-1.4732608,0.8990832
119,1778585932.609142,-1.940011,1.0387076,-0.20671648,-2.9800773,1.5164039,-4.0890174
120,1778585932.6714714,-1.1856301,1.3057063,0.76756,-2.5017736,1.1653993,-3.1819448
121,1778585932.733939,-1.1856301,1.3057063,0.76756,-2.5017736,1.1653993,-3.1819448
122,1778585932.796604,-1.1856301,1.3057063,0.76756,-2.5017736,1.1653993,-3.1819448
123,1778585932.858548,-1.1856301,1.3057063,0.76756,-2.5017736,1.1653993,-3.1819448
124,1778585932.921268,-0.20915705,0.87226063,0.5801241,0.21944448,-0.74302197,1.1739215
125,1778585932.98363,-0.733148,1.6144388,0.6782351,0.773382,-1.6154735,1.9046929
126,1778585933.0462549,-2.055694,1.9570951,1.0523748,0.9709886,-1.8780613,3.5766253
127,1778585933.1085734,-1.8785087,1.4597064,0.98477095,1.5110776,-2.5550368,3.7918088
128,1778585933.1713345,-1.8785087,1.4597064,0.98477095,1.5110776,-2.5550368,3.7918088
129,1778585933.233379,-1.8785087,1.4597064,0.98477095,1.5110776,-2.5550368,3.7918088
130,1778585933.2960865,-1.8785087,1.4597064,0.98477095,1.5110776,-2.5550368,3.7918088
131,1778585933.3587556,-0.4720067,-0.14960709,-0.21843125,-1.0231866,0.31478566,-1.8876486
132,1778585933.4207718,-1.641285,0.9637821,-0.2630937,-3.4312167,1.6964337,-3.9137816
133,1778585933.4835134,-1.8016307,1.5656272,1.6549523,-3.1095068,0.8676579,-2.3973777
134,1778585933.5457735,-1.8016307,1.5656272,1.6549523,-3.1095068,0.8676579,-2.3973777
135,1778585933.6085482,-1.8016307,1.5656272,1.6549523,-3.1095068,0.8676579,-2.3973777
136,1778585933.6707811,-1.8016307,1.5656272,1.6549523,-3.1095068,0.8676579,-2.3973777
137,1778585933.7334507,-0.23087814,0.7902574,0.7353445,1.4333134,-0.36751625,1.3891048
138,1778585933.7957697,-0.7038611,1.7733198,0.53058046,0.6402239,-1.4769892,1.9057581
139,1778585933.8583105,-1.9434278,2.1616151,1.2178457,1.2857742,-0.9667275,2.8724856
140,1778585933.9207635,-1.142676,0.79782313,0.5981843,3.522297,-1.4301175,3.7055223
141,1778585933.9835474,-1.142676,0.79782313,0.5981843,3.522297,-1.4301175,3.7055223
142,1778585934.0454807,-1.142676,0.79782313,0.5981843,3.522297,-1.4301175,3.7055223
143,1778585934.1080213,-1.142676,0.79782313,0.5981843,3.522297,-1.4301175,3.7055223
144,1778585934.1713014,-0.49250755,0.016351834,-0.035876416,-1.3582122,0.053795855,-2.171009
145,1778585934.2337077,-1.6088253,0.9984382,0.16986385,-2.2024343,2.2935145,-3.0418627
146,1778585934.2951844,-1.8731394,1.8043152,1.052863,-1.7566211,1.8397117,-2.4602282
147,1778585934.3575044,-1.701323,1.8624009,0.8973985,-1.5531555,1.4604776,-2.240251
148,1778585934.420403,-1.701323,1.8624009,0.8973985,-1.5531555,1.4604776,-2.240251
149,1778585934.483048,-1.701323,1.8624009,0.8973985,-1.5531555,1.4604776,-2.240251
150,1778585934.545405,-0.26187342,0.68336034,0.63064396,1.1195929,-1.2032162,1.2436962
151,1778585934.6078825,-0.23502712,1.3552499,0.9515792,1.448227,-1.8232001,1.4508902
152,1778585934.6699743,-1.6805782,1.9146291,1.087031,1.7060211,-1.1957593,2.6956518
153,1778585934.7329867,-1.38112,1.2410312,0.94913864,2.1278658,-2.0399814,2.6956518
154,1778585934.7949185,-1.38112,1.2410312,0.94913864,2.1278658,-2.0399814,2.6956518
155,1778585934.857809,-1.38112,1.2410312,0.94913864,2.1278658,-2.0399814,2.6956518
156,1778585934.919877,-1.38112,1.2410312,0.94913864,2.1278658,-2.0399814,2.6956518
157,1778585934.9832695,-0.38853914,-0.102748096,-0.06980037,-1.3608754,-0.013315806,-1.407747
158,1778585935.0447185,-1.3664765,1.00576,-0.13154685,-2.2327943,2.047971,-2.7686224
159,1778585935.1075158,-1.6756971,1.6447018,0.9789136,-3.1158986,0.8815063,-2.3206787
160,1778585935.1699696,-1.6032121,1.6817985,0.9925808,-2.630138,0.94116116,-2.18539
