id,timestamp,acc_x,acc_y,acc_z,gyro_x,gyro_y,gyro_z
1,1778587650.142446,0.43149322,0.7914777,0.31898284,0.35899413,0.72491246,0.8863
2,1778587650.1630757,0.43149322,0.7914777,0.31898284,0.35899413,0.72491246,0.8863
3,1778587650.1839435,-0.24064046,1.7940649,0.7890371,-0.89801794,-2.2109563,1.25861
4,1778587650.204978,-1.5905211,2.963099,1.5036367,-0.89801794,-2.2109563,1.25861
5,1778587650.225377,-2.502075,3.5449314,1.2488409,1.5126755,-2.9891322,2.5592978
6,1778587650.2465193,-2.502075,3.5449314,1.2488409,1.5126755,-2.9891322,2.5592978
7,1778587650.2669814,-2.502075,3.5449314,1.2488409,1.5126755,-2.9891322,2.5592978
8,1778587650.2878633,-2.097916,1.1124129,0.24918245,3.0264163,-1.8993665,4.4613276
9,1778587650.3084269,-1.679846,0.72485006,0.1461903,2.20563,-1.8961707,4.4501424
10,1778587650.3295383,-0.40903994,-0.3829258,0.38829508,1.1403656,-2.3712788,3.609116
11,1778587650.3510833,-0.40903994,-0.3829258,0.38829508,1.1403656,-2.3712788,3.609116
12,1778587650.371363,-0.40903994,-0.3829258,0.38829508,1.1403656,-2.3712788,3.609116
13,1778587650.392023,0.4327135,-1.0989897,-0.34119204,1.9899141,-2.3212113,0.6263755
14,1778587650.4128613,0.41001618,-1.1431642,-0.7643873,1.6314526,-1.8599517,-0.1438107
15,1778587650.4335241,0.41636166,-1.2654368,-0.74193406,0.3584615,-1.7821875,-0.7909589
16,1778587650.4542427,0.41636166,-1.2654368,-0.74193406,0.3584615,-1.7821875,-0.7909589
17,1778587650.4751778,0.41636166,-1.2654368,-0.74193406,0.3584615,-1.7821875,-0.7909589
18,1778587650.4962842,-0.6272271,-1.1458488,-0.45297024,0.38296258,0.30253512,-2.906574
19,1778587650.5167394,-0.77512586,-1.1089962,-0.66847277,0.38296258,0.30253512,-2.906574
20,1778587650.5379975,-0.8151512,-0.9279056,-0.74339837,-0.2695119,0.90281165,-2.8165593
21,1778587650.5588086,-0.8151512,-0.9279056,-0.74339837,-0.2695119,0.90281165,-2.8165593
22,1778587650.5795026,-0.8151512,-0.9279056,-0.74339837,-0.2695119,0.90281165,-2.8165593
23,1778587650.5997338,-3.9654422,2.6516821,0.34119204,-3.0583742,1.8386464,-3.1249533
24,1778587650.620888,-3.3679898,2.579197,0.7997756,-4.9454904,0.7930894,-1.8679413
25,1778587650.6418955,-2.4325185,2.170401,1.9734468,-4.9454904,0.7930894,-1.8679413
26,1778587650.6624286,-2.4325185,2.170401,1.9734468,-4.9454904,0.7930894,-1.8679413
27,1778587650.6834295,-2.4325185,2.170401,1.9734468,-4.9454904,0.7930894,-1.8679413
28,1778587650.7046132,-0.3443648,1.2556745,-0.31312546,0.6743124,2.5784726,0.20026971
29,1778587650.7253237,-0.027334413,0.89105296,-0.51496077,-0.6982809,2.4655545,-0.054328486
30,1778587650.746276,0.064919226,0.6548056,-0.11592719,-2.0122845,2.3068302,-0.35633096
31,1778587650.7668004,0.064919226,0.6548056,-0.11592719,-2.0122845,2.3068302,-0.35633096
32,1778587650.7876298,0.064919226,0.6548056,-0.11592719,-2.0122845,2.3068302,-0.35633096
33,1778587650.8084962,0.22209209,0.42783237,0.53350914,-0.5363607,2.2833943,-0.56938386
34,1778587650.8291116,0.35095432,0.53936654,0.18792409,0.165116,1.6612799,-0.37337518
35,1778587650.8504598,0.36950266,0.5701177,0.1210524,0.38562572,1.0423613,0.068176925
36,1778587650.8710313,0.36950266,0.5701177,0.1210524,0.38562572,1.0423613,0.068176925
37,1778587650.8924608,0.36950266,0.5701177,0.1210524,0.38562572,1.0423613,0.068176925
38,1778587650.912449,0.14277348,0.9647583,0.3734076,0.55074173,-0.87138635,1.4982945
39,1778587650.9338422,-0.6282034,2.2026167,-0.020500809,0.4346279,-2.7915256,1.2106731
40,1778587650.9544806,-1.0413923,2.703422,0.17230442,-0.1933455,-3.1494544,1.2873721
41,1778587650.975088,-1.0413923,2.703422,0.17230442,-0.1933455,-3.1494544,1.2873721
42,1778587650.9960077,-1.0413923,2.703422,0.17230442,-0.1933455,-3.1494544,1.2873721
43,1778587651.0168972,-2.6785283,1.6591012,-0.37023485,4.172108,-1.7832527,5.274657
44,1778587651.037563,-1.4538491,0.4842096,-0.15692882,2.525742,-1.6170714,5.234177
45,1778587651.0584667,-1.4538491,0.4842096,-0.15692882,2.525742,-1.6170714,5.234177
46,1778587651.0787442,-1.4538491,0.4842096,-0.15692882,2.525742,-1.6170714,5.234177
47,1778587651.0998106,-1.4538491,0.4842096,-0.15692882,2.525742,-1.6170714,5.234177
48,1778587651.1205997,0.358032,-0.8092938,-0.03441207,2.6551716,-1.8769959,2.5656893
49,1778587651.1418173,0.29067218,-0.9342511,-0.48616204,2.2125542,-0.94329166,0.47670585
50,1778587651.162416,0.23014598,-0.9818423,-0.47469133,2.2125542,-0.94329166,0.47670585
51,1778587651.1840212,0.23014598,-0.9818423,-0.47469133,2.2125542,-0.94329166,0.47670585
52,1778587651.2040596,-0.33411437,-1.1805049,0.34558508,-0.010652645,-0.9507485,-1.4136059
53,1778587651.2255101,-0.15668476,-1.1543908,0.15082738,0.3222425,-0.96992326,-1.31933
54,1778587651.245502,0.07858644,-1.1590278,-0.29872608,0.5992113,-0.75580513,-1.3970944
55,1778587651.2668295,0.14082102,-1.1348661,-0.56987363,0.5992113,-0.75580513,-1.3970944
56,1778587651.2874055,0.14082102,-1.1348661,-0.56987363,0.5992113,-0.75580513,-1.3970944
57,1778587651.3080509,-1.739152,-0.5535218,-0.18255483,-3.266101,-0.43888897,-3.5856802
58,1778587651.3291695,-1.739152,-0.5535218,-0.18255483,-3.266101,-0.43888897,-3.5856802
59,1778587651.35015,-2.272173,0.4612682,-0.6711574,-2.5305357,0.912399,-4.1135187
60,1778587651.370445,-2.272173,0.4612682,-0.6711574,-2.5305357,0.912399,-4.1135187
61,1778587651.391476,-2.272173,0.4612682,-0.6711574,-2.5305357,0.912399,-4.1135187
62,1778587651.4122086,-2.9679801,1.6439695,1.5192564,-5.0216565,0.89801794,-3.7907436
63,1778587651.4334426,-2.4703474,1.7540395,1.334505,-2.8810077,1.3443637,-3.1004522
64,1778587651.4538085,-1.3552499,1.6632501,0.19231711,-0.42983422,2.6237464,-2.2429142
65,1778587651.4749625,-1.3552499,1.6632501,0.19231711,-0.42983422,2.6237464,-2.2429142
66,1778587651.495785,-1.3552499,1.6632501,0.19231711,-0.42983422,2.6237464,-2.2429142
67,1778587651.5171006,-0.48787045,1.0162543,0.87250465,-2.3702135,2.262089,-1.6293219
68,1778587651.5367231,-0.47762007,1.0902036,0.8319912,-2.3702135,2.262089,-1.6293219
69,1778587651.5585563,-0.1867038,1.2549424,0.41026023,-1.4455639,1.7172064,-0.908138
70,1778587651.5785873,-0.1867038,1.2549424,0.41026023,-1.4455639,1.7172064,-0.908138
71,1778587651.600214,-0.1867038,1.2549424,0.41026023,-1.4455639,1.7172064,-0.908138
72,1778587651.6201448,0.2626056,1.4587301,0.7219213,-1.0615361,0.0793622,0.84848315
73,1778587651.6413696,-0.26553428,1.8148097,0.8820229,-0.49854377,-0.38615838,1.4705976
74,1778587651.6613958,-0.810026,2.0957196,0.9581688,0.5182512,-0.9108011,2.3425164
75,1778587651.6836596,-0.810026,2.0957196,0.9581688,0.5182512,-0.9108011,2.3425164
76,1778587651.7039754,-0.810026,2.0957196,0.9581688,0.5182512,-0.9108011,2.3425164
77,1778587651.725005,-3.475131,2.957974,1.3974718,0.69721556,-3.3545177,4.5529404
78,1778587651.7451615,-3.649876,2.7944553,1.2893544,0.69721556,-3.3545177,4.5529404
79,1778587651.766341,-3.5092993,1.3442672,-0.06760386,3.5899413,-2.247708,5.76095
80,1778587651.7868075,-3.5092993,1.3442672,-0.06760386,3.5899413,-2.247708,5.76095
81,1778587651.8084242,-3.5092993,1.3442672,-0.06760386,3.5899413,-2.247708,5.76095
82,1778587651.8293548,-0.9313224,-0.9015475,0.03807293,0.3435478,-3.2900693,5.092497
83,1778587651.8497515,-0.04612682,-1.2798362,0.26968327,0.30679616,-3.5899413,3.9894154
84,1778587651.8699396,0.15570852,-1.334505,0.255772,1.2868395,-2.9763489,2.6988475
85,1778587651.8917198,0.15570852,-1.334505,0.255772,1.2868395,-2.9763489,2.6988475
86,1778587651.9115374,0.15570852,-1.334505,0.255772,1.2868395,-2.9763489,2.6988475
87,1778587651.9323766,-0.29897013,-1.3391421,-0.5274077,2.582201,-1.6106799,-1.091896
88,1778587651.9536011,-0.34949,-1.3039979,-0.54083085,1.8402443,-1.045557,-1.2602079
89,1778587651.9745474,0.09884319,-1.2100358,-0.35510328,0.8048073,-0.83037364,-1.1313108
90,1778587651.9948196,0.09884319,-1.2100358,-0.35510328,0.8048073,-0.83037364,-1.1313108
91,1778587652.0157847,0.09884319,-1.2100358,-0.35510328,0.8048073,-0.83037364,-1.1313108
92,1778587652.036468,-0.6884855,-1.0260166,-0.6382097,-1.4349113,-0.27643612,-3.2176313
93,1778587652.057719,-0.9620737,-0.66700846,-0.77292925,-3.562777,0.104928546,-4.234426
94,1778587652.0783246,-1.0518868,-0.5535218,-0.7748818,-3.562777,0.104928546,-4.234426
95,1778587652.0994337,-1.0518868,-0.5535218,-0.7748818,-3.562777,0.104928546,-4.234426
96,1778587652.1197507,-1.0518868,-0.5535218,-0.7748818,-3.562777,0.104928546,-4.234426
97,1778587652.141134,-3.3199108,1.9500173,0.69287854,-4.1875544,0.27483824,-2.1481059
98,1778587652.161386,-1.85874,1.7142582,1.1856301,-3.0120351,0.42290998,-1.9995013
99,1778587652.1823235,-1.85874,1.7142582,1.1856301,-3.0120351,0.42290998,-1.9995013
100,1778587652.2039177,-1.85874,1.7142582,1.1856301,-3.0120351,0.42290998,-1.9995013
101,1778587652.223943,-1.85874,1.7142582,1.1856301,-3.0120351,0.42290998,-1.9995013
102,1778587652.2449536,-0.37413976,1.1163179,0.12642166,-2.2471755,1.7385116,-1.4040185
103,1778587652.2659962,-0.04905551,0.8912971,0.85859346,-2.7233486,1.3283848,-1.133974
104,1778587652.2867367,-0.04905551,0.8912971,0.85859346,-2.7233486,1.3283848,-1.133974
105,1778587652.3076894,-0.04905551,0.8912971,0.85859346,-2.7233486,1.3283848,-1.133974
106,1778587652.3289647,0.093473926,0.92156017,1.1673259,-2.0021646,1.0279802,-0.94808537
107,1778587652.3491483,0.26821893,1.1905112,-0.05515694,0.066046394,0.09534117,0.8852348
108,1778587652.3702157,0.09567044,1.2442038,0.013179091,-0.30626354,0.0015978967,1.397627
109,1778587652.3909209,-0.059794027,1.3276714,0.2894519,-0.31691617,-0.30466563,2.0527647
110,1778587652.4115212,-0.059794027,1.3276714,0.2894519,-0.31691617,-0.30466563,2.0527647
111,1778587652.4324284,-2.0137165,2.718798,0.8581053,0.41918156,-2.10443,2.8911278
112,1778587652.4532092,-3.0375366,3.2918441,1.5163277,1.1590078,-1.5403724,3.7822216
113,1778587652.474176,-4.11749,3.3316255,1.189779,3.086071,-1.0359697,4.587029
114,1778587652.4947467,-3.5556703,2.630205,0.00707766,4.052266,-1.0519487,6.175871
115,1778587652.515808,-3.5556703,2.630205,0.00707766,4.052266,-1.0519487,6.175871
116,1778587652.5370624,-1.5753895,0.12837411,0.09859913,0.30519825,-1.6149409,5.148423
117,1778587652.5573602,-0.89349353,-0.3734076,0.4075756,0.30519825,-1.6149409,5.148423
118,1778587652.5782144,-0.3829258,-0.71142685,0.5720702,0.25726137,-2.4437168,3.869573
119,1778587652.5989864,-0.1552204,-0.8571291,0.54766446,0.9187906,-3.0663638,2.3691483
120,1778587652.6196024,-0.1552204,-0.8571291,0.54766446,0.9187906,-3.0663638,2.3691483
121,1778587652.640578,0.24967057,-1.3467078,-0.11592719,2.1230721,-2.1161478,-1.2389026
122,1778587652.6612566,0.24747404,-1.398692,-0.27358818,1.8988339,-1.9275961,-2.0314593
123,1778587652.6823866,0.029530926,-1.4157761,-0.35632357,1.8988339,-1.9275961,-2.0314593
124,1778587652.7029026,0.029530926,-1.4157761,-0.35632357,1.8988339,-1.9275961,-2.0314593
125,1778587652.7240145,0.029530926,-1.4157761,-0.35632357,1.8988339,-1.9275961,-2.0314593
126,1778587652.7451878,-0.117147475,-1.0291895,-0.6294237,0.096939065,0.22583607,-2.1108215
127,1778587652.7655883,-0.34460884,-1.0626253,-0.81930023,-1.1206582,0.41918156,-2.7537086
128,1778587652.7859385,-0.34460884,-1.0626253,-0.81930023,-1.1206582,0.41918156,-2.7537086
129,1778587652.8070173,-0.34460884,-1.0626253,-0.81930023,-1.1206582,0.41918156,-2.7537086
130,1778587652.8281112,-0.34460884,-1.0626253,-0.81930023,-1.1206582,0.41918156,-2.7537086
131,1778587652.848935,-3.7994835,1.5556209,-0.5523015,-2.8421257,2.938532,-3.8594532
132,1778587652.8695145,-3.815591,1.7950411,0.3499781,-4.542288,2.4304008,-3.5819516
133,1778587652.890931,-2.7500372,1.8743596,1.228096,-4.8948903,0.43036684,-2.5949843
134,1778587652.91082,-2.7500372,1.8743596,1.228096,-4.8948903,0.43036684,-2.5949843
135,1778587652.9319317,-2.7500372,1.8743596,1.228096,-4.8948903,0.43036684,-2.5949843
136,1778587652.9529407,-0.8073414,1.488017,-0.3385074,-0.10759171,2.8346686,-1.5483619
137,1778587652.9736972,-0.5259434,1.2485968,-0.38609856,-0.96086854,2.3537018,-1.3741912
138,1778587652.9944105,-0.32947728,1.0260166,0.002928687,-2.1587584,2.108691,-1.2303804
139,1778587653.0149858,-0.32947728,1.0260166,0.002928687,-2.1587584,2.108691,-1.2303804
140,1778587653.0361836,-0.32947728,1.0260166,0.002928687,-2.1587584,2.108691,-1.2303804
141,1778587653.0565515,0.13227904,1.121199,0.3841461,-0.7536746,0.7366304,0.104928546
142,1778587653.077657,0.24869433,1.2005177,0.13789235,-1.4562165,-0.046871636,0.89375687
143,1778587653.0982273,0.26992732,1.1780643,0.30116665,-1.4562165,-0.046871636,0.89375687
144,1778587653.1192698,0.26992732,1.1780643,0.30116665,-1.4562165,-0.046871636,0.89375687
145,1778587653.140464,0.26992732,1.1780643,0.30116665,-1.4562165,-0.046871636,0.89375687
146,1778587653.1610663,-1.0350468,1.956363,0.4249037,2.0192087,-2.0559604,3.2314796
147,1778587653.1820693,-1.50925,2.9745698,-0.14057697,0.9731191,-2.3414512,3.7827542
148,1778587653.2027953,-3.4060628,3.5371218,0.87982637,0.16990969,-3.5068505,3.4732947
149,1778587653.2235634,-3.4060628,3.5371218,0.87982637,0.16990969,-3.5068505,3.4732947
150,1778587653.2439764,-3.4060628,3.5371218,0.87982637,0.16990969,-3.5068505,3.4732947
151,1778587653.2649932,-2.5777326,0.6028214,-0.19256116,3.6842172,-2.241849,5.5303206
152,1778587653.2854502,-1.2437156,-0.2596769,-0.50324607,2.8613002,-2.5182853,5.363074
153,1778587653.3065372,-0.8964222,-0.4373506,-0.3951287,1.6106799,-2.9518478,4.4586644
154,1778587653.3271391,-0.8964222,-0.4373506,-0.3951287,1.6106799,-2.9518478,4.4586644
155,1778587653.3482883,-0.8964222,-0.4373506,-0.3951287,1.6106799,-2.9518478,4.4586644
156,1778587653.368772,0.72826684,-1.6437255,-0.1398448,2.2631543,-1.5968314,1.5164039
157,1778587653.3898919,0.72826684,-1.6437255,-0.1398448,2.2631543,-1.5968314,1.5164039
158,1778587653.4105854,0.20403185,-1.6627622,-0.43368974,1.5041534,-1.4455639,-1.4375744
159,1778587653.4321768,0.20403185,-1.6627622,-0.43368974,1.5041534,-1.4455639,-1.4375744
160,1778587653.452543,0.20403185,-1.6627622,-0.43368974,1.5041534,-1.4455639,-1.4375744
161,1778587653.4732852,0.048567392,-1.4089426,-0.43076107,-0.72278196,-0.4788364,-2.356365
162,1778587653.4945145,-0.6369894,-1.2393227,-0.46492904,-1.2506205,0.2231729,-3.4610443
163,1778587653.5151336,-1.0643337,-1.0972813,-0.41172457,-1.9606192,0.31691617,-4.1396174
164,1778587653.5356927,-1.0643337,-1.0972813,-0.41172457,-1.9606192,0.31691617,-4.1396174
165,1778587653.558138,-3.5183294,1.4299314,-0.4639528,-3.1819448,1.1174624,-4.5683866
166,1778587653.5772877,-4.5031004,2.0574026,0.34802565,-4.074104,2.1475732,-4.9129996
167,1778587653.5981061,-3.2447412,2.425197,1.8948604,-3.512177,0.69721556,-2.7132285
168,1778587653.6190894,-2.9113588,2.4142144,1.8096845,-3.512177,0.69721556,-2.7132285
169,1778587653.639565,-2.9113588,2.4142144,1.8096845,-3.512177,0.69721556,-2.7132285
170,1778587653.6604075,-2.9113588,2.4142144,1.8096845,-3.512177,0.69721556,-2.7132285
171,1778587653.6814616,-0.49616838,1.3662325,-0.50885934,-1.959554,1.8993665,-1.5787219
172,1778587653.702304,-0.5256993,1.2881342,-0.21647878,-1.959554,1.8993665,-1.5787219
173,1778587653.7231524,-0.5256993,1.2881342,-0.21647878,-1.959554,1.8993665,-1.5787219
174,1778587653.7436924,-0.5256993,1.2881342,-0.21647878,-1.959554,1.8993665,-1.5787219
175,1778587653.7649949,0.04271002,0.75340474,0.29945824,-1.8439728,1.3140037,-0.4612595
176,1778587653.7855213,0.1295944,0.75535715,0.27212384,-1.8439728,1.3140037,-0.4612595
177,1778587653.8063726,0.5208182,0.7826916,0.5781716,-1.4966966,0.6348976,0.5400891
178,1778587653.8270242,0.5208182,0.7826916,0.5781716,-1.4966966,0.6348976,0.5400891
179,1778587653.8477514,0.5208182,0.7826916,0.5781716,-1.4966966,0.6348976,0.5400891
180,1778587653.8686438,-0.14301755,1.4938743,-0.05686534,0.34834146,-0.92997587,2.4511735
181,1778587653.8898005,-0.7421781,2.2882807,0.29384494,-0.3158509,-1.6644757,2.5800705
182,1778587653.9104424,-1.7127937,3.3875144,0.63381666,-0.82185155,-2.7755466,2.6077673
183,1778587653.9310231,-1.7127937,3.3875144,0.63381666,-0.82185155,-2.7755466,2.6077673
184,1778587653.9516854,-1.7127937,3.3875144,0.63381666,-0.82185155,-2.7755466,2.6077673
185,1778587653.9723878,-2.1723535,1.7769808,1.7969936,1.3779196,-3.5894086,6.2760057
186,1778587653.9933186,-2.0820522,0.5366819,0.31556603,4.087952,-1.6831179,5.9303274
187,1778587654.0146122,-1.381364,-0.19988288,-0.14936304,3.994209,-1.1856394,5.7673416
188,1778587654.0352745,-1.381364,-0.19988288,-0.14936304,3.994209,-1.1856394,5.7673416
189,1778587654.0561416,-1.381364,-0.19988288,-0.14936304,3.994209,-1.1856394,5.7673416
190,1778587654.0772083,0.26114124,-1.0277251,0.47664383,0.5475459,-3.2767534,-0.10173275
191,1778587654.097985,0.13667206,-1.0601847,0.4373506,1.7635453,-2.117213,-1.1867046
192,1778587654.1184125,-0.23795582,-1.1602482,-0.024649782,2.6306705,-1.2511531,-1.7992316
193,1778587654.139415,-0.23795582,-1.1602482,-0.024649782,2.6306705,-1.2511531,-1.7992316
194,1778587654.1604548,-0.23795582,-1.1602482,-0.024649782,2.6306705,-1.2511531,-1.7992316
195,1778587654.1808658,0.2962855,-1.4467713,-0.49860895,-0.15180019,-1.2596753,-2.495382
196,1778587654.201895,0.31312546,-1.5436621,-0.26358184,-0.9933591,-1.1952267,-3.7412088
197,1778587654.2229898,-0.40513504,-1.432128,-0.23185438,-1.041296,-0.40107206,-4.8469534
198,1778587654.2510617,-0.40513504,-1.432128,-0.23185438,-1.041296,-0.40107206,-4.8469534
199,1778587654.2611828,-0.40513504,-1.432128,-0.23185438,-1.041296,-0.40107206,-4.8469534
200,1778587654.2782938,-0.40513504,-1.432128,-0.23185438,-1.041296,-0.40107206,-4.8469534
201,1778587654.2992826,-0.40513504,-1.432128,-0.23185438,-1.041296,-0.40107206,-4.8469534
202,1778587654.3196557,-0.40513504,-1.432128,-0.23185438,-1.041296,-0.40107206,-4.8469534
203,1778587654.3411074,-0.40513504,-1.432128,-0.23185438,-1.041296,-0.40107206,-4.8469534
204,1778587654.3615968,-0.40513504,-1.432128,-0.23185438,-1.041296,-0.40107206,-4.8469534
205,1778587654.3824773,-1.4094306,1.995656,0.264314,-1.1414309,1.5483619,-1.1430287
206,1778587654.4029412,-1.4094306,1.995656,0.264314,-1.1414309,1.5483619,-1.1430287
207,1778587654.4240339,-1.4094306,1.995656,0.264314,-1.1414309,1.5483619,-1.1430287
208,1778587654.4446723,-1.4094306,1.995656,0.264314,-1.1414309,1.5483619,-1.1430287
209,1778587654.4656196,-1.4094306,1.995656,0.264314,-1.1414309,1.5483619,-1.1430287
210,1778587654.4864018,-1.4094306,1.995656,0.264314,-1.1414309,1.5483619,-1.1430287
211,1778587654.5073369,-0.029286869,0.62063754,0.59989274,-3.2575786,1.9861856,-0.5161206
212,1778587654.528156,0.3533949,0.6221019,0.64260274,-2.5800705,1.1899004,0.020772656
213,1778587654.5497377,0.3533949,0.6221019,0.64260274,-2.5800705,1.1899004,0.020772656
214,1778587654.5696728,0.3533949,0.6221019,0.64260274,-2.5800705,1.1899004,0.020772656
215,1778587654.597956,0.5637722,0.80636513,0.6128277,-0.7419567,1.0748519,0.7584683
216,1778587654.613155,0.5637722,0.80636513,0.6128277,-0.7419567,1.0748519,0.7584683
217,1778587654.632535,0.5637722,0.80636513,0.6128277,-0.7419567,1.0748519,0.7584683
218,1778587654.6530032,0.5637722,0.80636513,0.6128277,-0.7419567,1.0748519,0.7584683
219,1778587654.673619,0.5637722,0.80636513,0.6128277,-0.7419567,1.0748519,0.7584683
220,1778587654.6944716,0.5637722,0.80636513,0.6128277,-0.7419567,1.0748519,0.7584683
221,1778587654.7154903,-0.12324891,1.0338265,0.31654227,-0.7419567,1.0748519,0.7584683
222,1778587654.736244,-0.12324891,1.0338265,0.31654227,-0.7419567,1.0748519,0.7584683
223,1778587654.7573376,-0.12324891,1.0338265,0.31654227,-0.7419567,1.0748519,0.7584683
224,1778587654.777679,-0.12324891,1.0338265,0.31654227,-0.7419567,1.0748519,0.7584683
225,1778587654.7988195,-1.9422076,0.15839316,0.04075756,1.73212,-1.5393071,5.784919
226,1778587654.8194747,0.61819696,-1.3574464,-0.35705575,1.371528,-2.5390577,1.375789
227,1778587654.8411324,0.68262815,-1.3930788,-0.41294485,0.7728494,-2.4106934,-0.23329292
228,1778587654.861201,0.68262815,-1.3930788,-0.41294485,0.7728494,-2.4106934,-0.23329292
229,1778587654.8820431,0.68262815,-1.3930788,-0.41294485,0.7728494,-2.4106934,-0.23329292
230,1778587654.903155,0.68262815,-1.3930788,-0.41294485,0.7728494,-2.4106934,-0.23329292
231,1778587654.9236774,0.68262815,-1.3930788,-0.41294485,0.7728494,-2.4106934,-0.23329292
232,1778587654.9517775,0.68262815,-1.3930788,-0.41294485,0.7728494,-2.4106934,-0.23329292
233,1778587654.966209,0.68262815,-1.3930788,-0.41294485,0.7728494,-2.4106934,-0.23329292
234,1778587654.9862547,0.68262815,-1.3930788,-0.41294485,0.7728494,-2.4106934,-0.23329292
235,1778587655.0067272,-0.8639627,-0.24234885,-0.27895743,-1.8402443,0.16564862,-3.9505332
236,1778587655.0277386,-0.8639627,-0.24234885,-0.27895743,-1.8402443,0.16564862,-3.9505332
237,1778587655.0487304,-0.8639627,-0.24234885,-0.27895743,-1.8402443,0.16564862,-3.9505332
238,1778587655.070238,-0.8639627,-0.24234885,-0.27895743,-1.8402443,0.16564862,-3.9505332
239,1778587655.0900257,-0.8639627,-0.24234885,-0.27895743,-1.8402443,0.16564862,-3.9505332
240,1778587655.1109262,-0.8639627,-0.24234885,-0.27895743,-1.8402443,0.16564862,-3.9505332
241,1778587655.1329,-1.2046666,1.8675259,0.49299565,-2.3611586,1.2170646,-1.3699301
242,1778587655.1523015,-0.42661208,1.2383465,-0.26968327,-0.6375608,2.6972497,-1.1563445
243,1778587655.1733484,-0.32972133,1.0941086,-0.23990828,-1.3454291,2.6178875,-1.123854
244,1778587655.1941025,-0.022453265,0.75999427,0.31507793,-2.3270702,2.354767,-1.0263823
245,1778587655.2151306,-0.022453265,0.75999427,0.31507793,-2.3270702,2.354767,-1.0263823
246,1778587655.2361288,-0.022453265,0.75999427,0.31507793,-2.3270702,2.354767,-1.0263823
247,1778587655.257917,-0.022453265,0.75999427,0.31507793,-2.3270702,2.354767,-1.0263823
248,1778587655.2782803,-0.022453265,0.75999427,0.31507793,-2.3270702,2.354767,-1.0263823
249,1778587655.3052335,0.019036464,0.72118914,0.45419052,-2.3270702,2.354767,-1.0263823
250,1778587655.3224013,-0.13057062,0.9869675,0.25381953,-0.31638354,-1.2607405,1.690042
251,1778587655.3419454,-0.15717287,1.1246158,0.3743838,-0.31638354,-1.2607405,1.690042
252,1778587655.362567,-1.3701375,2.6529024,1.177088,0.5885586,-2.5108283,2.0335898
253,1778587655.3839276,-1.8257922,3.1241767,1.0421244,0.5885586,-2.5108283,2.0335898
254,1778587655.4048443,-4.3029733,4.0689225,0.5989165,1.1994878,-3.097789,3.0423954
255,1778587655.4251368,-4.3376293,3.776542,0.7153318,1.1994878,-3.097789,3.0423954
256,1778587655.4462674,-4.3376293,3.776542,0.7153318,1.1994878,-3.097789,3.0423954
257,1778587655.4671154,-4.3376293,3.776542,0.7153318,1.1994878,-3.097789,3.0423954
258,1778587655.4874623,-4.3376293,3.776542,0.7153318,1.1994878,-3.097789,3.0423954
259,1778587655.508688,-4.3376293,3.776542,0.7153318,1.1994878,-3.097789,3.0423954
260,1778587655.5296812,0.043930303,-1.0369992,-0.097134784,1.0897655,-2.7611654,3.6474655
261,1778587655.5505438,0.46297657,-1.258115,-0.2979939,1.1265172,-2.8032434,2.49698
262,1778587655.5708861,0.46297657,-1.258115,-0.2979939,1.1265172,-2.8032434,2.49698
263,1778587655.5922325,0.23819989,-1.3737983,-0.2762728,0.6359629,-2.6839337,-0.50387007
264,1778587655.6127946,-0.06345488,-1.3376778,-0.26284966,0.48363006,-2.4453146,-1.7640779
265,1778587655.6337411,-0.06345488,-1.3376778,-0.26284966,0.48363006,-2.4453146,-1.7640779
266,1778587655.6593583,-0.06345488,-1.3376778,-0.26284966,0.48363006,-2.4453146,-1.7640779
267,1778587655.675768,-0.06345488,-1.3376778,-0.26284966,0.48363006,-2.4453146,-1.7640779
268,1778587655.696908,-0.06345488,-1.3376778,-0.26284966,0.48363006,-2.4453146,-1.7640779
269,1778587655.717936,-0.06345488,-1.3376778,-0.26284966,0.48363006,-2.4453146,-1.7640779
270,1778587655.7385058,-1.9119445,0.06613952,-0.088104665,-1.9579561,-0.22796659,-4.3840957
271,1778587655.758808,-2.1982236,1.5709965,-0.30507156,-1.3257216,2.530003,-3.7912762
272,1778587655.7801313,-3.41851,2.2050574,-0.2186753,-2.2807312,3.5393412,-4.5843654
273,1778587655.8010209,-3.7748334,2.6892667,0.7746377,-4.222708,0.9917612,-3.5537221
274,1778587655.8217952,-2.9196568,2.5035393,1.3611072,-4.4868937,-0.39894155,-1.9558256
275,1778587655.8424075,-1.3337729,1.9107243,1.2693417,-2.5092304,0.3392867,-0.81439465
276,1778587655.8632576,-0.45736328,1.560014,0.63625723,-0.4111921,1.5648735,-0.60293967
277,1778587655.884288,-0.19817449,1.2117443,-0.15961345,0.35792887,2.4639566,-1.0178602
278,1778587655.9049351,-0.19817449,1.2117443,-0.15961345,0.35792887,2.4639566,-1.0178602
279,1778587655.9258828,-0.006833603,0.89080894,-0.067359805,-0.3797668,2.922553,-0.9651296
280,1778587655.9468129,-0.041733786,0.7990434,0.111290105,-1.0807108,2.449043,-0.8186557
281,1778587655.966955,-0.041733786,0.7990434,0.111290105,-1.0807108,2.449043,-0.8186557
282,1778587655.9881904,0.45004156,0.6733539,0.5427833,-1.3891048,1.7342505,0.2977414
283,1778587656.0133855,0.61746484,0.61502427,0.51593703,-0.773382,1.514806,0.819721
284,1778587656.0321114,0.41465324,0.64138246,0.40659937,-0.10013486,1.1930962,1.0860372
285,1778587656.0518558,0.22428861,0.68482465,0.3099527,0.34514567,0.7030745,1.3049489
286,1778587656.0724525,-0.08688438,0.8502955,0.12544543,0.27856666,-0.43249738,1.8684739
287,1778587656.0936453,0.12080834,1.4374971,0.2882316,-0.105993815,-1.6559536,2.4090955
288,1778587656.1145363,-0.4024504,2.5052476,0.7494998,-0.10066749,-1.9579561,2.0165455
289,1778587656.1344678,-2.8588867,4.5924253,1.0513986,0.44687843,-2.0900488,1.598962
290,1778587656.15573,-4.075512,4.9509454,1.0472497,0.8543421,-3.180347,2.0293288
291,1778587656.1768668,-3.5456638,3.030703,0.7302193,2.6908581,-3.3214946,6.2850604
292,1778587656.1978858,-3.0643828,1.6451898,0.008053889,2.6908581,-3.3214946,6.2850604
293,1778587656.2182512,-1.3454876,0.050763905,-0.6343048,2.8714204,-1.1824435,7.257114
294,1778587656.239079,-0.22502078,-0.7133793,-0.72729063,1.3566142,-1.0871024,5.959622
295,1778587656.2598891,-0.01415532,-0.85590875,-0.68653303,1.3566142,-1.0871024,5.959622
296,1778587656.2807603,0.3699908,-1.2488409,-0.14130914,-0.90281165,-1.0130665,2.5923212
297,1778587656.3015618,0.3499781,-1.3005811,-0.0019524579,-0.90281165,-1.0130665,2.5923212
298,1778587656.3226,0.24161668,-1.4560456,0.24918245,-1.0210559,-0.9443569,-0.0314253
299,1778587656.344186,0.18645974,-1.5397571,0.3219115,-0.67005134,-1.1185277,-0.99069595
300,1778587656.3671224,0.18377511,-1.5502517,0.29018408,-0.67005134,-1.1185277,-0.99069595
301,1778587656.3860893,0.11373068,-1.3713577,-0.09030118,-0.034088463,-1.5595472,-2.7254791
302,1778587656.4066682,-0.051007964,-1.2507933,-0.35827604,0.27324033,-0.8223842,-3.396063
303,1778587656.4276934,-0.67799103,-0.96817505,-0.5435155,-0.039947417,0.10013486,-3.963849
304,1778587656.4483986,-1.0294335,-0.686289,-0.11519502,-1.3725933,0.10333065,-4.293016
305,1778587656.4695592,-1.0294335,-0.686289,-0.11519502,-1.3725933,0.10333065,-4.293016
306,1778587656.4897757,-1.0284572,0.37145513,0.014399378,-2.3638217,-2.6519759,-4.1705103
307,1778587656.5109363,-1.2337095,0.869576,-0.23307467,-1.3912354,0.12144015,-4.8032775
308,1778587656.5319386,-1.956607,1.3759948,-0.29604146,-1.3912354,0.12144015,-4.8032775
309,1778587656.5523882,-3.9988782,2.7349055,0.7382732,-2.6322684,3.3220272,-4.4107275
310,1778587656.5729232,-3.5024655,2.579441,1.057256,-4.931109,0.38722363,-3.042928
311,1778587656.5942419,-1.8419001,1.9448922,1.5204766,-4.7191215,-0.15606125,-1.7710022
312,1778587656.6144829,-1.11705,1.6429933,1.3903941,-2.437325,1.4551512,-1.1020161
313,1778587656.6359746,-0.30409533,0.9855032,-0.15180361,0.7233146,3.853594,-0.793622
314,1778587656.6563659,-0.19671014,0.89080894,-0.24283697,0.7233146,3.853594,-0.793622
315,1778587656.677475,-0.1147069,0.797335,-0.27895743,0.21145499,4.0618534,-0.7861652
316,1778587656.6980715,-0.24308102,0.6452874,0.1403329,-0.96779275,4.4192495,-0.29933932
317,1778587656.721155,-0.24308102,0.6452874,0.1403329,-0.96779275,4.4192495,-0.29933932
318,1778587656.740732,0.40147418,0.5852493,0.5662128,-0.4415521,4.5992794,0.4133226
319,1778587656.7610283,0.8090498,0.7231416,0.65944266,-0.567786,3.349724,0.5139901
320,1778587656.7833276,0.86225426,0.7563334,0.60062486,-1.0599382,1.5185345,0.41545314
321,1778587656.8030906,0.38121742,1.0340706,0.699224,-1.6325178,-0.68816084,0.28549087
322,1778587656.8239148,-0.24112856,1.8870505,0.9874556,-1.4221281,-2.2913837,0.6114618
323,1778587656.8445501,-0.9449896,2.677308,0.6960513,0.330232,-2.0777984,1.3422332
324,1778587656.8655937,-1.3681849,3.1136823,0.55864704,0.330232,-2.0777984,1.3422332
325,1778587656.8864214,-3.8853915,4.2014456,0.35925224,0.94488955,-3.1915324,3.5776906
326,1778587656.9070418,-3.6406019,3.4824529,0.12813005,1.4231933,-2.7041738,5.4477625
327,1778587656.9282503,-2.9357646,2.106214,-0.3961049,1.3773869,-2.582201,6.330867
328,1778587656.9489639,-2.1462393,0.8261338,-0.5630401,1.0764498,-2.431466,6.2206116
329,1778587656.9701939,-1.3698933,0.10372432,-0.28286234,0.3920173,-2.172607,5.9601545
330,1778587656.9903038,-1.3698933,0.10372432,-0.28286234,0.3920173,-2.172607,5.9601545
331,1778587657.0113688,-0.39927766,-0.8956901,0.08566409,0.053795855,-2.4431841,4.101801
332,1778587657.031951,-0.39927766,-0.8956901,0.08566409,0.053795855,-2.4431841,4.101801
333,1778587657.0532365,0.33655494,-1.3947871,0.12007617,0.49641323,-2.4293356,2.2525017
334,1778587657.0746071,0.39659303,-1.4484798,0.1210524,0.89375687,-1.7795243,1.1835088
335,1778587657.0958412,0.2562601,-1.6539761,-0.16058967,1.1286477,-1.4769892,-0.120907515
336,1778587657.1164358,0.11006982,-1.6429933,-0.2238005,0.8064052,-1.6799221,-1.3954965
337,1778587657.137525,-0.012935034,-1.4597064,-0.2596769,0.015978966,-1.2751216,-2.5438516
338,1778587657.15854,-0.010982576,-1.3730661,-0.40611124,0.0037284256,-0.013848438,-3.119627
339,1778587657.180018,-0.06467517,-1.3403623,-0.44686884,0.0037284256,-0.013848438,-3.119627
340,1778587657.1999106,-0.89300543,-0.92082804,-0.28749946,-0.41705105,0.5539375,-4.9859705
341,1778587657.2211833,-1.4465274,-0.31507793,-0.60184515,-0.41705105,0.5539375,-4.9859705
342,1778587657.2412057,-3.5185733,1.5214529,-1.0748281,-0.23435818,2.0298615,-6.46509
343,1778587657.2622027,-4.5763173,2.6436281,-1.1104605,-1.3518206,2.753176,-5.4765244
344,1778587657.2827728,-4.6251287,2.9635873,-0.9174112,-1.3518206,2.753176,-5.4765244
345,1778587657.3034813,-3.0343637,2.7439356,0.61722076,-3.8179078,-0.37230992,-2.4815335
346,1778587657.3247385,-1.142432,1.9834533,0.8305268,-1.9457055,0.68176925,-1.6421051
347,1778587657.3455997,-0.353883,1.5778301,0.38439015,-0.4527374,1.6378441,-1.8833876
348,1778587657.3669508,-0.29872608,1.1504859,-0.33948365,-0.5432849,2.016013,-2.3952472
349,1778587657.3874614,-0.47542354,0.916679,-0.04271002,-1.514806,2.1720743,-2.356365
350,1778587657.4077833,-0.47054234,0.84150934,0.22160399,-2.3409185,2.052232,-1.9137475
351,1778587657.4288337,-0.3824377,0.7839119,0.31068486,-2.5774074,1.881257,-1.1840415
352,1778587657.4495213,0.036852647,0.6557818,0.5086153,-2.3531692,1.6207999,-0.8330368
353,1778587657.4703035,0.08932495,0.86298645,0.51593703,-1.8477012,1.3507553,-0.69295454
354,1778587657.4910147,0.11568313,1.0843463,0.52496713,-1.2863069,1.186172,-0.10226539
355,1778587657.5119529,0.12471326,1.1539028,0.59183884,-0.6396913,1.0551444,0.74461985
356,1778587657.5329325,0.084931925,1.1692783,0.57988006,0.09161274,0.5816344,1.598962
357,1778587657.5538795,-0.08102701,1.3567142,0.3065359,0.7286409,0.08628642,2.23599
358,1778587657.5745199,-0.6325964,1.8804612,0.049543623,0.74728304,-0.41172472,2.5923212
359,1778587657.595429,-0.78586435,2.12281,0.02391761,0.14753912,-0.8319715,3.1798143
360,1778587657.615976,-0.78586435,2.12281,0.02391761,0.14753912,-0.8319715,3.1798143
361,1778587657.6370692,-2.575292,3.7179682,0.9628058,0.572047,-1.9728698,2.8644962
362,1778587657.6577537,-3.3499298,2.7956758,0.60867876,1.3006879,-2.6029737,5.509015
363,1778587657.6786335,-2.6331336,1.1517061,0.08127106,2.1140172,-2.7968519,6.211557
364,1778587657.699393,-2.113536,0.6816519,-0.036852647,2.1140172,-2.7968519,6.211557
365,1778587657.720265,-0.51544887,-0.45467865,-0.379509,2.3574302,-2.3595607,5.0099387
366,1778587657.7409592,-0.30385128,-0.58939826,-0.3912238,2.3574302,-2.3595607,5.0099387
367,1778587657.7618945,0.16864355,-0.9796458,-0.51593703,0.64075655,-2.1236048,2.2264028
368,1778587657.7826855,0.14789869,-1.1233956,-0.2962855,-0.76059884,-2.4064324,1.0961571
369,1778587657.8037546,0.099819414,-1.3559821,0.1867038,-1.1520835,-2.569418,0.13422333
370,1778587657.8245893,-0.022453265,-1.4872849,0.16034561,-1.0173275,-2.6354642,-0.8117315
371,1778587657.8453064,-0.21428227,-1.539025,0.1432616,-1.009338,-2.6061695,-1.3752564
372,1778587657.865941,0.007565775,-1.4277349,0.20085911,-0.3685815,-1.9632823,-1.4679344
373,1778587657.8868408,0.04807928,-1.4194369,-0.07687803,0.61891866,-0.902279,-1.9526298
374,1778587657.9077692,-0.36144876,-1.3013133,-0.50641876,0.7755125,-0.38296258,-2.9912627
375,1778587657.9288352,-1.428223,-0.4756676,-0.59964865,0.039414786,-0.6828345,-4.0378847
376,1778587657.9489079,-1.9824771,0.25894472,-0.64187056,-0.74089146,-0.95128113,-4.0730386
377,1778587657.9703884,-2.216528,1.1856301,-0.44930938,-0.77391464,0.62584287,-3.8551922
378,1778587657.9907546,-2.4395962,1.5453705,-0.38853914,-0.70200926,2.2876554,-4.5673213
379,1778587658.01153,-3.2862308,2.2877927,-0.08664032,-1.8317223,1.4828482,-4.8320394
380,1778587658.0324516,-3.0494952,2.4249527,0.45126185,-2.8522456,0.51292485,-3.7806234
381,1778587658.0533671,-3.0494952,2.4249527,0.45126185,-2.8522456,0.51292485,-3.7806234
382,1778587658.0740395,-0.73680884,1.8645973,0.12471326,-0.30626354,1.5270566,-1.5733956
383,1778587658.095514,-0.48640612,1.7249967,-0.042221904,0.42397526,2.0090888,-1.4349113
384,1778587658.115486,-0.40293851,1.2590914,-0.28383857,-0.5571333,1.7672738,-1.8141453
385,1778587658.137155,-0.37121108,1.0543274,-0.29116032,-1.5249261,1.5446335,-1.433846
386,1778587658.1573386,-0.37121108,1.0543274,-0.29116032,-1.5249261,1.5446335,-1.433846
387,1778587658.1783807,-0.09689073,0.6765267,0.3961049,-2.3089607,1.1765846,-0.51931643
388,1778587658.1992419,0.10714114,0.7668279,0.5142286,-1.6809874,1.0753845,-0.12410331
389,1778587658.220221,0.10714114,0.7668279,0.5142286,-1.6809874,1.0753845,-0.12410331
390,1778587658.2406378,0.2945771,1.0035634,0.22428861,-1.1472899,0.6870956,0.4063984
391,1778587658.2614965,0.21940747,1.1172941,0.24137263,-0.6013418,0.13369069,1.6564863
392,1778587658.2821147,-0.16742326,1.5036367,0.25259924,-0.26205507,-0.45859635,1.9531624
393,1778587658.303415,-0.5354616,1.7789333,0.21281794,-0.26205507,-0.45859635,1.9531624
394,1778587658.3238783,-1.2878901,2.924294,0.44516042,-0.2860235,-1.7534252,3.5787559
395,1778587658.344715,-1.8016307,3.3360183,0.88031447,0.31851408,-1.8998991,3.9441416
396,1778587658.3655348,-2.895251,3.150779,0.6037976,1.470065,-2.3419838,4.4485445
397,1778587658.3872027,-2.119149,1.8267684,0.33191785,2.2972429,-1.9329224,5.800365
398,1778587658.4075835,-2.119149,1.8267684,0.33191785,2.2972429,-1.9329224,5.800365
399,1778587658.428297,-0.49568027,0.039537273,-0.71020657,3.3981936,-1.1845741,5.661348
400,1778587658.4487507,-0.28261828,-0.13667206,-0.68433654,2.2658174,-0.8404937,4.5587993
401,1778587658.4697561,-0.0046370877,-0.5442477,-0.200371,0.69774824,-1.1334413,3.128149
402,1778587658.4905946,0.041001618,-0.68384844,0.071264714,-0.4910869,-1.6772588,1.9110844
403,1778587658.5115042,0.12520137,-0.81685966,0.27358818,-1.0849719,-1.9169434,1.0279802
404,1778587658.5323746,0.12520137,-0.81685966,0.27358818,-1.0849719,-1.9169434,1.0279802
405,1778587658.5532947,-0.031239327,-1.1917315,0.5332651,-0.8085357,-1.5622103,-0.76752305
406,1778587658.5747395,-0.29872608,-1.2859375,0.52960426,-0.3584615,-1.5009576,-1.6266588
407,1778587658.595169,-0.44149956,-1.2537221,0.43466598,0.19547603,-1.530785,-1.9643476
408,1778587658.6156151,-0.28701133,-1.2561626,-0.12154051,0.8175905,-1.4705976,-1.8881812
409,1778587658.636961,-0.3219115,-1.0660421,-0.8246695,0.42290998,-0.1635181,-3.2895367
410,1778587658.6569977,-0.5952556,-0.91399443,-0.79513854,0.42290998,-0.1635181,-3.2895367
411,1778587658.677981,-1.6359158,0.01854835,-0.916679,-0.6151902,0.041012682,-4.2647862
412,1778587658.6986794,-2.1767466,1.0155222,-0.5554743,-2.540123,0.6849651,-4.9119344
413,1778587658.7194788,-2.680969,1.368429,-0.39317623,-2.540123,0.6849651,-4.9119344
414,1778587658.7404733,-3.8424375,2.2895012,0.69409883,-3.0663638,1.9361181,-4.564658
415,1778587658.761217,-3.5676289,2.4459417,0.9818423,-3.0663638,1.9361181,-4.564658
416,1778587658.78176,-2.0117638,2.1047497,0.42051062,-0.50653327,1.5313177,-2.2919164
417,1778587658.8029864,-1.146825,1.7821059,0.084931925,0.34248254,2.5545042,-2.066613
418,1778587658.8235683,-0.49519217,1.5119346,-0.18816814,0.2908172,2.8836708,-2.091114
419,1778587658.8444219,-0.38951537,1.3679409,-0.17254847,-0.53263223,2.4916537,-1.9845877
420,1778587658.8652475,-0.33411437,1.2978964,-0.09542638,-0.53263223,2.4916537,-1.9845877
421,1778587658.8862407,-0.09615856,1.069947,0.49909708,-2.606702,0.8633968,-1.2330436
422,1778587658.9071167,-0.10884953,1.1482893,0.60086894,-2.4948494,0.67697555,-0.80800307
423,1778587658.9277847,-0.18914436,1.3013133,0.5776835,-2.4948494,0.67697555,-0.80800307
424,1778587658.9489212,0.3121492,1.2866699,0.14130914,-1.6266588,-0.07403588,0.75580513
425,1778587658.9698675,0.27432033,1.2856936,0.01513155,-1.5488945,-0.46978164,1.3262542
426,1778587658.990026,-0.09664667,1.2759314,0.21574661,-1.3060142,-0.34088463,2.030394
427,1778587659.010991,-0.4271002,1.3713577,0.34900185,-0.49161956,-0.058589544,2.8352013
428,1778587659.0315635,-0.4271002,1.3713577,0.34900185,-0.49161956,-0.058589544,2.8352013
429,1778587659.0531251,-1.4606826,2.9555333,0.3572998,-0.25832662,-2.283927,3.4349453
430,1778587659.0733492,-2.9462593,3.5866654,1.4396937,-0.4383563,-3.286341,3.2197618
431,1778587659.0947993,-2.2768102,2.3165915,0.7060576,4.393151,-1.2458268,5.3508234
432,1778587659.1150708,-2.0100555,1.7162106,0.16473864,4.393151,-1.2458268,5.3508234
433,1778587659.1366487,-2.0796118,0.57524294,-0.34851375,3.3688989,-1.7406421,3.6804886
434,1778587659.156834,-1.0467615,-0.19939478,-0.43466598,1.8258632,-2.0628846,3.7342846
435,1778587659.1778138,-0.16254212,-0.44857723,-0.40293851,0.55287224,-2.1571605,3.2969935
436,1778587659.1982586,0.5266756,-0.673842,-0.24064046,-0.6178534,-2.0213394,2.551841
437,1778587659.2192852,0.626739,-0.73412424,-0.0976229,-0.6178534,-2.0213394,2.551841
438,1778587659.2403183,0.5210622,-0.8161274,0.26480213,-1.3837786,-1.9446403,-0.0031957934
439,1778587659.2612333,0.29823795,-0.8358961,0.36974674,-0.88470215,-1.5398397,-1.0365024
440,1778587659.28151,-0.16717921,-0.86225426,0.3704789,-0.20080236,-0.9890981,-1.4881744
441,1778587659.303038,-0.33265,-0.7936742,0.29213652,0.406931,-0.5970807,-1.2772521
442,1778587659.3233082,-0.10055158,-0.7597502,0.17620933,0.8016115,-0.60240704,-0.8793758
443,1778587659.3444881,-0.10055158,-0.7597502,0.17620933,0.8016115,-0.60240704,-0.8793758
444,1778587659.3649144,-0.25406358,-0.7060576,-0.39805737,0.59122175,-1.4082797,-2.0730047
445,1778587659.3857157,-0.25406358,-0.7060576,-0.39805737,0.59122175,-1.4082797,-2.0730047
446,1778587659.4065392,-1.0167425,0.41855815,-0.6050179,-0.22530343,-0.8341021,-2.561961
447,1778587659.427691,-0.78635246,0.6399181,-0.93278676,-0.27643612,0.10546118,-2.7084348
448,1778587659.4479983,-0.78635246,0.6399181,-0.93278676,-0.27643612,0.10546118,-2.7084348
449,1778587659.4689057,-3.5930107,2.335872,0.200371,-2.3638217,2.1497037,-4.3739758
450,1778587659.4896088,-3.0817108,2.3182998,0.55059314,-2.910835,1.865278,-2.9683595
451,1778587659.5105703,-2.2331238,2.1425786,0.5701177,-2.9523804,0.5448828,-2.004295
452,1778587659.531149,-1.3481722,1.8289651,0.25430766,-2.2354574,0.35633096,-1.4413028
453,1778587659.5521479,-0.33875147,1.3657444,-0.2323425,-1.7465011,1.1728562,-1.3278521
454,1778587659.5732539,-0.2633378,1.0906918,-0.22916976,-1.804558,2.1438446,-1.6559536
455,1778587659.5943084,-0.21184167,0.9266854,-0.09322987,-2.3952472,2.8437235,-1.5824504
456,1778587659.6149998,-0.23990828,0.6745742,0.36681804,-2.5220137,2.4714136,-1.2687299
457,1778587659.6354682,-0.20329969,0.65968674,0.469078,-2.5220137,2.4714136,-1.2687299
458,1778587659.6563313,0.19671014,0.7084982,0.50812715,-1.4588797,1.8908445,-0.15819177
459,1778587659.6772964,0.31434575,0.8393129,0.38121742,-1.4588797,1.8908445,-0.15819177
460,1778587659.6979644,0.24405725,0.9901402,0.32532832,-0.25566345,1.9142802,1.1403656
461,1778587659.7189074,0.08786061,1.087031,0.39659303,0.25246766,1.2905679,1.8903117
462,1778587659.7399251,0.041733786,1.2085714,0.353883,0.51931643,-0.26045716,2.2855248
463,1778587659.760485,-0.31776255,1.8382392,0.15961345,0.6295713,-1.2580773,2.4005735
464,1778587659.7817223,-0.53863436,2.2316594,0.20159128,0.6295713,-1.2580773,2.4005735
465,1778587659.8021834,-1.8316495,3.8231566,0.5954997,0.6823019,-1.2692626,3.1467912
466,1778587659.8228364,-2.8681607,3.9961934,0.5259434,1.1462245,-1.8647454,3.6037896
467,1778587659.8442235,-2.605555,2.740275,0.5940353,1.2772521,-2.0511668,4.640292
468,1778587659.865141,-2.523796,2.2860842,0.4651731,1.8455707,-1.8647454,5.088236
469,1778587659.8854616,-1.6503152,0.84858704,0.091033354,2.149171,-1.5025555,5.3944993
470,1778587659.9060988,-1.0106411,0.1444819,-0.05296042,1.9078887,-1.6287893,4.9129996
471,1778587659.9271948,-0.31068486,-0.34949,-0.20671648,1.3454291,-1.7955033,3.981426
472,1778587659.9475837,0.07980672,-0.58207655,-0.22209209,0.5006743,-1.5009576,2.9257488
473,1778587659.9692397,0.21184167,-0.989164,-0.05296042,-0.7302388,-1.6160061,1.9371834
474,1778587659.9893591,0.18841219,-1.1465809,0.042221904,-1.7534252,-2.2322617,0.9550096
475,1778587660.0101397,0.28335047,-1.5031487,0.26553428,-2.0074909,-2.799515,-0.14168017
476,1778587660.0312765,0.11324256,-1.5321914,0.24161668,-1.7465011,-3.1723576,-1.3630059
477,1778587660.051993,0.11324256,-1.5321914,0.24161668,-1.7465011,-3.1723576,-1.3630059
478,1778587660.072774,-0.6484601,-0.9789136,-0.2443013,-0.28442562,-2.247708,-2.2226744
479,1778587660.0936055,-0.62356627,-0.86298645,-0.41855815,0.6860303,-0.7616641,-1.9750003
480,1778587660.114445,-1.2700739,-0.16278619,-0.31556603,0.5422196,0.175236,-2.3664849
