id,timestamp,acc_x,acc_y,acc_z,gyro_x,gyro_y,gyro_z
1,1778591202.4281914,-0.5037342,-0.6879974,0.96353805,-0.3552657,5.478122,-0.7036072
2,1778591202.4487126,-0.43051702,-2.225558,0.6877533,-1.0301107,1.0636666,0.4990764
3,1778591202.4694805,-1.55196,-5.526432,-0.26968327,-1.0301107,1.0636666,0.4990764
4,1778591202.490224,-1.2817887,-6.172696,0.92937,-4.629639,-1.623463,3.7087183
5,1778591202.5112936,0.054424766,-3.0128868,1.1319375,-0.08468852,2.5395904,1.2575446
6,1778591202.5314014,0.049543623,-2.3902967,0.8576172,-0.08468852,2.5395904,1.2575446
7,1778591202.5544431,0.117147475,-1.1863623,0.30726805,-0.13795175,-1.1851068,-0.36218992
8,1778591202.5751626,0.34851375,-0.58329684,0.20793676,-0.87564737,-2.8336034,-0.6178534
9,1778591202.5960147,0.37584817,-0.37706846,0.17572121,-0.87564737,-2.8336034,-0.6178534
10,1778591202.6166599,0.16522676,0.13105874,0.06809197,-0.509729,-0.35633096,-1.0546118
11,1778591202.6379778,-0.033923957,0.26675457,0.007565775,-0.03089267,0.9635317,-0.871919
12,1778591202.6591866,-0.022697324,0.2545517,-0.05198419,0.22796659,1.133974,-0.5070659
13,1778591202.6797202,0.033435844,0.24674188,-0.11983211,0.30146983,0.94542223,-0.23595607
14,1778591202.7000265,0.16425052,0.3077562,0.029530926,0.19867182,0.83942837,-0.12942964
15,1778591202.7202165,0.18938842,0.3612047,0.10055158,0.19920446,1.2767195,-0.24074976
16,1778591202.7417674,0.0051252022,0.46834585,0.2608972,0.19920446,1.2767195,-0.24074976
17,1778591202.7628245,-0.4617563,0.17742962,0.18401916,1.0173275,1.2948289,0.61838603
18,1778591202.783307,-0.17987019,-0.026602242,-0.07468152,1.3608754,0.0644485,1.4029533
19,1778591202.804328,0.0039049159,-0.107629254,-0.23673552,1.3624732,-0.09427591,1.3081448
20,1778591202.8246858,0.0036608586,0.0046370877,-0.20012695,1.3923006,0.13954964,1.1126688
21,1778591202.8460383,-0.035632357,-0.014399378,0.3402158,1.7198695,-0.13795175,0.74675035
22,1778591202.8658476,-1.4328601,-1.900962,0.9786696,1.9393139,-0.0063915867,-0.00479369
23,1778591202.887465,-1.0792211,-2.784449,1.551716,2.004295,2.5395904,0.56725335
24,1778591202.9081156,-0.3660859,-3.9644659,1.768683,0.45327002,-2.1166804,5.055745
25,1778591202.9292653,-0.3162982,-2.860107,1.4355447,0.6098639,0.3291667,4.5699844
26,1778591202.9497132,-0.80563295,-2.3802903,1.2227268,0.54435015,2.386725,2.418683
27,1778591202.9713323,-1.5641629,-2.0173774,0.9862353,-0.36112466,2.8666267,0.82611257
28,1778591202.9915643,-1.121443,-1.888759,1.1478013,-0.36112466,2.8666267,0.82611257
29,1778591203.0127478,-0.6379657,-1.4809394,0.69214636,-2.6908581,-1.2548815,-0.95660746
30,1778591203.033739,-0.15082738,-1.1949043,0.23746772,-2.6088326,-1.3933659,-1.0663297
31,1778591203.0546684,-0.11836776,-0.9091133,0.14082102,-2.3467777,-0.43569317,-1.6724652
32,1778591203.0745578,-0.08175918,-0.28871974,0.3133695,-2.058091,0.02876214,-2.2253375
33,1778591203.0958607,0.04075756,-0.00073217176,0.21452633,-1.8461033,-1.2447615,-2.4453146
34,1778591203.1172545,-0.035876416,0.18060236,0.029042812,-1.6937705,-1.9510318,-2.556102
35,1778591203.1373522,-0.08981306,0.21550256,0.011226633,-1.3848438,-1.5920377,-2.321744
36,1778591203.1585429,-0.122760795,0.088348724,0.1969542,-0.80107886,-1.1813782,-1.903095
37,1778591203.1801462,-0.20842488,-0.014887493,0.33777523,0.034088463,-0.7488809,-1.4556838
38,1778591203.2014403,-0.3236199,-0.18157859,0.43661842,1.0743192,-0.0479369,-0.9305085
39,1778591203.2225912,-0.20354374,-0.19402552,0.2928687,2.1209416,1.0657971,-0.2146508
40,1778591203.2418149,-0.061502427,-0.1181237,0.06272271,2.6951191,1.464206,0.27696875
41,1778591203.2632654,0.073949344,-0.036120474,-0.19768637,2.5699506,0.6940198,0.32810146
42,1778591203.2831566,0.110557936,0.042221904,-0.29091623,1.9393139,-0.8586032,0.0958738
43,1778591203.3045688,0.110557936,0.042221904,-0.29091623,1.067395,-2.4277377,-0.19707392
44,1778591203.3244867,0.04905551,0.03929322,-0.11373068,0.25726137,-3.2549155,-0.43995422
45,1778591203.3454983,0.009518232,0.0026846298,-0.10714114,-0.13102753,-3.3012545,-0.67324716
46,1778591203.3657606,-0.50593066,-1.2864257,0.65797836,-0.47990164,-2.5204158,-0.74728304
47,1778591203.3872778,-0.14643435,-2.1835802,2.7698057,-3.4418695,7.6997313,0.17896444
48,1778591203.4076948,-0.84004503,-3.6506083,0.5859815,-2.420281,7.4461985,-0.18535602
49,1778591203.428123,-1.4384733,-5.471031,-0.17084008,-1.4189322,-3.6810212,0.011185277
50,1778591203.4498603,-0.43368974,-4.523601,2.5643096,-3.1031153,-4.5566688,1.5792545
51,1778591203.4695938,-0.022209208,-1.5187683,0.36950266,1.8216022,0.21358553,0.3888215
52,1778591203.4904156,0.09615856,-0.92497694,0.19719826,0.41438788,-1.5755261,-0.027164243
53,1778591203.5120535,0.25406358,-0.4685899,-0.15741692,-0.0058589545,-2.198706,-0.4032026
54,1778591203.5324068,0.2818861,-0.27871338,-0.26211748,0.037284255,-1.1478225,-0.58269966
55,1778591203.5535233,0.30800024,-0.18523945,-0.2421048,0.037284255,-1.1478225,-0.58269966
56,1778591203.5741248,0.27554062,0.14863087,-0.29726174,0.029827405,0.14807177,-0.81013364
57,1778591203.594489,0.255772,0.23429495,-0.22868164,-0.21145499,-0.29028457,-0.8878979
58,1778591203.6153889,0.26870704,0.24649782,-0.10177187,-0.21145499,-0.29028457,-0.8878979
59,1778591203.636859,0.0370967,0.45467865,-0.20012695,0.0793622,0.85594,-1.3129385
60,1778591203.658327,0.0370967,0.45467865,-0.20012695,0.0793622,0.85594,-1.3129385
61,1778591203.6767807,-0.6035536,0.9371798,-0.16278619,-0.046339005,2.1038973,-0.20186761
62,1778591203.6986537,-0.8361401,0.65675807,0.3482697,0.2609898,1.0727214,0.7637946
63,1778591203.7195115,-0.057841565,-0.12007617,0.54815257,1.6442357,0.51771855,0.8165252
64,1778591203.7393112,0.33582276,-0.34753752,0.7197248,2.8868666,0.38615838,0.28495824
65,1778591203.7603202,0.33582276,-0.34753752,0.7197248,3.9473374,0.5273059,-0.3371562
66,1778591203.7812412,-0.053692598,-1.0638455,0.69287854,3.9457395,0.3787015,-0.43995422
67,1778591203.801673,-0.17816179,-1.9636846,1.2000295,3.1723576,2.9103024,0.05486112
68,1778591203.8224242,-0.017084008,-1.9117005,1.1431642,0.65034395,1.9041603,0.9890981
69,1778591203.844112,-0.010738519,-2.1765025,1.1404796,-0.5342301,-0.69348717,1.5472966
70,1778591203.8637922,-0.4761557,-2.4483821,0.66188323,-1.0130665,0.2860235,1.917476
71,1778591203.8849769,-1.4853324,-3.035828,0.9056965,-1.8572886,1.2900352,2.8703551
72,1778591203.9054475,-1.325963,-2.9979992,1.0250404,-2.4788704,3.9574575,4.347877
73,1778591203.9284554,-0.84565836,-2.8508327,1.1407236,-2.538525,3.1270838,4.321245
74,1778591203.9490075,-0.6953191,-1.5973547,0.2272173,-1.969674,-1.310808,-1.8141453
75,1778591203.96941,-0.6879974,-1.010397,0.49592432,-2.6189528,-1.7475663,-2.330266
76,1778591203.989363,-0.33094162,-0.5205741,0.5806122,-2.1230721,-2.790993,-1.8237327
77,1778591204.0114205,0.07248501,-0.008542004,0.23380683,-2.1230721,-2.790993,-1.8237327
78,1778591204.0337775,0.26480213,0.15692882,0.08175918,-1.4658039,-3.1872714,-1.6362462
79,1778591204.0546734,0.32093528,0.264314,-0.09786696,-0.32969934,-1.675661,-1.8221349
80,1778591204.0751183,0.264314,0.18157859,-0.027334413,-0.05273059,-0.87618,-2.0751352
81,1778591204.096497,0.16449459,0.13081467,0.15375607,0.28549087,-0.3882889,-2.279666
82,1778591204.1163511,0.1244692,0.099087246,0.1867038,0.7819041,-0.01917476,-2.3744745
83,1778591204.1375244,0.027090356,0.03904916,0.16278619,1.1456919,0.12250541,-2.330266
84,1778591204.1582103,-0.06858008,0.094206095,0.11592719,1.3827133,0.1257012,-2.0852551
85,1778591204.179703,-0.110801995,0.15155955,0.035144243,1.5558188,-0.12250541,-1.7374463
86,1778591204.19932,-0.0976229,0.10640897,-0.017572122,1.6575515,-0.7344999,-1.5068166
87,1778591204.2210758,-0.09689073,0.093473926,-0.037828874,1.7172064,-1.3539511,-1.5121429
88,1778591204.240687,-0.09689073,0.093473926,-0.037828874,1.7172064,-1.3539511,-1.5121429
89,1778591204.2616582,-0.21965154,-0.04002539,-0.22135992,0.8740495,-2.0133498,-1.7273263
90,1778591204.2821715,-0.21965154,-0.04002539,-0.22135992,0.8740495,-2.0133498,-1.7273263
91,1778591204.303389,-0.4283205,-0.94279313,0.72607034,-2.02347,8.27817,-0.23915187
92,1778591204.3238986,0.26187342,-2.1459954,2.848148,-3.1957934,9.757822,0.1587244
93,1778591204.3441222,-0.35144243,-2.5779767,0.15155955,-1.5217303,-3.4115095,0.36911413
94,1778591204.3646483,-0.345341,-6.544395,-0.37316352,-1.1313108,-10.026269,1.8141453
95,1778591204.3865545,0.7321718,-2.8725538,1.922683,-0.48522797,2.1981733,1.113734
96,1778591204.4063406,0.5857374,-2.3419733,1.2971642,-0.48522797,2.1981733,1.113734
97,1778591204.4273007,0.485918,-1.952214,0.8327233,0.6103965,-2.3883228,0.51292485
98,1778591204.4492052,0.54839665,-0.6025773,-0.06443111,0.30999196,-1.1792477,-0.15819177
99,1778591204.4699001,0.5281399,-0.379509,-0.16547081,0.30999196,-1.1792477,-0.15819177
100,1778591204.4904304,0.10372432,0.3360668,0.15277983,-0.6492787,0.8032094,-0.041012682
101,1778591204.5114946,-0.027090356,0.47151858,0.32630453,-0.4926848,0.8181231,0.44741106
102,1778591204.5319226,-0.010982576,0.44418418,0.29116032,-0.4926848,0.8181231,0.44741106
103,1778591204.5522344,0.1044565,0.33094162,-0.12886222,0.5928197,0.531567,1.1749867
104,1778591204.5740876,0.117391534,0.34119204,-0.2596769,0.5928197,0.531567,1.1749867
105,1778591204.5969143,-0.0024405725,0.39464056,-0.20622836,0.10066749,1.1366372,0.9890981
106,1778591204.617109,-0.22331238,0.35607952,-0.06418706,-0.2609898,1.7534252,0.67484504
107,1778591204.64076,-0.31141704,-0.16278619,0.21843125,-0.011717909,1.6016251,0.8165252
108,1778591204.6628304,-0.13545178,-0.18011424,0.14814276,0.6540724,1.0711234,0.6759103
109,1778591204.6798644,-0.13545178,-0.18011424,0.14814276,0.6540724,1.0711234,0.6759103
110,1778591204.6995964,-0.13935669,-0.011958805,0.23356278,1.9318571,0.97258645,-0.10226539
111,1778591204.7212212,-0.27651685,-0.22477673,0.2928687,2.4160197,-0.44900897,0.13262543
112,1778591204.7414544,-0.90740484,-0.5379022,0.27334413,2.3031018,1.0636666,0.4426174
113,1778591204.762208,-0.23136626,-2.9396696,2.3048768,0.773382,3.8317564,1.3161342
114,1778591204.782385,0.63113207,-3.1105096,1.2559186,0.11984225,-0.84422207,2.8176246
115,1778591204.8037736,0.040269446,-3.3904433,0.9606094,0.19813919,-2.3840618,3.266101
116,1778591204.8241732,-0.6191732,-2.5518627,1.5329236,0.19121496,2.13479,2.3734093
117,1778591204.845252,-0.9127741,-2.3390448,1.3589108,0.24714136,2.4820662,1.4833808
118,1778591204.8658144,-1.2708061,-1.7818619,1.0123495,-1.073254,2.389388,1.041296
119,1778591204.8883257,-0.66871685,-1.8858303,0.6465077,-2.4256072,-1.7917749,-0.6061355
120,1778591204.9075189,-0.10396838,-1.3281596,0.29652956,-2.4256072,-1.7917749,-0.6061355
121,1778591204.928387,-0.099087246,-1.1270564,0.2884757,-2.338788,-1.8295918,-0.8064052
122,1778591204.9487255,0.20622836,-0.5749989,0.21159762,-1.1472899,-0.34461305,-1.7619474
123,1778591204.9697287,0.25040275,-0.12373702,0.15668476,-0.8878979,-1.4162691,-2.108691
124,1778591204.9905045,0.25040275,-0.12373702,0.15668476,-0.8878979,-1.4162691,-2.108691
125,1778591205.0116668,0.012202863,0.09030118,-0.1244692,-0.6327671,-1.856756,-2.2269354
126,1778591205.0318713,-0.10860548,0.06613952,-0.07785426,-0.525708,-1.5483619,-1.8322549
127,1778591205.0532432,-0.13618395,0.057109397,0.09664667,-0.13582122,-1.2282499,-1.3502227
128,1778591205.074184,-0.107629254,0.00097622897,0.23673552,0.47031426,-0.561927,-1.0652645
129,1778591205.0951042,-0.15912533,-0.056377225,0.27944556,0.47031426,-0.561927,-1.0652645
130,1778591205.1138995,-0.14692247,-0.08981306,0.1718163,1.649562,1.1478225,-0.43569317
131,1778591205.1362464,-0.04637088,-0.02318544,0.01586372,1.8540928,0.78563255,-0.2828277
132,1778591205.1565144,-0.04637088,-0.02318544,0.01586372,1.8626149,-0.099069595,-0.28708878
133,1778591205.177322,0.022697324,0.016107777,-0.12837411,1.6895094,-1.2090752,-0.46711847
134,1778591205.1980307,-0.002928687,0.026114125,-0.17767367,1.2911005,-2.1193435,-0.7126619
135,1778591205.2182453,-0.09811102,-0.051740136,-0.040513504,0.9667275,-2.4522388,-0.9890981
136,1778591205.2387533,-0.835652,-0.6667644,0.2506468,0.6599313,-1.1877699,-1.0114686
137,1778591205.2597868,0.08444381,-1.6642264,2.8191054,-1.2634037,11.856394,0.39148468
138,1778591205.2810423,-0.4166057,-2.191146,0.4471129,-0.7414241,5.7865167,0.051132694
139,1778591205.3022268,-0.44418418,-3.6798952,-0.74364245,-1.0567423,-5.3012886,0.56672066
140,1778591205.3227203,-1.1077759,-5.7902584,1.2332213,-4.217382,-5.3929014,1.2357068
141,1778591205.3439896,0.029042812,-3.9576323,2.4835265,-3.8631816,2.1294637,1.6000272
142,1778591205.3647048,-0.234539,-1.94416,0.3397277,0.7850999,0.89535475,-0.014913702
143,1778591205.3863134,-0.15766099,-1.3720899,0.21330604,0.40852892,-0.46978164,-0.013315806
144,1778591205.4065835,0.11665936,-0.8771418,0.17059602,-0.6018744,-0.6034723,0.23435818
145,1778591205.428444,0.208913,-0.33265,0.1969542,-0.5203817,-0.72491246,-0.03568636
146,1778591205.4485054,0.16400647,-0.07687803,0.25137895,-0.5203817,-0.72491246,-0.03568636
147,1778591205.470447,0.15839316,0.12471326,0.11983211,0.066046394,0.10652645,-0.17257284
148,1778591205.4910612,0.053936653,0.25748038,-0.00024405724,0.18588865,-0.2727077,0.006924219
149,1778591205.5108697,0.15570852,0.2716357,-0.046858992,0.33129725,-0.6450176,0.11824436
150,1778591205.530479,0.23502712,0.31581008,-0.16571487,0.31798145,-0.5550028,-0.0053263223
151,1778591205.5514483,0.24600971,0.32947728,-0.17254847,0.31798145,-0.5550028,-0.0053263223
152,1778591205.5723014,0.088348724,0.41758195,-0.063943,0.013848438,1.5504924,-0.41172472
153,1778591205.5932462,-0.088104665,0.44662476,-0.029774986,0.013848438,1.5504924,-0.41172472
154,1778591205.6145835,-0.5359497,0.20476402,0.030751213,0.83942837,0.535828,1.0977551
155,1778591205.6397758,-0.0959145,-0.10933765,0.06638357,1.3390374,0.9550096,1.5259913
156,1778591205.6655393,0.060038086,-0.15570852,0.34387666,1.7374463,1.6980315,1.1478225
157,1778591205.6826162,-0.06687169,-0.33362624,1.2141849,2.2860575,1.8935076,0.386691
158,1778591205.700746,-0.28042176,-0.5281399,1.5502517,2.5726137,-0.16777915,-0.3568636
159,1778591205.7223842,-0.6284474,-2.3165915,-0.2438132,3.0178943,1.0764498,0.23861924
160,1778591205.7417269,-0.5379022,-3.0804906,1.876068,0.65460503,2.0032299,2.6205506
161,1778591205.764005,-0.5379022,-3.0804906,1.876068,0.65460503,2.0032299,2.6205506
162,1778591205.7825093,-0.48713827,-2.6021385,0.42270714,0.03355583,-1.383246,4.3361588
163,1778591205.8052993,-0.7106947,-2.2218971,0.9969738,-0.99548966,1.7789917,2.394182
164,1778591205.824779,-0.7106947,-2.2218971,0.9969738,-0.99548966,1.7789917,2.394182
165,1778591205.84746,-0.96329397,-1.7838144,0.94913864,-2.2173479,-0.9076053,-1.202151
166,1778591205.8668234,-0.96329397,-1.7838144,0.94913864,-2.2173479,-0.9076053,-1.202151
167,1778591205.8889143,-0.96329397,-1.7838144,0.94913864,-2.2173479,-0.9076053,-1.202151
168,1778591205.9083464,-0.96329397,-1.7838144,0.94913864,-2.2173479,-0.9076053,-1.202151
169,1778591205.92918,-0.17547716,-0.44418418,0.08517598,-0.7813715,-2.126268,-1.9329224
170,1778591205.9488075,-0.067847915,-0.0051252022,-0.05296042,-0.9938917,-2.4916537,-1.8977686
171,1778591205.971256,0.11153416,0.15790504,-0.13911264,-0.9187906,-2.9076393,-1.726261
172,1778591205.990846,0.11153416,0.15790504,-0.13911264,-0.9187906,-2.9076393,-1.726261
173,1778591206.0128243,0.11153416,0.15790504,-0.13911264,-0.9187906,-2.9076393,-1.726261
174,1778591206.0322433,-0.0065895454,0.056133166,0.020744866,0.7568704,-1.7704695,-1.4631407
175,1778591206.0546613,-0.008542004,0.0017084008,0.09664667,0.7568704,-1.7704695,-1.4631407
176,1778591206.0740633,-0.049787678,-0.025137896,0.047347106,1.4732608,-0.4426174,-1.3598101
177,1778591206.0958936,-0.06687169,-0.01952458,0.024893839,1.4732608,-0.4426174,-1.3598101
178,1778591206.1164725,-0.06687169,-0.01952458,0.024893839,1.4732608,-0.4426174,-1.3598101
179,1778591206.1392462,-0.16254212,0.04002539,-0.28115395,1.9110844,-0.22050974,-1.1142666
180,1778591206.158198,-0.21599068,0.047103047,-0.34509695,1.5243934,-0.2263687,-0.9635317
181,1778591206.179273,-0.32947728,-0.036852647,-0.28261828,0.88470215,-0.3371562,-0.74035877
182,1778591206.1999679,-0.32947728,-0.036852647,-0.28261828,0.88470215,-0.3371562,-0.74035877
183,1778591206.2214062,-0.32947728,-0.036852647,-0.28261828,0.88470215,-0.3371562,-0.74035877
184,1778591206.2413228,-0.3572998,-2.2050574,-0.39537275,-0.15073492,0.009054748,0.6332997
185,1778591206.2629268,-0.17889395,-2.9362526,-0.58158845,-2.2855248,-6.5337996,1.2042814
186,1778591206.2827108,-0.80368054,-4.842096,2.2821794,-4.902347,-1.5984293,1.067395
187,1778591206.3047075,-0.80368054,-4.842096,2.2821794,-4.902347,-1.5984293,1.067395
188,1778591206.324088,-0.80368054,-4.842096,2.2821794,-4.902347,-1.5984293,1.067395
189,1778591206.3450685,0.122516744,-1.1966126,0.20769271,0.31052458,-0.016511599,-0.3057309
190,1778591206.3658419,0.20671648,-0.53936654,0.07468152,-0.5640575,-0.10972224,-0.61838603
191,1778591206.3871336,0.08981306,-0.10030753,0.30897647,-1.1249193,-0.57790595,-0.7909589
192,1778591206.4075348,0.08981306,-0.10030753,0.30897647,-1.1249193,-0.57790595,-0.7909589
193,1778591206.4289584,0.08981306,-0.10030753,0.30897647,-1.1249193,-0.57790595,-0.7909589
194,1778591206.4494717,0.09322987,0.31068486,-0.06711575,0.2593919,-0.46552056,-0.10759171
195,1778591206.4709451,0.0959145,0.30409533,-0.14350566,0.2593919,-0.46552056,-0.10759171
196,1778591206.4886754,0.1342315,0.28871974,-0.27773714,-0.2444782,0.4250405,-0.042077947
197,1778591206.5099146,0.1342315,0.28871974,-0.27773714,-0.2444782,0.4250405,-0.042077947
198,1778591206.530391,0.1342315,0.28871974,-0.27773714,-0.2444782,0.4250405,-0.042077947
199,1778591206.5514152,-0.30726805,0.24112856,0.099819414,-0.34567833,1.6293219,-0.105993815
200,1778591206.5721488,-0.22331238,0.025381953,0.12764193,0.2806972,1.2394352,0.47990164
201,1778591206.593355,-0.17328064,0.014887493,-0.0156196635,1.3246564,0.46818373,0.70200926
202,1778591206.6137655,-0.17328064,0.014887493,-0.0156196635,1.3246564,0.46818373,0.70200926
203,1778591206.6352775,-0.17328064,0.014887493,-0.0156196635,1.3246564,0.46818373,0.70200926
204,1778591206.6583557,-0.98794377,-3.0206964,2.033241,2.692456,3.8040593,2.2727418
205,1778591206.6768715,-0.98794377,-3.0206964,2.033241,2.692456,3.8040593,2.2727418
206,1778591206.6965747,-0.15058333,-2.9213653,1.0660421,-0.21145499,-3.1052458,5.423794
207,1778591206.7175741,-0.15058333,-2.9213653,1.0660421,-0.21145499,-3.1052458,5.423794
208,1778591206.7384899,-0.15058333,-2.9213653,1.0660421,-0.21145499,-3.1052458,5.423794
209,1778591206.760352,-1.2222387,-2.2702205,0.942305,-0.9981528,3.5856802,-0.19281286
210,1778591206.780662,-1.3247427,-2.047152,0.97330034,-2.7611654,0.8772453,-1.4263891
211,1778591206.80348,-1.3247427,-2.047152,0.97330034,-2.7611654,0.8772453,-1.4263891
212,1778591206.8224003,-1.3247427,-2.047152,0.97330034,-2.7611654,0.8772453,-1.4263891
213,1778591206.8432055,-1.3247427,-2.047152,0.97330034,-2.7611654,0.8772453,-1.4263891
214,1778591206.8638375,-0.04783522,-0.24845028,0.12007617,-1.1318434,-1.675661,-2.3265376
215,1778591206.8854024,-0.016351834,-0.12032023,0.119588055,-1.2074772,-2.1955101,-2.3307986
216,1778591206.9057467,0.019036464,0.1632743,0.10152781,-1.0237192,-2.5523736,-2.211489
217,1778591206.927419,0.019036464,0.1632743,0.10152781,-1.0237192,-2.5523736,-2.211489
218,1778591206.9471908,0.019036464,0.1632743,0.10152781,-1.0237192,-2.5523736,-2.211489
219,1778591206.9679387,-0.04905551,0.05906185,0.084931925,1.1009508,-1.0524813,-1.4546186
220,1778591206.9887903,-0.07150877,0.012202863,0.10665302,1.4732608,-0.37337518,-1.2117383
221,1778591207.0108209,-0.07150877,0.012202863,0.10665302,1.4732608,-0.37337518,-1.2117383
222,1778591207.0312884,-0.07150877,0.012202863,0.10665302,1.4732608,-0.37337518,-1.2117383
223,1778591207.0520382,-0.07150877,0.012202863,0.10665302,1.4732608,-0.37337518,-1.2117383
224,1778591207.0726857,-0.041001618,0.03099527,-0.25552794,1.7869811,0.056991648,-1.1472899
225,1778591207.0932038,-0.08151512,0.033435844,-0.294089,1.7869811,0.056991648,-1.1472899
226,1778591207.1138036,-0.08151512,0.033435844,-0.294089,1.7869811,0.056991648,-1.1472899
227,1778591207.135102,-0.08151512,0.033435844,-0.294089,1.7869811,0.056991648,-1.1472899
228,1778591207.1580744,-0.07175283,-1.8860743,3.5642118,-1.7044232,11.328022,0.039414786
229,1778591207.1773283,-0.53253293,-2.1059701,0.7141115,-0.81545997,-2.0964406,0.44847634
230,1778591207.1968236,-0.9364477,-3.632792,-0.4053791,-2.6839337,-7.81478,2.0314593
231,1778591207.2176082,-1.6559285,-5.528873,0.016595893,-2.6839337,-7.81478,2.0314593
232,1778591207.2382808,-1.6559285,-5.528873,0.016595893,-2.6839337,-7.81478,2.0314593
233,1778591207.2605374,0.3939084,-1.6422611,0.311173,1.4104102,2.095908,-0.11345066
234,1778591207.2811427,0.28335047,-1.3108315,0.114218794,0.19867182,-1.0940266,-0.89588743
235,1778591207.3018725,0.025626011,-0.37072295,0.2923806,-0.7392935,-2.892193,-1.2607405
236,1778591207.3212416,0.025626011,-0.37072295,0.2923806,-0.7392935,-2.892193,-1.2607405
237,1778591207.3427682,0.025626011,-0.37072295,0.2923806,-0.7392935,-2.892193,-1.2607405
238,1778591207.3633947,0.024649782,0.3109289,-0.117391534,0.29134983,-1.2799152,-0.4660532
239,1778591207.3847904,0.16425052,0.31703037,-0.27529657,0.39414784,-1.0748519,-0.20612867
240,1778591207.4045722,0.17987019,0.30629185,-0.268463,0.304133,-0.21944448,-0.27696875
241,1778591207.4260805,0.17987019,0.30629185,-0.268463,0.304133,-0.21944448,-0.27696875
242,1778591207.4465268,0.17987019,0.30629185,-0.268463,0.304133,-0.21944448,-0.27696875
243,1778591207.468146,-0.06418706,0.7577977,0.31190515,0.09853696,0.34567833,0.42983422
244,1778591207.4883692,-0.22428861,0.024161667,0.18987654,1.0231866,0.43409526,0.6460829
245,1778591207.508894,-0.10470056,-0.19915071,0.15595257,1.6985642,1.2175972,0.52464277
246,1778591207.5300095,-0.10470056,-0.19915071,0.15595257,1.6985642,1.2175972,0.52464277
247,1778591207.5503254,-0.10470056,-0.19915071,0.15595257,1.6985642,1.2175972,0.52464277
248,1778591207.5715659,-0.66749656,-1.3735542,0.865427,2.700978,0.93636745,1.1739215
249,1778591207.5919328,-0.7477914,-1.6849711,0.9867234,2.700978,0.93636745,1.1739215
250,1778591207.6125062,-0.136428,-2.6853619,1.9446481,-0.17257284,-0.24341293,3.6559875
251,1778591207.6355271,-0.136428,-2.6853619,1.9446481,-0.17257284,-0.24341293,3.6559875
252,1778591207.6567173,-0.136428,-2.6853619,1.9446481,-0.17257284,-0.24341293,3.6559875
253,1778591207.674988,-0.6816519,-2.8064144,0.45174995,-2.2929816,4.671717,3.1419976
254,1778591207.695713,-1.3052181,-2.6665695,0.94035256,-2.4101608,3.7342846,1.1467572
255,1778591207.7172077,-1.7655101,-2.4398403,1.0906918,-2.0271983,0.15446335,-0.9507485
256,1778591207.7373059,-1.7655101,-2.4398403,1.0906918,-2.0271983,0.15446335,-0.9507485
257,1778591207.7591827,-1.7655101,-2.4398403,1.0906918,-2.0271983,0.15446335,-0.9507485
258,1778591207.7797086,-0.062478654,-0.20574026,0.17230442,-1.8583539,-4.0847564,-2.902313
259,1778591207.8005557,-0.020256752,-0.057109397,0.044418417,-1.371528,-2.9763489,-2.663161
260,1778591207.8212814,0.04612682,0.2072046,-0.00024405724,-0.78989357,-1.6772588,-2.314287
261,1778591207.842117,0.04612682,0.2072046,-0.00024405724,-0.78989357,-1.6772588,-2.314287
262,1778591207.8625777,0.04612682,0.2072046,-0.00024405724,-0.78989357,-1.6772588,-2.314287
263,1778591207.883988,0.027090356,0.0051252022,0.18621568,1.1222562,-0.76752305,-1.8445054
264,1778591207.904664,-0.009518232,-0.009030119,0.12764193,1.5329156,-0.7275756,-1.7512947
265,1778591207.9252813,-0.009518232,-0.009030119,0.12764193,1.5329156,-0.7275756,-1.7512947
266,1778591207.9460487,-0.009518232,-0.009030119,0.12764193,1.5329156,-0.7275756,-1.7512947
267,1778591207.9662619,-0.009518232,-0.009030119,0.12764193,1.5329156,-0.7275756,-1.7512947
268,1778591207.9873621,-0.087616555,0.17303659,-0.19988288,1.8322549,-1.3667343,-1.2245215
269,1778591208.008236,-0.087616555,0.17303659,-0.19988288,1.8322549,-1.3667343,-1.2245215
270,1778591208.0290267,-0.12398108,0.25992095,-0.34387666,1.1174624,-0.8367652,-1.1685951
271,1778591208.0490434,-0.12398108,0.25992095,-0.34387666,1.1174624,-0.8367652,-1.1685951
272,1778591208.069781,-0.12398108,0.25992095,-0.34387666,1.1174624,-0.8367652,-1.1685951
273,1778591208.091375,0.38487828,-2.5706549,3.7587256,-1.1526161,6.754842,-0.360592
274,1778591208.1120377,-0.36340126,-2.1213458,1.5924735,-1.1526161,6.754842,-0.360592
275,1778591208.1328814,-0.27920148,-4.902378,-1.2034464,-1.1206582,-4.6727824,1.1302456
276,1778591208.1534479,-0.27920148,-4.902378,-1.2034464,-1.1206582,-4.6727824,1.1302456
277,1778591208.1746101,-0.27920148,-4.902378,-1.2034464,-1.1206582,-4.6727824,1.1302456
278,1778591208.195206,0.6191732,-1.6407969,0.3807293,1.0599382,-2.5294704,0.5336975
279,1778591208.2164314,0.59183884,-1.2456682,0.11690342,1.0599382,-2.5294704,0.5336975
280,1778591208.2389436,0.40830776,-0.102748096,-0.082247294,-0.49161956,-1.0402308,-0.8740495
281,1778591208.2597833,0.40830776,-0.102748096,-0.082247294,-0.49161956,-1.0402308,-0.8740495
282,1778591208.28068,0.40830776,-0.102748096,-0.082247294,-0.49161956,-1.0402308,-0.8740495
283,1778591208.3016806,0.09396204,0.43076107,0.10323621,0.4596616,0.6125271,0.76592517
284,1778591208.3222508,0.16498269,0.24234885,-0.28286234,0.6359629,0.4165184,0.98430437
285,1778591208.3418632,0.17376876,0.24845028,-0.25870067,0.50600064,0.0777643,0.9853696
286,1778591208.3624494,0.17376876,0.24845028,-0.25870067,0.50600064,0.0777643,0.9853696
287,1778591208.3852553,-0.017084008,0.50837123,0.21452633,0.6098639,2.6466496,0.28442562
288,1778591208.404177,-0.29726174,0.065407336,0.09884319,0.5432849,1.0562097,0.27217507
289,1778591208.4254153,-0.3248402,-0.19939478,-0.05588911,0.5550028,-0.5832323,0.78776306
290,1778591208.4453933,-0.2489384,-0.16571487,-0.1295944,1.0146644,0.16937704,0.97738016
291,1778591208.4669442,-0.2489384,-0.16571487,-0.1295944,1.0146644,0.16937704,0.97738016
292,1778591208.4879808,-0.88739216,-0.39830142,1.2227268,1.9473034,2.2482407,0.61625546
293,1778591208.5087254,-1.4372531,-0.8978866,1.3442672,1.9473034,2.2482407,0.61625546
294,1778591208.529369,0.34192422,-3.586421,1.0255286,2.1038973,-0.96992326,3.6362803
295,1778591208.5501418,0.34192422,-3.586421,1.0255286,2.1038973,-0.96992326,3.6362803
296,1778591208.5707417,0.34192422,-3.586421,1.0255286,2.1038973,-0.96992326,3.6362803
297,1778591208.5921638,-0.42026657,-2.271929,1.211012,-0.57790595,1.2128036,-0.68176925
298,1778591208.6114368,-0.9637821,-1.5558649,1.338654,-1.8855181,0.41705105,-0.71798825
299,1778591208.632645,-0.9637821,-1.5558649,1.338654,-1.8855181,0.41705105,-0.71798825
300,1778591208.6570961,-0.9637821,-1.5558649,1.338654,-1.8855181,0.41705105,-0.71798825
301,1778591208.6748745,-0.9637821,-1.5558649,1.338654,-1.8855181,0.41705105,-0.71798825
302,1778591208.696058,-0.13349932,-0.88055855,0.19890666,-2.7366643,-0.39254996,-0.892159
303,1778591208.7179039,-0.04368625,-0.3414361,0.27407628,-2.191249,-0.38083205,-0.9598033
304,1778591208.738696,0.2894519,0.21550256,0.094206095,-1.6820526,-1.6745957,-1.1547467
305,1778591208.758876,0.2894519,0.21550256,0.094206095,-1.6820526,-1.6745957,-1.1547467
306,1778591208.780135,0.2894519,0.21550256,0.094206095,-1.6820526,-1.6745957,-1.1547467
307,1778591208.8006487,-0.10372432,-0.045638707,0.19451363,-0.16192019,-0.3270362,-1.2841763
308,1778591208.8216796,-0.20476402,-0.15204766,0.23600335,0.59228706,0.34780884,-1.1435614
309,1778591208.8420026,-0.22355644,-0.1952458,0.23112221,1.365669,1.0391655,-0.8314389
310,1778591208.8631494,-0.22355644,-0.1952458,0.23112221,1.365669,1.0391655,-0.8314389
311,1778591208.883828,-0.22355644,-0.1952458,0.23112221,1.365669,1.0391655,-0.8314389
312,1778591208.904941,-0.010982576,-0.028066583,-0.12739788,1.9425098,-0.07350325,-0.37337518
313,1778591208.92548,0.00073217176,0.044174362,-0.19841854,1.5313177,-1.4801849,-0.5933523
314,1778591208.9466903,-0.008542004,0.06369894,-0.1718163,0.9667275,-2.6674223,-0.80800307
315,1778591208.9673283,-0.008542004,0.06369894,-0.1718163,0.9667275,-2.6674223,-0.80800307
316,1778591208.9880524,-0.008542004,0.06369894,-0.1718163,0.9667275,-2.6674223,-0.80800307
317,1778591209.0093336,0.38585448,-1.7469617,2.655587,-0.46179214,11.103251,-0.0479369
318,1778591209.0297475,0.38316986,-2.2070098,2.8449752,-0.46179214,11.103251,-0.0479369
319,1778591209.0508745,-0.690438,-3.5869095,-0.70020026,-0.4958806,-0.49481535,-0.2066613
320,1778591209.070608,-0.690438,-3.5869095,-0.70020026,-0.4958806,-0.49481535,-0.2066613
321,1778591209.0927215,-0.690438,-3.5869095,-0.70020026,-0.4958806,-0.49481535,-0.2066613
322,1778591209.113482,0.43124917,-2.4762049,0.6557818,0.9187906,-0.43196473,0.2695119
323,1778591209.1333015,0.22916976,-1.6571487,0.28994003,0.9187906,-0.43196473,0.2695119
324,1778591209.1544435,0.22697324,-1.0282133,0.35022214,-1.0146644,-1.6836505,-0.42024684
325,1778591209.1753912,0.22697324,-1.0282133,0.35022214,-1.0146644,-1.6836505,-0.42024684
326,1778591209.1965222,0.22697324,-1.0282133,0.35022214,-1.0146644,-1.6836505,-0.42024684
327,1778591209.217347,0.123004854,0.11592719,0.19353738,-0.6641924,-0.2247708,-0.23062976
328,1778591209.2382536,0.14374973,0.1683995,0.18523945,-0.6641924,-0.2247708,-0.23062976
329,1778591209.258548,0.14374973,0.1683995,0.18523945,-0.6641924,-0.2247708,-0.23062976
330,1778591209.2795622,0.14374973,0.1683995,0.18523945,-0.6641924,-0.2247708,-0.23062976
331,1778591209.2995884,0.14374973,0.1683995,0.18523945,-0.6641924,-0.2247708,-0.23062976
332,1778591209.3204687,0.1718163,0.4024504,-0.13057062,0.123038046,1.1419635,-0.099069595
333,1778591209.3414834,0.1718163,0.4024504,-0.13057062,0.123038046,1.1419635,-0.099069595
334,1778591209.3619757,0.1718163,0.4024504,-0.13057062,0.123038046,1.1419635,-0.099069595
335,1778591209.3829052,0.1718163,0.4024504,-0.13057062,0.123038046,1.1419635,-0.099069595
336,1778591209.4025538,0.1718163,0.4024504,-0.13057062,0.123038046,1.1419635,-0.099069595
337,1778591209.4236796,0.1718163,0.4024504,-0.13057062,0.123038046,1.1419635,-0.099069595
338,1778591209.445102,-0.45687518,0.102992155,-0.31825066,2.787797,-0.44421527,0.46711847
339,1778591209.4668145,-0.45687518,0.102992155,-0.31825066,2.787797,-0.44421527,0.46711847
340,1778591209.4871902,-0.45687518,0.102992155,-0.31825066,2.787797,-0.44421527,0.46711847
341,1778591209.50806,-0.45687518,0.102992155,-0.31825066,2.787797,-0.44421527,0.46711847
342,1778591209.5284698,-0.1769415,-3.354811,1.2485968,-0.3334278,0.09321064,2.932673
343,1778591209.5500116,-0.1769415,-3.354811,1.2485968,-0.3334278,0.09321064,2.932673
344,1778591209.5702882,-0.1769415,-3.354811,1.2485968,-0.3334278,0.09321064,2.932673
345,1778591209.5902913,-0.1769415,-3.354811,1.2485968,-0.3334278,0.09321064,2.932673
346,1778591209.6119125,-0.1769415,-3.354811,1.2485968,-0.3334278,0.09321064,2.932673
347,1778591209.632432,-0.1769415,-3.354811,1.2485968,-0.3334278,0.09321064,2.932673
348,1778591209.6565704,-0.336799,-0.49104318,0.13252309,-1.6820526,-1.9861856,-2.680738
349,1778591209.674223,-0.336799,-0.49104318,0.13252309,-1.6820526,-1.9861856,-2.680738
350,1778591209.696617,-0.336799,-0.49104318,0.13252309,-1.6820526,-1.9861856,-2.680738
351,1778591209.718849,-0.336799,-0.49104318,0.13252309,-1.6820526,-1.9861856,-2.680738
352,1778591209.7386484,-0.336799,-0.49104318,0.13252309,-1.6820526,-1.9861856,-2.680738
353,1778591209.7599065,-0.336799,-0.49104318,0.13252309,-1.6820526,-1.9861856,-2.680738
354,1778591209.7803211,-0.336799,-0.49104318,0.13252309,-1.6820526,-1.9861856,-2.680738
355,1778591209.8013384,-0.336799,-0.49104318,0.13252309,-1.6820526,-1.9861856,-2.680738
356,1778591209.821776,0.014399378,0.034168016,0.009518232,-1.3821807,-2.7409256,-2.3281355
357,1778591209.8435142,0.014399378,0.034168016,0.009518232,-1.3821807,-2.7409256,-2.3281355
358,1778591209.864292,0.014399378,0.034168016,0.009518232,-1.3821807,-2.7409256,-2.3281355
359,1778591209.8845897,0.014399378,0.034168016,0.009518232,-1.3821807,-2.7409256,-2.3281355
360,1778591209.9049413,0.014399378,0.034168016,0.009518232,-1.3821807,-2.7409256,-2.3281355
361,1778591209.9286864,-0.00707766,0.11031388,-0.16815543,2.308428,0.77444726,-1.1675298
362,1778591209.9507298,-0.0370967,0.053204484,-0.13764828,1.3885722,-0.25885928,-0.9598033
363,1778591209.9676669,0.053204484,-1.121443,2.0049303,0.55340487,10.871024,0.36112466
364,1778591209.9887824,0.053204484,-1.121443,2.0049303,0.55340487,10.871024,0.36112466
365,1778591210.011136,0.053204484,-1.121443,2.0049303,0.55340487,10.871024,0.36112466
366,1778591210.0341785,-1.39796,-6.571729,3.223264,-4.375041,0.8474179,3.187804
367,1778591210.05255,-0.018060237,-3.2125256,0.45126185,1.7129452,0.2247708,0.7621967
368,1778591210.072473,-0.018060237,-3.2125256,0.45126185,1.7129452,0.2247708,0.7621967
369,1778591210.0944934,-0.018060237,-3.2125256,0.45126185,1.7129452,0.2247708,0.7621967
370,1778591210.11309,-0.018060237,-3.2125256,0.45126185,1.7129452,0.2247708,0.7621967
371,1778591210.1342397,0.35705575,-0.16864355,-0.055645052,-0.050600063,-1.3273195,-0.2790993
372,1778591210.1553297,0.35705575,-0.16864355,-0.055645052,-0.050600063,-1.3273195,-0.2790993
373,1778591210.1773293,0.35705575,-0.16864355,-0.055645052,-0.050600063,-1.3273195,-0.2790993
374,1778591210.19722,0.35705575,-0.16864355,-0.055645052,-0.050600063,-1.3273195,-0.2790993
375,1778591210.2184074,0.35705575,-0.16864355,-0.055645052,-0.050600063,-1.3273195,-0.2790993
376,1778591210.2392762,0.35705575,-0.16864355,-0.055645052,-0.050600063,-1.3273195,-0.2790993
377,1778591210.2589557,0.35705575,-0.16864355,-0.055645052,-0.050600063,-1.3273195,-0.2790993
378,1778591210.280236,-0.35656762,0.56548065,0.4881145,0.46498793,-0.5853628,0.64182186
379,1778591210.3019702,-0.35656762,0.56548065,0.4881145,0.46498793,-0.5853628,0.64182186
380,1778591210.3224373,-0.35656762,0.56548065,0.4881145,0.46498793,-0.5853628,0.64182186
381,1778591210.342248,0.11665936,-0.024161667,-0.014399378,1.0865698,1.1568772,0.52464277
382,1778591210.3627877,0.11665936,-0.024161667,-0.014399378,1.0865698,1.1568772,0.52464277
383,1778591210.384115,0.11665936,-0.024161667,-0.014399378,1.0865698,1.1568772,0.52464277
384,1778591210.4047387,0.11665936,-0.024161667,-0.014399378,1.0865698,1.1568772,0.52464277
385,1778591210.4251232,0.11665936,-0.024161667,-0.014399378,1.0865698,1.1568772,0.52464277
386,1778591210.4461172,0.11665936,-0.024161667,-0.014399378,1.0865698,1.1568772,0.52464277
387,1778591210.4685304,-0.45345837,-2.2829115,1.2510375,-0.048469532,-0.38456047,0.5044027
388,1778591210.489645,-0.7922098,-1.867282,1.2698299,-1.6415725,2.470881,-0.9763149
389,1778591210.5102258,-1.0091767,-1.7750283,1.5634308,-1.6415725,2.470881,-0.9763149
390,1778591210.5312982,-0.5793919,-1.5153515,0.6384538,-2.744654,-0.3009372,0.70467246
391,1778591210.5526175,-0.37023485,-1.4145558,0.43466598,-2.7696877,0.20240025,1.1792477
392,1778591210.5722756,-0.39927766,-1.1992973,0.46273252,-2.2722092,0.5800365,1.4413028
393,1778591210.5925508,-0.20329969,-0.97647303,0.30629185,-1.7571537,0.058589544,0.9805759
394,1778591210.6116939,-0.10372432,-0.8944698,0.22648512,-1.7571537,0.058589544,0.9805759
395,1778591210.632096,-0.10372432,-0.8944698,0.22648512,-1.7571537,0.058589544,0.9805759
396,1778591210.654855,0.029774986,0.061502427,0.049299564,-0.97897804,-2.0133498,-2.3430493
397,1778591210.6736007,-0.06443111,0.102992155,0.04148973,-0.5997439,-1.9057581,-2.1326594
398,1778591210.6947527,-0.13276714,0.07248501,0.029530926,-0.16245283,-1.7699369,-1.7012273
399,1778591210.7135603,-0.11543907,0.029774986,0.049299564,0.22423817,-1.7459685,-1.3731259
400,1778591210.7340393,-0.07028849,0.002928687,0.08956901,0.22423817,-1.7459685,-1.3731259
401,1778591210.7550943,-0.020500809,0.0,0.13545178,1.1606057,-1.0434265,-1.1755193
402,1778591210.7766745,-0.027822526,0.020012695,0.07224095,1.5920377,-0.89588743,-1.2202604
403,1778591210.7984633,-0.02391761,0.05735345,0.024161667,1.9819245,-0.93636745,-1.3017532
404,1778591210.8188214,-0.033923957,0.06467517,-0.05027579,2.23599,-1.077515,-1.3582122
405,1778591210.8398378,-0.15155955,0.088348724,-0.2882316,2.23599,-1.077515,-1.3582122
406,1778591210.860309,-0.14887492,0.045394648,-0.30922052,1.4365091,-1.4274544,-1.0013486
407,1778591210.8813565,-0.14887492,0.045394648,-0.30922052,1.4365091,-1.4274544,-1.0013486
408,1778591210.9015796,-0.950359,-0.9274175,0.21647878,-0.6428871,1.6996294,-0.023435818
409,1778591210.9230247,-0.9279056,-1.3572023,1.2381024,-2.4165523,13.711552,1.8311896
410,1778591210.9437487,-0.40733153,-1.743545,-0.006833603,1.1899004,0.29827404,1.2367721
411,1778591210.9649608,-0.30092257,-3.3006303,-1.3415827,-1.3630059,-6.1268687,1.5813851
412,1778591210.98516,-1.0208915,-5.636258,-0.3277689,-6.06242,-1.8796592,1.8722023
413,1778591211.0065036,-0.22331238,-4.4023046,2.213355,-1.2170646,1.3773869,1.663943
414,1778591211.026756,0.18353106,-2.4620495,0.06418706,1.9712719,0.7121293,0.32756883
415,1778591211.048998,0.13618395,-0.6123396,0.26065314,-0.53476274,-0.72278196,-0.8175905
416,1778591211.069526,0.24405725,-0.28286234,0.21623473,-0.58269966,-1.8514296,-0.89855057
417,1778591211.0909734,0.22428861,0.051252022,0.044418417,-0.36485308,-1.700162,-0.88683265
418,1778591211.1117454,0.118855886,0.20476402,-0.06687169,-0.1635181,-0.4926848,-0.6828345
419,1778591211.1321824,0.107873306,0.27212384,-0.07004443,-0.1635181,-0.4926848,-0.6828345
420,1778591211.1529303,0.14057697,0.30726805,-0.13398743,0.30146983,1.2181299,-0.24074976
421,1778591211.1749835,0.12398108,0.39878955,-0.15888128,0.24873926,1.3417006,-0.12463594
422,1778591211.1948733,0.049787678,0.53009236,-0.13154685,-0.08149273,1.6255935,0.020240024
423,1778591211.2164018,-0.13838045,0.6706693,0.30555966,-0.08149273,1.6255935,0.020240024
424,1778591211.236059,-0.20134723,0.44662476,0.45174995,-0.34780884,1.5361114,0.20772657
425,1778591211.2585788,-0.03465613,-0.09786696,0.10982577,0.8026768,0.043675844,0.721184
426,1778591211.2794514,-0.035144243,-0.0039049159,-0.107873306,0.9912286,-0.10865697,0.41545314
427,1778591211.2991755,-0.035144243,-0.0039049159,-0.107873306,0.9912286,-0.10865697,0.41545314
428,1778591211.3198643,-0.23771177,-0.1403329,0.27944556,1.5840483,1.8114822,0.023435818
429,1778591211.3402445,-0.23771177,-0.1403329,0.27944556,1.5840483,1.8114822,0.023435818
430,1778591211.3607166,-0.92814976,-0.93376297,1.7030314,1.9515644,1.7763284,0.6279734
431,1778591211.383164,-0.750232,-3.1859233,2.1106071,2.4319987,2.7744813,2.8005803
432,1778591211.4025106,0.2806658,-3.1534636,0.8327233,1.4876418,-1.5020229,4.4293694
433,1778591211.4229274,-0.67042524,-2.306341,0.652365,-0.0974717,-1.0034791,3.5116444
434,1778591211.4436939,-1.1194906,-2.2201886,1.121199,-0.5289038,3.0285468,3.145726
435,1778591211.465023,-1.0484699,-2.3458784,1.3198615,-0.14487597,4.337224,2.819755
436,1778591211.4845781,-1.2146729,-2.3566167,1.0152781,-1.2868395,2.3180156,0.70200926
437,1778591211.5068588,-1.1909994,-1.9263439,0.75169635,-2.9491847,-1.0929613,-0.97045594
438,1778591211.5277538,-0.53961056,-1.0731196,0.647972,-1.8359833,-1.1669972,-1.1116035
439,1778591211.5492408,-0.22794947,-0.7292431,0.43076107,-1.133974,-1.6154735,-1.5542208
440,1778591211.5694132,-0.06589546,-0.30043447,0.09615856,-1.3582122,-2.1353226,-1.7465011
441,1778591211.5897417,0.08346757,-0.107629254,-0.020988923,-1.3582122,-2.1353226,-1.7465011
442,1778591211.610442,0.08346757,-0.107629254,-0.020988923,-1.3582122,-2.1353226,-1.7465011
443,1778591211.6313753,0.3443648,0.20940112,0.034168016,-1.7891116,-2.556102,-1.8679413
444,1778591211.6548355,0.2630937,0.14911897,0.088836834,-0.65034395,-1.1989552,-2.3473103
445,1778591211.6731768,0.13057062,0.0776102,0.18084641,-0.65034395,-1.1989552,-2.3473103
446,1778591211.6932511,0.10958171,0.032703668,0.24845028,0.025566347,-0.9347696,-2.3845944
447,1778591211.7148921,-0.2613853,-0.16473864,0.2689511,1.2596753,0.81545997,-1.5462314
448,1778591211.7357547,-0.25162303,-0.15058333,0.12861817,1.5190672,1.2037488,-0.8815063
449,1778591211.757234,-0.16864355,-0.09689073,0.03929322,1.5057513,0.69135666,-0.4543353
450,1778591211.7773721,-0.10640897,-0.05296042,-0.010738519,1.5057513,0.69135666,-0.4543353
451,1778591211.7988124,-0.058573738,-0.024649782,-0.042954076,1.1776499,-1.0040118,-0.38296258
452,1778591211.8193479,-0.029530926,-0.007321717,-0.0959145,0.91452956,-1.7369137,-0.54168695
453,1778591211.8400557,-0.045638707,-0.02318544,-0.034900185,0.5539375,-2.4117587,-0.8048073
454,1778591211.8607066,-0.17645338,-0.1244692,0.026358182,0.35952675,-2.634399,-1.0018812
455,1778591211.8819973,-0.3756041,-0.78488815,0.79831123,0.175236,4.605671,-0.31372038
456,1778591211.9025145,0.46834585,-1.9295166,3.0214286,0.101200126,11.370633,0.53103435
457,1778591211.92361,-0.4729829,-2.426417,-0.119099945,0.2561961,0.16990969,0.49481535
458,1778591211.9442277,-1.1870944,-5.0331926,-0.27993366,-2.396845,-6.703709,1.407747
459,1778591211.965164,-0.9188756,-5.290185,1.6356717,-4.474643,-1.0104034,2.4746094
460,1778591211.9861057,0.1010397,-2.174062,0.47151858,1.383246,1.0711234,-0.0053263223
461,1778591212.0069568,0.1010397,-2.174062,0.47151858,1.383246,1.0711234,-0.0053263223
462,1778591212.0271616,0.08395569,-0.97378844,0.33240595,-1.3598101,-1.2101405,-0.5107943
463,1778591212.048507,0.08395569,-0.97378844,0.33240595,-1.3598101,-1.2101405,-0.5107943
464,1778591212.06921,-0.030751213,-0.340948,0.39024755,-1.0205233,-0.9033443,-0.5219796
465,1778591212.0900652,0.15668476,-0.01513155,0.044662476,-0.30253512,0.36485308,-0.32863408
466,1778591212.1101496,0.15668476,-0.01513155,0.044662476,-0.30253512,0.36485308,-0.32863408
467,1778591212.1319633,0.06321083,0.27139166,0.033679903,-0.23755397,-0.77391464,-0.08149273
468,1778591212.1525342,0.07492557,0.32044718,0.0656514,-0.23755397,-0.77391464,-0.08149273
469,1778591212.1733785,0.06028214,0.4566311,0.14057697,-0.25193503,-0.1933455,-0.096939065
470,1778591212.1941469,-0.24698594,0.5110559,0.0,0.06977482,0.9060074,-0.10439592
471,1778591212.2159615,-0.46492904,0.520086,-0.038561042,0.06977482,0.9060074,-0.10439592
472,1778591212.2360332,0.10128376,-0.0741934,-0.1466784,0.15393071,0.36432046,0.81013364
473,1778591212.2572687,0.2853029,-0.04905551,-0.14106509,0.15393071,0.36432046,0.81013364
474,1778591212.2775936,0.14765464,-0.033679903,0.40562314,0.81439465,1.3869743,0.046339005
475,1778591212.2988577,-0.29994637,-0.16303024,0.46736962,0.81439465,1.3869743,0.046339005
476,1778591212.3185225,-0.74242216,-0.4881145,0.2889638,2.0772657,1.7496969,1.3475596
477,1778591212.340404,-2.2375169,-1.2488409,1.4692247,2.404302,2.5949843,2.5688853
478,1778591212.3607824,-2.698541,-2.0085912,2.0098114,2.8021781,4.0687776,5.4509583
479,1778591212.3818243,1.0128375,-3.1168551,0.15326795,2.5513084,-3.5020568,6.5748124
480,1778591212.4023404,0.72485006,-2.373945,0.12690976,-0.7238472,-4.3484097,2.5742116
