id,timestamp,acc_x,acc_y,acc_z,gyro_x,gyro_y,gyro_z
1,1778587680.2879648,-1.2803243,1.7166986,1.5112025,-1.7939054,0.068176925,-0.19068234
2,1778587680.3085709,-0.41562948,1.3474401,0.78586435,0.70200926,0.45859635,0.24714136
3,1778587680.3299198,0.021721095,1.1707426,0.12324891,1.3305153,0.86606,-0.07190535
4,1778587680.3506875,0.07736614,1.0416363,-0.4195344,0.4788364,1.2980248,-0.51665324
5,1778587680.371572,0.07736614,1.0416363,-0.4195344,0.4788364,1.2980248,-0.51665324
6,1778587680.3922715,0.1969542,0.65138876,0.02318544,-2.1049626,1.555286,-0.81226414
7,1778587680.4127762,0.19597797,0.44345203,0.36315718,-2.7782097,1.133974,-0.8522116
8,1778587680.4351318,0.19597797,0.44345203,0.36315718,-2.7782097,1.133974,-0.8522116
9,1778587680.4548721,0.14350566,0.5559624,0.72338563,-2.1518342,-0.13315806,0.015978966
10,1778587680.4762871,0.23161033,0.60989904,0.80587703,-0.6860303,-0.118776985,1.0306433
11,1778587680.496245,0.5112999,0.5615757,0.61819696,1.3022858,0.406931,1.9526298
12,1778587680.516803,0.45467865,0.69287854,0.40269446,2.9129655,0.4745753,2.320146
13,1778587680.5387092,0.008053889,2.332211,-0.6887296,2.979012,-0.05912218,2.67914
14,1778587680.5582767,-1.0506665,3.8526878,0.24576566,1.1792477,0.6679208,2.8991172
15,1778587680.5803854,-3.214478,4.8657694,0.7089863,0.5858955,1.3550164,3.5393412
16,1778587680.6004593,-3.8604975,4.5333633,0.6440671,0.011185277,0.22743396,4.708469
17,1778587680.6217806,-3.5278475,2.7229466,0.11592719,-0.33662358,-0.9193232,5.825931
18,1778587680.6417973,-2.8542495,1.180993,0.009518232,-0.7392935,-1.2596753,6.429404
19,1778587680.6626315,-1.5563531,-0.4378387,0.5859815,-1.365669,-2.1859226,6.1513696
20,1778587680.6842031,-0.6892177,-0.8998391,0.9615856,-1.1808456,-3.3726273,5.2672
21,1778587680.7058263,0.46785772,-1.2337095,0.4144092,2.211489,-4.0485377,2.1225395
22,1778587680.724891,0.6125837,-1.2390786,0.13691612,2.211489,-4.0485377,2.1225395
23,1778587680.7470293,0.50788313,-1.1602482,-0.6113634,1.8897791,-3.3316145,-1.4807175
24,1778587680.768097,-0.17596528,-1.1097283,-0.41977844,0.7392935,-2.8884647,-2.543319
25,1778587680.7884822,-0.17596528,-1.1097283,-0.41977844,0.7392935,-2.8884647,-2.543319
26,1778587680.8093631,-0.23795582,-1.0945967,0.17620933,0.08362326,-2.4309335,-2.5390577
27,1778587680.8293555,0.008053889,-1.0291895,0.024893839,1.0226538,-1.8594191,-2.7142937
28,1778587680.850857,0.008053889,-1.0291895,0.024893839,1.0226538,-1.8594191,-2.7142937
29,1778587680.8717294,-0.46663743,-0.64943635,-1.0723876,1.0295781,0.030360037,-3.3348105
30,1778587680.8927228,-0.89861876,-0.46078008,-1.0367552,-0.690824,0.5400891,-3.3683662
31,1778587680.913405,-0.9930689,-0.19548985,-0.60892284,-2.3712788,0.25353295,-3.4253578
32,1778587680.9342117,-1.193928,0.20329969,-0.2928687,-2.3712788,0.25353295,-3.4253578
33,1778587680.9553964,-2.7346616,1.4079663,-0.102259986,-2.9092371,1.2809805,-4.830974
34,1778587680.9763386,-4.192171,2.5045154,0.5625519,-3.1095068,2.6732812,-3.7151098
35,1778587680.9970992,-3.1949534,2.5406358,0.9823304,-3.2613072,1.7235979,-2.23599
36,1778587681.0176845,-2.3395329,2.2570415,1.2583592,-3.3177662,-0.0005326322,-1.6634104
37,1778587681.0377374,-1.876068,2.0786357,1.1353543,-1.834918,-0.34834146,-0.60507023
38,1778587681.0593758,-0.31239328,1.4233419,-0.03441207,0.017044231,0.39254996,0.0063915867
39,1778587681.0802045,-0.09859913,1.3244987,-0.3053156,0.5992113,1.0626013,-0.13102753
40,1778587681.1004825,0.17718557,0.97403246,-0.72631437,-0.165116,1.5579493,-0.5225122
41,1778587681.121785,0.13789235,0.78684056,-0.4837215,-1.5339808,1.9329224,-0.82877576
42,1778587681.1425576,0.19378147,0.58378494,-0.24698594,-2.735599,1.778459,-0.88044107
43,1778587681.1635659,0.3572998,0.39708114,0.23478307,-3.6224318,1.099353,-0.85061365
44,1778587681.1843712,0.4639528,0.42197496,0.65090066,-3.6171055,0.7137272,-0.6870956
45,1778587681.2052603,0.4720067,0.55742675,0.8175918,-2.6620958,0.7643272,-0.35899413
46,1778587681.2254705,0.44833317,0.6228341,0.8092938,-1.31933,0.7701862,0.294013
47,1778587681.2478762,0.37316352,0.5649925,0.7455949,-0.21678132,0.3153183,1.0865698
48,1778587681.2666056,-0.2037878,0.51471674,0.6557818,0.5816344,-0.89535475,1.7235979
49,1778587681.287252,-0.14106509,1.0897156,0.44613665,1.2048141,-2.632801,2.386725
50,1778587681.308515,-0.5723142,2.8767028,0.9225364,1.4812502,-3.319364,2.2045648
51,1778587681.3289695,-3.4089918,4.137747,2.553083,3.472762,-0.99282646,1.808819
52,1778587681.3501358,-4.3129797,3.619613,2.1159763,3.472762,-0.99282646,1.808819
53,1778587681.370574,-2.391517,2.182604,-0.05588911,4.815528,-1.7928401,4.920989
54,1778587681.391306,-1.9573392,1.4653198,-0.61722076,2.4889903,-1.4013554,4.8522797
55,1778587681.412439,-0.614048,0.06662763,0.09200958,0.97045594,-1.3784522,4.5454836
56,1778587681.433448,-0.08932495,-0.35412705,0.2762728,0.582167,-1.6266588,3.5675707
57,1778587681.455005,0.07736614,-0.49812084,0.31483385,0.582167,-1.6266588,3.5675707
58,1778587681.4749305,0.39805737,-0.9178993,0.14960709,1.0114686,-1.726261,1.0056096
59,1778587681.4968631,0.39927766,-0.9962417,0.10640897,0.7845673,-1.8892465,-0.33289513
60,1778587681.516518,0.23307467,-1.1446284,0.17523311,0.63649553,-2.0431771,-1.4530207
61,1778587681.5372324,-0.16083373,-1.1397473,0.031483386,0.86606,-1.9025623,-2.107093
62,1778587681.5584102,-0.2853029,-1.0733638,-0.117879644,1.1755193,-1.387507,-2.3350596
63,1778587681.5790584,-0.29042813,-0.92131615,-0.32459614,1.3582122,-0.6716492,-2.2658174
64,1778587681.600998,-0.13520771,-0.79562664,-0.69898,1.158475,-0.058056913,-2.1150825
65,1778587681.6214175,-0.33777523,-0.792942,-0.92131615,0.37816888,0.45593318,-2.3254724
66,1778587681.6414106,-0.7643873,-0.7192367,-0.76463133,-1.0594054,0.6002765,-2.8378644
67,1778587681.6630313,-1.193928,-0.037828874,-0.2489384,-2.530003,0.19441076,-3.1510522
68,1778587681.6839087,-1.8909554,0.52301466,-0.22428861,-2.7872643,-0.07403588,-3.52496
69,1778587681.7050445,-2.9306395,1.6481185,-0.03734076,-2.6626284,1.3390374,-4.004329
70,1778587681.7260308,-3.5366337,2.6680338,0.65919864,-3.7513287,1.6080167,-2.4341292
71,1778587681.7467763,-2.7817645,2.4186075,1.1163179,-4.4517403,-0.1949434,-1.4924355
72,1778587681.7676635,-2.3644266,2.267048,1.2669011,-4.4517403,-0.1949434,-1.4924355
73,1778587681.7880926,-1.1919756,1.7801535,1.2734908,-1.1057445,0.42876893,-0.12197278
74,1778587681.8086503,-0.33191785,1.3381659,0.25162303,0.60933125,1.3667343,-0.11504856
75,1778587681.828987,-0.20598431,1.1746475,-0.2975058,0.81013364,1.5968314,-0.2860235
76,1778587681.8508615,0.060038086,0.89398164,-0.5422952,0.81013364,1.5968314,-0.2860235
77,1778587681.8715148,0.16595893,0.6872652,-0.37999713,-1.6341157,1.2144015,-0.45699844
78,1778587681.892191,0.10421244,0.4983649,0.14521407,-2.6589,0.84635264,-0.45806372
79,1778587681.9133832,0.16303024,0.45931572,0.56548065,-2.6051042,0.7094661,0.004261058
80,1778587681.933085,0.43149322,0.51471674,0.933519,-1.1984226,0.4788364,0.7451525
81,1778587681.9545293,0.5886661,0.5342413,0.5862255,0.912399,0.061252706,1.4636734
82,1778587681.9762464,0.52472305,0.71996886,-0.62356627,1.9574234,-0.5581986,1.9425098
83,1778587681.9966283,0.25381953,0.9794017,-0.6365013,1.2761868,-1.4226607,1.9851203
84,1778587682.016951,-0.268463,1.3618395,0.02831064,-0.16192019,-2.2146847,1.8679413
85,1778587682.0374901,-0.5183776,1.8955926,0.9615856,-0.4495416,-2.9870014,2.2615564
86,1778587682.0587204,-0.59061855,2.301216,1.6283499,0.17044231,-3.4487936,2.4868598
87,1778587682.079772,-1.5802706,2.4786453,2.246547,1.937716,-2.389388,2.0948424
88,1778587682.1005204,-1.3667207,2.186509,1.0394398,4.1843586,-1.7017599,2.418683
89,1778587682.1204872,-1.3667207,2.186509,1.0394398,4.1843586,-1.7017599,2.418683
90,1778587682.142118,-1.4023529,1.4362769,-0.04148973,3.209109,-1.4013554,1.9622171
91,1778587682.1632402,-0.85273606,0.81783587,0.06711575,1.117995,-2.330266,2.1353226
92,1778587682.1839404,-0.26065314,0.093473926,0.43173727,-0.36325517,-3.2160335,1.6777915
93,1778587682.2047427,-0.11275445,-0.21013328,0.56670094,-0.46019423,-3.3060482,0.8431568
94,1778587682.22536,-0.32996538,-0.46639338,0.29774985,0.53795856,-2.6359968,-0.01438107
95,1778587682.2460241,-0.33460248,-0.53082454,0.014887493,1.5925703,-1.8152106,-0.49428272
96,1778587682.266923,-0.34265637,-0.63406074,-0.28457075,1.9659456,-1.2660668,-0.6785734
97,1778587682.2882688,-0.5437595,-0.60062486,-0.5854933,1.0343717,-1.4365091,-1.0519487
98,1778587682.308397,-0.56767714,-0.5779276,-0.63308454,1.0343717,-1.4365091,-1.0519487
99,1778587682.3294137,-0.56767714,-0.5779276,-0.63308454,1.0343717,-1.4365091,-1.0519487
100,1778587682.350138,-0.64821607,-0.30726805,-0.86664724,-1.0381002,0.1736381,-1.1558119
101,1778587682.37141,-0.8500514,-0.20574026,-0.71264714,-1.0381002,0.1736381,-1.1558119
102,1778587682.3919156,-1.700835,0.31312546,0.30922052,-2.6509106,1.2942963,-1.0476876
103,1778587682.4129648,-1.4919219,0.4097721,0.3355787,-2.6509106,1.2942963,-1.0476876
104,1778587682.43394,-1.4355447,1.0306537,0.21232979,-3.0551784,2.3451798,-1.3246564
105,1778587682.4543612,-2.2777863,1.4892373,1.3162007,-3.45412,3.5867455,-1.1073424
106,1778587682.475266,-2.0354373,1.569044,1.4516525,-3.45412,3.5867455,-1.1073424
107,1778587682.4965012,-1.227852,1.6449459,1.0772687,-3.0961912,2.3718114,-0.5784386
108,1778587682.5168934,-0.9445015,1.5993071,1.001611,-2.9348035,2.4831314,-0.53955644
109,1778587682.5381658,-0.9445015,1.5993071,1.001611,-2.9348035,2.4831314,-0.53955644
110,1778587682.5583494,-0.19988288,1.2383465,0.78928113,-1.8620822,3.222425,-0.7600662
111,1778587682.579371,-0.14643435,1.1787965,0.68433654,-1.0562097,3.5350802,-0.9262474
112,1778587682.600196,0.042465962,1.0196712,0.15692882,-0.92944324,3.093528,-0.9672601
113,1778587682.6211343,0.08688438,0.9432813,0.07516963,-1.6058862,2.2242723,-0.79628515
114,1778587682.6417067,0.10933765,0.9432813,0.39488465,-1.8439728,1.716141,-0.34088463
115,1778587682.6625662,0.23673552,0.94962674,0.37828872,-1.0865698,1.4402375,0.25246766
116,1778587682.6833265,0.23990828,0.94206095,0.2711476,-0.03568636,0.8229168,0.67324716
117,1778587682.704377,-0.061502427,1.2556745,-0.16571487,0.58749336,-0.11025487,0.94595486
118,1778587682.7251418,-0.19890666,1.3928347,-0.2042759,0.73982614,-0.8271778,1.2660668
119,1778587682.74654,-0.6367454,1.692781,0.5637722,1.2639363,-0.9912286,2.3963125
120,1778587682.7667475,-0.7136234,1.8362867,1.0675064,1.2639363,-0.9912286,2.3963125
121,1778587682.7877154,-0.7136234,1.8362867,1.0675064,2.49698,-1.5638082,2.8304076
122,1778587682.8083904,-0.8327233,2.1560016,1.1412116,2.7505128,-1.24849,2.8202877
123,1778587682.8295176,-0.7512082,2.016157,1.3266952,2.7505128,-1.24849,2.8202877
124,1778587682.85011,-0.7482795,1.4853324,1.3925906,2.2567627,-1.8034927,2.523079
125,1778587682.8710194,-0.66188323,1.0841023,1.415532,2.1848574,-2.2120216,2.267948
126,1778587682.8917248,-0.61209553,0.8678676,1.3293798,2.1848574,-2.2120216,2.267948
127,1778587682.9131794,-0.40513504,0.09689073,0.73632073,2.538525,-2.67914,1.5414376
128,1778587682.9337735,-0.328257,-0.04637088,0.5039782,2.538525,-2.67914,1.5414376
129,1778587682.954061,-0.38219365,-0.39317623,-0.05759751,1.6628778,-2.4282703,0.34567833
130,1778587682.975133,-0.57377857,-0.73339206,-0.009030119,0.7952199,-2.4841967,-0.20879184
131,1778587682.996099,-0.60184515,-0.7909895,0.061014313,0.32756883,-2.3318639,-0.6844324
132,1778587683.0169077,-0.6882414,-0.8090498,-0.302631,0.80587256,-1.8583539,-1.1046792
133,1778587683.0379038,-0.6882414,-0.8090498,-0.302631,0.80587256,-1.8583539,-1.1046792
134,1778587683.058208,-0.8659151,-0.9396204,-1.1575636,1.2042814,-0.598146,-1.4919028
135,1778587683.0791082,-0.8095379,-1.001611,-1.2598236,0.1486044,-0.16405073,-1.6080167
136,1778587683.099744,-1.0989897,-1.0186949,-0.9169231,-1.6239957,-0.2657835,-2.2003038
137,1778587683.12066,-1.26202,-0.9030118,-0.28286234,-3.4695663,-0.19281286,-2.674879
138,1778587683.1416352,-1.8326257,-0.31068486,0.18231077,-3.865312,0.53103435,-3.103648
139,1778587683.162665,-1.7025435,0.06687169,-0.28164205,-3.3017871,1.3257216,-3.1712923
140,1778587683.1835759,-2.61727,0.6147802,0.4144092,-4.3233757,1.5717977,-3.8269625
141,1778587683.2043266,-2.8303318,0.878118,1.5890567,-6.5508437,1.8418423,-3.893009
142,1778587683.224789,-2.2079859,1.2244352,1.952214,-6.8320737,1.3331785,-3.069027
143,1778587683.2459316,-1.7057161,1.3733101,1.8392154,-5.929262,1.381648,-2.5539715
144,1778587683.267165,-1.1207108,1.3872215,1.2976524,-4.775048,2.1497037,-2.1363878
145,1778587683.287476,-1.1346222,1.4328601,1.2232149,-3.8258972,2.4671526,-2.0399814
146,1778587683.308965,-0.8956901,1.3659884,0.6984919,-3.3055155,2.3947146,-1.3081448
147,1778587683.3294475,-0.511788,1.0662861,0.5222825,-3.6416066,2.233327,-0.74461985
148,1778587683.3499546,-0.36242503,0.89666635,0.9354714,-3.8546593,2.0069582,-0.41385525
149,1778587683.3707733,-0.21574661,1.0352908,1.2771516,-3.2394693,1.1185277,-0.57417756
150,1778587683.3915951,-0.33313814,1.1831895,1.3442672,-3.2394693,1.1185277,-0.57417756
151,1778587683.413003,-0.07272906,1.424074,1.1251038,-0.15020229,0.37390783,0.30360037
152,1778587683.4335577,0.2272173,1.3823403,0.5786598,1.0178602,-0.009054748,0.73343456
153,1778587683.4544466,-0.17376876,1.5226732,0.6765267,1.0178602,-0.009054748,0.73343456
154,1778587683.4743822,-0.68482465,1.683507,0.87079626,1.8471686,-1.6266588,1.2911005
155,1778587683.4955132,-0.93473923,1.7406163,0.9530435,2.4250746,-2.4847293,2.1731396
156,1778587683.5168576,-1.5151074,1.6896083,1.3611072,2.812298,-3.2522523,3.316701
157,1778587683.537442,-1.8606924,1.6498269,2.1804073,2.6232138,-4.08955,3.5233622
158,1778587683.5579002,-2.7803001,1.4594624,3.0721927,3.145726,-4.55081,3.0376017
159,1778587683.5790322,-2.5191588,1.014546,2.4464297,4.9492188,-4.463458,3.218164
160,1778587683.5997143,-2.3593016,0.8851956,2.0176213,4.9492188,-4.463458,3.218164
161,1778587683.6209865,-1.8868065,0.41977844,0.44369608,5.731123,-2.7499802,2.9465215
162,1778587683.6415102,-1.607117,0.2523552,0.26236153,4.866128,-2.221609,3.1318774
163,1778587683.662465,-0.8515157,-0.54986095,0.10372432,3.6208339,-1.9877834,2.9028456
164,1778587683.6829474,-0.6455314,-0.8336995,-0.053692598,2.747317,-1.653823,2.3813987
165,1778587683.7040176,-0.366574,-1.1792847,-0.09396204,1.9201392,-1.5302523,1.6426378
166,1778587683.7248201,-0.366574,-1.1792847,-0.09396204,1.9201392,-1.5302523,1.6426378
167,1778587683.745943,-0.2238005,-1.3291358,-0.33948365,1.0354371,-2.271144,-0.3584615
168,1778587683.766406,-0.3018988,-1.2476206,-0.75340474,1.5281218,-1.9632823,-1.2048141
169,1778587683.7871723,-0.10860548,-1.0960611,-1.3530535,2.0090888,-0.8341021,-1.4658039
170,1778587683.807854,-0.08639627,-1.0867869,-1.5544006,1.6309199,0.18961707,-1.6586168
171,1778587683.8291144,-0.65919864,-1.0938646,-1.2898425,-2.295645,1.1020161,-2.9262815
172,1778587683.849746,-0.9283937,-1.0718994,-0.9288819,-2.295645,1.1020161,-2.9262815
173,1778587683.870684,-1.8038272,-0.2518671,0.6572462,-3.558516,2.9049761,-2.9901974
174,1778587683.8911114,-1.9788162,0.46663743,0.97744924,-2.564624,3.4738274,-3.0956585
175,1778587683.911879,-1.9788162,0.46663743,0.97744924,-2.564624,3.4738274,-3.0956585
176,1778587683.9327495,-2.8998883,1.6271297,1.6068729,-4.1364217,2.2194786,-2.817092
177,1778587683.9538212,-2.5086644,1.6195638,1.7601409,-4.1364217,2.2194786,-2.817092
178,1778587683.974741,-1.2217506,1.4865527,1.5888127,-5.0275154,0.11025487,-1.0402308
179,1778587683.9954147,-0.96304995,1.4418901,1.6420171,-4.453871,0.37444046,-0.90707266
180,1778587684.0159895,-0.8300387,1.4050376,1.5419537,-4.453871,0.37444046,-0.90707266
181,1778587684.0373397,-0.39293218,1.2666571,0.53985465,-2.2258701,1.5425029,-0.8000136
182,1778587684.057775,-0.36950266,1.2493291,0.31483385,-2.2258701,1.5425029,-0.8000136
183,1778587684.0788217,-0.17742962,1.0792211,-0.05198419,-3.1782165,0.9619338,-0.3339604
184,1778587684.0992625,0.136428,0.7682922,0.27651685,-3.8280277,0.598146,0.09374327
185,1778587684.1202517,0.12544543,0.72631437,0.8551766,-3.687413,0.5699165,0.25246766
186,1778587684.1409948,0.09298581,0.94352525,1.0204034,-2.501241,0.68816084,0.44741106
187,1778587684.1622472,0.09298581,0.94352525,1.0204034,-2.501241,0.68816084,0.44741106
188,1778587684.1826034,0.22575295,1.0958171,0.63943,-0.1272991,-0.94808537,0.8149273
189,1778587684.2038088,-0.03172744,1.2197981,0.60306543,0.40373522,-1.8892465,0.86872315
190,1778587684.2243333,-0.03172744,1.2197981,0.60306543,0.40373522,-1.8892465,0.86872315
191,1778587684.2464056,-1.0450531,1.6093135,1.6610537,2.011752,-2.3744745,1.1659319
192,1778587684.2659209,-1.5648952,1.7940649,1.8096845,3.1270838,-3.5521243,1.4327807
193,1778587684.2874193,-1.5458585,1.7579445,1.9070634,3.7087183,-4.31006,2.0138824
194,1778587684.3074245,-1.876312,1.7652661,2.0432472,4.095942,-3.636813,1.8940402
195,1778587684.3285725,-1.876312,1.7652661,2.0432472,4.095942,-3.636813,1.8940402
196,1778587684.3491282,-1.876312,1.7652661,2.0432472,4.095942,-3.636813,1.8940402
197,1778587684.3701453,-1.876312,1.7652661,2.0432472,4.095942,-3.636813,1.8940402
198,1778587684.3909776,-1.876312,1.7652661,2.0432472,4.095942,-3.636813,1.8940402
199,1778587684.411617,-0.12202863,-0.83687234,-0.0012202862,2.1475732,-3.230947,0.39361522
200,1778587684.432498,0.07370529,-1.0030752,-0.30555966,2.2849922,-2.4612935,-0.46498793
201,1778587684.4537973,0.088836834,-1.0816617,-0.56548065,2.2833943,-1.5691346,-1.3347764
202,1778587684.4740956,-0.078830495,-0.9869675,-0.95597225,2.0863204,-0.78776306,-1.9829898
203,1778587684.4950063,-0.12007617,-0.9354714,-1.0618931,2.0863204,-0.78776306,-1.9829898
204,1778587684.515961,-0.12007617,-0.9354714,-1.0618931,2.0863204,-0.78776306,-1.9829898
205,1778587684.5375197,-0.12007617,-0.9354714,-1.0618931,2.0863204,-0.78776306,-1.9829898
206,1778587684.5575273,-0.12007617,-0.9354714,-1.0618931,2.0863204,-0.78776306,-1.9829898
207,1778587684.5786147,-0.12007617,-0.9354714,-1.0618931,2.0863204,-0.78776306,-1.9829898
208,1778587684.599248,-0.12007617,-0.9354714,-1.0618931,2.0863204,-0.78776306,-1.9829898
209,1778587684.619973,-0.912286,-0.50715095,-0.024405725,-3.3396041,0.02876214,-1.6389093
210,1778587684.6408308,-1.7550157,0.7743936,0.7797629,-1.4141386,2.5507758,-1.4945661
211,1778587684.6616125,-1.7550157,0.7743936,0.7797629,-1.4141386,2.5507758,-1.4945661
212,1778587684.6825457,-2.0654564,1.2993608,1.4348125,-2.9177594,2.5486453,-0.8383631
213,1778587684.7032273,-2.0654564,1.2993608,1.4348125,-2.9177594,2.5486453,-0.8383631
214,1778587684.7241447,-2.0654564,1.2993608,1.4348125,-2.9177594,2.5486453,-0.8383631
215,1778587684.7450325,-2.0654564,1.2993608,1.4348125,-2.9177594,2.5486453,-0.8383631
216,1778587684.7659535,-2.0654564,1.2993608,1.4348125,-2.9177594,2.5486453,-0.8383631
217,1778587684.78656,-0.4600479,1.4057697,0.27139166,-1.9499665,1.5691346,-0.44474792
218,1778587684.8072138,-0.40269446,1.3633038,0.20256752,-2.3579628,1.4807175,-0.15925704
219,1778587684.8282788,-0.40269446,1.3633038,0.20256752,-2.3579628,1.4807175,-0.15925704
220,1778587684.8492124,-0.40269446,1.3633038,0.20256752,-2.3579628,1.4807175,-0.15925704
221,1778587684.8695605,-0.40269446,1.3633038,0.20256752,-2.3579628,1.4807175,-0.15925704
222,1778587684.8907278,0.29823795,0.6626154,0.91448253,-1.6969663,0.51505536,0.73343456
223,1778587684.9114773,0.37633628,0.7143555,0.37316352,0.11132014,0.19228023,0.69135666
224,1778587684.932225,0.37633628,0.7143555,0.37316352,0.11132014,0.19228023,0.69135666
225,1778587684.953401,-0.15033926,1.1722069,0.6067263,1.556884,-1.5707325,0.8181231
226,1778587684.973964,-0.15033926,1.1722069,0.6067263,1.556884,-1.5707325,0.8181231
227,1778587684.994724,-0.15033926,1.1722069,0.6067263,1.556884,-1.5707325,0.8181231
228,1778587685.0156612,-0.15033926,1.1722069,0.6067263,1.556884,-1.5707325,0.8181231
229,1778587685.0362546,-1.1390152,2.2062776,2.276566,3.3012545,-3.6266928,2.3771377
230,1778587685.0578156,-1.5575734,1.6407969,1.6344513,4.4890246,-2.6727486,2.20563
231,1778587685.0778146,-1.824572,1.6010156,1.458242,4.503938,-1.5020229,1.798699
232,1778587685.0988126,-1.6410409,0.524479,1.0396838,3.733752,-1.164334,2.1662152
233,1778587685.1194985,-1.3869773,0.18304294,0.9005712,2.8309402,-1.7172064,2.495382
234,1778587685.1403637,-1.3869773,0.18304294,0.9005712,2.8309402,-1.7172064,2.495382
235,1778587685.161379,-1.3869773,0.18304294,0.9005712,2.8309402,-1.7172064,2.495382
236,1778587685.1822224,-1.3869773,0.18304294,0.9005712,2.8309402,-1.7172064,2.495382
237,1778587685.203132,-1.3869773,0.18304294,0.9005712,2.8309402,-1.7172064,2.495382
238,1778587685.223806,-1.3869773,0.18304294,0.9005712,2.8309402,-1.7172064,2.495382
239,1778587685.2455022,-0.17084008,-0.89617825,-1.4570218,0.49747851,-0.42983422,-1.1648667
240,1778587685.2655466,-0.2672427,-0.9313224,-1.3061944,0.49747851,-0.42983422,-1.1648667
241,1778587685.2862773,-0.2672427,-0.9313224,-1.3061944,-1.8114822,-1.1829761,-1.5403724
242,1778587685.3070283,-1.0091767,-0.43759465,-0.42905265,-3.3273535,-1.0615361,-1.8418423
243,1778587685.3279495,-1.3376778,-0.07492557,0.12056428,-3.3300166,0.6870956,-1.7662084
244,1778587685.3485503,-1.4946066,0.23209843,0.69385475,-2.6770096,2.5465147,-1.4205302
245,1778587685.369542,-1.7794214,1.308635,0.5662128,-1.6261262,2.0250678,-2.0330572
246,1778587685.390738,-1.8789967,1.5143752,0.52301466,-2.2546322,2.4037693,-1.598962
247,1778587685.4114642,-1.5939379,1.4431105,1.0001466,-3.3188314,2.9784794,-1.0365024
248,1778587685.4321434,-1.4179726,1.4492118,1.3642801,-4.077832,2.5571673,-0.8772453
249,1778587685.4532046,-0.9974619,1.5334117,1.7764928,-4.088485,1.9755329,-0.75420725
250,1778587685.473579,-0.677747,1.504857,1.5768539,-3.1158986,1.8833876,-0.72970617
251,1778587685.4947767,-0.53936654,1.4677603,1.32157,-3.1158986,1.8833876,-0.72970617
252,1778587685.515405,0.008542004,1.1668377,0.41343296,-1.8232001,2.1864552,-0.99548966
253,1778587685.53675,0.17450093,0.99087244,0.34265637,-1.8998991,2.2269354,-1.212271
254,1778587685.557061,0.07150877,0.8851956,0.31727442,-1.8200043,2.0298615,-1.293231
255,1778587685.5779269,0.047347106,0.87396896,0.43613032,-1.6229304,1.7821875,-1.0562097
256,1778587685.5986953,0.33020946,0.83833665,0.656514,-1.0689929,1.4759239,-0.46818373
257,1778587685.6196074,0.36364532,0.81368685,0.6108753,-0.101200126,0.92784536,-0.104928546
258,1778587685.6404817,0.042954076,0.8973985,0.45785138,0.8111989,-0.16245283,0.0031957934
259,1778587685.661031,-0.58256465,1.2410312,0.48274526,1.1233214,-1.6847157,0.20719394
260,1778587685.6816103,-0.6621273,1.381364,0.58988637,1.1286477,-2.983273,0.9353022
261,1778587685.702963,-0.9159469,1.5724608,1.2334653,1.2133362,-3.8498657,1.5014902
262,1778587685.723529,-0.9132622,1.7718556,1.6344513,1.5238608,-4.66213,1.6282567
263,1778587685.7445989,-0.9794017,1.9046228,1.9822329,2.359028,-5.1031494,1.7310548
264,1778587685.7652779,-1.240543,1.8789967,2.0044422,3.5558527,-4.1784997,1.5978967
265,1778587685.78614,-1.4604386,1.8174944,1.4638554,4.885303,-2.4687505,1.4689997
266,1778587685.8069098,-1.7928444,1.9024262,0.8969103,4.8799763,-1.4370418,1.5345135
267,1778587685.8276815,-1.7171869,1.2549424,0.690682,3.6820867,-0.88896316,1.8913771
268,1778587685.8482826,-1.1514622,0.6284474,0.5191097,2.343582,-1.1867046,2.6652918
269,1778587685.8695452,-0.30043447,-0.3162982,0.42685616,0.4383563,-2.3078954,2.0351877
270,1778587685.8901768,-0.12861817,-0.56767714,0.3990336,0.5752428,-2.2125542,1.071656
271,1778587685.911188,-0.087616555,-0.9093573,0.26699865,1.2447615,-1.6666062,0.17949706
272,1778587685.9321172,-0.2169669,-1.0689708,-0.13276714,2.1758027,-1.1872373,-0.68176925
273,1778587685.9528124,-0.37999713,-1.0355349,-0.6604189,3.1190944,-0.5800365,-1.3070794
274,1778587685.9737768,-0.41758195,-0.9132622,-1.325963,3.1537154,0.2743056,-1.2793826
275,1778587685.9949443,-0.42905265,-0.84565836,-1.5099822,1.804558,0.62744075,-1.1163971
276,1778587686.0151513,-0.37243137,-0.8031924,-1.488017,-0.396811,0.09427591,-1.1057445
277,1778587686.0361109,-0.5132524,-0.6572462,-1.2027141,-2.4357271,0.05273059,-1.5121429
278,1778587686.05666,-1.6727684,-0.15107143,0.2169669,-3.7129793,1.8844528,-1.8524948
279,1778587686.0775788,-2.15771,0.30751213,1.2300485,-3.0445259,3.1856732,-1.2836437
280,1778587686.0982902,-1.8238398,0.76243484,1.1473131,-1.9228023,2.8597023,-1.0844392
281,1778587686.1191962,-1.8702106,1.4013767,1.0450531,-3.1995218,2.2748723,-1.5302523
282,1778587686.13956,-1.6527556,1.432128,1.769171,-5.009406,2.2732744,-1.3038837
283,1778587686.1605532,-1.4699568,1.4104068,1.9756435,-5.0552125,2.0149477,-0.72171664
284,1778587686.1817775,-0.70923036,1.4004005,1.934886,-4.206197,1.5526229,-0.61412495
285,1778587686.2024448,-0.59672,1.3806318,1.7032754,-2.9800773,1.3560816,-0.76965356
286,1778587686.2231534,0.05686534,1.1717188,0.52911615,-2.047971,1.5973641,-0.8117315
287,1778587686.244145,0.22404456,1.0516427,0.20061506,-1.8024274,2.052232,-0.9353022
288,1778587686.2643735,0.045394648,0.91497064,0.14960709,-2.1257353,2.5800705,-0.9443569
289,1778587686.2855458,0.045394648,0.91497064,0.14960709,-2.1257353,2.5800705,-0.9443569
290,1778587686.3067205,-0.027334413,0.71313524,0.35534734,-2.6754117,1.6841831,-0.6263755
291,1778587686.3278039,0.0924977,0.7148437,0.77951884,-3.0770164,0.5970807,-0.30839407
292,1778587686.3482685,0.5091034,0.79831123,1.0714114,0.004261058,0.16937704,0.27324033
293,1778587686.3690023,0.5091034,0.79831123,1.0714114,0.004261058,0.16937704,0.27324033
294,1778587686.3901083,-0.084687866,1.2427394,0.38194957,1.8056233,-0.76912093,0.14966966
295,1778587686.4109688,-0.40000984,1.4445748,0.58183247,1.8056233,-0.76912093,0.14966966
296,1778587686.431919,-1.2290722,2.0305562,1.3845367,1.9659456,-1.2442288,0.7888283
297,1778587686.4533556,-1.1973449,2.221165,1.6971741,1.991512,-4.023504,2.2791333
298,1778587686.4736135,-1.1600041,2.250696,2.0403185,1.9670109,-4.495416,2.634399
299,1778587686.4940207,-0.97330034,1.5956463,2.6236155,3.08181,-3.9558597,2.6525085
300,1778587686.5146909,-0.8964222,1.4025971,2.3173234,4.391553,-3.0280142,2.0149477
301,1778587686.535707,-1.5314592,1.2844733,1.3486603,4.5050035,-1.7379789,1.4977618
302,1778587686.5564568,-1.5448823,0.94035256,0.9952655,4.1199102,-1.005077,1.8471686
303,1778587686.5774496,-1.5448823,0.94035256,0.9952655,4.1199102,-1.005077,1.8471686
304,1778587686.597879,-0.7155758,-0.15961345,0.31678632,2.2423816,-2.122007,1.4817829
305,1778587686.6188025,-0.60819066,-0.3402158,0.19451363,2.2423816,-2.122007,1.4817829
306,1778587686.6397054,-0.4195344,-0.8515157,-0.42514774,1.7395768,-1.0940266,-0.7259777
307,1778587686.660516,-0.6047739,-0.87201655,-0.7602383,1.7395768,-1.0940266,-0.7259777
308,1778587686.6814334,-0.6047739,-0.87201655,-0.7602383,1.7395768,-1.0940266,-0.7259777
309,1778587686.7021272,-0.36730617,-0.6577343,-1.3244987,0.6530071,-1.1249193,-1.3118732
310,1778587686.7230668,-0.33875147,-0.6240544,-1.3493925,-0.5278385,-1.2378373,-1.4892397
311,1778587686.7438822,-0.5232587,-0.44101146,-0.6953191,-1.5057513,1.3262542,-1.8423749
312,1778587686.7645292,-1.0626253,-0.13862452,-0.09640261,-1.6074841,2.292449,-1.9531624
313,1778587686.7865336,-1.5202327,0.25796852,0.78488815,-1.6074841,2.292449,-1.9531624
314,1778587686.806179,-1.5541565,0.4097721,1.027481,-1.995773,2.5427864,-1.8413097
315,1778587686.8278232,-0.96573454,1.0667742,0.67140144,-1.7283915,1.6426378,-1.4828482
316,1778587686.8481178,-1.4616588,1.4658079,0.7660957,-1.7283915,1.6426378,-1.4828482
317,1778587686.86871,-1.6735007,1.4526287,1.1248599,-2.5571673,2.352104,-1.454086
318,1778587686.8897417,-0.91814333,1.4721533,0.86982006,-3.4434674,1.9584887,-0.2876214
319,1778587686.9104867,-0.74364245,1.428223,1.061405,-4.355334,1.2506205,-0.1571265
320,1778587686.931247,-0.7067898,1.364036,1.2376143,-4.355334,1.2506205,-0.1571265
321,1778587686.9522636,-0.20183535,1.0838583,1.0550594,-3.1521175,1.5659387,-0.13954964
322,1778587686.9725811,-0.021721095,0.9691513,0.48738232,-2.5848641,1.7012273,-0.32330775
323,1778587686.9937513,0.0061014313,0.9264413,0.26553428,-2.5859294,1.4727281,-0.37284255
324,1778587687.0146546,0.1300825,0.75096416,0.17303659,-2.9838057,0.87564737,-0.23276028
325,1778587687.035548,0.1300825,0.75096416,0.17303659,-2.9838057,0.87564737,-0.23276028
326,1778587687.056562,0.4334457,0.6016011,0.8859278,-0.2908172,0.35952675,-0.2790993
327,1778587687.0770698,0.5383903,0.6123396,0.9689073,-0.2908172,0.35952675,-0.2790993
328,1778587687.0979948,0.3900035,0.8297946,0.18597162,1.7827201,-0.7163904,-0.4607269
329,1778587687.1185615,0.24723,0.93986446,0.12349297,1.7827201,-0.7163904,-0.4607269
330,1778587687.1395142,-0.45907167,1.3752626,0.8685997,1.5078819,-1.5094798,-0.07084008
331,1778587687.1605663,-0.5520575,1.5722169,1.517548,1.5856462,-2.2833943,0.60080916
332,1778587687.181415,-0.49201941,1.7066923,1.599063,2.02347,-3.6554549,1.0349044
333,1778587687.2022622,-0.7063017,2.2736373,2.4086008,2.3228092,-4.50021,1.0988203
334,1778587687.222908,-1.0143019,2.0469081,2.9264903,3.4232273,-3.3928673,1.3608754
335,1778587687.2437148,-1.2612879,1.8770443,2.3551524,4.9843726,-2.21575,1.3411679
336,1778587687.2642417,-1.9585594,1.8375069,1.2878901,4.4868937,-1.1041466,1.5947009
337,1778587687.2853355,-1.9107243,1.5890567,1.2329772,4.4868937,-1.1041466,1.5947009
338,1778587687.3063755,-1.2830089,0.2020794,0.9200958,3.3246903,-1.7124126,1.917476
339,1778587687.3269193,-0.8256457,-0.31654227,0.5449798,3.3246903,-1.7124126,1.917476
340,1778587687.347519,-0.21477039,-0.7897693,-0.38658667,2.7867317,-2.0282636,0.22264028
341,1778587687.3692112,-0.3145898,-0.84053314,-0.64235866,2.4527714,-1.412008,-0.5683186
342,1778587687.3891437,-0.3145898,-0.84053314,-0.64235866,2.4527714,-1.412008,-0.5683186
343,1778587687.410465,-0.42124277,-0.780007,-1.108264,1.4168017,-0.48735848,-1.1142666
344,1778587687.4310212,-0.40147418,-0.7497439,-1.1687901,1.4168017,-0.48735848,-1.1142666
345,1778587687.452081,-0.41416514,-0.63162017,-0.98818773,-1.2937636,-0.8309063,-1.202151
346,1778587687.4726593,-0.49909708,-0.61502427,-0.8232051,-2.102832,-0.24181503,-1.2154667
347,1778587687.4935994,-0.6191732,-0.5937913,-0.7153318,-2.102832,-0.24181503,-1.2154667
348,1778587687.5142875,-1.1985651,-0.47151858,-0.14570218,-2.7318707,1.4002901,-1.7651432
349,1778587687.5352929,-1.6754531,-0.272856,0.46297657,-2.7723508,2.040514,-2.0064256
350,1778587687.556532,-1.7154784,0.077122085,0.9088692,-2.1294637,2.6194854,-1.8253306
351,1778587687.5768783,-1.5553769,0.35534734,0.23429495,-2.2833943,2.5513084,-2.4948494
352,1778587687.5981054,-2.007859,0.422219,1.6742326,-4.3382893,2.6333337,-2.9262815
353,1778587687.618592,-1.5587937,0.65138876,2.468883,-5.278385,2.4224114,-2.6434538
354,1778587687.6391852,-1.1958805,0.94938266,2.5108612,-4.437892,2.5225463,-2.7004454
355,1778587687.6601963,-0.93473923,1.4697127,1.534876,-3.103648,3.018427,-3.0194921
356,1778587687.6810055,-0.83736044,1.624445,0.6994681,-2.4527714,2.7073696,-3.161705
357,1778587687.701968,-0.6723777,1.512911,0.41929033,-2.576342,2.8490498,-1.9584887
358,1778587687.722815,-0.6723777,1.512911,0.41929033,-2.576342,2.8490498,-1.9584887
359,1778587687.7437725,-0.70288485,1.3154685,0.00073217176,-3.9713058,2.0442424,-0.099069595
360,1778587687.763929,-0.6872652,1.2947236,0.91399443,-3.9713058,2.0442424,-0.099069595
361,1778587687.784852,-0.375116,1.394055,1.4228537,-4.327104,0.9763149,0.4889564
362,1778587687.8059134,-0.18743597,1.4348125,1.5182801,-3.3182988,-0.49534798,0.85061365
363,1778587687.8266068,0.39854547,1.3191295,0.8881243,-1.2346416,-1.3140037,1.1286477
364,1778587687.8475142,0.42905265,1.2734908,0.63503695,1.0210559,-0.72171664,1.520665
365,1778587687.8685696,-0.3482697,1.5400012,0.3431445,2.040514,-0.37603834,1.6777915
366,1778587687.8892572,-1.428711,1.8260365,1.4182167,1.9707392,-2.624279,2.770753
367,1778587687.9101458,-1.428711,1.8260365,1.4182167,1.9707392,-2.624279,2.770753
368,1778587687.9309788,-1.667399,2.0944993,1.3213259,2.9885995,-3.3507893,3.845072
369,1778587687.9519694,-1.9592916,2.4391081,1.8218873,3.1872714,-4.4293694,4.849084
370,1778587687.9723287,-1.1180263,1.5541565,1.5153515,3.6527917,-4.9550776,4.948686
371,1778587687.9933066,-1.1675699,1.4331042,1.0152781,4.040548,-4.027232,3.2911346
372,1778587688.0142045,-1.1675699,1.4331042,1.0152781,4.040548,-4.027232,3.2911346
373,1778587688.0348403,-1.5736811,0.43173727,0.49934113,3.2751555,-0.9369001,2.2125542
374,1778587688.055806,-1.4985116,-0.18987654,0.6262509,1.3672669,-2.2061627,1.6618125
375,1778587688.0766127,-0.7682922,-0.8808026,0.8251576,0.7350325,-3.5958002,1.2074772
376,1778587688.097557,-0.23844394,-1.3157127,0.47469133,1.5371766,-3.7891457,0.36432046
377,1778587688.1182501,-0.23844394,-1.3157127,0.47469133,1.5371766,-3.7891457,0.36432046
378,1778587688.1390421,-0.45199403,-1.1434082,-1.5104704,4.7287087,0.072970614,-1.1696603
379,1778587688.1603277,-0.29091623,-1.0384636,-1.8807051,3.7151098,0.072970614,-1.1696603
380,1778587688.1803238,-0.38487828,-1.1856301,-1.5968665,-2.253567,-1.1808456,-1.9430424
381,1778587688.2013874,-0.37584817,-1.2300485,-1.2742229,-2.253567,-1.1808456,-1.9430424
382,1778587688.2220917,-0.8664033,-1.1678139,-0.2877435,-3.5233622,-1.1574098,-2.4884577
383,1778587688.2439017,-1.0128375,-0.7060576,0.04148973,-3.2389367,0.9443569,-3.0013826
384,1778587688.263477,-1.21028,-0.32508424,0.5954997,-3.2389367,0.9443569,-3.0013826
385,1778587688.2847364,-1.4777666,0.1342315,1.2139407,-3.4067156,1.8908445,-3.3992589
386,1778587688.3056095,-1.7306099,0.9169231,1.2032022,-3.3726273,1.7310548,-3.7779603
387,1778587688.326917,-1.854835,1.4572659,2.2326357,-4.49009,2.499643,-2.2993734
388,1778587688.347759,-1.3933228,1.4784988,2.212379,-4.3643885,2.026133,-1.808819
389,1778587688.3681774,-1.3933228,1.4784988,2.212379,-4.3643885,2.026133,-1.808819
390,1778587688.3885849,-0.95572823,1.4846002,1.6993706,-3.7294908,1.8152106,-1.7795243
391,1778587688.4100213,-0.64431113,1.462147,0.33191785,-1.839179,2.6349316,-1.4610102
392,1778587688.4303625,-0.64431113,1.462147,0.33191785,-1.839179,2.6349316,-1.4610102
393,1778587688.4518092,-0.53253293,1.3559821,-0.26236153,-4.242416,1.010936,-0.2615224
394,1778587688.472182,-0.3133695,1.3169329,0.25284332,-5.441371,0.47723848,0.561927
395,1778587688.4934733,0.053204484,1.3306,1.7457415,-4.8725195,0.2263687,0.8426242
396,1778587688.5136847,0.12471326,1.4416462,1.9434278,-2.198706,-0.6423545,0.6247776
397,1778587688.5349212,0.15326795,1.512911,1.2988727,0.70467246,-0.6583334,0.73130405
398,1778587688.555372,0.07248501,1.313028,0.3704789,2.1779332,-0.5470133,1.1648667
399,1778587688.576633,-0.42954078,1.099966,0.38268176,2.1619542,-1.0237192,1.6447684
400,1778587688.5967681,-0.54888475,0.92961407,0.68091977,1.9968382,-2.4410534,2.0554278
401,1778587688.618276,-0.9405966,0.98452693,1.0596966,2.3957798,-3.6346824,1.995773
402,1778587688.6387453,-1.0687267,1.5011961,1.0992339,3.5286884,-3.8008635,2.5571673
403,1778587688.6603627,-1.0284572,2.0124962,1.1653733,3.750796,-3.8541267,2.9332056
404,1778587688.6802773,-1.3823403,1.9556307,2.5999417,2.8186898,-4.1662493,2.8032434
405,1778587688.701576,-0.66700846,1.5319474,2.7144046,2.764894,-3.9840891,2.964631
406,1778587688.7219703,-0.66700846,1.5319474,2.7144046,2.764894,-3.9840891,2.964631
407,1778587688.743434,-1.9812566,0.9776934,1.2820327,6.336193,0.24021713,2.2125542
408,1778587688.7633889,-1.777469,0.66798466,0.7053254,6.336193,0.24021713,2.2125542
409,1778587688.7852507,-0.8361401,-0.5198419,-0.14277348,1.8056233,-2.1758027,1.7827201
410,1778587688.8051357,-0.4724948,-1.1219312,0.00097622897,1.8056233,-2.1758027,1.7827201
411,1778587688.8267741,-0.38121742,-1.2356619,-0.059549972,1.1611383,-2.5640914,0.7621967
412,1778587688.8469408,-0.3482697,-1.3132721,-0.64138246,1.546764,-2.0879183,-0.3536678
413,1778587688.868049,-0.5554743,-1.125348,-1.0199152,1.9126823,-1.4407701,-1.4887071
414,1778587688.8882854,-0.50715095,-0.78659654,-1.5094941,0.7004114,-0.15233281,-2.233327
415,1778587688.9102023,-0.5549862,-0.7314396,-1.3323085,-0.9869675,0.19707392,-2.444782
416,1778587688.930517,-0.7573096,-0.7643873,-0.6784792,-2.3989756,0.6743124,-2.5683527
417,1778587688.951234,-1.0484699,-0.75267255,-0.3065359,-3.141465,1.5201324,-2.593919
418,1778587688.9719257,-1.168302,-0.73607665,-0.084687866,-3.141465,1.5201324,-2.593919
419,1778587688.9928865,-1.2625082,-0.49543622,0.9554841,-3.5936697,2.6434538,-2.63866
420,1778587689.013371,-1.185142,-0.06882414,0.82344913,-3.0839405,3.0237532,-3.1968586
421,1778587689.0346384,-1.4194369,0.19256116,0.5679212,-3.3886063,3.4125748,-3.827495
422,1778587689.0552266,-2.2748578,0.8088057,1.875824,-4.709534,3.8962047,-3.3598442
423,1778587689.076597,-2.05423,0.81685966,2.1059701,-4.709534,3.8962047,-3.3598442
424,1778587689.0965111,-1.1697664,1.0902036,2.2868164,-5.6448364,1.1616709,-2.6280074
425,1778587689.1181152,-1.0799533,1.291551,2.0681412,-4.1992726,1.2719258,-2.1278658
426,1778587689.1382759,-1.0799533,1.291551,2.0681412,-4.1992726,1.2719258,-2.1278658
427,1778587689.159543,-1.0565238,1.5597699,1.3767269,-3.955327,1.3262542,-1.6426378
428,1778587689.1799033,-0.8102701,1.4860646,0.9374239,-3.7316215,0.78296936,-0.96619487
429,1778587689.2012455,-0.3145898,1.2373703,0.9242448,-3.942011,-0.042077947,-0.40533313
430,1778587689.221767,-0.22233616,1.1880707,1.0711672,-2.2264028,0.38722363,0.05219796
431,1778587689.2425308,-0.22233616,1.1880707,1.0711672,-2.2264028,0.38722363,0.05219796
432,1778587689.2637486,-0.10592084,1.5282865,0.49690056,-1.0221212,0.23755397,0.16298546
433,1778587689.284614,0.13447554,1.4465274,0.16571487,0.07403588,-1.8823223,0.7866978
434,1778587689.305232,0.091033354,1.347196,0.27090356,1.1084076,-1.2394352,1.1515509
435,1778587689.326009,-0.21916342,1.39796,0.673842,1.1084076,-1.2394352,1.1515509
436,1778587689.346994,-0.9413288,1.6805782,1.1602482,3.0823426,-2.602441,1.6181368
437,1778587689.3677347,-1.6871678,2.4198277,2.0046864,3.3268209,-3.895672,2.5566347
438,1778587689.3884616,-1.8448287,2.668278,2.7175775,4.0037966,-3.5254927,3.8812912
439,1778587689.409644,-1.9170696,2.0574026,3.2628014,4.637629,-3.6128445,4.760134
440,1778587689.4299,-1.7084008,1.6737447,3.2174067,5.3620086,-4.4496098,4.7766457
441,1778587689.4509892,-1.150974,0.5635282,2.0430033,6.656305,-3.4360106,3.9489353
442,1778587689.4717891,-1.4438426,0.41123646,0.9730562,7.474961,-1.4556838,2.9262815
443,1778587689.492797,-1.018939,-0.16449459,0.4751795,6.319681,-0.26365295,2.728675
444,1778587689.51344,-0.9835507,-0.58134437,0.5474204,4.5758433,-0.5230448,1.9925772
445,1778587689.5343914,-0.7246059,-1.2466444,0.4322254,3.1409323,-1.9132149,1.2884374
446,1778587689.5550332,-0.3612047,-1.5590377,0.5015376,2.2594259,-2.9550436,0.53263223
447,1778587689.5760338,-0.3961049,-1.6625179,0.06199054,2.6652918,-3.186206,-0.5336975
448,1778587689.5964265,-0.4834774,-1.6898522,-0.5034901,3.4930022,-1.9286613,-0.912399
449,1778587689.6182036,-0.2672427,-1.6102897,-1.3928347,1.1813782,-1.3129385,-1.3869743
450,1778587689.6379929,-0.26651052,-1.6112659,-1.5029045,1.1813782,-1.3129385,-1.3869743
451,1778587689.6595912,-0.26651052,-1.6112659,-1.5029045,1.1813782,-1.3129385,-1.3869743
452,1778587689.6798387,-1.2554306,-1.0164984,-0.22258021,-4.952947,-0.88949585,-2.9939258
453,1778587689.7009661,-1.551716,-0.7053254,0.61624455,-4.321778,0.88683265,-2.8884647
454,1778587689.7213917,-1.7472057,-0.15155955,1.1463369,-3.0423954,1.6202673,-3.6991308
455,1778587689.7427635,-1.9761316,0.2208718,0.8232051,-3.0423954,1.6202673,-3.6991308
456,1778587689.7632768,-3.2047157,1.4414021,1.4006445,-3.1244206,2.0772657,-4.0416136
457,1778587689.7844968,-2.8830483,1.7847906,2.1369653,-5.042962,2.030394,-2.5102956
458,1778587689.8046088,-2.5377073,2.0088353,1.9939476,-5.042962,2.030394,-2.5102956
459,1778587689.8256114,-1.8257922,1.9727148,1.6512914,-3.5563853,2.376605,-1.5446335
460,1778587689.8466287,-0.9005712,1.5341438,0.84517026,-2.91989,2.8639636,-1.2804478
461,1778587689.8672996,-0.3743838,1.2712942,0.42563587,-2.91989,2.8639636,-1.2804478
462,1778587689.8881588,-0.3441207,1.211012,0.2403964,-2.744654,3.300722,-1.407747
463,1778587689.908983,-0.3441207,1.211012,0.2403964,-2.744654,3.300722,-1.407747
464,1778587689.9298027,-0.0078098318,1.25299,0.47054234,-4.104464,1.7028252,-0.43089947
465,1778587689.9510107,-0.030751213,1.4704449,1.0389518,-3.9819586,1.4050838,-0.07456851
466,1778587689.971836,0.26211748,1.7064483,1.240787,-2.6471822,0.66579026,0.6263755
467,1778587689.9921937,0.29726174,1.7037637,1.0431006,-1.2852416,-0.47137952,1.2665994
468,1778587690.0129945,0.09030118,1.5534244,0.87030816,-0.23062976,-0.9033443,1.8801918
469,1778587690.033966,-0.19963883,1.389662,0.9647583,0.783502,-1.4524881,2.4746094
470,1778587690.0551422,-0.19963883,1.389662,0.9647583,0.783502,-1.4524881,2.4746094
471,1778587690.075611,-0.835652,0.9066727,1.0079564,2.4090955,-3.1553133,3.2639704
472,1778587690.0967052,-0.83223516,1.1009423,0.9059405,2.862898,-4.1689124,3.5196338
473,1778587690.1170957,-1.0814177,1.7279254,1.0599406,2.6535738,-4.666391,3.4732947
474,1778587690.1381063,-1.3367015,2.2431302,1.6864356,2.5353293,-4.6738477,2.8538435
475,1778587690.159572,-2.7912827,2.4024994,2.3297706,3.0194921,-3.4770231,1.9792614
476,1778587690.1796153,-2.3485627,1.7059602,1.3327967,4.8666606,-1.419465,3.2623725
477,1778587690.200358,-2.3485627,1.7059602,1.3327967,4.8666606,-1.419465,3.2623725
478,1778587690.2214556,-0.7636551,0.13960074,-0.07809832,1.4205302,-2.646117,2.6993802
479,1778587690.2422256,-0.24991462,-0.48103684,0.21306199,1.4205302,-2.646117,2.6993802
480,1778587690.2633595,-0.24991462,-0.48103684,0.21306199,0.6311692,-2.7478497,1.8860507
