id,timestamp,acc_x,acc_y,acc_z,gyro_x,gyro_y,gyro_z
1,1778587695.3650846,0.2403964,-1.7494024,0.037584815,3.0626354,-1.8674086,-2.3323965
2,1778587695.3846176,0.17767367,-1.7462295,-0.10933765,3.0626354,-1.8674086,-2.3323965
3,1778587695.4060097,-0.11324256,-1.5170598,-0.59061855,2.1486385,-1.1233214,-3.2346754
4,1778587695.4263418,-0.060770255,-1.4467713,-0.7058135,2.1486385,-1.1233214,-3.2346754
5,1778587695.4473095,-0.060038086,-1.3518331,-0.8053889,-1.3331785,-0.6791061,-4.0863543
6,1778587695.468653,-1.0592085,-1.3152245,-0.260165,-2.757437,-0.5486112,-4.5161886
7,1778587695.4888813,-1.581491,-0.97744924,0.03099527,-3.0839405,-1.0226538,-3.879693
8,1778587695.509436,-1.581491,-0.97744924,0.03099527,-3.0839405,-1.0226538,-3.879693
9,1778587695.531022,-3.2110612,1.1363305,-0.16913168,-1.9084213,1.3326459,-5.281049
10,1778587695.551345,-4.687852,2.6956124,0.060038086,-2.8101676,2.4399881,-4.1326933
11,1778587695.5723426,-3.9036958,2.477425,0.49055508,-4.346279,0.7914915,-2.7324033
12,1778587695.5929396,-3.3655493,2.319032,0.7826916,-4.485296,-0.34194988,-1.5584819
13,1778587695.6140978,-3.3655493,2.319032,0.7826916,-4.485296,-0.34194988,-1.5584819
14,1778587695.634787,-3.3655493,2.319032,0.7826916,-4.485296,-0.34194988,-1.5584819
15,1778587695.6559012,-0.33240595,1.1124129,-0.38756293,-0.36591834,2.5571673,-0.6540724
16,1778587695.676388,-0.15253578,0.839801,-0.28383857,-1.4136059,2.4048345,-0.78723043
17,1778587695.6977153,-0.10860548,0.6875093,-0.00024405724,-2.3861923,2.295645,-0.7845673
18,1778587695.7177262,-0.10860548,0.6875093,-0.00024405724,-2.3861923,2.295645,-0.7845673
19,1778587695.7387137,-0.10860548,0.6875093,-0.00024405724,-2.3861923,2.295645,-0.7845673
20,1778587695.7602277,0.19085276,0.80636513,0.65895456,-1.8759307,0.69348717,0.19441076
21,1778587695.7805386,0.19085276,0.80636513,0.65895456,-1.8759307,0.69348717,0.19441076
22,1778587695.80101,0.38487828,0.9530435,0.6914142,-0.5075985,0.90707266,1.055677
23,1778587695.8221164,0.38487828,0.9530435,0.6914142,-0.5075985,0.90707266,1.055677
24,1778587695.8426304,0.38487828,0.9530435,0.6914142,-0.5075985,0.90707266,1.055677
25,1778587695.8638887,-0.6540734,2.200664,-0.028066583,1.2841763,-1.2410331,3.0621028
26,1778587695.8844697,-1.8663057,3.588862,0.6772589,0.4293016,-1.6559536,3.107909
27,1778587695.9052346,-2.7063508,3.9583645,1.2595794,0.4293016,-1.6559536,3.107909
28,1778587695.926114,-2.7063508,3.9583645,1.2595794,0.4293016,-1.6559536,3.107909
29,1778587695.9471438,-2.7063508,3.9583645,1.2595794,0.4293016,-1.6559536,3.107909
30,1778587695.9680974,-1.6979064,0.33460248,-0.61819696,1.690042,-1.5574167,6.208894
31,1778587695.9888842,-0.6726217,-0.6191732,0.24942651,-0.5592638,-2.5262747,5.24696
32,1778587696.0093932,-0.44003522,-0.8495633,0.5222825,-1.0657971,-3.43388,4.01871
33,1778587696.0303311,-0.44003522,-0.8495633,0.5222825,-1.0657971,-3.43388,4.01871
34,1778587696.05101,-0.44003522,-0.8495633,0.5222825,-1.0657971,-3.43388,4.01871
35,1778587696.0721242,0.5742667,-1.8045594,0.12935033,2.5331988,-2.7142937,0.32117724
36,1778587696.0930252,0.54253924,-1.8309175,-0.017572122,2.9640985,-2.396845,-1.0705907
37,1778587696.1135197,0.27529657,-1.8538588,-0.26065314,2.7196202,-2.1544974,-2.2471755
38,1778587696.1349113,0.27529657,-1.8538588,-0.26065314,2.7196202,-2.1544974,-2.2471755
39,1778587696.1552274,0.27529657,-1.8538588,-0.26065314,2.7196202,-2.1544974,-2.2471755
40,1778587696.1762311,-0.049787678,-1.3996683,-1.2073512,0.51665324,-0.18748654,-2.7569044
41,1778587696.1971898,-0.99965847,-1.4350566,-0.7246059,-1.3635385,0.727043,-3.6101813
42,1778587696.2175088,-1.2554306,-1.355738,-0.36779428,-3.3156357,0.23169503,-4.1689124
43,1778587696.2386973,-1.2554306,-1.355738,-0.36779428,-3.3156357,0.23169503,-4.1689124
44,1778587696.2592392,-1.2554306,-1.355738,-0.36779428,-3.3156357,0.23169503,-4.1689124
45,1778587696.2804453,-3.6132674,1.5885686,0.4271002,-4.8442903,2.2503712,-3.7390783
46,1778587696.3007596,-3.4817207,1.670816,0.82125264,-4.8442903,2.2503712,-3.7390783
47,1778587696.3221862,-3.312101,1.8919317,1.5014402,-4.7963533,1.423726,-3.683152
48,1778587696.3428059,-3.312101,1.8919317,1.5014402,-4.7963533,1.423726,-3.683152
49,1778587696.3638868,-2.6563191,2.058379,1.0904478,-2.4298682,2.1363878,-2.8692899
50,1778587696.384056,-0.7065457,1.4401819,-0.3380193,-2.5853968,2.3228092,-1.7571537
51,1778587696.4049244,-0.58036816,1.227852,-0.053204484,-2.5853968,2.3228092,-1.7571537
52,1778587696.425619,-0.4217309,1.0418804,0.37828872,-3.099387,2.5891252,-1.5563514
53,1778587696.4471476,-0.4217309,1.0418804,0.37828872,-3.099387,2.5891252,-1.5563514
54,1778587696.4679198,-0.038561042,0.9269294,0.5859815,-1.6362462,1.6634104,-0.85966843
55,1778587696.4883552,0.057109397,1.2332213,0.25674823,-1.6378441,1.0668623,-0.011185277
56,1778587696.5089111,0.44003522,1.240543,0.686289,-1.7518274,0.9827065,1.0423613
57,1778587696.529844,0.44003522,1.240543,0.686289,-1.7518274,0.9827065,1.0423613
58,1778587696.55057,0.44003522,1.240543,0.686289,-1.7518274,0.9827065,1.0423613
59,1778587696.5715435,-0.81197846,1.7557478,0.19475769,0.2545982,-1.778459,2.783536
60,1778587696.5920494,-1.1492655,2.4334948,0.41001618,0.32597092,-1.5574167,3.884487
61,1778587696.6132238,-1.8282329,3.3218632,0.74437463,0.42024684,-0.83889574,4.2892876
62,1778587696.6335716,-4.6304984,4.126764,0.7824476,0.4612595,-2.6205506,3.483415
63,1778587696.6548908,-4.6334267,3.8224244,0.78659654,1.1696603,-3.8040593,5.1622715
64,1778587696.675961,-3.9798417,2.3378243,0.39024755,2.4932516,-3.022688,6.1849256
65,1778587696.6963701,-2.81398,0.76463133,-0.2928687,2.5630262,-2.805374,6.613694
66,1778587696.7172203,-2.81398,0.76463133,-0.2928687,2.5630262,-2.805374,6.613694
67,1778587696.7382255,-0.7409578,-0.8358961,-0.12154051,1.2580773,-3.4189663,4.812332
68,1778587696.7586951,-0.23966423,-1.283497,-0.053204484,1.1377025,-3.204848,3.2144356
69,1778587696.7796154,-0.11348662,-1.5522041,0.060038086,1.200553,-2.5028389,1.9009644
70,1778587696.800716,-0.0021965152,-1.8633771,0.042954076,1.4583471,-2.0309267,0.99548966
71,1778587696.8216414,0.4412555,-1.9595356,-0.23014598,1.8173412,-1.6740631,-0.6668556
72,1778587696.8423362,0.64479923,-1.9509935,-0.4983649,1.1169298,-1.613343,-2.0527647
73,1778587696.8634472,0.234539,-1.6852154,-0.575487,-0.048469532,-1.4072144,-3.1680965
74,1778587696.883747,0.0605262,-1.5636748,-0.49592432,-0.92518216,-0.62104917,-3.7721014
75,1778587696.9048986,-0.49201941,-1.5163277,-0.51618105,-1.5483619,0.40533313,-4.2290998
76,1778587696.9257376,-1.2661691,-1.3972276,-0.38805103,-2.2280006,0.6599313,-4.275439
77,1778587696.9464247,-1.3398743,-1.061405,-0.22697324,-2.770753,-0.21092236,-4.346812
78,1778587696.9671555,-1.394055,-0.8683557,-0.30946457,-2.770753,-0.21092236,-4.346812
79,1778587696.988296,-4.817934,1.4001565,-0.3704789,-3.7129793,2.1198764,-6.079997
80,1778587697.0090463,-4.475278,1.8528826,0.7739055,-4.8932924,3.9201732,-4.531102
81,1778587697.0297298,-4.475278,1.8528826,0.7739055,-4.8932924,3.9201732,-4.531102
82,1778587697.050226,-2.7866457,2.2253141,2.2453265,-3.0541131,1.2516857,-3.2314796
83,1778587697.071851,-1.9487971,2.2404454,0.60721445,0.5113269,2.6173549,-2.4208136
84,1778587697.0919206,-1.2891104,2.0229905,-0.30604777,1.0487529,2.3062975,-1.7550232
85,1778587697.112915,-1.0492021,1.9087718,-0.42905265,-0.5603291,1.7331853,-1.536644
86,1778587697.133438,-0.69385475,1.3540297,0.10470056,-1.8727349,1.7992316,-1.2602079
87,1778587697.1544766,-0.30214286,0.99770606,0.541319,-2.3009713,1.6580842,-0.737163
88,1778587697.1751018,-0.10372432,0.8449261,0.754625,-1.979794,1.3954965,-0.35153726
89,1778587697.1963458,0.15229172,0.8520039,0.5876899,-0.96566224,1.2522184,-0.03195793
90,1778587697.2169945,0.23795582,0.9205839,0.44418418,-0.17949706,1.0189254,0.39947417
91,1778587697.2378087,0.6638357,1.044565,0.20525214,-0.26205507,0.47137952,0.82557994
92,1778587697.258814,0.5523015,1.03163,0.47176263,-0.5448828,-0.010652645,1.2213258
93,1778587697.2794154,-0.22453266,1.1756238,0.4937278,0.27803403,-1.4748586,2.9145637
94,1778587697.3006349,-0.11202228,1.2664131,0.38853914,0.27803403,-1.4748586,2.9145637
95,1778587697.3210835,-0.80636513,2.3839512,0.53814626,0.46658584,-2.0229373,3.0067089
96,1778587697.3422644,-4.0384154,4.037195,1.104603,0.29880667,-4.023504,3.830691
97,1778587697.3624308,-4.934838,3.944209,1.4252943,1.5393071,-3.6485307,6.0613546
98,1778587697.383315,-3.7655594,2.0308003,1.2317569,3.264503,-2.928412,6.256298
99,1778587697.40422,-3.3489537,1.142432,0.29018408,3.9894154,-2.7238812,6.139652
100,1778587697.4248483,-3.3489537,1.142432,0.29018408,3.9894154,-2.7238812,6.139652
101,1778587697.4459877,-1.0948408,-0.77854264,-0.34241232,2.2109563,-2.6210833,4.80381
102,1778587697.4668326,-0.12935033,-1.3154685,-0.14765464,1.4487597,-3.361442,3.7923415
103,1778587697.4878044,0.41221267,-1.4938743,-0.09615856,1.4327807,-3.0812774,2.530003
104,1778587697.5085437,0.84053314,-1.5863721,-0.26187342,1.5861788,-2.3121564,1.1206582
105,1778587697.5294757,0.84053314,-1.5863721,-0.26187342,1.5861788,-2.3121564,1.1206582
106,1778587697.550363,0.4761557,-1.5578175,-0.46029195,0.76272935,-1.4386396,-1.7837853
107,1778587697.571059,-0.10714114,-1.3845367,-0.20256752,-0.13848437,-1.0034791,-2.2130868
108,1778587697.5914729,-0.23551524,-1.2493291,0.20525214,-0.31478566,-0.5906891,-2.202967
109,1778587697.6128893,-0.15253578,-1.2119883,0.093473926,-0.03568636,-0.39041942,-2.2146847
110,1778587697.633388,-0.3660859,-1.1758678,-0.23209843,0.13635385,0.029827405,-2.5869946
111,1778587697.6551163,-0.89007676,-0.9440134,-0.6657882,-0.5432849,0.5949502,-2.9379995
112,1778587697.6754901,-1.3332847,-0.6548056,-0.61722076,-1.9489013,0.5305017,-3.1286817
113,1778587697.695981,-1.4853324,-0.31239328,-0.5042223,-3.118029,-0.084155895,-3.4424021
114,1778587697.716662,-3.1627378,1.0718994,-0.034168016,-3.8195057,0.2231729,-4.8714542
115,1778587697.7376633,-3.9588525,1.5360963,0.17791773,-3.4887412,2.5742116,-5.319398
116,1778587697.7579956,-4.0962567,2.7163572,1.1590278,-2.4304008,1.4791197,-2.664759
117,1778587697.7792697,-3.6000884,2.7046423,1.1529264,-2.4304008,1.4791197,-2.664759
118,1778587697.8001173,-0.967443,1.8394594,-0.294089,-0.10066749,2.02347,-0.5448828
119,1778587697.8207846,-0.18914436,1.3676969,-0.6628595,-1.133974,2.6812706,-0.9507485
120,1778587697.8415575,-0.18914436,1.3676969,-0.6628595,-1.133974,2.6812706,-0.9507485
121,1778587697.8629088,-0.3487578,0.8334555,0.6552937,-3.0589068,2.902313,-1.0988203
122,1778587697.883202,-0.31434575,0.78684056,0.9132622,-3.0589068,2.902313,-1.0988203
123,1778587697.9038246,0.268463,0.67628264,1.0277251,-1.6325178,1.4476944,-0.29028457
124,1778587697.924966,0.60819066,0.70410514,0.7987994,-0.74302197,0.88896316,-0.004261058
125,1778587697.9456067,0.72070104,0.7292431,0.65968674,-0.74302197,0.88896316,-0.004261058
126,1778587697.966487,0.8529801,0.77512586,0.3734076,-0.11558119,0.26844665,0.62531024
127,1778587697.987331,0.7294871,0.79318607,0.40830776,-0.11558119,0.26844665,0.62531024
128,1778587698.008154,-0.0993313,1.214917,0.16473864,0.41971418,-1.2335763,1.5877767
129,1778587698.0292485,-0.35510328,1.5419537,0.16400647,0.018642128,-2.610963,1.9089539
130,1778587698.049692,-0.35510328,1.5419537,0.16400647,0.018642128,-2.610963,1.9089539
131,1778587698.070938,-2.4308102,3.853908,2.44765,0.39254996,-2.8703551,2.7409256
132,1778587698.091522,-2.4308102,3.853908,2.44765,0.39254996,-2.8703551,2.7409256
133,1778587698.112588,-3.9791093,3.1153908,-0.018304294,5.7502975,-2.3121564,4.7878313
134,1778587698.1329288,-3.1954415,2.0654564,-1.1294969,5.008341,-1.7539579,5.958024
135,1778587698.154282,-3.1954415,2.0654564,-1.1294969,5.008341,-1.7539579,5.958024
136,1778587698.1745408,-1.2773956,-0.122516744,-0.00048811449,-0.24234766,-2.299906,5.43711
137,1778587698.1957903,-0.50934744,-0.844194,0.5525456,-0.5022722,-2.6999128,4.3180494
138,1778587698.2160914,-0.1889003,-1.1531705,0.43930307,0.4000068,-2.5305357,3.018427
139,1778587698.2372136,-0.004148973,-1.4365209,0.20061506,0.9438243,-2.1869879,1.7555559
140,1778587698.257666,-0.03636453,-1.5700202,0.1701079,0.912399,-2.1406488,0.660464
141,1778587698.2791338,-0.035632357,-1.7198714,-0.079562664,1.0743192,-2.107093,-1.0231866
142,1778587698.2994857,0.25870067,-1.5980868,-0.32972133,1.0785803,-1.6021577,-1.4721955
143,1778587698.3204215,0.54888475,-1.5419537,-0.55523026,0.95607483,-0.7765778,-2.2349248
144,1778587698.3411705,0.5276518,-1.4958268,-0.67530644,0.95607483,-0.7765778,-2.2349248
145,1778587698.3621066,-0.43149322,-1.2398108,-0.835652,-0.5432849,1.0902982,-4.3191147
146,1778587698.382744,-1.5631866,-0.895202,-0.6657882,-1.9515644,0.46658584,-4.291418
147,1778587698.40382,-1.5631866,-0.895202,-0.6657882,-1.9515644,0.46658584,-4.291418
148,1778587698.4243083,-1.8458049,0.0053692595,-0.4600479,-3.3225598,0.60773337,-5.1590757
149,1778587698.4458063,-3.778006,1.0989897,0.042954076,-3.3332124,2.9939258,-5.87227
150,1778587698.466149,-3.778006,1.0989897,0.042954076,-3.3332124,2.9939258,-5.87227
151,1778587698.4870794,-3.9764247,2.5550354,0.88885653,-3.8892806,1.2282499,-3.0807447
152,1778587698.5079942,-1.9395229,2.122566,0.6242984,-3.106311,1.2420983,-1.9313245
153,1778587698.5287378,-1.4306636,1.9160933,0.30433938,-2.0831246,2.3228092,-1.1749867
154,1778587698.5494235,-1.053107,1.7494024,0.10079564,-2.0831246,2.3228092,-1.1749867
155,1778587698.5705254,-0.65285313,1.2224828,0.26797485,-2.9981868,2.6636937,-0.82557994
156,1778587698.5909445,-0.23112221,0.83443177,0.77659017,-3.209109,2.8165593,-0.17310548
157,1778587698.611994,0.0056133163,0.694831,0.97085977,-2.5901904,3.0551784,0.11824436
158,1778587698.6328392,0.23039004,0.665056,0.9247329,-1.6655409,2.5262747,-0.049002163
159,1778587698.6537414,0.2936009,0.69507504,0.8358961,-0.7978831,1.6969663,-0.1257012
160,1778587698.6745243,0.5354616,0.8473667,0.4915313,-0.16937704,1.2522184,0.14114754
161,1778587698.6957572,0.5862255,0.9654905,0.50324607,0.23755397,1.1313108,0.6673882
162,1778587698.7158995,0.46663743,1.0970373,0.328257,0.50173956,0.58056915,1.0482203
163,1778587698.7370899,0.16010156,1.3191295,0.16815543,0.25566345,-0.8111989,1.2708606
164,1778587698.7576952,-0.014887493,1.5365844,0.09664667,-0.25672874,-1.8860507,1.6000272
165,1778587698.7787776,-1.0814177,2.8025093,0.94035256,-0.46339005,-1.6287893,2.6136262
166,1778587698.7993922,-2.6590037,4.3549576,1.3396302,0.70627034,-0.793622,3.7065878
167,1778587698.8203588,-4.1977844,3.9542155,0.36022848,1.8471686,-1.220793,4.3771715
168,1778587698.8413005,-3.7916732,2.8042178,0.5859815,1.0450244,-3.594735,7.1841435
169,1778587698.8621297,-3.7916732,2.8042178,0.5859815,1.0450244,-3.594735,7.1841435
170,1778587698.8829136,-2.113536,0.38512233,-0.40196228,1.8466359,-3.349724,7.3657713
171,1778587698.903723,-1.0216236,-0.34168017,-0.47542354,1.4082797,-3.0594394,6.733004
172,1778587698.924185,0.09274176,-1.2837411,-0.02831064,-0.21571605,-3.812049,2.886334
173,1778587698.9453235,0.13740423,-1.5141312,0.31581008,0.0063915867,-3.1430628,1.2868395
174,1778587698.9660606,0.16083373,-1.6205401,0.60819066,0.0063915867,-3.1430628,1.2868395
175,1778587698.9867322,-0.0156196635,-1.6954657,0.3590082,0.87351686,-2.5699506,0.13262543
176,1778587699.0074904,-0.13081467,-1.6400647,0.022209208,2.16515,-2.817092,-1.9361181
177,1778587699.0284934,-0.45516676,-1.4575099,-0.51398456,1.6612799,-2.8575718,-2.3494408
178,1778587699.0492659,-0.111046046,-1.2864257,-0.6279593,0.76592517,-1.8184065,-2.1049626
179,1778587699.0708768,0.029530926,-1.355738,-0.6770148,0.009054748,-0.6450176,-2.420281
180,1778587699.0912185,-0.12007617,-1.3374337,-0.5891542,-0.89162636,0.30999196,-3.4535873
181,1778587699.1119497,-0.4720067,-1.2935034,-0.51618105,-0.89162636,0.30999196,-3.4535873
182,1778587699.1323404,-1.5356082,-0.47054234,-0.38780698,-2.4117587,-0.07882957,-3.3545177
183,1778587699.1533773,-1.7274371,0.3568117,-0.47176263,-2.385127,0.5933523,-3.6096487
184,1778587699.1740935,-1.7274371,0.3568117,-0.47176263,-2.385127,0.5933523,-3.6096487
185,1778587699.19551,-4.884806,2.7349055,0.21525851,-3.5148401,2.485262,-5.752428
186,1778587699.2156856,-4.4830875,2.7788358,0.50495446,-4.9811764,0.6870956,-3.9143143
187,1778587699.236798,-2.4522872,2.3561287,1.7074246,-4.4874268,0.64714813,-2.245045
188,1778587699.2574003,-1.4919219,2.0024896,1.0950848,-1.6335831,1.8194717,-1.0727214
189,1778587699.2785387,-1.4919219,2.0024896,1.0950848,-1.6335831,1.8194717,-1.0727214
190,1778587699.2991602,-1.4919219,2.0024896,1.0950848,-1.6335831,1.8194717,-1.0727214
191,1778587699.3197775,-1.4919219,2.0024896,1.0950848,-1.6335831,1.8194717,-1.0727214
192,1778587699.3407853,-1.4919219,2.0024896,1.0950848,-1.6335831,1.8194717,-1.0727214
193,1778587699.3616025,-1.4919219,2.0024896,1.0950848,-1.6335831,1.8194717,-1.0727214
194,1778587699.3823252,-0.14789869,0.6282034,0.2779812,-3.5079157,2.8495824,-0.6940198
195,1778587699.4034784,-0.14789869,0.6282034,0.2779812,-3.5079157,2.8495824,-0.6940198
196,1778587699.4245045,-0.14789869,0.6282034,0.2779812,-3.5079157,2.8495824,-0.6940198
197,1778587699.4448411,-0.14789869,0.6282034,0.2779812,-3.5079157,2.8495824,-0.6940198
198,1778587699.4657438,-0.14789869,0.6282034,0.2779812,-3.5079157,2.8495824,-0.6940198
199,1778587699.4868174,-0.14789869,0.6282034,0.2779812,-3.5079157,2.8495824,-0.6940198
200,1778587699.5075305,-0.14789869,0.6282034,0.2779812,-3.5079157,2.8495824,-0.6940198
201,1778587699.5280688,-0.14789869,0.6282034,0.2779812,-3.5079157,2.8495824,-0.6940198
202,1778587699.549184,0.6677406,0.90423214,0.36413342,0.5795039,1.0839065,0.50653327
203,1778587699.5700574,0.6677406,0.90423214,0.36413342,0.5795039,1.0839065,0.50653327
204,1778587699.5905974,0.6677406,0.90423214,0.36413342,0.5795039,1.0839065,0.50653327
205,1778587699.6114023,-2.6211748,0.7839119,-0.5186216,2.8900626,-4.087952,6.6104984
206,1778587699.632231,-2.6211748,0.7839119,-0.5186216,2.8900626,-4.087952,6.6104984
207,1778587699.653028,-0.9266854,-0.74364245,-0.18938842,1.0780476,-3.4999263,4.569452
208,1778587699.6738644,-0.9266854,-0.74364245,-0.18938842,1.0780476,-3.4999263,4.569452
209,1778587699.694848,-0.9266854,-0.74364245,-0.18938842,1.0780476,-3.4999263,4.569452
210,1778587699.7155728,-0.9266854,-0.74364245,-0.18938842,1.0780476,-3.4999263,4.569452
211,1778587699.736269,-0.9266854,-0.74364245,-0.18938842,1.0780476,-3.4999263,4.569452
212,1778587699.7569838,-0.9266854,-0.74364245,-0.18938842,1.0780476,-3.4999263,4.569452
213,1778587699.7778971,0.41416514,-1.7896718,-0.12178457,0.0037284256,-0.96566224,-1.2911005
214,1778587699.798687,0.41416514,-1.7896718,-0.12178457,0.0037284256,-0.96566224,-1.2911005
215,1778587699.8197455,0.07248501,-1.3930788,-0.54156303,0.28176245,0.16831179,-3.0503848
216,1778587699.8403597,-1.0335824,-1.1451166,-0.7905014,-1.6740631,0.43516052,-4.1561294
217,1778587699.861375,-1.1534146,-1.1016744,-0.70166457,-1.6740631,0.43516052,-4.1561294
218,1778587699.8822458,-1.1534146,-1.1016744,-0.70166457,-1.6740631,0.43516052,-4.1561294
219,1778587699.902885,-1.1534146,-1.1016744,-0.70166457,-1.6740631,0.43516052,-4.1561294
220,1778587699.9236019,-1.1534146,-1.1016744,-0.70166457,-1.6740631,0.43516052,-4.1561294
221,1778587699.9445374,-1.1534146,-1.1016744,-0.70166457,-1.6740631,0.43516052,-4.1561294
222,1778587699.9652026,-1.1534146,-1.1016744,-0.70166457,-1.6740631,0.43516052,-4.1561294
223,1778587699.9862082,-3.747011,2.3078055,1.6813104,-4.9902315,1.1515509,-3.2826123
224,1778587700.0068889,-1.1316935,1.7447653,-0.12520137,-0.43303,2.7526433,-2.1257353
225,1778587700.027972,-0.98452693,1.667399,-0.37218732,-0.43303,2.7526433,-2.1257353
226,1778587700.0484872,-0.7695125,1.1175382,0.29506522,-2.5630262,3.0141659,-1.4796523
227,1778587700.0695252,-0.5786598,1.014546,0.588178,-1.9504992,3.1148334,-1.1446266
228,1778587700.0902295,-0.5786598,1.014546,0.588178,-1.9504992,3.1148334,-1.1446266
229,1778587700.1110737,-0.5786598,1.014546,0.588178,-1.9504992,3.1148334,-1.1446266
230,1778587700.1317692,-0.5786598,1.014546,0.588178,-1.9504992,3.1148334,-1.1446266
231,1778587700.1525497,-0.5786598,1.014546,0.588178,-1.9504992,3.1148334,-1.1446266
232,1778587700.173333,-0.5786598,1.014546,0.588178,-1.9504992,3.1148334,-1.1446266
233,1778587700.1942592,0.8195442,1.376971,0.85542065,-0.7174556,0.304133,0.9214538
234,1778587700.214908,-0.42319524,1.8316495,0.20525214,0.6641924,-1.2873721,2.9598372
235,1778587700.236144,-0.8471227,2.2306833,0.5696296,0.18375812,-1.758219,3.4551852
236,1778587700.2566328,-2.0427592,3.1395526,1.2991167,0.16245283,-2.005893,3.8488004
237,1778587700.2780232,-2.6875584,3.3540788,1.6234688,0.531567,-2.6530411,4.0661144
238,1778587700.2985108,-2.6875584,3.3540788,1.6234688,0.531567,-2.6530411,4.0661144
239,1778587700.3193464,-2.6875584,3.3540788,1.6234688,0.531567,-2.6530411,4.0661144
240,1778587700.3399544,-2.6875584,3.3540788,1.6234688,0.531567,-2.6530411,4.0661144
241,1778587700.3608978,-2.6875584,3.3540788,1.6234688,0.531567,-2.6530411,4.0661144
242,1778587700.3815756,-2.6875584,3.3540788,1.6234688,0.531567,-2.6530411,4.0661144
243,1778587700.4025266,-0.44101146,-1.074096,0.19793043,-2.3355923,-2.515622,4.5582666
244,1778587700.4230258,0.084687866,-1.4841121,0.31556603,-0.76113147,-2.5268073,2.4735441
245,1778587700.4441125,0.3214234,-1.6278619,0.20451997,-0.76113147,-2.5268073,2.4735441
246,1778587700.4649165,0.2848148,-1.7328066,-0.34924594,1.212271,-2.3483756,-0.42024684
247,1778587700.485968,0.2848148,-1.7328066,-0.34924594,1.212271,-2.3483756,-0.42024684
248,1778587700.5065737,0.2848148,-1.7328066,-0.34924594,1.212271,-2.3483756,-0.42024684
249,1778587700.5273416,0.2848148,-1.7328066,-0.34924594,1.212271,-2.3483756,-0.42024684
250,1778587700.5483723,0.2848148,-1.7328066,-0.34924594,1.212271,-2.3483756,-0.42024684
251,1778587700.5690954,0.2848148,-1.7328066,-0.34924594,1.212271,-2.3483756,-0.42024684
252,1778587700.5897217,-2.467419,-0.14228538,0.14789869,-2.137453,0.96992326,-5.1319118
253,1778587700.6113539,-2.549422,0.77073276,0.28676724,-1.7353158,1.4998924,-4.829909
254,1778587700.6314268,-3.8431692,1.8728954,0.23209843,-1.3688648,2.5742116,-5.289038
255,1778587700.6526797,-3.8431692,1.8728954,0.23209843,-1.3688648,2.5742116,-5.289038
256,1778587700.6731193,-3.3323576,2.3710163,0.9359596,-3.913249,1.3134711,-4.359062
257,1778587700.6940365,-2.9001322,2.2692444,0.9974619,-3.913249,1.3134711,-4.359062
258,1778587700.7150705,-2.9001322,2.2692444,0.9974619,-3.913249,1.3134711,-4.359062
259,1778587700.7357404,-2.9001322,2.2692444,0.9974619,-3.913249,1.3134711,-4.359062
260,1778587700.7562883,-2.9001322,2.2692444,0.9974619,-3.913249,1.3134711,-4.359062
261,1778587700.7771342,-2.9001322,2.2692444,0.9974619,-3.913249,1.3134711,-4.359062
262,1778587700.7982988,-2.9001322,2.2692444,0.9974619,-3.913249,1.3134711,-4.359062
263,1778587700.8189795,-0.08175918,1.074584,0.46224442,-2.0815268,2.974751,-1.0599382
264,1778587700.839787,0.46688148,1.0926442,0.7604824,-2.2743397,1.6442357,-0.24234766
265,1778587700.860909,0.6040417,1.0777569,0.9171671,-2.2743397,1.6442357,-0.24234766
266,1778587700.8813584,0.56523657,1.1499978,1.2014939,0.44687843,1.2777847,1.1883025
267,1778587700.9021895,0.56523657,1.1499978,1.2014939,0.44687843,1.2777847,1.1883025
268,1778587700.9232717,0.56523657,1.1499978,1.2014939,0.44687843,1.2777847,1.1883025
269,1778587700.9441032,0.56523657,1.1499978,1.2014939,0.44687843,1.2777847,1.1883025
270,1778587700.9645371,0.56523657,1.1499978,1.2014939,0.44687843,1.2777847,1.1883025
271,1778587700.9855833,0.56523657,1.1499978,1.2014939,0.44687843,1.2777847,1.1883025
272,1778587701.0067139,-4.3032174,4.31542,1.3774592,1.5078819,-3.5734296,5.1127367
273,1778587701.027512,-3.7553089,3.7238257,1.2285842,2.0628846,-3.5324168,5.960687
274,1778587701.0476198,-3.948358,2.1667402,0.16644704,2.2913837,-3.31244,6.663229
275,1778587701.069291,-2.8047059,0.9193637,-0.20329969,1.8785939,-2.9214878,6.873619
276,1778587701.0896351,-1.326207,-0.35583547,-0.28457075,1.3044163,-2.843191,5.4594803
277,1778587701.1104848,-1.326207,-0.35583547,-0.28457075,1.3044163,-2.843191,5.4594803
278,1778587701.1311927,-1.326207,-0.35583547,-0.28457075,1.3044163,-2.843191,5.4594803
279,1778587701.15216,-1.326207,-0.35583547,-0.28457075,1.3044163,-2.843191,5.4594803
280,1778587701.172869,-1.326207,-0.35583547,-0.28457075,1.3044163,-2.843191,5.4594803
281,1778587701.1939979,-1.326207,-0.35583547,-0.28457075,1.3044163,-2.843191,5.4594803
282,1778587701.2144423,0.34778157,-1.918534,-0.12178457,1.9441077,-0.80374205,0.23542345
283,1778587701.2355933,0.29701766,-1.6861916,-0.946454,1.5760587,-0.6892261,-2.2178805
284,1778587701.2560523,0.117147475,-1.5426859,-0.95646036,0.22956449,-0.3121225,-3.268764
285,1778587701.2769713,0.117147475,-1.5426859,-0.95646036,0.22956449,-0.3121225,-3.268764
286,1778587701.2977047,-1.0728757,-1.3774592,-0.3385074,-2.1438446,0.64075655,-4.3111253
287,1778587701.3185356,-1.0728757,-1.3774592,-0.3385074,-2.1438446,0.64075655,-4.3111253
288,1778587701.3392515,-1.0728757,-1.3774592,-0.3385074,-2.1438446,0.64075655,-4.3111253
289,1778587701.3605185,-1.0728757,-1.3774592,-0.3385074,-2.1438446,0.64075655,-4.3111253
290,1778587701.381244,-1.0728757,-1.3774592,-0.3385074,-2.1438446,0.64075655,-4.3111253
291,1778587701.4020631,-1.0728757,-1.3774592,-0.3385074,-2.1438446,0.64075655,-4.3111253
292,1778587701.4231026,-2.997511,2.2582617,1.9248794,-5.028048,-0.2444782,-3.6341498
293,1778587701.4437668,-2.997511,2.2582617,1.9248794,-5.028048,-0.2444782,-3.6341498
294,1778587701.4643528,-2.997511,2.2582617,1.9248794,-5.028048,-0.2444782,-3.6341498
295,1778587701.4854434,-0.6347929,1.7201155,-0.16742326,-1.7092168,1.32945,-1.3171995
296,1778587701.5061285,-0.54253924,1.5756336,-0.14960709,-1.7092168,1.32945,-1.3171995
297,1778587701.5271368,-0.54253924,1.5756336,-0.14960709,-1.7092168,1.32945,-1.3171995
298,1778587701.5481803,-0.54253924,1.5756336,-0.14960709,-1.7092168,1.32945,-1.3171995
299,1778587701.5687966,-0.54253924,1.5756336,-0.14960709,-1.7092168,1.32945,-1.3171995
300,1778587701.589474,-0.54253924,1.5756336,-0.14960709,-1.7092168,1.32945,-1.3171995
301,1778587701.6103268,-0.54253924,1.5756336,-0.14960709,-1.7092168,1.32945,-1.3171995
302,1778587701.6313589,-0.044662476,1.2507933,0.70166457,1.2074772,0.8404937,1.9707392
303,1778587701.65145,-0.9711038,1.6351836,1.0416363,1.7997643,0.006924219,2.8842034
304,1778587701.6728315,-1.0143019,1.7808857,0.8166155,1.7997643,0.006924219,2.8842034
305,1778587701.6942136,-0.99404514,2.6338658,0.04148973,2.02347,-0.47031426,4.9524145
306,1778587701.714588,-0.99404514,2.6338658,0.04148973,2.02347,-0.47031426,4.9524145
307,1778587701.7352314,-0.99404514,2.6338658,0.04148973,2.02347,-0.47031426,4.9524145
308,1778587701.7562747,-0.99404514,2.6338658,0.04148973,2.02347,-0.47031426,4.9524145
309,1778587701.776513,-0.99404514,2.6338658,0.04148973,2.02347,-0.47031426,4.9524145
310,1778587701.7979364,-0.99404514,2.6338658,0.04148973,2.02347,-0.47031426,4.9524145
311,1778587701.8184094,-1.3916144,0.21599068,-0.47884035,0.33182988,-2.3829966,5.3854446
312,1778587701.8393807,-0.4229512,-0.6325964,0.07224095,-1.5659387,-3.3587787,3.273025
313,1778587701.8603241,0.62478656,-1.0535952,0.15790504,0.09427591,-3.1185617,0.515588
314,1778587701.8811831,0.5869577,-1.11705,-0.09152147,0.8628642,-2.7712855,-0.89801794
315,1778587701.9015725,0.08956901,-1.0348027,-0.456143,1.0375676,-2.3228092,-1.8200043
316,1778587701.9223847,0.08956901,-1.0348027,-0.456143,1.0375676,-2.3228092,-1.8200043
317,1778587701.9432898,0.08956901,-1.0348027,-0.456143,1.0375676,-2.3228092,-1.8200043
318,1778587701.9640784,0.08956901,-1.0348027,-0.456143,1.0375676,-2.3228092,-1.8200043
319,1778587701.985044,0.08956901,-1.0348027,-0.456143,1.0375676,-2.3228092,-1.8200043
320,1778587702.005875,0.08956901,-1.0348027,-0.456143,1.0375676,-2.3228092,-1.8200043
321,1778587702.0265257,-0.33069757,-1.0177187,-0.1181237,1.1819109,-0.77604514,-1.6154735
322,1778587702.0474944,-0.99502134,-0.65846646,-1.1016744,-1.383246,1.0327739,-3.055711
323,1778587702.0683923,-1.2783719,-0.24967057,-0.34802565,-3.3795514,-0.58696073,-4.5066013
324,1778587702.0890002,-3.163958,0.7909895,0.04612682,-4.2338934,0.36591834,-5.8935757
325,1778587702.1100063,-4.2012014,1.9092598,0.9437694,-3.830691,3.8125815,-4.9177933
326,1778587702.1308892,-4.2012014,1.9092598,0.9437694,-3.830691,3.8125815,-4.9177933
327,1778587702.1521099,-4.2012014,1.9092598,0.9437694,-3.830691,3.8125815,-4.9177933
328,1778587702.1726122,-4.2012014,1.9092598,0.9437694,-3.830691,3.8125815,-4.9177933
329,1778587702.1933906,-4.2012014,1.9092598,0.9437694,-3.830691,3.8125815,-4.9177933
330,1778587702.2140584,-4.2012014,1.9092598,0.9437694,-3.830691,3.8125815,-4.9177933
331,1778587702.2351742,-0.061502427,1.0821499,-0.09518232,-1.3598101,3.367301,-0.9416938
332,1778587702.255986,-0.2889638,0.6643238,0.3699908,-2.1299963,3.2937977,-0.88203895
333,1778587702.2782056,0.18450728,0.614048,0.9606094,-2.593919,2.6988475,-0.53316486
334,1778587702.2975593,0.2306341,0.647972,1.142676,-2.1321268,2.1049626,-0.59228706
335,1778587702.317918,0.5762192,0.7397375,0.8859278,-0.95447695,1.4674017,-0.22849922
336,1778587702.3390865,0.5762192,0.7397375,0.8859278,-0.95447695,1.4674017,-0.22849922
337,1778587702.3600647,0.5762192,0.7397375,0.8859278,-0.95447695,1.4674017,-0.22849922
338,1778587702.380797,0.5762192,0.7397375,0.8859278,-0.95447695,1.4674017,-0.22849922
339,1778587702.4017324,0.5762192,0.7397375,0.8859278,-0.95447695,1.4674017,-0.22849922
340,1778587702.4219341,0.5762192,0.7397375,0.8859278,-0.95447695,1.4674017,-0.22849922
341,1778587702.4431689,-1.4223657,2.9391813,0.6770148,0.06924219,-2.7675571,1.965413
342,1778587702.4641013,-3.64109,4.131401,2.3634505,2.4671526,-2.1821942,3.5633097
343,1778587702.4848738,-4.4794264,3.7309031,1.3235224,2.4671526,-2.1821942,3.5633097
344,1778587702.505238,-2.6995173,1.9661252,-0.79513854,3.0546458,-1.423726,6.1535
345,1778587702.5267596,-2.3776057,1.4980234,-1.0003906,3.0546458,-1.423726,6.1535
346,1778587702.547046,-2.3776057,1.4980234,-1.0003906,3.0546458,-1.423726,6.1535
347,1778587702.5679784,-2.3776057,1.4980234,-1.0003906,3.0546458,-1.423726,6.1535
348,1778587702.5890055,-2.3776057,1.4980234,-1.0003906,3.0546458,-1.423726,6.1535
349,1778587702.6097953,-2.3776057,1.4980234,-1.0003906,3.0546458,-1.423726,6.1535
350,1778587702.6304202,-2.3776057,1.4980234,-1.0003906,3.0546458,-1.423726,6.1535
351,1778587702.651228,-2.3776057,1.4980234,-1.0003906,3.0546458,-1.423726,6.1535
352,1778587702.6719577,-0.44149956,-1.0504224,-0.15375607,2.299906,-1.1568772,-1.6341157
353,1778587702.6930535,-0.46273252,-1.0313859,-0.18206671,1.9989687,-1.2607405,-1.3933659
354,1778587702.7133245,-0.34216827,-0.9589009,-0.45223808,1.5494272,-1.2170646,-1.0034791
355,1778587702.735206,-0.18572757,-0.95694846,-0.4927516,0.90920323,-0.7387609,-0.6716492
356,1778587702.755445,-0.18572757,-0.95694846,-0.4927516,0.90920323,-0.7387609,-0.6716492
357,1778587702.7766593,-0.18572757,-0.95694846,-0.4927516,0.90920323,-0.7387609,-0.6716492
358,1778587702.7968345,-0.18572757,-0.95694846,-0.4927516,0.90920323,-0.7387609,-0.6716492
359,1778587702.8178315,-0.18572757,-0.95694846,-0.4927516,0.90920323,-0.7387609,-0.6716492
360,1778587702.8383424,-0.18572757,-0.95694846,-0.4927516,0.90920323,-0.7387609,-0.6716492
361,1778587702.8597395,-3.0277743,1.3730661,-0.032215554,-2.8346686,3.5473306,-4.303136
362,1778587702.8800476,-3.6169286,2.2467911,1.2793481,-3.814712,1.8642128,-4.213121
363,1778587702.901017,-3.2996538,2.4098213,1.4133356,-2.9939258,1.2032162,-3.3071134
364,1778587702.9217534,-0.72655845,1.658613,-0.02757847,-0.2711098,2.4037693,-1.226652
365,1778587702.942914,-0.72655845,1.658613,-0.02757847,-0.2711098,2.4037693,-1.226652
366,1778587702.963316,-0.72655845,1.658613,-0.02757847,-0.2711098,2.4037693,-1.226652
367,1778587702.9845479,-0.72655845,1.658613,-0.02757847,-0.2711098,2.4037693,-1.226652
368,1778587703.004757,-0.72655845,1.658613,-0.02757847,-0.2711098,2.4037693,-1.226652
369,1778587703.0262804,-0.72655845,1.658613,-0.02757847,-0.2711098,2.4037693,-1.226652
370,1778587703.0466878,-0.72655845,1.658613,-0.02757847,-0.2711098,2.4037693,-1.226652
371,1778587703.0681038,-0.72655845,1.658613,-0.02757847,-0.2711098,2.4037693,-1.226652
372,1778587703.089024,0.5684093,1.120955,1.0682385,-1.5094798,0.1736381,0.6918893
373,1778587703.109515,0.5684093,1.120955,1.0682385,-1.5094798,0.1736381,0.6918893
374,1778587703.1298714,-0.0021965152,1.1858741,0.60989904,1.0743192,-0.2796319,2.0953753
375,1778587703.1510248,-0.0021965152,1.1858741,0.60989904,1.0743192,-0.2796319,2.0953753
376,1778587703.1716094,-0.0021965152,1.1858741,0.60989904,1.0743192,-0.2796319,2.0953753
377,1778587703.1928089,-0.0021965152,1.1858741,0.60989904,1.0743192,-0.2796319,2.0953753
378,1778587703.2130492,-0.0021965152,1.1858741,0.60989904,1.0743192,-0.2796319,2.0953753
379,1778587703.2339947,-0.0021965152,1.1858741,0.60989904,1.0743192,-0.2796319,2.0953753
380,1778587703.254842,-0.0021965152,1.1858741,0.60989904,1.0743192,-0.2796319,2.0953753
381,1778587703.2759893,-0.0021965152,1.1858741,0.60989904,1.0743192,-0.2796319,2.0953753
382,1778587703.2966855,-3.801924,4.110412,1.4074782,1.8130801,-2.8000476,2.469283
383,1778587703.3181283,-0.6208816,-0.75194037,-0.13862452,2.2439797,-2.4021714,4.401673
384,1778587703.3373847,-0.42270714,-0.99136055,-0.3414361,1.7720674,-2.4783378,2.9875343
385,1778587703.359585,-0.0036608586,-1.3508569,-0.22111587,0.68656296,-2.7755466,1.8599517
386,1778587703.3799362,-0.0036608586,-1.3508569,-0.22111587,0.68656296,-2.7755466,1.8599517
387,1778587703.400972,0.302631,-1.7169427,0.17303659,0.26684874,-2.3600934,-0.49161956
388,1778587703.4213848,0.183287,-1.74745,-0.08615221,1.5904398,-2.2594259,-2.5800705
389,1778587703.4426134,-0.08542004,-1.4631232,-0.80465674,1.3177321,-1.7044232,-2.6280074
390,1778587703.4624743,0.026358182,-1.3410946,-0.9623177,1.3177321,-1.7044232,-2.6280074
391,1778587703.4837022,0.03172744,-1.1968567,-1.1263242,-0.9006811,0.72491246,-3.2879388
392,1778587703.5045462,-0.5981843,-1.2317569,-0.81930023,-2.4501083,0.83889574,-4.03895
393,1778587703.525791,-1.55196,-0.6382097,0.08151512,-2.672216,0.29134983,-4.1662493
394,1778587703.5464737,-2.2977989,0.28701133,-0.18109047,-1.6484967,1.2495552,-4.011786
395,1778587703.5674767,-3.1014795,1.2522577,-0.19426957,-0.77391464,4.169445,-4.1140513
396,1778587703.5884607,-3.9363992,1.9197543,-0.63235235,-1.4221281,4.393151,-4.150803
397,1778587703.6088347,-3.567385,2.101089,-0.042465962,-4.02883,2.1907163,-3.812049
398,1778587703.6299617,-1.9907749,1.7818619,1.274467,-4.215784,1.4737934,-2.8261466
399,1778587703.6512947,-1.2014939,1.5365844,0.9803779,-2.0399814,2.4900556,-2.0852551
400,1778587703.671372,-0.7404697,1.3628157,0.54961693,-0.42290998,3.2330775,-1.9244002
401,1778587703.692992,-0.83882475,1.2559186,0.1581491,-0.128897,3.1052458,-1.9004318
402,1778587703.7126734,-0.6240544,1.2708061,0.29384494,-0.5906891,2.6929886,-1.3459617
403,1778587703.7340183,-0.5352176,1.3210819,0.3802412,-1.0130665,2.279666,-0.9912286
404,1778587703.7544928,-0.29116032,1.2515256,0.2997023,-1.4045511,1.4519554,-0.69348717
405,1778587703.7754624,-0.1696198,1.2183337,0.3082443,-1.9387813,0.5432849,-0.31851408
406,1778587703.7961953,0.35363895,1.0594525,0.36901456,-2.2743397,-0.19867182,0.13209279
407,1778587703.8170645,0.50788313,1.0028312,0.41148052,-2.2690134,-0.59761333,0.70627034
408,1778587703.8379688,0.58134437,0.8251576,0.45248213,-1.7848506,-0.6924219,1.0546118
409,1778587703.8590279,-0.19280522,1.078489,0.44271985,-0.21678132,-0.8591358,1.9499665
410,1778587703.8797154,-0.21379416,1.2649487,0.22453266,-0.07137272,-1.7278589,2.6871295
411,1778587703.90067,-0.11006982,1.6625179,0.23405088,-0.6263755,-2.1363878,2.8447888
412,1778587703.9211211,-0.55742675,2.4901161,1.1507299,-0.6263755,-2.1363878,2.8447888
413,1778587703.9421325,-2.6572952,3.6381614,2.4200716,-0.5438175,-1.8375812,1.6761936
414,1778587703.9629028,-5.6099,3.7631185,2.2892568,2.799515,-3.4008567,4.4123254
415,1778587703.9837363,-5.162299,3.068776,1.9336655,2.799515,-3.4008567,4.4123254
416,1778587704.0044973,-2.0434911,0.6919023,-0.84199744,2.9209552,-2.1097562,6.2094264
417,1778587704.0255659,-1.5919853,0.43051702,-0.8070973,2.9209552,-2.1097562,6.2094264
418,1778587704.0459118,-0.6487042,-0.5886661,-0.15326795,-0.4990764,-2.6887274,3.8621163
419,1778587704.0670218,-0.21916342,-1.1002101,0.008542004,-0.4032026,-3.0812774,2.8021781
420,1778587704.0880296,-0.09127741,-1.2210184,-0.11202228,-0.4032026,-3.0812774,2.8021781
421,1778587704.1093311,0.65944266,-1.6049205,-0.12056428,0.5278385,-3.0402648,0.7850999
422,1778587704.129548,0.65944266,-1.6049205,-0.12056428,0.5278385,-3.0402648,0.7850999
423,1778587704.1503701,-0.27895743,-1.4955828,-0.45467865,1.8748654,-1.1883025,-1.9989687
424,1778587704.171257,-0.4724948,-1.3162007,-0.7070338,1.5899072,-1.0801781,-2.2759376
425,1778587704.1917973,-0.4724948,-1.3162007,-0.7070338,1.5899072,-1.0801781,-2.2759376
426,1778587704.2129745,-0.2169669,-1.0887394,-0.8049008,-0.21252026,-0.015978966,-1.9824572
427,1778587704.233743,-0.3738957,-1.048958,-0.6347929,-1.0892329,1.1419635,-2.4623587
428,1778587704.2541304,-0.94669807,-0.86298645,-0.1803583,-1.897236,1.1052119,-3.1015174
429,1778587704.2751534,-1.163909,-0.20329969,0.027090356,-2.000034,-0.1917476,-3.4056504
430,1778587704.2954104,-1.163909,-0.20329969,0.027090356,-2.000034,-0.1917476,-3.4056504
431,1778587704.3165073,-4.123591,2.403964,-0.41416514,-0.396811,3.5574505,-5.10528
432,1778587704.3375025,-4.4916296,2.847416,-0.22453266,-0.396811,3.5574505,-5.10528
433,1778587704.3590326,-2.4957294,2.3900526,1.4162643,-4.0501356,1.1195929,-3.1185617
434,1778587704.3794568,-1.9053549,2.1494124,1.4348125,-3.6932719,-0.020772656,-1.8104169
435,1778587704.4005847,-0.9437694,1.6957097,0.8788501,-1.200553,1.3970944,-1.0359697
436,1778587704.4206655,-0.093473926,1.0645777,-0.40611124,-0.4889564,2.8810077,-1.4748586
437,1778587704.4420512,-0.093473926,1.0645777,-0.40611124,-0.4889564,2.8810077,-1.4748586
438,1778587704.4626603,-0.2723679,0.775858,0.4412555,-2.2130868,2.7979171,-1.3608754
439,1778587704.483447,-0.15473229,0.7975791,0.75340474,-1.7555559,2.5587652,-0.7451525
440,1778587704.504051,0.464685,0.8820229,0.77317333,-0.829841,2.0575583,-0.19068234
441,1778587704.5248363,0.6799435,0.9359596,0.5337532,-0.30519825,1.2926984,0.047404267
442,1778587704.5455492,0.4842096,1.0504224,0.234539,-0.37337518,0.56245965,0.3536678
443,1778587704.5665858,0.29701766,1.0723876,0.30507156,-0.60240704,0.08681905,1.0258497
444,1778587704.5875187,-0.06272271,1.1831895,0.84199744,-0.18588865,-0.1949434,1.6905746
445,1778587704.6085515,-0.5618198,1.5893008,0.8339436,0.9720538,-0.9353022,2.3164175
446,1778587704.6287246,-0.9103335,2.0727782,0.25552794,1.7204021,-1.5707325,2.8884647
447,1778587704.649846,-1.4472594,3.1773813,0.40196228,0.96566224,-1.454086,3.419499
448,1778587704.6705716,-3.8380442,3.891249,0.835408,0.4878911,-1.6884441,2.9928606
449,1778587704.691792,-3.9537275,3.7167478,0.7470592,0.8878979,-2.2588933,4.244014
450,1778587704.7121382,-3.2130136,2.1994438,-0.05662128,1.4460965,-2.301504,5.30768
451,1778587704.7340233,-2.4227564,1.1944162,-0.5771954,1.474326,-1.9781961,5.7492323
452,1778587704.754182,-2.4227564,1.1944162,-0.5771954,1.474326,-1.9781961,5.7492323
453,1778587704.774947,-0.5930591,-0.43051702,-0.061258372,-0.5336975,-1.9068234,4.628574
454,1778587704.7957673,-0.29994637,-0.673598,0.063943,-0.8362326,-2.396845,3.610714
455,1778587704.8165023,-0.29994637,-0.673598,0.063943,-0.8362326,-2.396845,3.610714
456,1778587704.837135,0.33362624,-1.219066,0.30970863,-0.58749336,-2.7217507,1.6703347
457,1778587704.8584309,0.40513504,-1.5378047,0.23112221,0.42557314,-3.536678,-1.3960291
458,1778587704.878783,0.19793043,-1.637136,0.1164153,0.42557314,-3.536678,-1.3960291
459,1778587704.8998072,-0.37804466,-1.6471423,-0.03904916,0.932639,-3.6229644,-2.7324033
460,1778587704.9205089,-0.37804466,-1.6471423,-0.03904916,1.510545,-2.4847293,-2.479403
461,1778587704.9415345,-0.054668825,-1.3894179,-0.74364245,2.1225395,-0.51665324,-1.310808
462,1778587704.9620528,-0.054668825,-1.3894179,-0.74364245,2.1225395,-0.51665324,-1.310808
463,1778587704.983188,-1.3501247,-1.0025872,-0.5422952,-2.1060278,-0.08149273,-4.3239083
464,1778587705.0037134,-1.5212089,-0.59135073,-0.32288775,-2.1060278,-0.08149273,-4.3239083
465,1778587705.0248992,-2.6468008,1.125592,-0.4698102,-2.0506341,2.0069582,-4.8538775
466,1778587705.0449786,-4.151414,2.0742426,-0.12886222,-2.0506341,2.0069582,-4.8538775
467,1778587705.066777,-4.2780795,2.7256315,1.2837411,-4.6413574,1.1675298,-4.2413507
468,1778587705.0870047,-3.103676,2.5640655,1.7982138,-4.055462,0.06977482,-2.5624936
469,1778587705.1081147,-2.4181192,2.378094,1.7974815,-4.055462,0.06977482,-2.5624936
470,1778587705.1285224,-0.77561396,1.7210917,0.3619369,-0.33129725,2.3046997,-1.603223
471,1778587705.1499214,-0.5850052,1.6085813,0.058817793,-0.33129725,2.3046997,-1.603223
472,1778587705.1701326,-0.38390204,1.1880707,-0.2277054,-1.6666062,2.7782097,-1.778459
473,1778587705.1912985,-0.35095432,0.8520039,0.26870704,-2.3425164,2.7217507,-1.5536882
474,1778587705.2120657,-0.25479576,0.8336995,0.40440285,-2.3936493,2.5582325,-1.0807108
475,1778587705.233429,-0.25479576,0.8336995,0.40440285,-2.3936493,2.5582325,-1.0807108
476,1778587705.2533784,0.6228341,1.2978964,0.5994046,-1.1712582,1.6468989,-0.11984225
477,1778587705.274733,0.737541,1.3735542,0.5232587,-0.63223445,0.76592517,0.36911413
478,1778587705.295299,0.35656762,1.4865527,0.57451075,0.09960223,0.55127436,0.86659265
479,1778587705.316266,0.044418417,1.5731931,0.4807928,0.89322424,0.18535602,1.6564863
480,1778587705.3369544,-0.26065314,1.6752089,0.24405725,1.1201255,-0.7137272,2.4719462
