id,timestamp,acc_x,acc_y,acc_z,gyro_x,gyro_y,gyro_z
1,1778619157.692016,4.1073737,0.2084268,2.2300081,3.0755515,4.116465,-6.478221
2,1778619157.7420175,4.1073737,0.2084268,2.2300081,3.2734716,4.3235483,-6.7060738
3,1778619157.79202,4.1073737,0.2084268,2.2300081,3.2734716,4.3235483,-6.7060738
4,1778619157.842022,3.5753915,0.005732042,2.2526925,3.2734716,4.3235483,-6.7060738
5,1778619157.8920238,3.0458484,-0.22915971,2.1968355,3.2734716,4.3235483,-6.7060738
6,1778619157.9420254,3.0458484,-0.22915971,2.1968355,3.647321,4.4157887,-6.6162763
7,1778619157.9920292,3.0458484,-0.22915971,2.1968355,3.647321,4.4157887,-6.6162763
8,1778619158.0420315,3.0458484,-0.22915971,2.1968355,4.3131633,4.256353,-6.40003
9,1778619158.0920334,3.0458484,-0.22915971,2.1968355,4.3131633,4.256353,-6.40003
10,1778619158.1420348,2.2699494,-0.6150359,2.1461008,5.382177,4.0065093,-6.075661
11,1778619158.1920362,2.2699494,-0.6150359,2.1461008,5.382177,4.0065093,-6.075661
12,1778619158.242037,2.1089644,-0.85041547,1.5933857,9.577596,2.4017675,-5.9198904
13,1778619158.292038,1.8165084,-1.0240841,1.1082355,11.147519,0.33093598,-6.397587
14,1778619158.342039,1.6850373,-0.95212877,0.7850458,11.147519,0.33093598,-6.397587
15,1778619158.3920403,1.6850373,-0.95212877,0.7850458,11.147519,0.33093598,-6.397587
16,1778619158.4420412,1.5762506,-0.20671937,0.71260256,2.6717699,-2.221257,-6.436682
17,1778619158.4920423,0.9701176,-0.4089263,0.39233997,3.4848309,-4.0947795,-3.8392851
18,1778619158.5421329,-1.1751295,-1.9070625,0.6260121,-1.8626795,-2.4497204,0.78984815
19,1778619158.592134,-1.1751295,-1.9070625,0.6260121,-1.8626795,-2.4497204,0.78984815
20,1778619158.6421351,-1.4063625,-1.9890184,1.2075095,-1.8162537,-2.0795364,1.2308925
21,1778619158.6921363,-1.4063625,-1.9890184,1.2075095,-1.8162537,-2.0795364,1.2308925
22,1778619158.7421374,-1.5183203,-2.0936587,1.498502,-1.8162537,-2.0795364,1.2308925
23,1778619158.7921386,-2.0471318,-1.9477966,0.9465186,-0.3575086,0.12140937,1.9022329
24,1778619158.8421397,-2.0471318,-1.9477966,0.9465186,-0.20601414,0.8532254,2.235765
25,1778619158.8921409,-2.0471318,-1.9477966,0.9465186,-0.20601414,0.8532254,2.235765
26,1778619158.9421422,-2.0203006,-1.7380283,0.65211123,-0.7197514,1.15316,2.0616686
27,1778619158.992143,-2.0203006,-1.7380283,0.65211123,-0.7197514,1.15316,2.0616686
28,1778619159.0421438,-2.0203006,-1.7380283,0.65211123,-0.7197514,1.15316,2.0616686
29,1778619159.092145,-2.0203006,-1.7380283,0.65211123,-0.7197514,1.15316,2.0616686
30,1778619159.1421456,-2.0203006,-1.7380283,0.65211123,-1.9420918,1.3828452,1.1539235
31,1778619159.1921468,-2.1756756,-1.5321625,0.73431116,-1.9420918,1.3828452,1.1539235
32,1778619159.2421494,-2.1756756,-1.5321625,0.73431116,-1.9420918,1.3828452,1.1539235
33,1778619159.2921517,3.541975,-1.8582791,0.3579477,-3.576766,0.87643826,11.501973
34,1778619159.3421535,3.9710243,-1.5997274,0.49576062,-3.576766,0.87643826,11.501973
35,1778619159.392155,3.9710243,-1.5997274,0.49576062,-3.576766,0.87643826,11.501973
36,1778619159.4421558,3.9710243,-1.5997274,0.49576062,-3.576766,0.87643826,11.501973
37,1778619159.4921577,3.9710243,-1.5997274,0.49576062,-3.576766,0.87643826,11.501973
38,1778619159.5421588,4.340314,-1.469476,0.60674274,-3.739867,0.8196278,11.142784
39,1778619159.592162,4.347388,-0.9592023,0.7540684,-3.8815875,0.97234404,10.624771
40,1778619159.6421638,3.986879,-0.872368,0.6721124,-4.091114,1.3278673,9.295529
41,1778619159.6921651,3.2770815,-1.0660378,0.5916199,-4.49795,0.5710059,7.332821
42,1778619159.742166,3.2770815,-1.0660378,0.5916199,-4.49795,0.5710059,7.332821
43,1778619159.7921674,2.728269,-1.3719094,0.6018644,-4.6152363,0.30589053,7.404292
44,1778619159.8421688,2.728269,-1.3719094,0.6018644,-4.7050333,-0.09422589,7.60771
45,1778619159.8921697,2.6214335,-1.510454,0.55600804,-4.7050333,-0.09422589,7.60771
46,1778619159.9421704,2.6214335,-1.510454,0.55600804,-4.7050333,-0.09422589,7.60771
47,1778619159.9921715,2.6214335,-1.510454,0.55600804,-4.7050333,-0.09422589,7.60771
48,1778619160.042173,2.6624115,-1.5733844,0.56234986,-4.7050333,-0.09422589,7.60771
49,1778619160.0921738,2.8048587,-1.6426568,0.6121089,-4.6274533,-0.98608845,7.783639
50,1778619160.1421747,2.8048587,-1.6426568,0.6121089,-4.6274533,-0.98608845,7.783639
51,1778619160.1921756,2.9029133,-1.741443,0.70260197,-4.13754,-1.2334887,7.5282974
52,1778619160.2421768,2.9668195,-1.642413,0.66186786,-4.100277,-1.2194388,7.463546
53,1778619160.2921882,2.9668195,-1.642413,0.66186786,-4.100277,-1.2194388,7.463546
54,1778619160.342193,2.9668195,-1.642413,0.66186786,-4.100277,-1.2194388,7.463546
55,1778619160.3921938,2.9668195,-1.642413,0.66186786,-4.100277,-1.2194388,7.463546
56,1778619160.4421947,3.0802407,-1.3982524,0.78650934,-4.633562,-0.70936674,6.653539
57,1778619160.4921956,3.132195,-1.1609215,0.86529446,-5.3189526,0.20204352,5.8704104
58,1778619160.542197,3.132195,-1.1609215,0.86529446,-5.3189526,0.20204352,5.8704104
59,1778619160.592198,3.132195,-1.1609215,0.86529446,-5.3189526,0.20204352,5.8704104
60,1778619160.6421988,2.9404764,-1.0660378,0.80163217,-5.8113093,-0.0716239,5.0402455
61,1778619160.6922,3.1243896,-0.36526522,1.7904702,-5.7288427,-0.38499752,5.060404
62,1778619160.7422013,3.1243896,-0.36526522,1.7904702,-5.234653,-0.030695954,5.550928
63,1778619160.7922025,3.1243896,-0.36526522,1.7904702,-4.874243,0.55695593,5.596743
64,1778619160.8422034,3.5541708,0.2652594,1.8775486,-4.874243,0.55695593,5.596743
65,1778619160.8922067,4.513495,1.8538888,1.2911729,-5.2144947,-0.1424842,0.15638138
66,1778619160.9422195,4.513495,1.8538888,1.2911729,-5.2144947,-0.1424842,0.15638138
67,1778619160.9922204,6.971443,3.270557,4.7906456,-2.2835653,-2.5627306,2.5992296
68,1778619161.0422213,3.401723,0.004756375,2.3178182,4.2270317,2.7407975,-4.7720757
69,1778619161.0922227,3.401723,0.004756375,2.3178182,4.2270317,2.7407975,-4.7720757
70,1778619161.142224,3.3209867,0.06305246,2.3522105,4.6240935,2.9576545,-4.9131856
71,1778619161.192225,3.310498,0.13549572,2.1887863,4.6240935,2.9576545,-4.9131856
72,1778619161.2422264,3.196833,0.26306412,1.6575357,4.6240935,2.9576545,-4.9131856
73,1778619161.2922275,3.196833,0.26306412,1.6575357,5.0303187,4.3980737,-5.24122
74,1778619161.3422284,3.196833,0.26306412,1.6575357,5.0303187,4.3980737,-5.24122
75,1778619161.392229,3.196833,0.26306412,1.6575357,4.8201814,4.451219,-5.790998
76,1778619161.4422297,2.9373055,0.24111164,1.3511764,4.8201814,4.451219,-5.790998
77,1778619161.4922328,2.9373055,0.24111164,1.3511764,4.8201814,4.451219,-5.790998
78,1778619161.5422442,2.9373055,0.24111164,1.3511764,4.6259265,4.211149,-6.3694873
79,1778619161.5922542,2.7677834,-0.9609098,0.8974914,7.026014,2.6644394,-7.5594516
80,1778619161.642259,2.7677834,-0.9609098,0.8974914,7.026014,2.6644394,-7.5594516
81,1778619161.6922603,2.7677834,-0.9609098,0.8974914,7.026014,2.6644394,-7.5594516
82,1778619161.7422614,2.7299764,-0.90578455,0.6826008,6.456077,2.3083053,-7.5728908
83,1778619161.7922635,2.7299764,-0.90578455,0.6826008,6.456077,2.3083053,-7.5728908
84,1778619161.8422654,2.5921636,-0.69943106,0.42112213,5.784126,1.8660392,-7.6584115
85,1778619161.8922668,2.5921636,-0.69943106,0.42112213,5.784126,1.8660392,-7.6584115
86,1778619161.9422681,2.5414288,-0.6660145,0.47161287,5.043758,1.4023929,-7.8086843
87,1778619161.9922695,2.5414288,-0.6660145,0.47161287,4.6179852,1.0920736,-7.8575535
88,1778619162.0422707,2.5414288,-0.6660145,0.47161287,4.6179852,1.0920736,-7.8575535
89,1778619162.0922718,2.3262942,-0.6977236,0.55552024,4.3724174,0.85505795,-7.820291
90,1778619162.142273,2.3262942,-0.6977236,0.55552024,4.3724174,0.85505795,-7.820291
91,1778619162.1922739,2.2250688,-0.67016107,0.5960104,4.3724174,0.85505795,-7.820291
92,1778619162.242275,2.1472595,-0.6135724,0.5630816,3.6436558,0.5056433,-7.3511467
93,1778619162.292278,2.1472595,-0.6135724,0.5630816,3.6436558,0.5056433,-7.3511467
94,1778619162.3422801,1.7296741,-0.37941238,0.11744587,4.703506,-2.4643812,-4.715876
95,1778619162.392281,1.7296741,-0.37941238,0.11744587,4.703506,-2.4643812,-4.715876
96,1778619162.442282,1.7296741,-0.37941238,0.11744587,4.758484,-2.9072583,-4.646848
97,1778619162.4922829,1.7296741,-0.37941238,0.11744587,4.636922,-3.5095708,-4.7604694
98,1778619162.542284,1.5123444,-0.41941473,-0.035489876,4.636922,-3.5095708,-4.7604694
99,1778619162.592286,0.110311314,-2.8022366,-0.22379355,0.1867719,3.1348054,7.3615313
100,1778619162.642288,0.110311314,-2.8022366,-0.22379355,0.1867719,3.1348054,7.3615313
101,1778619162.692289,1.2113512,-2.2612295,-0.30550563,-0.16875139,3.0938773,8.721928
102,1778619162.7422905,1.2113512,-2.2612295,-0.30550563,-0.46746427,3.1561856,9.238108
103,1778619162.7922974,3.0482876,-1.7531509,-0.39770615,-1.5034909,2.1305437,10.561852
104,1778619162.842301,3.6578352,-0.9352985,0.3711192,-5.40203,0.6070469,8.731091
105,1778619162.8923018,3.2197611,-1.0850632,0.36331388,-5.794816,0.23075417,8.221018
106,1778619162.942303,2.8792531,-1.2228762,0.28038222,-5.794816,0.23075417,8.221018
107,1778619162.992304,2.8792531,-1.2228762,0.28038222,-5.794816,0.23075417,8.221018
108,1778619163.0423648,2.8792531,-1.2228762,0.28038222,-5.7062407,-0.2988656,8.151991
109,1778619163.092375,2.8431537,-1.2619029,0.5830828,-5.3226175,-1.2267692,8.210023
110,1778619163.1423793,2.7550998,-1.3594695,0.56795996,-4.0947795,-1.7227914,7.147729
111,1778619163.192381,2.7550998,-1.3594695,0.56795996,-4.0947795,-1.7227914,7.147729
112,1778619163.242382,4.20616,1.2075095,1.7814455,-3.9677196,0.52580184,1.5974114
113,1778619163.2923832,5.6916122,2.4390447,2.4602656,-3.347081,-1.2927426,1.7635666
114,1778619163.3423843,5.6916122,2.4390447,2.4602656,-3.347081,-1.2927426,1.7635666
115,1778619163.3923852,7.3668327,3.4237366,3.9571822,-2.5975497,0.72677636,-2.290132
116,1778619163.4423864,7.3668327,3.4237366,3.9571822,-2.5975497,0.72677636,-2.290132
117,1778619163.4923873,5.3730574,1.9497479,3.6325293,-2.2744024,3.2465935,-5.0158105
118,1778619163.5424476,5.3730574,1.9497479,3.6325293,-2.2744024,3.2465935,-5.0158105
119,1778619163.5924485,4.3829994,1.1489694,3.4193459,-2.2744024,3.2465935,-5.0158105
120,1778619163.6424494,4.3829994,1.1489694,3.4193459,-1.3458878,3.514763,-5.4183707
121,1778619163.6924503,3.324645,-0.32526287,0.25721014,5.2148,2.8898485,-7.96812
122,1778619163.7424512,3.4168456,-0.3181893,0.11744587,4.7554297,2.1946845,-8.310815
123,1778619163.7924936,3.4224555,-0.3420931,0.12695862,4.7554297,2.1946845,-8.310815
124,1778619163.8424947,3.4224555,-0.3420931,0.12695862,4.7554297,2.1946845,-8.310815
125,1778619163.8924956,3.4224555,-0.3420931,0.12695862,4.7554297,2.1946845,-8.310815
126,1778619163.9424965,3.4224555,-0.3420931,0.12695862,4.4170103,1.8690935,-8.486744
127,1778619163.9924974,3.4224555,-0.3420931,0.12695862,4.4170103,1.8690935,-8.486744
128,1778619164.0425568,2.8380313,-0.3164819,0.03305071,4.012007,-4.0868382,-8.393282
129,1778619164.0925598,2.8380313,-0.3164819,0.03305071,4.012007,-4.0868382,-8.393282
130,1778619164.1425683,2.8380313,-0.3164819,0.03305071,4.012007,-4.0868382,-8.393282
131,1778619164.19257,2.8380313,-0.3164819,0.03305071,4.012007,-4.0868382,-8.393282
132,1778619164.2425723,2.5980175,-0.50356597,0.07841921,3.4274096,-4.0495753,-7.7304935
133,1778619164.292574,2.5980175,-0.50356597,0.07841921,2.9796457,-3.7991207,-7.0225015
134,1778619164.3425753,2.3082445,-0.77724046,0.109884456,2.9796457,-3.7991207,-7.0225015
135,1778619164.3925765,2.3082445,-0.77724046,0.109884456,2.9796457,-3.7991207,-7.0225015
136,1778619164.4425774,1.8784631,-1.0089613,-0.013781292,2.5202754,-3.5150688,-6.215549
137,1778619164.4925785,1.8784631,-1.0089613,-0.013781292,2.5202754,-3.5150688,-6.215549
138,1778619164.5426157,1.8784631,-1.0089613,-0.013781292,1.9246823,-3.4350455,-5.280926
139,1778619164.5926168,1.4440477,-1.258976,-0.09500554,1.9246823,-3.4350455,-5.280926
140,1778619164.642618,1.1635435,-1.4141068,-0.09183463,1.9246823,-3.4350455,-5.280926
141,1778619164.6926193,1.1635435,-1.4141068,-0.09183463,1.3956733,-3.4582582,-4.4788604
142,1778619164.742628,1.1635435,-1.4141068,-0.09183463,0.18066326,-3.3696828,-3.202764
143,1778619164.7926319,1.1635435,-1.4141068,-0.09183463,0.18066326,-3.3696828,-3.202764
144,1778619164.8426328,0.8044982,-1.5738723,0.12110463,0.18066326,-3.3696828,-3.202764
145,1778619164.8926342,0.8044982,-1.5738723,0.12110463,0.18066326,-3.3696828,-3.202764
146,1778619164.9426348,0.8044982,-1.5738723,0.12110463,-0.6378955,-2.931082,-2.9071054
147,1778619164.992636,0.5013097,-1.7085143,0.41112155,-0.6378955,-2.931082,-2.9071054
148,1778619165.042637,0.5013097,-1.7085143,0.41112155,-0.6378955,-2.931082,-2.9071054
149,1778619165.09264,-1.2512316,-2.8473613,0.9257858,1.1311688,-1.8180863,-0.98532486
150,1778619165.142642,-1.2512316,-2.8473613,0.9257858,1.1311688,-1.8180863,-0.98532486
151,1778619165.192647,-1.2512316,-2.8473613,0.9257858,2.141539,-2.1510077,0.3017672
152,1778619165.2426498,-1.2512316,-2.8473613,0.9257858,2.141539,-2.1510077,0.3017672
153,1778619165.2927337,-1.0365849,-2.9781005,0.611865,2.141539,-2.1510077,0.3017672
154,1778619165.3427348,-2.8059564,-5.065783,1.3160524,-9.446566,5.387675,-3.2284203
155,1778619165.392736,-2.8059564,-5.065783,1.3160524,-9.446566,5.387675,-3.2284203
156,1778619165.4427722,-2.8059564,-5.065783,1.3160524,-9.446566,5.387675,-3.2284203
157,1778619165.492773,-2.8059564,-5.065783,1.3160524,-9.446566,5.387675,-3.2284203
158,1778619165.5428073,1.1581774,-3.468373,-1.1811665,3.3626578,4.57889,3.0127852
159,1778619165.592808,1.1581774,-3.468373,-1.1811665,3.4451246,3.4017532,3.7580402
160,1778619165.6428092,1.1581774,-3.468373,-1.1811665,3.4451246,3.4017532,3.7580402
161,1778619165.69281,1.6299121,-2.3687968,-1.5436267,2.3290746,1.4500402,7.72805
162,1778619165.7428114,3.8063805,-1.5614326,0.8043152,0.37003133,-3.1412194,10.139745
163,1778619165.7928123,4.411782,-0.9372498,0.6891866,-0.14920372,-2.2915065,10.51848
164,1778619165.8428137,4.411782,-0.9372498,0.6891866,-0.14920372,-2.2915065,10.51848
165,1778619165.8928149,4.7135067,-0.409658,0.73723817,-1.0844377,-1.2438734,9.690148
166,1778619165.9428174,2.979747,1.5963126,1.1145772,-3.9084656,1.3242022,4.135555
167,1778619165.9928205,2.979747,1.5963126,1.1145772,-4.046521,1.2148573,3.3371544
168,1778619166.0428224,2.933403,1.5155762,1.1740929,-4.046521,1.2148573,3.3371544
169,1778619166.092825,2.933403,1.5155762,1.1740929,-4.046521,1.2148573,3.3371544
170,1778619166.1428268,2.933403,1.5155762,1.1740929,-4.046521,1.2148573,3.3371544
171,1778619166.192828,2.933403,1.5155762,1.1740929,-4.046521,1.2148573,3.3371544
172,1778619166.2428288,5.160606,3.5166686,2.3753824,-1.7252349,-0.7148645,2.565632
173,1778619166.292832,5.160606,3.5166686,2.3753824,-0.8590286,-0.7289144,2.1832306
174,1778619166.342841,5.160606,3.5166686,2.3753824,-0.8590286,-0.7289144,2.1832306
175,1778619166.3928423,5.160606,3.5166686,2.3753824,-0.8590286,-0.7289144,2.1832306
176,1778619166.442844,5.92748,3.7049723,2.2663517,0.10430516,0.24969098,0.30787584
177,1778619166.4928455,6.152615,3.254702,2.2585464,0.10430516,0.24969098,0.30787584
178,1778619166.542954,6.152615,3.254702,2.2585464,0.10430516,0.24969098,0.30787584
179,1778619166.592955,6.152615,3.254702,2.2585464,0.10430516,0.24969098,0.30787584
180,1778619166.642957,6.152615,3.254702,2.2585464,0.56184286,0.31077746,-0.87292576
181,1778619166.6929584,6.152615,3.254702,2.2585464,0.56184286,0.31077746,-0.87292576
182,1778619166.74296,6.152615,3.254702,2.2585464,1.4390447,0.3675879,-2.0983205
183,1778619166.7929614,6.3614078,2.6061277,2.309281,1.4390447,0.3675879,-2.0983205
184,1778619166.8429625,6.330674,2.1856153,2.3000124,2.1989605,0.85627973,-2.9321508
185,1778619166.8929634,6.330674,2.1856153,2.3000124,2.6876523,1.2832742,-3.871661
186,1778619166.9429646,5.7091746,1.8846221,1.9914576,2.6876523,1.2832742,-3.871661
187,1778619166.9929657,4.1590843,1.1484816,2.0297525,2.9130614,1.7964005,-5.4483027
188,1778619167.0429666,4.1590843,1.1484816,2.0297525,2.9130614,1.7964005,-5.4483027
189,1778619167.0929677,3.4153824,0.85407424,2.0043852,3.3583817,2.3211334,-5.7580113
190,1778619167.142969,2.9048645,0.81651103,1.3826417,4.09875,2.4530802,-5.585137
191,1778619167.1929896,2.9048645,0.81651103,1.3826417,4.09875,2.4530802,-5.585137
192,1778619167.2429912,2.9048645,0.81651103,1.3826417,4.2270317,2.3510659,-5.808713
193,1778619167.2929926,3.0243838,1.0670135,1.2580001,4.2270317,2.3510659,-5.808713
194,1778619167.3429937,3.0243838,1.0670135,1.2580001,4.140289,2.612516,-6.22349
195,1778619167.3929949,3.210736,0.860416,0.8026078,3.2074983,3.1830637,-7.5246325
196,1778619167.4429963,2.9880402,-0.16086306,0.60698664,3.434129,3.2905757,-8.4317665
197,1778619167.492997,2.9880402,-0.16086306,0.60698664,3.434129,3.2905757,-8.4317665
198,1778619167.542998,3.0321891,-0.23306239,0.6308905,3.6894705,3.019352,-8.487967
199,1778619167.592999,2.78998,-0.11988505,-0.0052442085,2.25516,-1.6256639,-7.8587756
200,1778619167.6429996,2.78998,-0.11988505,-0.0052442085,2.2539384,-1.846186,-7.792191
