id,timestamp,acc_x,acc_y,acc_z,gyro_x,gyro_y,gyro_z
1,1778620377.3917093,1.0103638,0.33941004,0.040124293,-1.1490366,0.9097304,-0.6330086
2,1778620377.4017136,1.0103638,0.33941004,0.040124293,-1.1490366,0.9097304,-0.6330086
3,1778620377.411715,1.0103638,0.33941004,0.040124293,-1.1490366,0.9097304,-0.6330086
4,1778620377.4217231,1.0103638,0.33941004,0.040124293,-1.1490366,0.9097304,-0.6330086
5,1778620377.431727,1.0103638,0.33941004,0.040124293,-1.1490366,0.9097304,-0.6330086
6,1778620377.4417286,1.0103638,0.33941004,0.040124293,-1.1490366,0.9097304,-0.6330086
7,1778620377.4517293,1.0103638,0.33941004,0.040124293,-1.1490366,0.9097304,-0.6330086
8,1778620377.4617305,1.0103638,0.33941004,0.040124293,-1.1490366,0.9097304,-0.6330086
9,1778620377.471732,1.065733,0.61015755,-0.06475988,-1.1490366,0.9097304,-0.6330086
10,1778620377.4817328,1.065733,0.61015755,-0.06475988,-1.1490366,0.9097304,-0.6330086
11,1778620377.4917338,1.065733,0.61015755,-0.06475988,-1.2247839,1.3025165,-0.7631228
12,1778620377.501735,1.097442,0.87017274,-0.29574898,-1.2663227,1.3837614,-0.93416494
13,1778620377.511736,1.097442,0.87017274,-0.29574898,-1.2663227,1.3837614,-0.93416494
14,1778620377.521737,1.097442,0.87017274,-0.29574898,-1.2864813,1.159574,-1.2090541
15,1778620377.5317385,1.097442,0.87017274,-0.29574898,-1.2864813,1.159574,-1.2090541
16,1778620377.5417397,1.097442,0.87017274,-0.29574898,-1.2864813,1.159574,-1.2090541
17,1778620377.551741,1.097442,0.87017274,-0.29574898,-1.2864813,1.159574,-1.2090541
18,1778620377.5619946,1.097442,0.87017274,-0.29574898,-1.2864813,1.159574,-1.2090541
19,1778620377.5719955,1.1772028,1.1667753,-0.47966215,-1.2864813,1.159574,-1.2090541
20,1778620377.581997,1.1772028,1.1667753,-0.47966215,-1.2864813,1.159574,-1.2090541
21,1778620377.5919976,1.1772028,1.1667753,-0.47966215,-1.2864813,1.159574,-1.2090541
22,1778620377.6019983,1.1772028,1.1667753,-0.47966215,-1.2864813,1.159574,-1.2090541
23,1778620377.6119993,1.1772028,1.1667753,-0.47966215,-1.2864813,1.159574,-1.2090541
24,1778620377.6220002,1.1772028,1.1667753,-0.47966215,-1.2864813,1.159574,-1.2090541
25,1778620377.6320016,1.1772028,1.1667753,-0.47966215,-1.2864813,1.159574,-1.2090541
26,1778620377.6420093,1.1772028,1.1667753,-0.47966215,-1.2864813,1.159574,-1.2090541
27,1778620377.652207,1.1772028,1.1667753,-0.47966215,-1.2864813,1.159574,-1.2090541
28,1778620377.6622078,1.1772028,1.1667753,-0.47966215,-1.2864813,1.159574,-1.2090541
29,1778620377.6722388,1.1772028,1.1667753,-0.47966215,-1.2864813,1.159574,-1.2090541
30,1778620377.6822412,1.1772028,1.1667753,-0.47966215,-1.2864813,1.159574,-1.2090541
31,1778620377.692242,1.1772028,1.1667753,-0.47966215,-1.2864813,1.159574,-1.2090541
32,1778620377.7022424,1.1772028,1.1667753,-0.47966215,-1.2864813,1.159574,-1.2090541
33,1778620377.7122438,1.1772028,1.1667753,-0.47966215,-1.2864813,1.159574,-1.2090541
34,1778620377.7222455,1.2781844,1.396057,-0.52673805,-1.4520255,0.72097313,-2.2499678
35,1778620377.732246,1.2781844,1.396057,-0.52673805,-1.4520255,0.72097313,-2.2499678
36,1778620377.7425208,4.750826,2.0178008,0.13183697,3.5246897,0.19318599,-7.3122044
37,1778620377.7525218,4.750826,2.0178008,0.13183697,3.5246897,0.19318599,-7.3122044
38,1778620377.7625225,4.750826,2.0178008,0.13183697,3.5246897,0.19318599,-7.3122044
39,1778620377.7725232,4.750826,2.0178008,0.13183697,3.5246897,0.19318599,-7.3122044
40,1778620377.7825253,4.6288676,1.8026662,-0.06061329,3.5246897,0.19318599,-7.3122044
41,1778620377.7925272,4.6288676,1.8026662,-0.06061329,3.5246897,0.19318599,-7.3122044
42,1778620377.8025289,4.6288676,1.8026662,-0.06061329,3.5246897,0.19318599,-7.3122044
43,1778620377.8125296,4.6288676,1.8026662,-0.06061329,3.5246897,0.19318599,-7.3122044
44,1778620377.8225303,4.6288676,1.8026662,-0.06061329,3.5246897,0.19318599,-7.3122044
45,1778620377.832884,4.6288676,1.8026662,-0.06061329,3.5246897,0.19318599,-7.3122044
46,1778620377.8428867,4.6288676,1.8026662,-0.06061329,3.0201154,0.24938555,-7.7630224
47,1778620377.8528883,4.6288676,1.8026662,-0.06061329,3.0201154,0.24938555,-7.7630224
48,1778620377.8628895,4.6288676,1.8026662,-0.06061329,3.0201154,0.24938555,-7.7630224
49,1778620377.8728907,4.6288676,1.8026662,-0.06061329,3.0201154,0.24938555,-7.7630224
50,1778620377.8828912,4.6288676,1.8026662,-0.06061329,3.0201154,0.24938555,-7.7630224
51,1778620377.892892,4.6288676,1.8026662,-0.06061329,3.0201154,0.24938555,-7.7630224
52,1778620377.9028928,4.6288676,1.8026662,-0.06061329,3.0201154,0.24938555,-7.7630224
53,1778620377.9128942,4.6288676,1.8026662,-0.06061329,3.0201154,0.24938555,-7.7630224
54,1778620377.9228973,3.179515,1.3514203,-0.015244792,0.18997894,0.27259842,-7.2389
55,1778620377.9329002,3.179515,1.3514203,-0.015244792,0.18997894,0.27259842,-7.2389
56,1778620377.942902,3.179515,1.3514203,-0.015244792,0.18997894,0.27259842,-7.2389
57,1778620377.9529033,3.179515,1.3514203,-0.015244792,0.18997894,0.27259842,-7.2389
58,1778620377.962904,3.179515,1.3514203,-0.015244792,0.18997894,0.27259842,-7.2389
59,1778620377.9729047,3.179515,1.3514203,-0.015244792,0.18997894,0.27259842,-7.2389
60,1778620377.9829714,2.256778,0.6794299,0.32306764,-0.08307761,0.8003856,-7.18942
61,1778620377.9929745,2.256778,0.6794299,0.32306764,-0.08307761,0.8003856,-7.18942
62,1778620378.0029755,2.256778,0.6794299,0.32306764,-0.08307761,0.8003856,-7.18942
63,1778620378.012976,2.256778,0.6794299,0.32306764,-0.08307761,0.8003856,-7.18942
64,1778620378.0229776,2.256778,0.6794299,0.32306764,0.59253883,0.4405862,-7.1558228
65,1778620378.032989,2.256778,0.6794299,0.32306764,0.59253883,0.4405862,-7.1558228
66,1778620378.0429916,2.256778,0.6794299,0.32306764,0.59253883,0.4405862,-7.1558228
67,1778620378.0529928,2.256778,0.6794299,0.32306764,0.59253883,0.4405862,-7.1558228
68,1778620378.06301,2.256778,0.6794299,0.32306764,0.59253883,0.4405862,-7.1558228
69,1778620378.0730107,2.256778,0.6794299,0.32306764,0.59253883,0.4405862,-7.1558228
70,1778620378.0830114,2.2087264,0.5479588,0.5316164,0.59253883,0.4405862,-7.1558228
71,1778620378.0930204,2.2087264,0.5479588,0.5316164,0.59253883,0.4405862,-7.1558228
72,1778620378.1030233,2.2087264,0.5479588,0.5316164,0.59253883,0.4405862,-7.1558228
73,1778620378.1130242,2.2087264,0.5479588,0.5316164,0.59253883,0.4405862,-7.1558228
74,1778620378.123025,2.2087264,0.5479588,0.5316164,0.59253883,0.4405862,-7.1558228
75,1778620378.1330264,2.2087264,0.5479588,0.5316164,0.59253883,0.4405862,-7.1558228
76,1778620378.143028,2.2087264,0.5479588,0.5316164,0.59253883,0.4405862,-7.1558228
77,1778620378.153033,2.2087264,0.5479588,0.5316164,0.59253883,0.4405862,-7.1558228
78,1778620378.163035,2.2087264,0.5479588,0.5316164,0.59253883,0.4405862,-7.1558228
79,1778620378.1731935,2.2087264,0.5479588,0.5316164,0.59253883,0.4405862,-7.1558228
80,1778620378.1831942,2.2087264,0.5479588,0.5316164,0.59253883,0.4405862,-7.1558228
81,1778620378.1931958,2.2087264,0.5479588,0.5316164,1.4978404,0.015424335,-7.25967
82,1778620378.2032013,2.2087264,0.5479588,0.5316164,1.4978404,0.015424335,-7.25967
83,1778620378.213203,2.2087264,0.5479588,0.5316164,1.4978404,0.015424335,-7.25967
84,1778620378.2232044,2.2087264,0.5479588,0.5316164,1.4978404,0.015424335,-7.25967
85,1778620378.2332056,2.2087264,0.5479588,0.5316164,1.4978404,0.015424335,-7.25967
86,1778620378.2432067,2.2087264,0.5479588,0.5316164,1.4978404,0.015424335,-7.25967
87,1778620378.2532074,2.2087264,0.5479588,0.5316164,1.4978404,0.015424335,-7.25967
88,1778620378.2635226,2.2087264,0.5479588,0.5316164,1.4978404,0.015424335,-7.25967
89,1778620378.2735238,2.2087264,0.5479588,0.5316164,1.4978404,0.015424335,-7.25967
90,1778620378.2835271,2.2087264,0.5479588,0.5316164,1.4978404,0.015424335,-7.25967
91,1778620378.2935288,2.2087264,0.5479588,0.5316164,1.4978404,0.015424335,-7.25967
92,1778620378.30353,2.2087264,0.5479588,0.5316164,1.4978404,0.015424335,-7.25967
93,1778620378.3135362,2.2087264,0.5479588,0.5316164,1.4978404,0.015424335,-7.25967
94,1778620378.3235395,2.2087264,0.5479588,0.5316164,1.4978404,0.015424335,-7.25967
95,1778620378.333541,2.2087264,0.5479588,0.5316164,1.4978404,0.015424335,-7.25967
96,1778620378.3435428,2.2087264,0.5479588,0.5316164,1.4978404,0.015424335,-7.25967
97,1778620378.3537195,2.2087264,0.5479588,0.5316164,1.4978404,0.015424335,-7.25967
98,1778620378.363721,2.2087264,0.5479588,0.5316164,2.4733915,-0.22098033,-7.4636984
99,1778620378.3737226,2.1855543,0.31062788,0.5333238,2.4733915,-0.22098033,-7.4636984
100,1778620378.3837235,2.1855543,0.31062788,0.5333238,2.4733915,-0.22098033,-7.4636984
101,1778620378.3937247,2.1855543,0.31062788,0.5333238,2.4733915,-0.22098033,-7.4636984
102,1778620378.4037259,2.1855543,0.31062788,0.5333238,2.4733915,-0.22098033,-7.4636984
103,1778620378.4137275,2.1855543,0.31062788,0.5333238,2.4733915,-0.22098033,-7.4636984
104,1778620378.4237287,2.1855543,0.31062788,0.5333238,2.4733915,-0.22098033,-7.4636984
105,1778620378.43373,2.1855543,0.31062788,0.5333238,2.4733915,-0.22098033,-7.4636984
106,1778620378.4441135,2.1855543,0.31062788,0.5333238,2.4733915,-0.22098033,-7.4636984
107,1778620378.4541147,2.1855543,0.31062788,0.5333238,2.4733915,-0.22098033,-7.4636984
108,1778620378.4641154,2.1855543,0.31062788,0.5333238,2.4733915,-0.22098033,-7.4636984
109,1778620378.4741251,2.1855543,0.31062788,0.5333238,2.4733915,-0.22098033,-7.4636984
110,1778620378.4841394,2.1855543,0.31062788,0.5333238,2.4733915,-0.22098033,-7.4636984
111,1778620378.49414,2.1855543,0.31062788,0.5333238,2.4733915,-0.22098033,-7.4636984
112,1778620378.504141,2.1855543,0.31062788,0.5333238,2.4733915,-0.22098033,-7.4636984
113,1778620378.5141435,2.1855543,0.31062788,0.5333238,2.4733915,-0.22098033,-7.4636984
114,1778620378.5241446,2.1855543,0.31062788,0.5333238,2.4733915,-0.22098033,-7.4636984
115,1778620378.5341458,2.133844,0.06988213,0.4816135,2.4733915,-0.22098033,-7.4636984
116,1778620378.544146,2.133844,0.06988213,0.4816135,2.4733915,-0.22098033,-7.4636984
117,1778620378.5541475,2.133844,0.06988213,0.4816135,2.4733915,-0.22098033,-7.4636984
118,1778620378.564149,2.133844,0.06988213,0.4816135,3.2552984,-0.55878854,-7.619469
119,1778620378.5741494,2.133844,0.06988213,0.4816135,3.2552984,-0.55878854,-7.619469
120,1778620378.5841866,2.133844,0.06988213,0.4816135,3.2552984,-0.55878854,-7.619469
121,1778620378.5941875,2.133844,0.06988213,0.4816135,3.2552984,-0.55878854,-7.619469
122,1778620378.604188,2.133844,0.06988213,0.4816135,3.2552984,-0.55878854,-7.619469
123,1778620378.614189,2.133844,0.06988213,0.4816135,3.2552984,-0.55878854,-7.619469
124,1778620378.6241894,2.0416436,-0.15866779,0.38453463,3.93458,-0.95768327,-7.599921
125,1778620378.63419,2.0416436,-0.15866779,0.38453463,3.93458,-0.95768327,-7.599921
126,1778620378.6441908,2.0416436,-0.15866779,0.38453463,3.93458,-0.95768327,-7.599921
127,1778620378.654217,2.0416436,-0.15866779,0.38453463,3.93458,-0.95768327,-7.599921
128,1778620378.6642182,2.0211544,-0.2906267,0.27013773,4.232682,-1.6986623,-7.388562
129,1778620378.6742258,2.0211544,-0.2906267,0.27013773,4.232682,-1.6986623,-7.388562
130,1778620378.6842318,2.0211544,-0.2906267,0.27013773,4.232682,-1.6986623,-7.388562
131,1778620378.6942325,2.007983,-0.29648072,0.26086888,4.0017753,-1.8843651,-7.3274755
132,1778620378.7042332,2.007983,-0.29648072,0.26086888,4.0017753,-1.8843651,-7.3274755
133,1778620378.7142339,2.007983,-0.29648072,0.26086888,4.0017753,-1.8843651,-7.3274755
134,1778620378.7242355,2.063352,-0.26306412,0.32623854,4.0017753,-1.8843651,-7.3274755
135,1778620378.734236,2.063352,-0.26306412,0.32623854,4.0017753,-1.8843651,-7.3274755
136,1778620378.7442367,2.063352,-0.26306412,0.32623854,4.0017753,-1.8843651,-7.3274755
137,1778620378.7542372,2.063352,-0.26306412,0.32623854,4.0017753,-1.8843651,-7.3274755
138,1778620378.7646964,2.063352,-0.26306412,0.32623854,4.0017753,-1.8843651,-7.3274755
139,1778620378.7746975,2.063352,-0.26306412,0.32623854,4.0017753,-1.8843651,-7.3274755
140,1778620378.784698,2.063352,-0.26306412,0.32623854,4.0017753,-1.8843651,-7.3274755
141,1778620378.7946985,2.063352,-0.26306412,0.32623854,4.0017753,-1.8843651,-7.3274755
142,1778620378.8046992,2.063352,-0.26306412,0.32623854,4.0017753,-1.8843651,-7.3274755
143,1778620378.8147004,1.9252954,-0.3125792,0.28257746,2.3328927,-1.7823507,-6.8766575
144,1778620378.824701,1.9252954,-0.3125792,0.28257746,2.3328927,-1.7823507,-6.8766575
145,1778620378.8347018,1.9252954,-0.3125792,0.28257746,2.3328927,-1.7823507,-6.8766575
146,1778620378.8447063,1.9252954,-0.3125792,0.28257746,2.3328927,-1.7823507,-6.8766575
147,1778620378.854708,1.9252954,-0.3125792,0.28257746,2.3328927,-1.7823507,-6.8766575
148,1778620378.8647091,1.9252954,-0.3125792,0.28257746,2.3328927,-1.7823507,-6.8766575
149,1778620378.874732,2.0882318,-0.038172957,0.41843903,1.4110976,-1.6027565,-6.237693
150,1778620378.8847349,2.0882318,-0.038172957,0.41843903,1.4110976,-1.6027565,-6.237693
151,1778620378.8947358,2.0882318,-0.038172957,0.41843903,1.4110976,-1.6027565,-6.237693
152,1778620378.9053738,2.0882318,-0.038172957,0.41843903,1.4110976,-1.6027565,-6.237693
153,1778620378.9153748,2.0882318,-0.038172957,0.41843903,1.4110976,-1.6027565,-6.237693
154,1778620378.925376,1.8082153,-0.124031626,0.22989148,0.6536253,-1.302211,-5.9230976
155,1778620378.9353764,1.8082153,-0.124031626,0.22989148,0.6536253,-1.302211,-5.9230976
156,1778620378.9453773,1.8082153,-0.124031626,0.22989148,0.64812756,-1.5954261,-5.730675
157,1778620378.9553788,1.8082153,-0.124031626,0.22989148,0.64812756,-1.5954261,-5.730675
158,1778620378.9653795,1.8082153,-0.124031626,0.22989148,0.64812756,-1.5954261,-5.730675
159,1778620378.9753807,1.8082153,-0.124031626,0.22989148,0.64812756,-1.5954261,-5.730675
160,1778620378.9853818,1.6716218,-0.20476803,0.36965573,0.7354812,-1.9020802,-5.3464413
161,1778620378.9953823,1.6716218,-0.20476803,0.36965573,0.7354812,-1.9020802,-5.3464413
162,1778620379.0053835,1.6716218,-0.20476803,0.36965573,0.786183,-1.9295691,-5.19739
163,1778620379.015385,1.6525964,-0.23379412,0.4952728,0.786183,-1.9295691,-5.19739
164,1778620379.0253856,1.6525964,-0.23379412,0.4952728,0.786183,-1.9295691,-5.19739
165,1778620379.0353863,1.5564933,-0.42575654,0.5128348,0.786183,-1.9295691,-5.19739
166,1778620379.045714,1.123785,-0.8009004,0.4233174,0.83688474,-1.4023929,-4.538267
167,1778620379.0557165,1.123785,-0.8009004,0.4233174,0.83688474,-1.4023929,-4.538267
168,1778620379.065717,1.123785,-0.8009004,0.4233174,0.83688474,-1.4023929,-4.538267
169,1778620379.0757177,1.123785,-0.8009004,0.4233174,0.83688474,-1.4023929,-4.538267
170,1778620379.0857186,1.123785,-0.8009004,0.4233174,0.83688474,-1.4023929,-4.538267
171,1778620379.0957196,1.123785,-0.8009004,0.4233174,0.83688474,-1.4023929,-4.538267
172,1778620379.1057205,1.123785,-0.8009004,0.4233174,0.83688474,-1.4023929,-4.538267
173,1778620379.1157227,1.123785,-0.8009004,0.4233174,0.90591246,-1.4341577,-4.1473136
174,1778620379.1257243,0.8881616,-0.99213105,0.4808817,1.174693,-1.3889538,-3.2346816
175,1778620379.1357248,0.8881616,-0.99213105,0.4808817,1.174693,-1.3889538,-3.2346816
176,1778620379.1457253,0.8881616,-0.99213105,0.4808817,1.174693,-1.3889538,-3.2346816
177,1778620379.1557262,0.6705879,-1.1409202,0.5152739,1.174693,-1.3889538,-3.2346816
178,1778620379.1657271,0.6705879,-1.1409202,0.5152739,1.174693,-1.3889538,-3.2346816
179,1778620379.1757278,0.5354581,-1.2079973,0.5001511,1.1643083,-1.3003784,-2.9597926
180,1778620379.1861267,0.5354581,-1.2079973,0.5001511,1.1643083,-1.3003784,-2.9597926
181,1778620379.1961277,0.5354581,-1.2079973,0.5001511,1.1643083,-1.3003784,-2.9597926
182,1778620379.2061286,0.1700709,-1.3880078,0.52429885,1.1643083,-1.3003784,-2.9597926
183,1778620379.2169406,0.1700709,-1.3880078,0.52429885,1.0855067,-1.1458296,-2.8644977
184,1778620379.2269428,0.1700709,-1.3880078,0.52429885,1.0855067,-1.1458296,-2.8644977
185,1778620379.236944,-0.65266,-1.9853597,0.5191766,1.0427462,-1.0089959,-2.2737913
186,1778620379.2469444,-0.65266,-1.9853597,0.5191766,1.0427462,-1.0089959,-2.2737913
187,1778620379.2569454,-1.0651231,-2.3519664,0.56186205,1.3432916,-1.1507165,-1.187063
188,1778620379.266947,-1.0651231,-2.3519664,0.56186205,1.7440189,-1.3907864,-0.11438443
189,1778620379.276948,-1.0651231,-2.3519664,0.56186205,1.7440189,-1.3907864,-0.11438443
190,1778620379.286949,-1.3312362,-2.4917307,0.5716187,1.7440189,-1.3907864,-0.11438443
191,1778620379.29695,-1.5378336,-2.6973524,0.51063955,2.2669191,-1.8000658,1.1391101
192,1778620379.3069508,-1.5378336,-2.6973524,0.51063955,2.2669191,-1.8000658,1.1391101
193,1778620379.316952,-1.5346627,-2.6802783,0.55234927,2.6725335,-2.137263,2.0529637
194,1778620379.3269618,-1.5346627,-2.6802783,0.55234927,2.6725335,-2.137263,2.0529637
195,1778620379.3369646,-1.5346627,-2.6802783,0.55234927,2.6725335,-2.137263,2.0529637
196,1778620379.347019,-1.5346627,-2.6802783,0.55234927,3.329824,-2.395659,3.2197156
197,1778620379.3570197,-1.5346627,-2.6802783,0.55234927,3.329824,-2.395659,3.2197156
198,1778620379.3670201,-1.5346627,-2.6802783,0.55234927,3.329824,-2.395659,3.2197156
199,1778620379.3770263,-1.5346627,-2.6802783,0.55234927,3.329824,-2.395659,3.2197156
200,1778620379.3870292,-1.5346627,-2.6802783,0.55234927,3.329824,-2.395659,3.2197156
201,1778620379.397032,-1.5346627,-2.6802783,0.55234927,3.329824,-2.395659,3.2197156
202,1778620379.4070413,-1.5346627,-2.6802783,0.55234927,3.329824,-2.395659,3.2197156
203,1778620379.417042,-1.5346627,-2.6802783,0.55234927,3.329824,-2.395659,3.2197156
204,1778620379.4270427,-1.5346627,-2.6802783,0.55234927,3.329824,-2.395659,3.2197156
205,1778620379.4370441,-1.3305044,-2.447094,0.6340614,3.329824,-2.395659,3.2197156
206,1778620379.4470446,-1.3305044,-2.447094,0.6340614,3.329824,-2.395659,3.2197156
207,1778620379.4570453,-1.3305044,-2.447094,0.6340614,3.329824,-2.395659,3.2197156
208,1778620379.4677563,-1.3305044,-2.447094,0.6340614,3.329824,-2.395659,3.2197156
209,1778620379.477759,-1.3305044,-2.447094,0.6340614,3.329824,-2.395659,3.2197156
210,1778620379.48776,-1.3305044,-2.447094,0.6340614,3.329824,-2.395659,3.2197156
211,1778620379.4977608,-1.3305044,-2.447094,0.6340614,3.329824,-2.395659,3.2197156
212,1778620379.5077615,-1.0475612,-2.061218,0.8555377,3.4269514,-1.8544327,3.2386522
213,1778620379.5177624,-1.0475612,-2.061218,0.8555377,3.4269514,-1.8544327,3.2386522
214,1778620379.527763,-1.0475612,-2.061218,0.8555377,3.4269514,-1.8544327,3.2386522
215,1778620379.5377636,-1.0475612,-2.061218,0.8555377,3.4269514,-1.8544327,3.2386522
216,1778620379.5477645,-1.0475612,-2.061218,0.8555377,3.4269514,-1.8544327,3.2386522
217,1778620379.557765,-1.0475612,-2.061218,0.8555377,3.4269514,-1.8544327,3.2386522
218,1778620379.5677662,-1.0475612,-2.061218,0.8555377,3.4269514,-1.8544327,3.2386522
219,1778620379.5777702,-2.2586074,-2.0260937,1.375812,0.63041246,0.12110394,2.567312
220,1778620379.587772,-2.2586074,-2.0260937,1.375812,0.63041246,0.12110394,2.567312
221,1778620379.5977728,-2.2586074,-2.0260937,1.375812,0.63041246,0.12110394,2.567312
222,1778620379.607774,-2.2586074,-2.0260937,1.375812,0.63041246,0.12110394,2.567312
223,1778620379.6178176,-2.2586074,-2.0260937,1.375812,0.63041246,0.12110394,2.567312
224,1778620379.6278186,-2.2586074,-2.0260937,1.375812,0.63041246,0.12110394,2.567312
225,1778620379.637819,-2.2586074,-2.0260937,1.375812,0.63041246,0.12110394,2.567312
226,1778620379.6478198,-2.2586074,-2.0260937,1.375812,0.63041246,0.12110394,2.567312
227,1778620379.6578207,-2.2586074,-2.0260937,1.375812,0.63041246,0.12110394,2.567312
228,1778620379.6678214,-2.2586074,-2.0260937,1.375812,0.63041246,0.12110394,2.567312
229,1778620379.677822,-2.2586074,-2.0260937,1.375812,-0.27122396,1.1003202,2.3528984
230,1778620379.6878228,-2.2586074,-2.0260937,1.375812,-0.27122396,1.1003202,2.3528984
231,1778620379.6978235,-2.2586074,-2.0260937,1.375812,-0.27122396,1.1003202,2.3528984
232,1778620379.7081172,-2.2586074,-2.0260937,1.375812,-0.27122396,1.1003202,2.3528984
233,1778620379.7181203,-2.2586074,-2.0260937,1.375812,-0.27122396,1.1003202,2.3528984
234,1778620379.7281225,-2.2586074,-2.0260937,1.375812,-0.27122396,1.1003202,2.3528984
235,1778620379.7381234,-2.619604,-1.9014525,1.3372731,-0.27122396,1.1003202,2.3528984
236,1778620379.7481318,-2.8320553,-1.9373081,1.1860448,-1.9101741,2.7985244,1.740812
237,1778620379.7581348,-2.8320553,-1.9373081,1.1860448,-1.9101741,2.7985244,1.740812
238,1778620379.7681358,-2.8320553,-1.9373081,1.1860448,-2.584569,3.4038913,1.6919427
239,1778620379.7787473,-2.9086454,-2.3992865,0.98286223,-3.1038039,4.050186,1.9741622
240,1778620379.788749,-2.9086454,-2.3992865,0.98286223,-3.1038039,4.050186,1.9741622
241,1778620379.79875,-2.7452211,-2.712963,0.7713865,-3.1038039,4.050186,1.9741622
242,1778620379.8087506,-2.7452211,-2.712963,0.7713865,-3.1038039,4.050186,1.9741622
243,1778620379.8187516,-2.7452211,-2.712963,0.7713865,-3.1038039,4.050186,1.9741622
244,1778620379.828753,-2.7452211,-2.712963,0.7713865,-3.1038039,4.050186,1.9741622
245,1778620379.8387537,-2.7452211,-2.712963,0.7713865,-3.1038039,4.050186,1.9741622
246,1778620379.8487542,-2.7452211,-2.712963,0.7713865,-3.1038039,4.050186,1.9741622
247,1778620379.8587584,-2.7452211,-2.712963,0.7713865,-3.4636033,4.8760753,2.585027
248,1778620379.86876,-2.7452211,-2.712963,0.7713865,-3.4636033,4.8760753,2.585027
249,1778620379.8787613,-2.7452211,-2.712963,0.7713865,-3.4636033,4.8760753,2.585027
250,1778620379.8887675,-2.7452211,-2.712963,0.7713865,-3.4636033,4.8760753,2.585027
251,1778620379.8987696,-2.7452211,-2.712963,0.7713865,-3.4636033,4.8760753,2.585027
252,1778620379.9087708,-2.7452211,-2.712963,0.7713865,-3.4636033,4.8760753,2.585027
253,1778620379.919207,-2.7452211,-2.712963,0.7713865,-3.4636033,4.8760753,2.585027
254,1778620379.9292078,-2.7452211,-2.712963,0.7713865,-3.4636033,4.8760753,2.585027
255,1778620379.9392085,-2.7452211,-2.712963,0.7713865,-3.4636033,4.8760753,2.585027
256,1778620379.9492097,-2.7452211,-2.712963,0.7713865,-3.4636033,4.8760753,2.585027
257,1778620379.9592102,-2.7452211,-2.712963,0.7713865,-3.4636033,4.8760753,2.585027
258,1778620379.9692109,-2.4661806,-3.0151758,0.38916904,-3.4636033,4.8760753,2.585027
259,1778620379.9792113,-2.4661806,-3.0151758,0.38916904,-3.4636033,4.8760753,2.585027
260,1778620379.9892123,-2.4661806,-3.0151758,0.38916904,-3.4636033,4.8760753,2.585027
261,1778620379.9992201,-2.4661806,-3.0151758,0.38916904,-3.4538295,5.237707,3.4304638
262,1778620380.0092232,-2.4661806,-3.0151758,0.38916904,-3.4538295,5.237707,3.4304638
263,1778620380.0192258,-2.4661806,-3.0151758,0.38916904,-3.4538295,5.237707,3.4304638
264,1778620380.029227,4.9337635,-2.587834,0.23598938,0.8478803,-0.5997165,11.744333
265,1778620380.039228,4.9337635,-2.587834,0.23598938,0.8478803,-0.5997165,11.744333
266,1778620380.049229,5.420133,-2.3719676,0.5274698,0.19975278,-0.10063997,11.749831
267,1778620380.0592296,5.420133,-2.3719676,0.5274698,0.19975278,-0.10063997,11.749831
268,1778620380.069231,5.420133,-2.3719676,0.5274698,0.19975278,-0.10063997,11.749831
269,1778620380.0792332,5.5286765,-1.8758411,0.7591906,-1.2883139,1.1607958,11.159125
270,1778620380.0892348,5.5286765,-1.8758411,0.7591906,-1.2883139,1.1607958,11.159125
271,1778620380.0992362,5.5286765,-1.8758411,0.7591906,-1.2883139,1.1607958,11.159125
272,1778620380.1092374,4.85693,-1.6070449,0.62064594,-2.1985023,1.3428335,9.884861
273,1778620380.119238,4.85693,-1.6070449,0.62064594,-2.1985023,1.3428335,9.884861
274,1778620380.1292386,4.85693,-1.6070449,0.62064594,-2.1985023,1.3428335,9.884861
275,1778620380.1392398,4.85693,-1.6070449,0.62064594,-2.1985023,1.3428335,9.884861
276,1778620380.1492403,4.85693,-1.6070449,0.62064594,-2.1985023,1.3428335,9.884861
277,1778620380.159241,4.557156,-1.4202049,0.6979676,-2.236376,0.92378026,9.466419
278,1778620380.1692417,4.557156,-1.4202049,0.6979676,-2.236376,0.92378026,9.466419
279,1778620380.179243,4.557156,-1.4202049,0.6979676,-2.226602,0.6818778,8.717499
280,1778620380.1892447,4.557156,-1.4202049,0.6979676,-2.226602,0.6818778,8.717499
281,1778620380.199246,4.557156,-1.4202049,0.6979676,-2.226602,0.6818778,8.717499
282,1778620380.2092466,4.046395,-1.1528721,0.9362742,-2.2345433,0.7289144,8.215979
283,1778620380.2192478,4.046395,-1.1528721,0.9362742,-2.2345433,0.7289144,8.215979
284,1778620380.2292485,4.046395,-1.1528721,0.9362742,-2.2345433,0.7289144,8.215979
285,1778620380.2392495,4.046395,-1.1528721,0.9362742,-2.2345433,0.7289144,8.215979
286,1778620380.249251,4.046395,-1.1528721,0.9362742,-2.357938,0.9995275,7.63077
287,1778620380.2592516,4.046395,-1.1528721,0.9362742,-2.357938,0.9995275,7.63077
288,1778620380.2692528,4.046395,-1.1528721,0.9362742,-2.357938,0.9995275,7.63077
289,1778620380.2792616,3.6912518,-1.2709278,0.9594462,-2.357938,0.9995275,7.63077
290,1778620380.2892652,3.6912518,-1.2709278,0.9594462,-2.357938,0.9995275,7.63077
291,1778620380.299266,3.6912518,-1.2709278,0.9594462,-2.357938,0.9995275,7.63077
292,1778620380.309269,3.4122112,-1.3877639,0.91212636,-2.5075998,1.1632392,7.53181
293,1778620380.319319,3.4122112,-1.3877639,0.91212636,-2.5075998,1.1632392,7.53181
294,1778620380.3293197,3.4122112,-1.3877639,0.91212636,-2.5075998,1.1632392,7.53181
295,1778620380.3393204,3.4122112,-1.3877639,0.91212636,-2.5075998,1.1632392,7.53181
296,1778620380.349321,3.4122112,-1.3877639,0.91212636,-2.5075998,1.1632392,7.53181
297,1778620380.3593214,3.4122112,-1.3877639,0.91212636,-2.5075998,1.1632392,7.53181
298,1778620380.3693223,3.4122112,-1.3877639,0.91212636,-2.5075998,1.1632392,7.53181
299,1778620380.3793228,3.4122112,-1.3877639,0.91212636,-2.54303,1.1168135,7.591064
300,1778620380.3893256,3.4122112,-1.3877639,0.91212636,-2.54303,1.1168135,7.591064
301,1778620380.399327,3.4122112,-1.3877639,0.91212636,-2.54303,1.1168135,7.591064
302,1778620380.4093275,3.275862,-1.3694701,0.8560255,-2.54303,1.1168135,7.591064
303,1778620380.4193287,3.275862,-1.3694701,0.8560255,-2.54303,1.1168135,7.591064
304,1778620380.4293306,3.275862,-1.3694701,0.8560255,-2.54303,1.1168135,7.591064
305,1778620380.439332,3.3585496,-1.2560489,0.84212226,-2.3145666,0.8156572,7.677807
306,1778620380.4493334,3.3585496,-1.2560489,0.84212226,-2.3145666,0.8156572,7.677807
307,1778620380.4593341,3.3585496,-1.2560489,0.84212226,-2.3145666,0.8156572,7.677807
308,1778620380.4693348,3.3585496,-1.2560489,0.84212226,-2.3145666,0.8156572,7.677807
309,1778620380.4793375,3.3585496,-1.2560489,0.84212226,-2.3145666,0.8156572,7.677807
310,1778620380.4893594,3.3585496,-1.2560489,0.84212226,-2.3145666,0.8156572,7.677807
311,1778620380.4993606,3.3585496,-1.2560489,0.84212226,-2.3145666,0.8156572,7.677807
312,1778620380.5093617,3.3585496,-1.2560489,0.84212226,-2.3145666,0.8156572,7.677807
313,1778620380.5193636,3.3585496,-1.2560489,0.84212226,-2.3145666,0.8156572,7.677807
314,1778620380.529402,3.3585496,-1.2560489,0.84212226,-2.3145666,0.8156572,7.677807
315,1778620380.5394037,3.3585496,-1.2560489,0.84212226,-2.3145666,0.8156572,7.677807
316,1778620380.5494046,3.3585496,-1.2560489,0.84212226,-2.3145666,0.8156572,7.677807
317,1778620380.559405,3.3585496,-1.2560489,0.84212226,-2.3145666,0.8156572,7.677807
318,1778620380.569406,3.3585496,-1.2560489,0.84212226,-2.3145666,0.8156572,7.677807
319,1778620380.5794072,3.3585496,-1.2560489,0.84212226,-2.3145666,0.8156572,7.677807
320,1778620380.589408,3.3585496,-1.2560489,0.84212226,-2.3145666,0.8156572,7.677807
321,1778620380.5994089,3.3585496,-1.2560489,0.84212226,-2.3145666,0.8156572,7.677807
322,1778620380.609413,3.3585496,-1.2560489,0.84212226,-2.3145666,0.8156572,7.677807
323,1778620380.6194153,3.3585496,-1.2560489,0.84212226,-2.3145666,0.8156572,7.677807
324,1778620380.6294162,3.3585496,-1.2560489,0.84212226,-2.3145666,0.8156572,7.677807
325,1778620380.639418,3.3585496,-1.2560489,0.84212226,-2.1465788,0.66233015,7.6558156
326,1778620380.6494195,3.3585496,-1.2560489,0.84212226,-2.1465788,0.66233015,7.6558156
327,1778620380.659421,3.3585496,-1.2560489,0.84212226,-2.1465788,0.66233015,7.6558156
328,1778620380.6694226,3.4797761,-1.1843374,0.86602616,-2.1465788,0.66233015,7.6558156
329,1778620380.6794238,3.4797761,-1.1843374,0.86602616,-2.1465788,0.66233015,7.6558156
330,1778620380.6894255,3.4797761,-1.1843374,0.86602616,-2.1465788,0.66233015,7.6558156
331,1778620380.6999996,3.7597926,2.7649174,1.0475001,-3.54607,-1.3278673,3.4854417
332,1778620380.710003,3.7597926,2.7649174,1.0475001,-3.54607,-1.3278673,3.4854417
333,1778620380.7200048,3.7597926,2.7649174,1.0475001,-3.54607,-1.3278673,3.4854417
334,1778620380.730006,3.7597926,2.7649174,1.0475001,-3.54607,-1.3278673,3.4854417
335,1778620380.7400076,6.9270506,4.7928405,1.8877931,-1.9541564,-2.1800237,3.7749915
336,1778620380.7500317,6.9270506,4.7928405,1.8877931,-1.9541564,-2.1800237,3.7749915
337,1778620380.7600327,6.9270506,4.7928405,1.8877931,-1.9541564,-2.1800237,3.7749915
338,1778620380.7700338,6.9270506,4.7928405,1.8877931,-1.9541564,-2.1800237,3.7749915
339,1778620380.7800343,6.9270506,4.7928405,1.8877931,-1.9541564,-2.1800237,3.7749915
340,1778620380.7900348,6.9270506,4.7928405,1.8877931,-1.9541564,-2.1800237,3.7749915
341,1778620380.8000355,6.9270506,4.7928405,1.8877931,-0.31398448,-2.1433718,2.8819072
342,1778620380.8100364,6.9270506,4.7928405,1.8877931,-0.31398448,-2.1433718,2.8819072
343,1778620380.8200371,6.9270506,4.7928405,1.8877931,-0.31398448,-2.1433718,2.8819072
344,1778620380.830038,6.9270506,4.7928405,1.8877931,-0.31398448,-2.1433718,2.8819072
345,1778620380.840252,6.9270506,4.7928405,1.8877931,-0.31398448,-2.1433718,2.8819072
346,1778620380.8502533,6.9270506,4.7928405,1.8877931,-0.31398448,-2.1433718,2.8819072
347,1778620380.8602543,7.6670938,5.037733,1.5150884,0.6725621,-1.6070325,0.6882919
348,1778620380.870255,7.6670938,5.037733,1.5150884,0.6725621,-1.6070325,0.6882919
349,1778620380.8802562,7.6670938,5.037733,1.5150884,0.7391464,-1.4042255,-1.3067925
350,1778620380.890257,7.6670938,5.037733,1.5150884,0.7391464,-1.4042255,-1.3067925
351,1778620380.9002576,7.6670938,5.037733,1.5150884,0.7391464,-1.4042255,-1.3067925
352,1778620380.9102588,7.8129563,4.5479484,1.2055582,0.7391464,-1.4042255,-1.3067925
353,1778620380.9202693,7.8129563,4.5479484,1.2055582,0.7391464,-1.4042255,-1.3067925
354,1778620380.9306095,7.8129563,4.5479484,1.2055582,0.7391464,-1.4042255,-1.3067925
355,1778620380.940611,7.8129563,4.5479484,1.2055582,0.7391464,-1.4042255,-1.3067925
356,1778620380.9506207,7.8129563,4.5479484,1.2055582,0.7391464,-1.4042255,-1.3067925
357,1778620380.9606242,7.8129563,4.5479484,1.2055582,0.7391464,-1.4042255,-1.3067925
358,1778620380.970625,7.376589,2.9046817,1.0504271,-0.42699447,-0.7163917,-4.5309367
359,1778620380.9806256,7.376589,2.9046817,1.0504271,-0.42699447,-0.7163917,-4.5309367
360,1778620380.9906263,7.376589,2.9046817,1.0504271,-0.42699447,-0.7163917,-4.5309367
361,1778620381.0006278,7.376589,2.9046817,1.0504271,-0.42699447,-0.7163917,-4.5309367
362,1778620381.0106287,7.376589,2.9046817,1.0504271,-0.42699447,-0.7163917,-4.5309367
363,1778620381.0206301,5.326713,0.36160645,1.4943554,-2.1710134,1.1174244,-5.5712395
364,1778620381.0306315,5.326713,0.36160645,1.4943554,-2.1710134,1.1174244,-5.5712395
365,1778620381.0406322,5.326713,0.36160645,1.4943554,-2.1710134,1.1174244,-5.5712395
366,1778620381.0506332,5.326713,0.36160645,1.4943554,-2.1710134,1.1174244,-5.5712395
367,1778620381.0606406,4.2683587,0.08622454,1.7351012,-2.0494514,2.4142904,-4.8314824
368,1778620381.0706441,4.2683587,0.08622454,1.7351012,-2.0494514,2.4142904,-4.8314824
369,1778620381.0806446,4.2683587,0.08622454,1.7351012,-2.0494514,2.4142904,-4.8314824
370,1778620381.0908086,4.2683587,0.08622454,1.7351012,-2.0494514,2.4142904,-4.8314824
371,1778620381.1008632,4.2683587,0.08622454,1.7351012,-2.0494514,2.4142904,-4.8314824
372,1778620381.111207,4.2683587,0.08622454,1.7351012,-2.0494514,2.4142904,-4.8314824
373,1778620381.1213086,4.2683587,0.08622454,1.7351012,-2.0494514,2.4142904,-4.8314824
374,1778620381.13131,4.2683587,0.08622454,1.7351012,-2.0494514,2.4142904,-4.8314824
375,1778620381.141311,4.2683587,0.08622454,1.7351012,-2.0494514,2.4142904,-4.8314824
376,1778620381.1513114,4.2683587,0.08622454,1.7351012,-2.0494514,2.4142904,-4.8314824
377,1778620381.1613126,4.284457,0.5955225,1.5677744,-0.8619302,2.7172792,-4.6237884
378,1778620381.1713135,4.284457,0.5955225,1.5677744,-0.8619302,2.7172792,-4.6237884
379,1778620381.1813142,4.284457,0.5955225,1.5677744,-0.8619302,2.7172792,-4.6237884
380,1778620381.1913147,4.284457,0.5955225,1.5677744,0.24923283,2.7789767,-5.0068007
381,1778620381.2013175,4.284457,0.5955225,1.5677744,1.2217295,2.7624834,-5.7477794
382,1778620381.2113192,4.284457,0.5955225,1.5677744,1.2217295,2.7624834,-5.7477794
383,1778620381.2213197,4.284457,0.5955225,1.5677744,1.2217295,2.7624834,-5.7477794
384,1778620381.2313337,4.284457,0.5955225,1.5677744,1.2217295,2.7624834,-5.7477794
385,1778620381.2413356,4.284457,0.5955225,1.5677744,1.2217295,2.7624834,-5.7477794
386,1778620381.2513368,4.284457,0.5955225,1.5677744,1.2217295,2.7624834,-5.7477794
387,1778620381.2613409,4.2505527,0.6862595,1.3148328,1.2217295,2.7624834,-5.7477794
388,1778620381.271343,4.2505527,0.6862595,1.3148328,1.2217295,2.7624834,-5.7477794
389,1778620381.281344,4.2505527,0.6862595,1.3148328,1.2217295,2.7624834,-5.7477794
390,1778620381.2913446,4.2505527,0.6862595,1.3148328,1.2217295,2.7624834,-5.7477794
391,1778620381.3013456,4.2505527,0.6862595,1.3148328,1.2217295,2.7624834,-5.7477794
392,1778620381.3113468,4.2505527,0.6862595,1.3148328,1.2217295,2.7624834,-5.7477794
393,1778620381.3213472,4.2505527,0.6862595,1.3148328,1.2217295,2.7624834,-5.7477794
394,1778620381.3313477,4.2505527,0.6862595,1.3148328,1.2217295,2.7624834,-5.7477794
395,1778620381.3413484,4.036394,0.6113771,1.0162787,1.2217295,2.7624834,-5.7477794
396,1778620381.3513494,4.036394,0.6113771,1.0162787,1.2217295,2.7624834,-5.7477794
397,1778620381.3613503,3.8212595,0.4601488,0.97798395,1.9914192,2.4399467,-6.814349
398,1778620381.3713508,3.8212595,0.4601488,0.97798395,1.9914192,2.4399467,-6.814349
399,1778620381.3813517,3.8212595,0.4601488,0.97798395,1.9914192,2.4399467,-6.814349
400,1778620381.391353,3.8212595,0.4601488,0.97798395,1.9914192,2.4399467,-6.814349
401,1778620381.4013672,3.8212595,0.4601488,0.97798395,1.9914192,2.4399467,-6.814349
402,1778620381.411374,3.8212595,0.4601488,0.97798395,1.9914192,2.4399467,-6.814349
403,1778620381.4213748,3.8212595,0.4601488,0.97798395,1.9914192,2.4399467,-6.814349
404,1778620381.4313755,3.8212595,0.4601488,0.97798395,1.9914192,2.4399467,-6.814349
405,1778620381.4413762,3.8212595,0.4601488,0.97798395,1.9914192,2.4399467,-6.814349
406,1778620381.451454,3.50929,0.10329871,1.0587202,2.1807873,2.2689044,-7.34458
407,1778620381.4614546,3.50929,0.10329871,1.0587202,2.1807873,2.2689044,-7.34458
408,1778620381.4714553,3.50929,0.10329871,1.0587202,2.1807873,2.2689044,-7.34458
409,1778620381.4814563,3.50929,0.10329871,1.0587202,2.1398594,2.333656,-7.859539
410,1778620381.4914567,3.50929,0.10329871,1.0587202,2.1398594,2.333656,-7.859539
411,1778620381.501458,3.50929,0.10329871,1.0587202,2.1398594,2.333656,-7.859539
412,1778620381.511461,3.6893005,-0.7533366,0.8579769,1.7983859,3.8687594,-8.259655
413,1778620381.5214622,3.6893005,-0.7533366,0.8579769,1.7983859,3.8687594,-8.259655
414,1778620381.531463,3.6893005,-0.7533366,0.8579769,1.7983859,3.8687594,-8.259655
415,1778620381.5414634,3.6893005,-0.7533366,0.8579769,1.7983859,3.8687594,-8.259655
416,1778620381.5514646,3.9615116,-0.94359165,0.6711367,1.8484768,4.218174,-8.351896
417,1778620381.5614655,3.9615116,-0.94359165,0.6711367,1.8484768,4.218174,-8.351896
418,1778620381.5714662,3.9615116,-0.94359165,0.6711367,1.8484768,4.218174,-8.351896
419,1778620381.5814672,3.9615116,-0.94359165,0.6711367,1.8484768,4.218174,-8.351896
420,1778620381.5914676,3.9615116,-0.94359165,0.6711367,1.8484768,4.218174,-8.351896
421,1778620381.6014683,3.9615116,-0.94359165,0.6711367,1.8484768,4.218174,-8.351896
422,1778620381.6114693,3.9615116,-0.94359165,0.6711367,1.9810345,4.3580623,-8.582803
423,1778620381.6214697,3.9615116,-0.94359165,0.6711367,1.9810345,4.3580623,-8.582803
424,1778620381.6314707,3.9615116,-0.94359165,0.6711367,1.9810345,4.3580623,-8.582803
425,1778620381.6414719,3.9615116,-0.94359165,0.6711367,1.9810345,4.3580623,-8.582803
426,1778620381.6514726,3.9615116,-0.94359165,0.6711367,1.9810345,4.3580623,-8.582803
427,1778620381.6614735,3.9615116,-0.94359165,0.6711367,1.9810345,4.3580623,-8.582803
428,1778620381.6714742,3.9615116,-0.94359165,0.6711367,1.9810345,4.3580623,-8.582803
429,1778620381.681475,3.9615116,-0.94359165,0.6711367,1.9810345,4.3580623,-8.582803
430,1778620381.6914756,3.9615116,-0.94359165,0.6711367,1.9810345,4.3580623,-8.582803
431,1778620381.701477,3.8127224,-1.6894889,0.2303793,2.9309292,3.6555676,-9.38609
432,1778620381.7114778,3.8127224,-1.6894889,0.2303793,2.9309292,3.6555676,-9.38609
433,1778620381.7214785,3.8127224,-1.6894889,0.2303793,2.9309292,3.6555676,-9.38609
434,1778620381.7314866,3.8127224,-1.6894889,0.2303793,2.9309292,3.6555676,-9.38609
435,1778620381.7414894,3.8127224,-1.6894889,0.2303793,2.9309292,3.6555676,-9.38609
436,1778620381.7514899,3.8127224,-1.6894889,0.2303793,2.9309292,3.6555676,-9.38609
437,1778620381.7614956,3.8127224,-1.6894889,0.2303793,3.5442374,2.9652903,-9.508874
438,1778620381.7714975,3.8127224,-1.6894889,0.2303793,3.5442374,2.9652903,-9.508874
439,1778620381.7814982,3.8127224,-1.6894889,0.2303793,4.320036,1.9879067,-9.455729
440,1778620381.7914994,3.8127224,-1.6894889,0.2303793,4.320036,1.9879067,-9.455729
441,1778620381.8015,3.7922335,-1.6865618,0.15866779,4.320036,1.9879067,-9.455729
442,1778620381.8115008,3.7922335,-1.6865618,0.15866779,4.320036,1.9879067,-9.455729
443,1778620381.8215013,3.7922335,-1.6865618,0.15866779,4.320036,1.9879067,-9.455729
444,1778620381.8315024,3.7922335,-1.6865618,0.15866779,4.320036,1.9879067,-9.455729
445,1778620381.8415039,3.7922335,-1.6865618,0.15866779,4.320036,1.9879067,-9.455729
446,1778620381.8515048,3.7922335,-1.6865618,0.15866779,4.320036,1.9879067,-9.455729
447,1778620381.8615067,3.594417,-1.6531453,0.058418043,3.5766132,0.95859957,-9.298737
448,1778620381.871509,3.594417,-1.6531453,0.058418043,3.5766132,0.95859957,-9.298737
449,1778620381.8815105,3.594417,-1.6531453,0.058418043,3.5766132,0.95859957,-9.298737
450,1778620381.891513,3.594417,-1.6531453,0.058418043,3.5766132,0.95859957,-9.298737
451,1778620381.9015872,3.4883134,-1.6002153,0.11573846,3.5766132,0.95859957,-9.298737
452,1778620381.9115887,3.4883134,-1.6002153,0.11573846,3.5766132,0.95859957,-9.298737
453,1778620381.9215899,3.4883134,-1.6002153,0.11573846,3.257131,0.9231694,-9.224211
454,1778620381.9315903,3.4883134,-1.6002153,0.11573846,3.257131,0.9231694,-9.224211
455,1778620381.9415913,3.4883134,-1.6002153,0.11573846,3.257131,0.9231694,-9.224211
456,1778620381.9515932,3.4883134,-1.6002153,0.11573846,3.257131,0.9231694,-9.224211
457,1778620381.9615974,3.4883134,-1.6002153,0.11573846,3.257131,0.9231694,-9.224211
458,1778620381.971601,2.4602046,-1.8773046,0.061101127,2.6939137,0.2432769,-7.17537
459,1778620381.9816096,2.4602046,-1.8773046,0.061101127,2.6939137,0.2432769,-7.17537
460,1778620381.9916124,2.4602046,-1.8773046,0.061101127,2.6939137,0.2432769,-7.17537
461,1778620382.0016134,2.0909147,-1.9192584,-0.031099375,2.6939137,0.2432769,-7.17537
462,1778620382.0116208,2.0909147,-1.9192584,-0.031099375,2.6939137,0.2432769,-7.17537
463,1778620382.021623,2.0909147,-1.9192584,-0.031099375,2.6939137,0.2432769,-7.17537
464,1778620382.0316236,1.7838235,-1.9197462,-0.06451596,2.7543893,0.0019853106,-6.775254
465,1778620382.0416245,1.7838235,-1.9197462,-0.06451596,2.7543893,0.0019853106,-6.775254
466,1778620382.051625,1.373068,-1.9482844,-0.11598238,2.7543893,0.0019853106,-6.775254
467,1778620382.061626,1.373068,-1.9482844,-0.11598238,2.7543893,0.0019853106,-6.775254
468,1778620382.0716264,1.373068,-1.9482844,-0.11598238,2.7543893,0.0019853106,-6.775254
469,1778620382.081627,1.373068,-1.9482844,-0.11598238,2.9248207,-0.5459604,-5.9499755
470,1778620382.0916276,1.373068,-1.9482844,-0.11598238,2.9248207,-0.5459604,-5.9499755
471,1778620382.1016283,1.373068,-1.9482844,-0.11598238,2.9248207,-0.5459604,-5.9499755
472,1778620382.1116292,1.373068,-1.9482844,-0.11598238,3.1655014,-0.83917546,-5.654928
473,1778620382.1216314,1.373068,-1.9482844,-0.11598238,3.1655014,-0.83917546,-5.654928
474,1778620382.1316326,1.373068,-1.9482844,-0.11598238,3.1655014,-0.83917546,-5.654928
475,1778620382.1416335,1.045244,-2.0248742,-0.15988737,3.1655014,-0.83917546,-5.654928
476,1778620382.1516342,1.045244,-2.0248742,-0.15988737,3.1655014,-0.83917546,-5.654928
477,1778620382.161635,1.045244,-2.0248742,-0.15988737,3.1655014,-0.83917546,-5.654928
478,1778620382.1716359,1.045244,-2.0248742,-0.15988737,3.1655014,-0.83917546,-5.654928
479,1778620382.181843,1.045244,-2.0248742,-0.15988737,3.1655014,-0.83917546,-5.654928
480,1778620382.191844,1.045244,-2.0248742,-0.15988737,3.1655014,-0.83917546,-5.654928
481,1778620382.2018452,1.045244,-2.0248742,-0.15988737,3.1655014,-0.83917546,-5.654928
482,1778620382.211846,1.045244,-2.0248742,-0.15988737,3.1655014,-0.83917546,-5.654928
483,1778620382.2218468,1.045244,-2.0248742,-0.15988737,3.1655014,-0.83917546,-5.654928
484,1778620382.2318478,-3.1118279,-3.5803308,0.9848135,-2.7128506,1.5016583,1.1598794
485,1778620382.2418485,-3.1118279,-3.5803308,0.9848135,-2.7128506,1.5016583,1.1598794
486,1778620382.251849,-3.1118279,-3.5803308,0.9848135,-2.7128506,1.5016583,1.1598794
487,1778620382.2618494,3.2495189,-2.7207685,-0.05866196,0.06780599,1.2707515,10.857968
488,1778620382.2718503,3.2495189,-2.7207685,-0.05866196,0.06780599,1.2707515,10.857968
489,1778620382.281852,3.2495189,-2.7207685,-0.05866196,0.06780599,1.2707515,10.857968
490,1778620382.2923365,3.9234607,-2.5329525,0.08866371,-0.48258317,1.4961605,11.854289
491,1778620382.3023384,3.9234607,-2.5329525,0.08866371,-0.48258317,1.4961605,11.854289
492,1778620382.3123395,3.9234607,-2.5329525,0.08866371,-0.48258317,1.4961605,11.854289
493,1778620382.32234,3.9234607,-2.5329525,0.08866371,-0.48258317,1.4961605,11.854289
494,1778620382.332341,3.9234607,-2.5329525,0.08866371,-0.48258317,1.4961605,11.854289
495,1778620382.342342,3.9234607,-2.5329525,0.08866371,-0.48258317,1.4961605,11.854289
496,1778620382.3523421,3.9234607,-2.5329525,0.08866371,-0.48258317,1.4961605,11.854289
497,1778620382.3623428,4.5808163,-2.1761024,0.19452354,-1.1502584,1.8370231,12.4535475
498,1778620382.3723435,4.9969378,-1.7604685,0.2174517,-1.1502584,1.8370231,12.4535475
499,1778620382.3823442,4.9969378,-1.7604685,0.2174517,-1.1502584,1.8370231,12.4535475
500,1778620382.3923447,4.9969378,-1.7604685,0.2174517,-2.024406,2.2114832,12.394904
501,1778620382.4023526,5.0849915,-1.5019169,0.20671937,-2.7140722,2.3055563,11.96058
502,1778620382.4123557,5.0849915,-1.5019169,0.20671937,-2.7140722,2.3055563,11.96058
503,1778620382.4223568,4.9598627,-1.282148,0.29111454,-3.4587164,1.9091052,10.98625
504,1778620382.432395,4.9598627,-1.282148,0.29111454,-3.4587164,1.9091052,10.98625
505,1778620382.4423954,4.9598627,-1.282148,0.29111454,-3.4587164,1.9091052,10.98625
506,1778620382.4523966,4.9598627,-1.282148,0.29111454,-3.4587164,1.9091052,10.98625
507,1778620382.4623978,4.9598627,-1.282148,0.29111454,-3.4587164,1.9091052,10.98625
508,1778620382.4723985,4.9598627,-1.282148,0.29111454,-3.4587164,1.9091052,10.98625
509,1778620382.4823992,4.9598627,-1.282148,0.29111454,-3.4587164,1.9091052,10.98625
510,1778620382.4923997,4.9598627,-1.282148,0.29111454,-3.4587164,1.9091052,10.98625
511,1778620382.5024002,4.6615524,-1.2021433,0.5391778,-3.4587164,1.9091052,10.98625
512,1778620382.5124009,4.6615524,-1.2021433,0.5391778,-3.4587164,1.9091052,10.98625
513,1778620382.5224013,4.6615524,-1.2021433,0.5391778,-3.4587164,1.9091052,10.98625
514,1778620382.5324023,4.6615524,-1.2021433,0.5391778,-3.4587164,1.9091052,10.98625
515,1778620382.542403,4.6615524,-1.2021433,0.5391778,-3.2632396,1.2078323,10.072396
516,1778620382.5524042,4.6615524,-1.2021433,0.5391778,-3.2632396,1.2078323,10.072396
517,1778620382.5624049,4.43471,-1.1133577,0.68796694,-3.2632396,1.2078323,10.072396
518,1778620382.57257,4.43471,-1.1133577,0.68796694,-3.2632396,1.2078323,10.072396
519,1778620382.5825727,4.43471,-1.1133577,0.68796694,-3.2632396,1.2078323,10.072396
520,1778620382.5925736,2.997553,-1.1343344,0.8777341,-0.29810202,0.730747,6.586802
521,1778620382.602576,2.997553,-1.1343344,0.8777341,-0.29810202,0.730747,6.586802
522,1778620382.6125875,2.968039,-1.2184857,0.9257858,-0.29810202,0.730747,6.586802
523,1778620382.6225884,2.968039,-1.2184857,0.9257858,-0.29810202,0.730747,6.586802
524,1778620382.632589,2.968039,-1.2184857,0.9257858,-0.29810202,0.730747,6.586802
525,1778620382.6425903,2.8897417,-0.13939838,0.40990198,-1.3683372,1.846186,6.7706723
526,1778620382.6525917,2.8897417,-0.13939838,0.40990198,-1.3683372,1.846186,6.7706723
527,1778620382.6625924,2.8897417,-0.13939838,0.40990198,-1.3683372,1.846186,6.7706723
528,1778620382.6725929,2.8897417,-0.13939838,0.40990198,-1.3683372,1.846186,6.7706723
529,1778620382.6825993,2.8897417,-0.13939838,0.40990198,-1.5693116,1.6244422,6.1653056
530,1778620382.6926017,2.8897417,-0.13939838,0.40990198,-1.5693116,1.6244422,6.1653056
531,1778620382.7026024,2.8897417,-0.13939838,0.40990198,-1.5693116,1.6244422,6.1653056
532,1778620382.7126033,3.2070773,1.3184916,0.15086246,-4.4018917,0.58413947,3.7200139
533,1778620382.722604,3.2070773,1.3184916,0.15086246,-4.4018917,0.58413947,3.7200139
534,1778620382.732605,3.2070773,1.3184916,0.15086246,-4.4018917,0.58413947,3.7200139
535,1778620382.742606,3.2070773,1.3184916,0.15086246,-4.4018917,0.58413947,3.7200139
536,1778620382.7526069,3.5907583,2.0980492,0.8233407,-4.932122,1.1534654,3.8715084
537,1778620382.7626078,3.5907583,2.0980492,0.8233407,-4.932122,1.1534654,3.8715084
538,1778620382.7726085,3.5907583,2.0980492,0.8233407,-4.932122,1.1534654,3.8715084
539,1778620382.7826092,3.5907583,2.0980492,0.8233407,-4.932122,1.1534654,3.8715084
540,1778620382.7926104,3.6988134,2.3890417,0.8862712,-4.932122,1.1534654,3.8715084
541,1778620382.8026109,3.6988134,2.3890417,0.8862712,-4.932122,1.1534654,3.8715084
542,1778620382.8126116,3.6988134,2.3890417,0.8862712,-4.932122,1.1534654,3.8715084
543,1778620382.8226202,3.6988134,2.3890417,0.8862712,-4.932122,1.1534654,3.8715084
544,1778620382.8326232,3.6988134,2.3890417,0.8862712,-4.932122,1.1534654,3.8715084
545,1778620382.8426242,3.6988134,2.3890417,0.8862712,-4.932122,1.1534654,3.8715084
546,1778620382.852625,3.6988134,2.3890417,0.8862712,-4.932122,1.1534654,3.8715084
547,1778620382.8626254,4.5739865,2.8751678,1.5311869,-4.90952,1.1559088,2.7420192
548,1778620382.8726265,4.5739865,2.8751678,1.5311869,-4.90952,1.1559088,2.7420192
549,1778620382.8826277,4.5739865,2.8751678,1.5311869,-4.90952,1.1559088,2.7420192
550,1778620382.892629,4.5739865,2.8751678,1.5311869,-4.274832,0.6012437,2.4646866
551,1778620382.9026325,4.5739865,2.8751678,1.5311869,-4.274832,0.6012437,2.4646866
552,1778620382.912634,4.5739865,2.8751678,1.5311869,-4.274832,0.6012437,2.4646866
553,1778620382.922635,4.5739865,2.8751678,1.5311869,-4.274832,0.6012437,2.4646866
554,1778620382.9326363,4.5739865,2.8751678,1.5311869,-4.274832,0.6012437,2.4646866
555,1778620382.9426367,4.5739865,2.8751678,1.5311869,-4.274832,0.6012437,2.4646866
556,1778620382.9526372,5.081821,3.202748,1.8912078,-4.274832,0.6012437,2.4646866
557,1778620382.9630363,5.081821,3.202748,1.8912078,-4.274832,0.6012437,2.4646866
558,1778620382.9730377,5.081821,3.202748,1.8912078,-4.274832,0.6012437,2.4646866
559,1778620382.9830434,5.081821,3.202748,1.8912078,-4.274832,0.6012437,2.4646866
560,1778620382.993046,5.081821,3.202748,1.8912078,-4.274832,0.6012437,2.4646866
561,1778620383.003047,3.641493,0.5506419,1.2516584,4.3334746,2.5181375,-6.87849
562,1778620383.0130484,3.5644152,-0.86456263,0.13012955,3.953517,1.7899865,-8.860135
563,1778620383.0230498,3.5644152,-0.86456263,0.13012955,3.953517,1.7899865,-8.860135
564,1778620383.0330515,3.5644152,-0.86456263,0.13012955,3.953517,1.7899865,-8.860135
565,1778620383.0430532,3.5644152,-0.86456263,0.13012955,3.953517,1.7899865,-8.860135
566,1778620383.053054,3.5644152,-0.86456263,0.13012955,3.953517,1.7899865,-8.860135
567,1778620383.0630558,3.5644152,-0.86456263,0.13012955,3.953517,1.7899865,-8.860135
568,1778620383.0730565,3.5644152,-0.86456263,0.13012955,4.188089,1.1082615,-9.037286
569,1778620383.0830574,3.5644152,-0.86456263,0.13012955,4.188089,1.1082615,-9.037286
570,1778620383.0930595,3.5644152,-0.86456263,0.13012955,4.188089,1.1082615,-9.037286
571,1778620383.1035955,3.5644152,-0.86456263,0.13012955,4.188089,1.1082615,-9.037286
572,1778620383.1135962,3.5644152,-0.86456263,0.13012955,4.188089,1.1082615,-9.037286
573,1778620383.1235974,3.5644152,-0.86456263,0.13012955,4.188089,1.1082615,-9.037286
574,1778620383.133598,3.5644152,-0.86456263,0.13012955,4.188089,1.1082615,-9.037286
575,1778620383.1435988,3.5644152,-0.86456263,0.13012955,4.188089,1.1082615,-9.037286
576,1778620383.1535995,3.5644152,-0.86456263,0.13012955,4.188089,1.1082615,-9.037286
577,1778620383.1636,3.5644152,-0.86456263,0.13012955,4.188089,1.1082615,-9.037286
578,1778620383.1736007,3.5644152,-0.86456263,0.13012955,4.188089,1.1082615,-9.037286
579,1778620383.1836026,3.5644152,-0.86456263,0.13012955,4.188089,1.1082615,-9.037286
580,1778620383.193604,3.5644152,-0.86456263,0.13012955,4.188089,1.1082615,-9.037286
581,1778620383.2036052,3.1478057,-0.5638134,0.40380403,-0.32681265,0.1547015,-7.8204436
582,1778620383.2136106,3.1478057,-0.5638134,0.40380403,-0.32681265,0.1547015,-7.8204436
583,1778620383.2236135,3.1478057,-0.5638134,0.40380403,-0.32681265,0.1547015,-7.8204436
584,1778620383.233615,3.1478057,-0.5638134,0.40380403,-0.32681265,0.1547015,-7.8204436
585,1778620383.2436154,3.1478057,-0.5638134,0.40380403,-0.32681265,0.1547015,-7.8204436
586,1778620383.2536159,2.306781,-1.3245895,0.35160586,-0.2498437,0.27870706,-7.6506233
587,1778620383.2636166,2.306781,-1.3245895,0.35160586,-0.2498437,0.27870706,-7.6506233
588,1778620383.2736173,2.306781,-1.3245895,0.35160586,-0.2498437,0.27870706,-7.6506233
589,1778620383.283618,2.306781,-1.3245895,0.35160586,0.14477496,0.68309957,-7.128945
590,1778620383.293619,2.306781,-1.3245895,0.35160586,0.14477496,0.68309957,-7.128945
591,1778620383.3036196,2.306781,-1.3245895,0.35160586,0.14477496,0.68309957,-7.128945
592,1778620383.3136206,2.306781,-1.3245895,0.35160586,0.14477496,0.68309957,-7.128945
593,1778620383.3236234,2.306781,-1.3245895,0.35160586,0.14477496,0.68309957,-7.128945
594,1778620383.3336258,2.306781,-1.3245895,0.35160586,0.14477496,0.68309957,-7.128945
595,1778620383.3436263,1.8284603,-1.5231377,0.31721362,0.32314748,0.6592758,-6.4973106
596,1778620383.353627,1.8284603,-1.5231377,0.31721362,0.32314748,0.6592758,-6.4973106
597,1778620383.3636277,1.8284603,-1.5231377,0.31721362,0.32314748,0.6592758,-6.4973106
598,1778620383.3736289,0.825475,-1.9734077,0.28867537,1.2773182,0.9640973,-4.380053
599,1778620383.3836296,0.825475,-1.9734077,0.28867537,1.2773182,0.9640973,-4.380053
600,1778620383.3936303,0.825475,-1.9734077,0.28867537,1.2773182,0.9640973,-4.380053
601,1778620383.4036322,0.825475,-1.9734077,0.28867537,1.2773182,0.9640973,-4.380053
602,1778620383.413633,0.825475,-1.9734077,0.28867537,1.2773182,0.9640973,-4.380053
603,1778620383.4236343,0.28739482,-2.1685412,0.14525238,1.2773182,0.9640973,-4.380053
604,1778620383.433635,0.28739482,-2.1685412,0.14525238,1.2773182,0.9640973,-4.380053
605,1778620383.4436357,0.28739482,-2.1685412,0.14525238,1.2773182,0.9640973,-4.380053
606,1778620383.4536366,0.28739482,-2.1685412,0.14525238,1.2773182,0.9640973,-4.380053
607,1778620383.4636376,0.28739482,-2.1685412,0.14525238,1.2773182,0.9640973,-4.380053
608,1778620383.473638,0.28739482,-2.1685412,0.14525238,1.2773182,0.9640973,-4.380053
609,1778620383.4836388,-0.2426361,-2.4873402,-0.030123709,3.039663,0.2414443,-4.3580623
610,1778620383.4936914,-0.2426361,-2.4873402,-0.030123709,3.039663,0.2414443,-4.3580623
611,1778620383.5036924,-0.2426361,-2.4873402,-0.030123709,3.039663,0.2414443,-4.3580623
612,1778620383.5136938,-1.0270721,-3.0754235,-0.46551496,3.039663,0.2414443,-4.3580623
613,1778620383.5236943,-1.0270721,-3.0754235,-0.46551496,3.039663,0.2414443,-4.3580623
614,1778620383.533695,-1.0270721,-3.0754235,-0.46551496,3.039663,0.2414443,-4.3580623
615,1778620383.5436954,-1.0270721,-3.0754235,-0.46551496,3.039663,0.2414443,-4.3580623
616,1778620383.5536962,-1.0270721,-3.0754235,-0.46551496,3.039663,0.2414443,-4.3580623
617,1778620383.5636966,-1.0270721,-3.0754235,-0.46551496,3.039663,0.2414443,-4.3580623
618,1778620383.5736976,-2.4547164,-3.8191254,-0.41697556,3.4318383,-1.098793,-1.5273147
619,1778620383.5836983,-2.4547164,-3.8191254,-0.41697556,3.4318383,-1.098793,-1.5273147
620,1778620383.5936987,-2.4547164,-3.8191254,-0.41697556,3.4318383,-1.098793,-1.5273147
621,1778620383.6036997,-2.4547164,-3.8191254,-0.41697556,3.4318383,-1.098793,-1.5273147
622,1778620383.6137002,-2.4547164,-3.8191254,-0.41697556,3.4318383,-1.098793,-1.5273147
623,1778620383.6237013,-2.4547164,-3.8191254,-0.41697556,3.4318383,-1.098793,-1.5273147
624,1778620383.6337018,-2.4547164,-3.8191254,-0.41697556,3.4318383,-1.098793,-1.5273147
625,1778620383.6437023,-2.4547164,-3.8191254,-0.41697556,3.4318383,-1.098793,-1.5273147
626,1778620383.653703,-1.3561157,-3.8047342,-0.4991755,1.7104213,0.46746427,6.2184505
627,1778620383.6637032,-1.3561157,-3.8047342,-0.4991755,1.7104213,0.46746427,6.2184505
628,1778620383.673704,-1.3561157,-3.8047342,-0.4991755,1.7104213,0.46746427,6.2184505
629,1778620383.6837049,-1.3561157,-3.8047342,-0.4991755,1.7104213,0.46746427,6.2184505
630,1778620383.6937056,-1.3561157,-3.8047342,-0.4991755,1.7104213,0.46746427,6.2184505
631,1778620383.7037067,-1.3561157,-3.8047342,-0.4991755,1.7104213,0.46746427,6.2184505
632,1778620383.7137072,-1.3561157,-3.8047342,-0.4991755,1.7104213,0.46746427,6.2184505
633,1778620383.723708,-1.3561157,-3.8047342,-0.4991755,1.7104213,0.46746427,6.2184505
634,1778620383.7337084,-1.3561157,-3.8047342,-0.4991755,1.7104213,0.46746427,6.2184505
635,1778620383.7437088,-0.63509804,-3.4452012,-0.7045533,1.7104213,0.46746427,6.2184505
636,1778620383.7537093,-0.63509804,-3.4452012,-0.7045533,1.7104213,0.46746427,6.2184505
637,1778620383.7637098,-0.63509804,-3.4452012,-0.7045533,1.7104213,0.46746427,6.2184505
638,1778620383.7738063,0.14470357,-3.1046934,-0.8240725,1.1514801,0.62812173,7.527534
639,1778620383.783808,0.14470357,-3.1046934,-0.8240725,1.1514801,0.62812173,7.527534
640,1778620383.7938094,0.6727832,-2.860045,-0.8430979,1.1514801,0.62812173,7.527534
641,1778620383.80381,0.6727832,-2.860045,-0.8430979,1.1514801,0.62812173,7.527534
642,1778620383.8138106,0.6727832,-2.860045,-0.8430979,1.1514801,0.62812173,7.527534
643,1778620383.823811,0.6727832,-2.860045,-0.8430979,1.1514801,0.62812173,7.527534
644,1778620383.8338115,0.6727832,-2.860045,-0.8430979,1.1514801,0.62812173,7.527534
645,1778620383.8438125,0.6727832,-2.860045,-0.8430979,1.1514801,0.62812173,7.527534
646,1778620383.8538203,0.6727832,-2.860045,-0.8430979,0.38606653,0.75884676,8.069371
647,1778620383.8638232,0.6727832,-2.860045,-0.8430979,0.38606653,0.75884676,8.069371
648,1778620383.8738244,1.7823601,-2.5149028,-0.5477149,-0.30787584,0.84253526,8.616095
649,1778620383.883825,1.7823601,-2.5149028,-0.5477149,-0.30787584,0.84253526,8.616095
650,1778620383.8938253,1.7823601,-2.5149028,-0.5477149,-0.30787584,0.84253526,8.616095
651,1778620383.903826,1.7823601,-2.5149028,-0.5477149,-0.30787584,0.84253526,8.616095
652,1778620383.9138267,1.7823601,-2.5149028,-0.5477149,-0.30787584,0.84253526,8.616095
653,1778620383.9238276,1.7823601,-2.5149028,-0.5477149,-0.30787584,0.84253526,8.616095
654,1778620383.933829,1.7823601,-2.5149028,-0.5477149,-0.30787584,0.84253526,8.616095
655,1778620383.94383,1.7823601,-2.5149028,-0.5477149,-0.30787584,0.84253526,8.616095
656,1778620383.9538307,2.3748336,-2.444655,-0.2903828,-0.30787584,0.84253526,8.616095
657,1778620383.963832,2.3748336,-2.444655,-0.2903828,-0.30787584,0.84253526,8.616095
658,1778620383.9738324,2.3748336,-2.444655,-0.2903828,-0.30787584,0.84253526,8.616095
659,1778620383.983833,4.3049464,-1.7763232,0.2628202,-2.037234,1.1058179,11.287407
660,1778620383.9938405,4.3049464,-1.7763232,0.2628202,-2.037234,1.1058179,11.287407
661,1778620384.0038438,4.3049464,-1.7763232,0.2628202,-2.037234,1.1058179,11.287407
662,1778620384.0138447,4.3049464,-1.7763232,0.2628202,-2.9211555,0.6702714,11.262972
663,1778620384.0238454,4.3049464,-1.7763232,0.2628202,-2.9211555,0.6702714,11.262972
664,1778620384.0338464,4.3049464,-1.7763232,0.2628202,-2.9211555,0.6702714,11.262972
665,1778620384.0438473,4.3049464,-1.7763232,0.2628202,-2.9211555,0.6702714,11.262972
666,1778620384.0538476,4.3049464,-1.7763232,0.2628202,-2.9211555,0.6702714,11.262972
667,1778620384.0638483,4.3049464,-1.7763232,0.2628202,-2.9211555,0.6702714,11.262972
668,1778620384.0738497,4.3049464,-1.7763232,0.2628202,-2.9211555,0.6702714,11.262972
669,1778620384.0838501,4.3049464,-1.7763232,0.2628202,-2.9211555,0.6702714,11.262972
670,1778620384.093851,3.4953868,-1.4919163,0.8955401,-0.29749113,-0.31932956,9.24162
671,1778620384.1038518,3.4953868,-1.4919163,0.8955401,-0.29749113,-0.31932956,9.24162
672,1778620384.1138525,3.4953868,-1.4919163,0.8955401,-0.29749113,-0.31932956,9.24162
673,1778620384.1238563,3.3736727,-1.5360652,0.6569896,0.74220073,-0.24541493,9.602642
674,1778620384.1338744,3.3736727,-1.5360652,0.6569896,0.74220073,-0.24541493,9.602642
675,1778620384.143876,3.3736727,-1.5360652,0.6569896,0.74220073,-0.24541493,9.602642
676,1778620384.1538775,3.3736727,-1.5360652,0.6569896,0.74220073,-0.24541493,9.602642
677,1778620384.164412,3.3736727,-1.5360652,0.6569896,0.74220073,-0.24541493,9.602642
678,1778620384.174413,3.3736727,-1.5360652,0.6569896,0.74220073,-0.24541493,9.602642
679,1778620384.1844134,3.3736727,-1.5360652,0.6569896,0.74220073,-0.24541493,9.602642
680,1778620384.194414,3.3736727,-1.5360652,0.6569896,0.74220073,-0.24541493,9.602642
681,1778620384.204415,3.409528,-1.4914285,0.50307816,0.74220073,-0.24541493,9.602642
682,1778620384.2144156,3.409528,-1.4914285,0.50307816,0.74220073,-0.24541493,9.602642
683,1778620384.2244165,3.409528,-1.4914285,0.50307816,0.74220073,-0.24541493,9.602642
684,1778620384.2344172,3.409528,-1.4914285,0.50307816,0.74220073,-0.24541493,9.602642
685,1778620384.2444181,3.409528,-1.4914285,0.50307816,0.74220073,-0.24541493,9.602642
686,1778620384.2544186,3.409528,-1.4914285,0.50307816,0.74220073,-0.24541493,9.602642
687,1778620384.2644196,3.5458777,-1.2672691,0.3913643,1.4898992,-1.1458296,9.550718
688,1778620384.27442,3.5458777,-1.2672691,0.3913643,1.4898992,-1.1458296,9.550718
689,1778620384.2844205,3.5458777,-1.2672691,0.3913643,1.4898992,-1.1458296,9.550718
690,1778620384.2944212,3.5458777,-1.2672691,0.3913643,1.4898992,-1.1458296,9.550718
691,1778620384.304422,3.5458777,-1.2672691,0.3913643,1.4898992,-1.1458296,9.550718
692,1778620384.3144226,3.5458777,-1.2672691,0.3913643,1.4898992,-1.1458296,9.550718
693,1778620384.324424,3.7080824,-1.0316455,0.51722527,1.4898992,-1.1458296,9.550718
694,1778620384.3344245,3.7080824,-1.0316455,0.51722527,1.4898992,-1.1458296,9.550718
695,1778620384.3444257,3.7080824,-1.0316455,0.51722527,1.4898992,-1.1458296,9.550718
696,1778620384.3544266,3.7080824,-1.0316455,0.51722527,1.897346,-1.0474803,8.011339
697,1778620384.364427,3.7080824,-1.0316455,0.51722527,1.897346,-1.0474803,8.011339
698,1778620384.3744283,3.7888186,-0.9462747,0.57552135,1.897346,-1.0474803,8.011339
699,1778620384.384431,3.7888186,-0.9462747,0.57552135,1.897346,-1.0474803,8.011339
700,1778620384.3944323,3.7888186,-0.9462747,0.57552135,1.897346,-1.0474803,8.011339
701,1778620384.4044335,3.7568653,-0.9596901,0.6094258,1.897346,-1.0474803,8.011339
702,1778620384.4144342,3.7568653,-0.9596901,0.6094258,1.897346,-1.0474803,8.011339
703,1778620384.4244366,3.667836,-0.9996925,0.64308625,1.4294236,-0.26435173,7.279523
704,1778620384.434438,3.667836,-0.9996925,0.64308625,1.4294236,-0.26435173,7.279523
705,1778620384.4444387,3.667836,-0.9996925,0.64308625,1.4294236,-0.26435173,7.279523
706,1778620384.45444,4.4310513,2.8393118,0.87870985,-4.9571676,2.2860088,2.88374
707,1778620384.4644415,4.7466793,3.1129866,1.0750628,-4.6132507,2.3012803,2.946048
708,1778620384.4744425,4.7466793,3.1129866,1.0750628,-4.6132507,2.3012803,2.946048
709,1778620384.4844432,4.7466793,3.1129866,1.0750628,-4.6132507,2.3012803,2.946048
710,1778620384.4944441,4.7466793,3.1129866,1.0750628,-4.6132507,2.3012803,2.946048
711,1778620384.5044448,4.7466793,3.1129866,1.0750628,-4.6132507,2.3012803,2.946048
712,1778620384.5144453,4.7466793,3.1129866,1.0750628,-4.6132507,2.3012803,2.946048
713,1778620384.5244458,6.343358,4.3969636,1.677537,-3.4086254,1.2982404,1.9271257
714,1778620384.5344465,6.343358,4.3969636,1.677537,-3.4086254,1.2982404,1.9271257
715,1778620384.5444472,6.343358,4.3969636,1.677537,-3.4086254,1.2982404,1.9271257
716,1778620384.55476,7.0419354,4.888212,2.3756263,-3.4086254,1.2982404,1.9271257
717,1778620384.5647612,7.0419354,4.888212,2.3756263,-3.4086254,1.2982404,1.9271257
718,1778620384.5747623,7.0419354,4.888212,2.3756263,-2.629162,0.99158627,0.5080868
719,1778620384.5847628,7.0419354,4.888212,2.3756263,-2.629162,0.99158627,0.5080868
720,1778620384.5947635,7.0419354,4.888212,2.3756263,-2.629162,0.99158627,0.5080868
721,1778620384.604764,7.0419354,4.888212,2.3756263,-2.629162,0.99158627,0.5080868
722,1778620384.6147647,7.0419354,4.888212,2.3756263,-2.629162,0.99158627,0.5080868
723,1778620384.6247663,7.2673144,4.9128475,2.8434584,-1.721417,0.97264946,-1.1223114
724,1778620384.6347685,7.1509657,4.706982,3.056398,0.09834923,2.023337,-4.203513
725,1778620384.6447694,7.1509657,4.706982,3.056398,0.09834923,2.023337,-4.203513
726,1778620384.6547716,7.1509657,4.706982,3.056398,0.09834923,2.023337,-4.203513
727,1778620384.6647737,2.6714363,0.20476803,0.9235905,5.177079,0.51266825,-7.452092
728,1778620384.6747751,2.6714363,0.20476803,0.9235905,5.177079,0.51266825,-7.452092
729,1778620384.6847765,2.6714363,0.20476803,0.9235905,5.177079,0.51266825,-7.452092
730,1778620384.6947775,2.6714363,0.20476803,0.9235905,5.177079,0.51266825,-7.452092
731,1778620384.7047782,2.6714363,0.20476803,0.9235905,5.177079,0.51266825,-7.452092
732,1778620384.7147796,2.6714363,0.20476803,0.9235905,5.177079,0.51266825,-7.452092
733,1778620384.724781,2.7204638,-0.23598938,0.84090275,5.177079,0.51266825,-7.452092
734,1778620384.7347817,2.7204638,-0.23598938,0.84090275,5.177079,0.51266825,-7.452092
735,1778620384.7447834,3.1099985,-1.0455488,0.8265117,0.086742796,1.2035563,-8.32624
736,1778620384.7547843,3.1099985,-1.0455488,0.8265117,0.086742796,1.2035563,-8.32624
737,1778620384.764785,3.1099985,-1.0455488,0.8265117,0.086742796,1.2035563,-8.32624
738,1778620384.7747862,3.1099985,-1.0455488,0.8265117,0.086742796,1.2035563,-8.32624
739,1778620384.7847867,3.1099985,-1.0455488,0.8265117,0.086742796,1.2035563,-8.32624
740,1778620384.7947874,3.0585322,-1.0233524,0.8650505,0.13744457,1.2652537,-8.083726
741,1778620384.8047879,3.0585322,-1.0233524,0.8650505,0.13744457,1.2652537,-8.083726
742,1778620384.8147883,3.0585322,-1.0233524,0.8650505,0.13744457,1.2652537,-8.083726
743,1778620384.824789,3.0585322,-1.0233524,0.8650505,0.13744457,1.2652537,-8.083726
744,1778620384.8347933,3.0585322,-1.0233524,0.8650505,0.47464192,1.1583524,-7.8796973
745,1778620384.844795,3.0585322,-1.0233524,0.8650505,0.47464192,1.1583524,-7.8796973
746,1778620384.8547957,3.0585322,-1.0233524,0.8650505,0.47464192,1.1583524,-7.8796973
747,1778620384.864796,3.0585322,-1.0233524,0.8650505,0.47464192,1.1583524,-7.8796973
748,1778620384.8747969,3.0585322,-1.0233524,0.8650505,0.47464192,1.1583524,-7.8796973
749,1778620384.8847978,3.0585322,-1.0233524,0.8650505,0.47464192,1.1583524,-7.8796973
750,1778620384.894798,3.0585322,-1.0233524,0.8650505,0.47464192,1.1583524,-7.8796973
751,1778620384.9047987,3.0399945,-0.95603144,0.83139,0.47464192,1.1583524,-7.8796973
752,1778620384.9147997,3.0399945,-0.95603144,0.83139,0.47464192,1.1583524,-7.8796973
753,1778620384.9248004,3.0399945,-0.95603144,0.83139,0.47464192,1.1583524,-7.8796973
754,1778620384.934801,3.0399945,-0.95603144,0.83139,0.8778127,1.0600032,-7.873589
755,1778620384.944802,3.0399945,-0.95603144,0.83139,0.8778127,1.0600032,-7.873589
756,1778620384.9548028,3.0399945,-0.95603144,0.83139,0.8778127,1.0600032,-7.873589
757,1778620384.9648042,3.1426833,-0.93212754,0.92724925,1.097724,1.092379,-7.903521
758,1778620384.9748049,3.1426833,-0.93212754,0.92724925,1.097724,1.092379,-7.903521
759,1778620384.9848056,3.0890217,-1.0104249,0.8333413,1.5870267,1.3953679,-7.9383407
760,1778620384.9948063,3.0890217,-1.0104249,0.8333413,1.5870267,1.3953679,-7.9383407
761,1778620385.0048087,3.0890217,-1.0104249,0.8333413,1.5870267,1.3953679,-7.9383407
762,1778620385.0148118,3.0890217,-1.0104249,0.8333413,1.7806709,1.4607304,-7.7831807
763,1778620385.0248127,3.0890217,-1.0104249,0.8333413,1.7806709,1.4607304,-7.7831807
764,1778620385.0348136,3.0890217,-1.0104249,0.8333413,1.7806709,1.4607304,-7.7831807
765,1778620385.044816,2.7992487,-1.1228703,0.5672282,2.00608,1.3642138,-7.282272
766,1778620385.0548182,2.7992487,-1.1228703,0.5672282,2.00608,1.3642138,-7.282272
767,1778620385.0648186,2.7992487,-1.1228703,0.5672282,2.00608,1.3642138,-7.282272
768,1778620385.0748196,2.271901,-1.0782337,0.11037229,0.7165444,-0.4977021,-3.6427393
769,1778620385.0848203,2.271901,-1.0782337,0.11037229,0.7165444,-0.4977021,-3.6427393
770,1778620385.0948212,2.271901,-1.0782337,0.11037229,0.7165444,-0.4977021,-3.6427393
771,1778620385.1048217,2.271901,-1.0782337,0.11037229,0.7165444,-0.4977021,-3.6427393
772,1778620385.1148224,2.271901,-1.0782337,0.11037229,0.7165444,-0.4977021,-3.6427393
773,1778620385.1248236,2.271901,-1.0782337,0.11037229,0.7165444,-0.4977021,-3.6427393
774,1778620385.1348245,2.271901,-1.0782337,0.11037229,0.7165444,-0.4977021,-3.6427393
775,1778620385.1448255,2.271901,-1.0782337,0.11037229,0.7165444,-0.4977021,-3.6427393
776,1778620385.154826,2.271901,-1.0782337,0.11037229,0.7165444,-0.4977021,-3.6427393
777,1778620385.1648262,2.271901,-1.0782337,0.11037229,0.7165444,-0.4977021,-3.6427393
778,1778620385.1748276,2.2633638,-1.2745866,0.1823277,-0.65790135,1.196226,-2.9524622
779,1778620385.184829,2.2633638,-1.2745866,0.1823277,-0.65790135,1.196226,-2.9524622
780,1778620385.19483,2.2633638,-1.2745866,0.1823277,-0.65790135,1.196226,-2.9524622
781,1778620385.2048302,2.2633638,-1.2745866,0.1823277,-0.65790135,1.196226,-2.9524622
782,1778620385.214838,1.1067109,-1.2823919,-0.5450318,-1.2858703,1.9176573,-2.8070765
783,1778620385.224842,1.1067109,-1.2823919,-0.5450318,-1.2858703,1.9176573,-2.8070765
784,1778620385.2348435,1.1067109,-1.2823919,-0.5450318,-1.2858703,1.9176573,-2.8070765
785,1778620385.244845,0.4027674,-1.3006856,-0.50185853,-2.652375,2.7527094,-2.9194756
786,1778620385.2548468,0.4027674,-1.3006856,-0.50185853,-2.652375,2.7527094,-2.9194756
787,1778620385.2648478,-3.1186576,-2.6273484,-2.140003,4.7397,-0.9088141,-1.4521782
788,1778620385.274848,-3.1186576,-2.6273484,-2.140003,4.7397,-0.9088141,-1.4521782
789,1778620385.284849,-3.1186576,-2.6273484,-2.140003,4.7397,-0.9088141,-1.4521782
790,1778620385.2948556,-3.1750023,-2.5429533,-1.1992164,3.2003205,-0.77747816,-0.64705855
791,1778620385.3048584,-3.1750023,-2.5429533,-1.1992164,3.2003205,-0.77747816,-0.64705855
792,1778620385.3148596,-3.4942894,-2.409287,-0.95432395,3.2003205,-0.77747816,-0.64705855
793,1778620385.3248603,-3.4942894,-2.409287,-0.95432395,3.2003205,-0.77747816,-0.64705855
794,1778620385.334861,-3.4942894,-2.409287,-0.95432395,3.2003205,-0.77747816,-0.64705855
795,1778620385.344862,2.9638925,-2.6014931,0.19208437,0.9468404,-0.6504183,8.59899
796,1778620385.3548772,2.9638925,-2.6014931,0.19208437,0.9468404,-0.6504183,8.59899
797,1778620385.3648782,2.9638925,-2.6014931,0.19208437,0.9468404,-0.6504183,8.59899
798,1778620385.3748798,3.2939117,-2.382456,0.5550324,0.60781044,-0.25702137,8.559284
799,1778620385.3848815,3.2939117,-2.382456,0.5550324,0.60781044,-0.25702137,8.559284
800,1778620385.3948822,3.2939117,-2.382456,0.5550324,0.60781044,-0.25702137,8.559284
801,1778620385.404883,3.2939117,-2.382456,0.5550324,0.60781044,-0.25702137,8.559284
802,1778620385.4148834,3.2939117,-2.382456,0.5550324,0.60781044,-0.25702137,8.559284
803,1778620385.4248846,3.2939117,-2.382456,0.5550324,0.60781044,-0.25702137,8.559284
804,1778620385.434886,3.2939117,-2.382456,0.5550324,0.60781044,-0.25702137,8.559284
805,1778620385.444887,3.2939117,-2.382456,0.5550324,0.60781044,-0.25702137,8.559284
806,1778620385.4548893,3.2939117,-2.382456,0.5550324,0.60781044,-0.25702137,8.559284
807,1778620385.4648905,3.2939117,-2.382456,0.5550324,0.60781044,-0.25702137,8.559284
808,1778620385.4748914,3.2939117,-2.382456,0.5550324,0.60781044,-0.25702137,8.559284
809,1778620385.484893,3.3290355,-1.9399912,0.79285115,-0.8772018,1.0942116,8.360143
810,1778620385.4948945,3.3290355,-1.9399912,0.79285115,-0.8772018,1.0942116,8.360143
811,1778620385.504895,3.3290355,-1.9399912,0.79285115,-0.8772018,1.0942116,8.360143
812,1778620385.5148957,3.3290355,-1.9399912,0.79285115,-0.8772018,1.0942116,8.360143
813,1778620385.5248966,3.3290355,-1.9399912,0.79285115,-0.8772018,1.0942116,8.360143
814,1778620385.5348976,2.800956,-1.7165636,1.2421457,-3.3994625,0.67821264,7.5690727
815,1778620385.544898,2.800956,-1.7165636,1.2421457,-3.3994625,0.67821264,7.5690727
816,1778620385.5548987,2.800956,-1.7165636,1.2421457,-3.3994625,0.67821264,7.5690727
817,1778620385.5649002,3.1387806,-1.2694643,1.4789886,-1.8478659,-0.35414886,7.724232
818,1778620385.5749032,3.1387806,-1.2694643,1.4789886,-1.7476841,0.027030766,7.573349
819,1778620385.5849063,3.1387806,-1.2694643,1.4789886,-1.7476841,0.027030766,7.573349
820,1778620385.5949078,3.1387806,-1.2694643,1.4789886,-1.7476841,0.027030766,7.573349
821,1778620385.604933,3.105364,-1.3111742,1.2719035,-1.7476841,0.027030766,7.573349
822,1778620385.6149347,3.105364,-1.3111742,1.2719035,-1.7476841,0.027030766,7.573349
823,1778620385.6249354,3.105364,-1.3111742,1.2719035,-1.7476841,0.027030766,7.573349
824,1778620385.634943,3.2131753,-1.3194673,1.2014115,-1.874744,0.38255405,7.767604
825,1778620385.6449459,3.2131753,-1.3194673,1.2014115,-1.874744,0.38255405,7.767604
826,1778620385.6549473,4.006636,-0.25135612,0.87846595,-2.4190245,0.116217025,6.312524
827,1778620385.6649485,4.006636,-0.25135612,0.87846595,-2.4190245,0.116217025,6.312524
828,1778620385.6749494,4.006636,-0.25135612,0.87846595,-2.4190245,0.116217025,6.312524
829,1778620385.6849525,3.8283331,0.027196707,1.0116444,-2.4190245,0.116217025,6.312524
830,1778620385.6949544,3.8283331,0.027196707,1.0116444,-2.4190245,0.116217025,6.312524
831,1778620385.7049549,3.8283331,0.027196707,1.0116444,-2.4190245,0.116217025,6.312524
832,1778620385.7149558,3.8283331,0.027196707,1.0116444,-2.4190245,0.116217025,6.312524
833,1778620385.7249563,3.8283331,0.027196707,1.0116444,-2.4190245,0.116217025,6.312524
834,1778620385.734957,3.8283331,0.027196707,1.0116444,-2.4190245,0.116217025,6.312524
835,1778620385.7449598,3.2812278,0.20281671,0.86309916,-2.4190245,0.116217025,6.312524
836,1778620385.7549615,3.2812278,0.20281671,0.86309916,-2.4190245,0.116217025,6.312524
837,1778620385.7649634,3.2812278,0.20281671,0.86309916,-2.4190245,0.116217025,6.312524
838,1778620385.7749646,3.2812278,0.20281671,0.86309916,-2.4190245,0.116217025,6.312524
839,1778620385.7849653,3.6061249,0.15964346,1.100674,-2.5772386,0.40026915,5.8659816
840,1778620385.7949667,3.6061249,0.15964346,1.100674,-2.5772386,0.40026915,5.8659816
841,1778620385.8049674,3.6061249,0.15964346,1.100674,-2.5772386,0.40026915,5.8659816
842,1778620385.8149683,3.4575796,0.91676074,0.3008712,-4.8814206,1.9066617,5.2154107
843,1778620385.8249693,3.4575796,0.91676074,0.3008712,-4.8722577,1.5914555,5.10179
844,1778620385.83497,3.4575796,0.91676074,0.3008712,-4.8722577,1.5914555,5.10179
845,1778620385.8449705,3.9632192,2.456119,0.95164096,-3.650528,0.56153744,4.057822
846,1778620385.8549714,3.9632192,2.456119,0.95164096,-3.650528,0.56153744,4.057822
847,1778620385.8649719,3.9632192,2.456119,0.95164096,-3.650528,0.56153744,4.057822
848,1778620385.8749735,3.9632192,2.456119,0.95164096,-3.650528,0.56153744,4.057822
849,1778620385.8849819,3.9632192,2.456119,0.95164096,-3.1099126,-0.16172644,3.8018696
850,1778620385.8949852,3.9632192,2.456119,0.95164096,-3.1099126,-0.16172644,3.8018696
851,1778620385.904986,3.9632192,2.456119,0.95164096,-3.1099126,-0.16172644,3.8018696
852,1778620385.914987,3.9632192,2.456119,0.95164096,-3.1099126,-0.16172644,3.8018696
853,1778620385.9249885,3.9632192,2.456119,0.95164096,-3.1099126,-0.16172644,3.8018696
854,1778620385.9349892,3.9632192,2.456119,0.95164096,-3.1099126,-0.16172644,3.8018696
855,1778620385.9453242,3.9632192,2.456119,0.95164096,-3.1099126,-0.16172644,3.8018696
856,1778620385.9553256,3.9632192,2.456119,0.95164096,-2.33106,-0.7231112,3.5324783
857,1778620385.965326,4.677407,3.0778625,1.3819098,-2.33106,-0.7231112,3.5324783
858,1778620385.9753268,4.677407,3.0778625,1.3819098,-2.33106,-0.7231112,3.5324783
859,1778620385.9853277,4.677407,3.0778625,1.3819098,-2.33106,-0.7231112,3.5324783
860,1778620385.9953296,4.677407,3.0778625,1.3819098,-2.33106,-0.7231112,3.5324783
861,1778620386.0053327,4.677407,3.0778625,1.3819098,-2.33106,-0.7231112,3.5324783
862,1778620386.015344,4.677407,3.0778625,1.3819098,-2.33106,-0.7231112,3.5324783
863,1778620386.025345,4.677407,3.0778625,1.3819098,-2.33106,-0.7231112,3.5324783
864,1778620386.0355377,4.677407,3.0778625,1.3819098,-2.33106,-0.7231112,3.5324783
865,1778620386.045539,4.677407,3.0778625,1.3819098,-1.66705,-0.696844,3.267363
866,1778620386.0555396,4.677407,3.0778625,1.3819098,-1.66705,-0.696844,3.267363
867,1778620386.0655403,4.8130245,3.395442,1.4326446,-1.66705,-0.696844,3.267363
868,1778620386.075541,4.8130245,3.395442,1.4326446,-1.66705,-0.696844,3.267363
869,1778620386.085542,4.8130245,3.395442,1.4326446,-1.66705,-0.696844,3.267363
870,1778620386.0955431,4.8130245,3.395442,1.4326446,-1.111163,-0.7799216,2.9759805
871,1778620386.1055448,4.8130245,3.395442,1.4326446,-1.111163,-0.7799216,2.9759805
872,1778620386.1155455,4.8130245,3.395442,1.4326446,-1.111163,-0.7799216,2.9759805
873,1778620386.125546,4.8130245,3.395442,1.4326446,-1.111163,-0.7799216,2.9759805
874,1778620386.1355467,4.8130245,3.395442,1.4326446,-1.111163,-0.7799216,2.9759805
875,1778620386.1455472,4.8130245,3.395442,1.4326446,-1.111163,-0.7799216,2.9759805
876,1778620386.1555483,4.8130245,3.395442,1.4326446,-1.111163,-0.7799216,2.9759805
877,1778620386.1655507,5.2764664,3.702289,1.5867999,-1.111163,-0.7799216,2.9759805
878,1778620386.175552,5.2764664,3.702289,1.5867999,-1.111163,-0.7799216,2.9759805
879,1778620386.1855533,6.1091976,4.3781824,1.5707015,0.72265303,-1.1763729,3.063945
880,1778620386.1955545,6.1091976,4.3781824,1.5707015,0.72265303,-1.1763729,3.063945
881,1778620386.2055547,6.1091976,4.3781824,1.5707015,0.72265303,-1.1763729,3.063945
882,1778620386.2155554,6.1091976,4.3781824,1.5707015,0.72265303,-1.1763729,3.063945
883,1778620386.2255561,6.1091976,4.3781824,1.5707015,0.72265303,-1.1763729,3.063945
884,1778620386.2355566,6.1091976,4.3781824,1.5707015,0.72265303,-1.1763729,3.063945
885,1778620386.2455604,6.1091976,4.3781824,1.5707015,0.72265303,-1.1763729,3.063945
886,1778620386.2555623,6.1091976,4.3781824,1.5707015,0.72265303,-1.1763729,3.063945
887,1778620386.2655632,6.1091976,4.3781824,1.5707015,1.9938626,-1.7487532,2.0945027
888,1778620386.2755666,6.1091976,4.3781824,1.5707015,1.9938626,-1.7487532,2.0945027
889,1778620386.2855678,6.1091976,4.3781824,1.5707015,1.9938626,-1.7487532,2.0945027
890,1778620386.2955685,6.1091976,4.3781824,1.5707015,1.9938626,-1.7487532,2.0945027
891,1778620386.30557,6.1091976,4.3781824,1.5707015,1.9938626,-1.7487532,2.0945027
892,1778620386.3155706,6.1091976,4.3781824,1.5707015,1.9938626,-1.7487532,2.0945027
893,1778620386.325571,6.1091976,4.3781824,1.5707015,1.9938626,-1.7487532,2.0945027
894,1778620386.3355718,6.1091976,4.3781824,1.5707015,1.9938626,-1.7487532,2.0945027
895,1778620386.345573,7.175114,5.212621,1.4426452,1.9938626,-1.7487532,2.0945027
896,1778620386.3555744,6.867535,4.8286963,1.0472562,2.7831,-1.2087487,-2.3330452
897,1778620386.3655748,6.867535,4.8286963,1.0472562,2.7831,-1.2087487,-2.3330452
898,1778620386.3758876,6.867535,4.8286963,1.0472562,2.7831,-1.2087487,-2.3330452
899,1778620386.3858888,6.867535,4.8286963,1.0472562,2.7831,-1.2087487,-2.3330452
900,1778620386.3958895,6.867535,4.8286963,1.0472562,2.7831,-1.2087487,-2.3330452
901,1778620386.4058902,6.867535,4.8286963,1.0472562,2.7831,-1.2087487,-2.3330452
902,1778620386.415894,6.867535,4.8286963,1.0472562,2.7831,-1.2087487,-2.3330452
903,1778620386.4258957,6.867535,4.8286963,1.0472562,2.7831,-1.2087487,-2.3330452
904,1778620386.4358964,2.4258122,-0.9199317,0.2789187,1.4874557,-0.049938194,-7.530894
905,1778620386.445903,-2.3459296,-2.7651613,-1.0443293,1.6249003,-1.7420336,-4.524828
906,1778620386.4559057,-2.3459296,-2.7651613,-1.0443293,1.6249003,-1.7420336,-4.524828
907,1778620386.4662614,-2.3459296,-2.7651613,-1.0443293,1.6249003,-1.7420336,-4.524828
908,1778620386.4762623,-2.3459296,-2.7651613,-1.0443293,1.6249003,-1.7420336,-4.524828
909,1778620386.4862628,-2.3459296,-2.7651613,-1.0443293,1.6249003,-1.7420336,-4.524828
910,1778620386.4962635,-2.3459296,-2.7651613,-1.0443293,-0.8796453,2.1888812,-2.2676828
911,1778620386.506264,-2.3459296,-2.7651613,-1.0443293,-0.8796453,2.1888812,-2.2676828
912,1778620386.5162647,-2.3459296,-2.7651613,-1.0443293,-0.8796453,2.1888812,-2.2676828
913,1778620386.5262654,-2.3459296,-2.7651613,-1.0443293,-0.8796453,2.1888812,-2.2676828
914,1778620386.5362663,-2.3459296,-2.7651613,-1.0443293,-0.8796453,2.1888812,-2.2676828
915,1778620386.5462675,-2.3459296,-2.7651613,-1.0443293,-0.8796453,2.1888812,-2.2676828
916,1778620386.5562766,-2.9842596,-3.0012727,-0.6923575,-0.8796453,2.1888812,-2.2676828
917,1778620386.5662794,-2.9842596,-3.0012727,-0.6923575,-0.8796453,2.1888812,-2.2676828
918,1778620386.57628,-2.9842596,-3.0012727,-0.6923575,-0.8796453,2.1888812,-2.2676828
919,1778620386.5862858,-2.9842596,-3.0012727,-0.6923575,-0.8796453,2.1888812,-2.2676828
920,1778620386.5962882,-2.9842596,-3.0012727,-0.6923575,-0.8796453,2.1888812,-2.2676828
921,1778620386.6062891,-2.9842596,-3.0012727,-0.6923575,-0.8796453,2.1888812,-2.2676828
922,1778620386.6166422,-2.9842596,-3.0012727,-0.6923575,-0.8796453,2.1888812,-2.2676828
923,1778620386.626643,-2.9842596,-3.0012727,-0.6923575,-0.8796453,2.1888812,-2.2676828
924,1778620386.6366436,-2.9842596,-3.0012727,-0.6923575,-0.8796453,2.1888812,-2.2676828
925,1778620386.646829,-2.9842596,-3.0012727,-0.6923575,-0.8796453,2.1888812,-2.2676828
926,1778620386.6568296,-2.9842596,-3.0012727,-0.6923575,-0.8796453,2.1888812,-2.2676828
927,1778620386.6668308,-2.9842596,-3.0012727,-0.6923575,-0.8796453,2.1888812,-2.2676828
928,1778620386.6768315,-2.9842596,-3.0012727,-0.6923575,-0.8796453,2.1888812,-2.2676828
929,1778620386.6868324,-2.9842596,-3.0012727,-0.6923575,-0.49480048,0.04535671,-1.29091
930,1778620386.6968331,-2.9842596,-3.0012727,-0.6923575,-0.49480048,0.04535671,-1.29091
931,1778620386.7068338,-2.9842596,-3.0012727,-0.6923575,-0.49480048,0.04535671,-1.29091
932,1778620386.7168345,-2.9842596,-3.0012727,-0.6923575,-0.49480048,0.04535671,-1.29091
933,1778620386.726835,-2.9842596,-3.0012727,-0.6923575,-0.11300998,-0.44577858,-0.80649424
934,1778620386.7370422,-2.9842596,-3.0012727,-0.6923575,-0.11300998,-0.44577858,-0.80649424
935,1778620386.7470434,-2.9842596,-3.0012727,-0.6923575,-0.11300998,-0.44577858,-0.80649424
936,1778620386.7570446,-2.9842596,-3.0012727,-0.6923575,-0.11300998,-0.44577858,-0.80649424
937,1778620386.7670453,-2.9842596,-3.0012727,-0.6923575,-0.11300998,-0.44577858,-0.80649424
938,1778620386.7770464,-2.9842596,-3.0012727,-0.6923575,-0.11300998,-0.44577858,-0.80649424
939,1778620386.7870471,-2.9842596,-3.0012727,-0.6923575,-0.11300998,-0.44577858,-0.80649424
940,1778620386.797048,-2.9842596,-3.0012727,-0.6923575,-0.11300998,-0.44577858,-0.80649424
941,1778620386.8070488,-2.9842596,-3.0012727,-0.6923575,-0.11300998,-0.44577858,-0.80649424
942,1778620386.8170495,-2.9842596,-3.0012727,-0.6923575,-0.11300998,-0.44577858,-0.80649424
943,1778620386.8270504,-2.9842596,-3.0012727,-0.6923575,-0.11300998,-0.44577858,-0.80649424
944,1778620386.8370514,-3.1869543,-2.9761493,-0.3096522,-0.11300998,-0.44577858,-0.80649424
945,1778620386.8470519,-3.1869543,-2.9761493,-0.3096522,-0.11300998,-0.44577858,-0.80649424
946,1778620386.8570526,-3.1869543,-2.9761493,-0.3096522,-0.11300998,-0.44577858,-0.80649424
947,1778620386.8670542,-3.1869543,-2.9761493,-0.3096522,-0.11300998,-0.44577858,-0.80649424
948,1778620386.8770554,-3.1869543,-2.9761493,-0.3096522,-0.11300998,-0.44577858,-0.80649424
949,1778620386.8870564,-3.1869543,-2.9761493,-0.3096522,-0.11300998,-0.44577858,-0.80649424
950,1778620386.897057,-3.1869543,-2.9761493,-0.3096522,-0.11300998,-0.44577858,-0.80649424
951,1778620386.907058,-3.615272,-2.4224584,0.17379062,-0.1197295,1.6403246,1.8898629
952,1778620386.9170594,-3.615272,-2.4224584,0.17379062,-0.1197295,1.6403246,1.8898629
953,1778620386.9270604,-3.615272,-2.4224584,0.17379062,-0.1197295,1.6403246,1.8898629
954,1778620386.9370615,-3.615272,-2.4224584,0.17379062,-0.1197295,1.6403246,1.8898629
955,1778620386.9470627,-3.615272,-2.4224584,0.17379062,-0.1197295,1.6403246,1.8898629
956,1778620386.9570632,-3.615272,-2.4224584,0.17379062,-0.1197295,1.6403246,1.8898629
957,1778620386.967064,-3.615272,-2.4224584,0.17379062,-0.1197295,1.6403246,1.8898629
958,1778620386.9770648,-3.615272,-2.4224584,0.17379062,-0.1197295,1.6403246,1.8898629
959,1778620386.9870834,-3.615272,-2.4224584,0.17379062,-0.1197295,1.6403246,1.8898629
960,1778620386.997084,-3.615272,-2.4224584,0.17379062,-0.1197295,1.6403246,1.8898629
961,1778620387.0070846,-3.615272,-2.4224584,0.17379062,-0.1197295,1.6403246,1.8898629
962,1778620387.0170858,-1.1026863,-2.8966324,-1.3743484,-0.1197295,1.6403246,1.8898629
963,1778620387.0270865,-1.1026863,-2.8966324,-1.3743484,-0.1197295,1.6403246,1.8898629
964,1778620387.037087,-1.1026863,-2.8966324,-1.3743484,-0.1197295,1.6403246,1.8898629
965,1778620387.0470884,-0.204829,-2.6941814,-1.3070275,3.3957973,-1.3651301,6.7120295
966,1778620387.0570927,-0.204829,-2.6941814,-1.3070275,3.1428993,-1.6235259,7.2086625
967,1778620387.0670943,-0.204829,-2.6941814,-1.3070275,3.1428993,-1.6235259,7.2086625
968,1778620387.0774639,-0.204829,-2.6941814,-1.3070275,3.1428993,-1.6235259,7.2086625
969,1778620387.087465,0.61399925,-2.5666132,-1.0843315,2.6597052,-1.613752,7.6240506
970,1778620387.0974658,0.61399925,-2.5666132,-1.0843315,2.6597052,-1.613752,7.6240506
971,1778620387.107467,2.6260679,-2.5061219,-0.19476746,1.0781764,-1.0438151,9.623411
972,1778620387.1174684,2.6260679,-2.5061219,-0.19476746,1.0781764,-1.0438151,9.623411
973,1778620387.1274877,2.6260679,-2.5061219,-0.19476746,1.0781764,-1.0438151,9.623411
974,1778620387.137501,2.6260679,-2.5061219,-0.19476746,1.0781764,-1.0438151,9.623411
975,1778620387.1475017,2.6260679,-2.5061219,-0.19476746,1.0781764,-1.0438151,9.623411
976,1778620387.1575024,2.6260679,-2.5061219,-0.19476746,1.0781764,-1.0438151,9.623411
977,1778620387.1675036,3.1892715,-2.365382,0.06524771,1.0781764,-1.0438151,9.623411
978,1778620387.1775043,3.1892715,-2.365382,0.06524771,1.0781764,-1.0438151,9.623411
979,1778620387.187505,3.1892715,-2.365382,0.06524771,1.0781764,-1.0438151,9.623411
980,1778620387.197522,3.1892715,-2.365382,0.06524771,1.0781764,-1.0438151,9.623411
981,1778620387.207523,3.1892715,-2.365382,0.06524771,1.0781764,-1.0438151,9.623411
982,1778620387.2175243,3.1892715,-2.365382,0.06524771,1.0781764,-1.0438151,9.623411
983,1778620387.227526,3.1892715,-2.365382,0.06524771,1.0781764,-1.0438151,9.623411
984,1778620387.2375274,3.6897886,-2.06073,0.29550505,1.7244713,0.054519683,7.459117
985,1778620387.2475286,3.6897886,-2.06073,0.29550505,1.7244713,0.054519683,7.459117
986,1778620387.257529,3.6897886,-2.06073,0.29550505,1.7244713,0.054519683,7.459117
987,1778620387.26753,3.6897886,-2.06073,0.29550505,1.7244713,0.054519683,7.459117
988,1778620387.2775304,3.6897886,-2.06073,0.29550505,1.7244713,0.054519683,7.459117
989,1778620387.287531,3.6897886,-2.06073,0.29550505,1.7244713,0.054519683,7.459117
990,1778620387.297532,3.6897886,-2.06073,0.29550505,1.6878194,0.2677115,7.230043
991,1778620387.307536,3.6897886,-2.06073,0.29550505,1.6878194,0.2677115,7.230043
992,1778620387.3175373,3.6897886,-2.06073,0.29550505,1.6878194,0.2677115,7.230043
993,1778620387.3275385,3.6897886,-2.06073,0.29550505,1.6878194,0.2677115,7.230043
994,1778620387.3375394,3.6897886,-2.06073,0.29550505,1.6878194,0.2677115,7.230043
995,1778620387.34754,3.6897886,-2.06073,0.29550505,1.6878194,0.2677115,7.230043
996,1778620387.3575451,2.9316955,-0.31892106,0.36380172,1.6878194,0.2677115,7.230043
997,1778620387.3675473,2.9316955,-0.31892106,0.36380172,1.6878194,0.2677115,7.230043
998,1778620387.3775485,2.9316955,-0.31892106,0.36380172,-1.6169591,1.7661628,5.1091204
999,1778620387.3875492,2.9316955,-0.31892106,0.36380172,-1.6169591,1.7661628,5.1091204
