id,timestamp,acc_x,acc_y,acc_z,gyro_x,gyro_y,gyro_z
1,1778621676.5001981,-0.19043794,-0.49332145,-0.14378887,-0.14172062,-0.009315688,-0.6513346
2,1778621676.5101998,-0.19043794,-0.49332145,-0.14378887,-0.14172062,-0.009315688,-0.6513346
3,1778621676.5202024,-0.19043794,-0.49332145,-0.14378887,-0.14172062,-0.009315688,-0.6513346
4,1778621676.5302048,-0.19043794,-0.49332145,-0.14378887,-0.14172062,-0.009315688,-0.6513346
5,1778621676.5402062,-0.19043794,-0.49332145,-0.14378887,-0.14172062,-0.009315688,-0.6513346
6,1778621676.5502071,-0.19043794,-0.49332145,-0.14378887,-0.14172062,-0.009315688,-0.6513346
7,1778621676.560208,-0.19043794,-0.49332145,-0.14378887,-0.14172062,-0.009315688,-0.6513346
8,1778621676.5702088,-0.19043794,-0.49332145,-0.14378887,-0.14172062,-0.009315688,-0.6513346
9,1778621676.5802104,-0.082626775,-0.21525647,-0.66186786,-0.3035998,0.16844596,-0.6299543
10,1778621676.5902205,-0.77730143,-3.3981252,0.28940713,0.15332706,3.0254605,6.08345
11,1778621676.6002238,-0.77730143,-3.3981252,0.28940713,0.15332706,3.0254605,6.08345
12,1778621676.610225,-0.73144513,-3.483252,-0.39063254,0.15332706,3.0254605,6.08345
13,1778621676.6202261,-0.73144513,-3.483252,-0.39063254,0.15332706,3.0254605,6.08345
14,1778621676.630227,-0.73144513,-3.483252,-0.39063254,0.15332706,3.0254605,6.08345
15,1778621676.6402285,-0.7243715,-3.4115405,-0.6008887,0.15332706,3.0254605,6.08345
16,1778621676.6502295,-0.7243715,-3.4115405,-0.6008887,0.15332706,3.0254605,6.08345
17,1778621676.6602306,-0.7243715,-3.4115405,-0.6008887,0.031154104,0.77198035,6.135984
18,1778621676.6702316,-0.7243715,-3.4115405,-0.6008887,0.031154104,0.77198035,6.135984
19,1778621676.6802323,-0.7243715,-3.4115405,-0.6008887,0.031154104,0.77198035,6.135984
20,1778621676.690233,-0.7243715,-3.4115405,-0.6008887,0.031154104,0.77198035,6.135984
21,1778621676.7002335,-1.1336638,-2.941757,-0.56942344,-0.076358095,2.7090325,2.8165448
22,1778621676.7102342,-1.1336638,-2.941757,-0.56942344,-0.076358095,2.7090325,2.8165448
23,1778621676.720235,-1.1336638,-2.941757,-0.56942344,-0.076358095,2.7090325,2.8165448
24,1778621676.7302358,-1.1336638,-2.941757,-0.56942344,-0.076358095,2.7090325,2.8165448
25,1778621676.7402365,-1.1336638,-2.941757,-0.56942344,-0.076358095,2.7090325,2.8165448
26,1778621676.750238,0.28032124,-3.3942225,0.36380172,0.637132,-1.9243767,0.66019213
27,1778621676.7602391,0.28032124,-3.3942225,0.36380172,0.637132,-1.9243767,0.66019213
28,1778621676.7702398,0.28032124,-3.3942225,0.36380172,0.637132,-1.9243767,0.66019213
29,1778621676.7802413,0.28032124,-3.3942225,0.36380172,0.92240584,-1.3507748,0.6498074
30,1778621676.7902422,0.28032124,-3.3942225,0.36380172,0.92240584,-1.3507748,0.6498074
31,1778621676.8002431,0.28032124,-3.3942225,0.36380172,0.92240584,-1.3507748,0.6498074
32,1778621676.8102438,0.28032124,-3.3942225,0.36380172,0.92240584,-1.3507748,0.6498074
33,1778621676.8202448,0.28032124,-3.3942225,0.36380172,0.92240584,-1.3507748,0.6498074
34,1778621676.8302457,0.28032124,-3.3942225,0.36380172,1.5980222,-0.027641632,0.71333736
35,1778621676.8402486,0.28032124,-3.3942225,0.36380172,1.5980222,-0.027641632,0.71333736
36,1778621676.8502498,0.28032124,-3.3942225,0.36380172,1.5980222,-0.027641632,0.71333736
37,1778621676.8602507,0.5022854,-2.8288236,0.033294626,1.5980222,-0.027641632,0.71333736
38,1778621676.8702514,0.5022854,-2.8288236,0.033294626,1.5980222,-0.027641632,0.71333736
39,1778621676.8802521,0.5022854,-2.8288236,0.033294626,1.5980222,-0.027641632,0.71333736
40,1778621676.8902535,0.52057916,-2.6817417,-0.09159071,1.856418,0.27046037,0.9931134
41,1778621676.900255,0.52057916,-2.6817417,-0.09159071,1.856418,0.27046037,0.9931134
42,1778621676.9102561,0.52057916,-2.6817417,-0.09159071,1.7922772,0.026725333,1.1073451
43,1778621676.9202569,0.52057916,-2.6817417,-0.09159071,1.7922772,0.026725333,1.1073451
44,1778621676.9302573,0.52057916,-2.6817417,-0.09159071,1.7922772,0.026725333,1.1073451
45,1778621676.940258,0.54667825,-2.2597659,-0.3050178,1.7922772,0.026725333,1.1073451
46,1778621676.9502587,0.54667825,-2.2597659,-0.3050178,1.7922772,0.026725333,1.1073451
47,1778621676.9602597,0.54667825,-2.2597659,-0.3050178,1.7922772,0.026725333,1.1073451
48,1778621676.9702601,0.54667825,-2.2597659,-0.3050178,1.7922772,0.026725333,1.1073451
49,1778621676.9802632,0.27763817,-0.8909056,-0.49624845,0.8973604,-1.2597558,1.1959205
50,1778621676.990265,0.27763817,-0.8909056,-0.49624845,0.8973604,-1.2597558,1.1959205
51,1778621677.0002663,0.27763817,-0.8909056,-0.49624845,0.8973604,-1.2597558,1.1959205
52,1778621677.0102668,0.27763817,-0.8909056,-0.49624845,0.8973604,-1.2597558,1.1959205
53,1778621677.020268,-0.117506854,-0.5550324,-0.45966098,0.2254091,-1.7386739,0.64919657
54,1778621677.0302691,-0.117506854,-0.5550324,-0.45966098,0.2254091,-1.7386739,0.64919657
55,1778621677.04027,-0.117506854,-0.5550324,-0.45966098,0.2254091,-1.7386739,0.64919657
56,1778621677.0502715,-0.117506854,-0.5550324,-0.45966098,0.12583815,-1.9268203,0.6992875
57,1778621677.0602722,-0.117506854,-0.5550324,-0.45966098,0.12583815,-1.9268203,0.6992875
58,1778621677.070273,-0.117506854,-0.5550324,-0.45966098,0.12583815,-1.9268203,0.6992875
59,1778621677.080274,-0.117506854,-0.5550324,-0.45966098,0.12583815,-1.9268203,0.6992875
60,1778621677.0902753,-0.117506854,-0.5550324,-0.45966098,0.12583815,-1.9268203,0.6992875
61,1778621677.1002762,-0.117506854,-0.5550324,-0.45966098,0.12583815,-1.9268203,0.6992875
62,1778621677.1102777,-0.117506854,-0.5550324,-0.45966098,0.12583815,-1.9268203,0.6992875
63,1778621677.1203737,-0.117506854,-0.5550324,-0.45966098,0.12583815,-1.9268203,0.6992875
64,1778621677.1303759,-0.117506854,-0.5550324,-0.45966098,0.12583815,-1.9268203,0.6992875
65,1778621677.1403809,-0.11921428,-0.47795472,-0.37916848,0.12583815,-1.9268203,0.6992875
66,1778621677.1503994,-0.11921428,-0.47795472,-0.37916848,0.12583815,-1.9268203,0.6992875
67,1778621677.1604018,-0.11921428,-0.47795472,-0.37916848,0.12583815,-1.9268203,0.6992875
68,1778621677.1704035,-0.11921428,-0.47795472,-0.37916848,0.03848448,-2.0050108,0.7493784
69,1778621677.1804044,-0.11921428,-0.47795472,-0.37916848,0.03848448,-2.0050108,0.7493784
70,1778621677.1904054,-0.11921428,-0.47795472,-0.37916848,0.03848448,-2.0050108,0.7493784
71,1778621677.2004058,-0.11921428,-0.47795472,-0.37916848,0.03848448,-2.0050108,0.7493784
72,1778621677.2104065,-0.11921428,-0.47795472,-0.37916848,0.03848448,-2.0050108,0.7493784
73,1778621677.2204072,-0.083602436,-0.34502012,-0.24916087,0.03848448,-2.0050108,0.7493784
74,1778621677.230414,-0.083602436,-0.34502012,-0.24916087,0.03848448,-2.0050108,0.7493784
75,1778621677.2404168,-0.083602436,-0.34502012,-0.24916087,0.03848448,-2.0050108,0.7493784
76,1778621677.250418,-0.083602436,-0.34502012,-0.24916087,-0.21868959,-2.050215,0.8581123
77,1778621677.260499,-0.048234522,-0.17476629,-0.13476396,-0.3573559,-2.0202825,0.90209454
78,1778621677.2705076,-0.048234522,-0.17476629,-0.13476396,-0.3573559,-2.0202825,0.90209454
79,1778621677.2805092,-0.048234522,-0.17476629,-0.13476396,-0.47036588,-1.9585851,0.9320269
80,1778621677.2905104,-0.048234522,-0.17476629,-0.13476396,-0.47036588,-1.9585851,0.9320269
81,1778621677.3005111,-0.048234522,-0.17476629,-0.13476396,-0.47036588,-1.9585851,0.9320269
82,1778621677.310512,-0.048234522,-0.17476629,-0.13476396,-0.47036588,-1.9585851,0.9320269
83,1778621677.3205125,-0.048234522,-0.17476629,-0.13476396,-0.47036588,-1.9585851,0.9320269
84,1778621677.3305137,-0.048234522,-0.17476629,-0.13476396,-0.47036588,-1.9585851,0.9320269
85,1778621677.3405168,-0.048234522,-0.17476629,-0.13476396,-0.47036588,-1.9585851,0.9320269
86,1778621677.3505185,-0.048234522,-0.17476629,-0.13476396,-0.47036588,-1.9585851,0.9320269
87,1778621677.3605194,0.031038398,-0.025001459,-0.041587792,-0.54489136,-1.8223623,0.9308052
88,1778621677.3705204,0.031038398,-0.025001459,-0.041587792,-0.54489136,-1.8223623,0.9308052
89,1778621677.380521,0.031038398,-0.025001459,-0.041587792,-0.54489136,-1.8223623,0.9308052
90,1778621677.3905215,0.031038398,-0.025001459,-0.041587792,-0.54489136,-1.8223623,0.9308052
91,1778621677.4005222,0.031038398,-0.025001459,-0.041587792,-0.54489136,-1.8223623,0.9308052
92,1778621677.4105232,0.031038398,-0.025001459,-0.041587792,-0.5412262,-1.7771584,0.90514886
93,1778621677.4205258,0.031038398,-0.025001459,-0.041587792,-0.5412262,-1.7771584,0.90514886
94,1778621677.4305284,0.031038398,-0.025001459,-0.041587792,-0.5412262,-1.7771584,0.90514886
95,1778621677.4405293,0.0954324,0.32697028,0.17379062,-0.08552107,-0.5346594,0.2771799
96,1778621677.4505305,0.0954324,0.32697028,0.17379062,-0.08552107,-0.5346594,0.2771799
97,1778621677.4605312,0.0954324,0.32697028,0.17379062,-0.08552107,-0.5346594,0.2771799
98,1778621677.4705322,0.0954324,0.32697028,0.17379062,-0.08552107,-0.5346594,0.2771799
99,1778621677.4805412,-0.08604161,-0.1454963,-0.29696855,-0.95111644,-2.2792892,1.6064217
100,1778621677.4905438,-0.08604161,-0.1454963,-0.29696855,-0.95111644,-2.2792892,1.6064217
101,1778621677.5005448,-0.08604161,-0.1454963,-0.29696855,-0.95111644,-2.2792892,1.6064217
102,1778621677.5105457,-0.08604161,-0.1454963,-0.29696855,-0.95111644,-2.2792892,1.6064217
103,1778621677.5205467,-0.08604161,-0.1454963,-0.29696855,-0.8918626,-2.2725697,1.6485714
104,1778621677.5305476,-0.066772185,-0.15378946,-0.21867129,-0.71349007,-2.207818,1.7432554
105,1778621677.5405483,-0.066772185,-0.15378946,-0.21867129,-0.71349007,-2.207818,1.7432554
106,1778621677.5505486,-0.066772185,-0.15378946,-0.21867129,-0.71349007,-2.207818,1.7432554
107,1778621677.5605574,-0.018232772,-0.15696037,-0.10500612,-0.66156656,-2.1644466,1.7640247
108,1778621677.5705612,-0.018232772,-0.15696037,-0.10500612,-0.66156656,-2.1644466,1.7640247
109,1778621677.5805736,-0.018232772,-0.15696037,-0.10500612,-0.66156656,-2.1644466,1.7640247
110,1778621677.5905848,-0.018232772,-0.15696037,-0.10500612,-0.66156656,-2.1644466,1.7640247
111,1778621677.6005878,-0.018232772,-0.15696037,-0.10500612,-0.66156656,-2.1644466,1.7640247
112,1778621677.6105883,-0.018232772,-0.15696037,-0.10500612,-0.66156656,-2.1644466,1.7640247
113,1778621677.6205912,-0.018232772,-0.15696037,-0.10500612,-0.66156656,-2.1644466,1.7640247
114,1778621677.6305923,-0.018232772,-0.15696037,-0.10500612,-0.66156656,-2.1644466,1.7640247
115,1778621677.6405938,-0.018232772,-0.15696037,-0.10500612,-0.66156656,-2.1644466,1.7640247
116,1778621677.65061,0.042990312,-0.16549747,0.008415125,-0.4196641,-1.4631739,1.5832088
117,1778621677.6606143,0.042990312,-0.16549747,0.008415125,-0.4196641,-1.4631739,1.5832088
118,1778621677.670615,0.042990312,-0.16549747,0.008415125,-0.4196641,-1.4631739,1.5832088
119,1778621677.6806157,0.042990312,-0.16549747,0.008415125,-0.4196641,-1.4631739,1.5832088
120,1778621677.6906164,0.042990312,-0.16549747,0.008415125,-0.4196641,-1.4631739,1.5832088
121,1778621677.7006178,0.08689531,-0.16793664,0.0140252095,-0.45570514,-0.6476694,0.87216216
122,1778621677.710619,0.08689531,-0.16793664,0.0140252095,-0.45570514,-0.6476694,0.87216216
123,1778621677.7206206,0.08689531,-0.16793664,0.0140252095,-0.45570514,-0.6476694,0.87216216
124,1778621677.730622,0.08689531,-0.16793664,0.0140252095,-0.45570514,-0.6476694,0.87216216
125,1778621677.7406228,0.08689531,-0.16793664,0.0140252095,-0.45570514,-0.6476694,0.87216216
126,1778621677.7506235,0.08689531,-0.16793664,0.0140252095,-0.4147772,-1.3391683,1.5166246
127,1778621677.7606244,0.08689531,-0.16793664,0.0140252095,-0.4147772,-1.3391683,1.5166246
128,1778621677.7706258,0.015427729,-0.20671937,-0.011342125,-0.46242464,-0.5878046,0.77931076
129,1778621677.7806294,0.4410623,-0.17354672,-0.011829958,-1.7146975,-1.6055053,-0.5041162
130,1778621677.7906463,0.4410623,-0.17354672,-0.011829958,-1.7146975,-1.6055053,-0.5041162
131,1778621677.8006475,0.44740415,-0.27013773,-0.16793664,-2.7666066,-1.127809,-0.45158178
132,1778621677.8106482,0.025428312,-0.81773067,-1.0518907,-3.8948739,-0.5896372,-0.34956738
133,1778621677.8206491,0.025428312,-0.81773067,-1.0518907,-3.8948739,-0.5896372,-0.34956738
134,1778621677.83065,0.025428312,-0.81773067,-1.0518907,-3.8948739,-0.5896372,-0.34956738
135,1778621677.8406515,0.025428312,-0.81773067,-1.0518907,-3.8948739,-0.5896372,-0.34956738
136,1778621677.8506517,0.025428312,-0.81773067,-1.0518907,-3.8948739,-0.5896372,-0.34956738
137,1778621677.8606524,-0.1460451,-0.9867649,-1.0384753,-3.8948739,-0.5896372,-0.34956738
138,1778621677.8708825,-0.1460451,-0.9867649,-1.0384753,-3.8948739,-0.5896372,-0.34956738
139,1778621677.880886,-0.1460451,-0.9867649,-1.0384753,-3.8948739,-0.5896372,-0.34956738
140,1778621677.890887,-0.8355975,-1.3694701,-0.4323423,-4.632188,-0.21517712,-0.18829907
141,1778621677.9008877,-0.8355975,-1.3694701,-0.4323423,-4.632188,-0.21517712,-0.18829907
142,1778621677.910889,-0.8355975,-1.3694701,-0.4323423,-4.632188,-0.21517712,-0.18829907
143,1778621677.9208899,-0.8355975,-1.3694701,-0.4323423,-4.9486156,0.19349141,0.34926194
144,1778621677.930898,-0.8355975,-1.3694701,-0.4323423,-4.9486156,0.19349141,0.34926194
145,1778621677.9409,-0.8355975,-1.3694701,-0.4323423,-4.9486156,0.19349141,0.34926194
146,1778621677.950901,-0.8355975,-1.3694701,-0.4323423,-4.9486156,0.19349141,0.34926194
147,1778621677.960902,-0.8355975,-1.3694701,-0.4323423,-4.9486156,0.19349141,0.34926194
148,1778621677.9709027,-0.8355975,-1.3694701,-0.4323423,-4.9486156,0.19349141,0.34926194
149,1778621677.9809086,-0.8355975,-1.3694701,-0.4323423,-4.9486156,0.19349141,0.34926194
150,1778621677.990931,-0.8355975,-1.3694701,-0.4323423,-4.9486156,0.19349141,0.34926194
151,1778621678.0009317,-0.8355975,-1.3694701,-0.4323423,-4.9486156,0.19349141,0.34926194
152,1778621678.0110643,0.06835765,-1.873402,-1.091649,1.4080433,5.2997103,-0.36606073
153,1778621678.0210676,0.06835765,-1.873402,-1.091649,1.4080433,5.2997103,-0.36606073
154,1778621678.0310683,-0.66168493,-2.9263902,-0.7265058,1.5546509,3.5911214,-0.1962403
155,1778621678.041069,-0.66168493,-2.9263902,-0.7265058,1.5546509,3.5911214,-0.1962403
156,1778621678.0510702,-1.3956301,-3.204943,-0.8552938,1.0378592,-2.6342015,-0.52916163
157,1778621678.0610712,-1.3956301,-3.204943,-0.8552938,1.0378592,-2.6342015,-0.52916163
158,1778621678.071072,-1.3956301,-3.204943,-0.8552938,1.0378592,-2.6342015,-0.52916163
159,1778621678.081073,-1.3956301,-3.204943,-0.8552938,1.0378592,-2.6342015,-0.52916163
160,1778621678.0910766,-1.3956301,-3.204943,-0.8552938,1.0378592,-2.6342015,-0.52916163
161,1778621678.1010785,-1.3956301,-3.204943,-0.8552938,1.0378592,-2.6342015,-0.52916163
162,1778621678.1110797,-1.3956301,-3.204943,-0.8552938,1.5522074,-2.253022,-1.2224932
163,1778621678.121088,-1.3956301,-3.204943,-0.8552938,1.5522074,-2.253022,-1.2224932
164,1778621678.131091,-1.3956301,-3.204943,-0.8552938,1.5522074,-2.253022,-1.2224932
165,1778621678.1410928,-1.3351388,-3.020298,-0.63772017,1.5522074,-2.253022,-1.2224932
166,1778621678.1510935,-1.3351388,-3.020298,-0.63772017,1.5522074,-2.253022,-1.2224932
167,1778621678.161094,-1.3351388,-3.020298,-0.63772017,1.5522074,-2.253022,-1.2224932
168,1778621678.171095,-1.3351388,-3.020298,-0.63772017,1.7171409,-1.8266385,-1.3910918
169,1778621678.1810954,-1.3351388,-3.020298,-0.63772017,1.7171409,-1.8266385,-1.3910918
170,1778621678.1910963,-1.3356267,-3.1488423,-0.81455976,1.7171409,-1.8266385,-1.3910918
171,1778621678.2010972,-1.3356267,-3.1488423,-0.81455976,1.7171409,-1.8266385,-1.3910918
172,1778621678.2110982,-1.3356267,-3.1488423,-0.81455976,1.7171409,-1.8266385,-1.3910918
173,1778621678.2211013,-1.3587989,-2.9602945,-0.60259616,1.1533127,-2.5932736,-0.7515164
174,1778621678.231105,-1.3587989,-2.9602945,-0.60259616,1.1533127,-2.5932736,-0.7515164
175,1778621678.241106,-1.3587989,-2.9602945,-0.60259616,1.1533127,-2.5932736,-0.7515164
176,1778621678.251107,-1.3587989,-2.9602945,-0.60259616,1.1533127,-2.5932736,-0.7515164
177,1778621678.261108,-1.0253648,-1.5175276,-0.067199044,1.508836,0.42073312,-2.0062327
178,1778621678.2711086,-1.0253648,-1.5175276,-0.067199044,1.508836,0.42073312,-2.0062327
179,1778621678.2811096,-1.0253648,-1.5175276,-0.067199044,1.508836,0.42073312,-2.0062327
180,1778621678.2912374,-1.0253648,-1.5175276,-0.067199044,1.508836,0.42073312,-2.0062327
181,1778621678.3012388,-1.0253648,-1.5175276,-0.067199044,1.508836,0.42073312,-2.0062327
182,1778621678.3112395,-1.0253648,-1.5175276,-0.067199044,1.508836,0.42073312,-2.0062327
183,1778621678.3212407,-1.0253648,-1.5175276,-0.067199044,1.508836,0.42073312,-2.0062327
184,1778621678.3312411,-1.0253648,-1.5175276,-0.067199044,1.508836,0.42073312,-2.0062327
185,1778621678.3412423,-1.0253648,-1.5175276,-0.067199044,1.508836,0.42073312,-2.0062327
186,1778621678.351243,-1.0253648,-1.5175276,-0.067199044,1.508836,0.42073312,-2.0062327
187,1778621678.3612447,-1.0253648,-1.5175276,-0.067199044,1.508836,0.42073312,-2.0062327
188,1778621678.3712459,-0.9843867,-1.4084969,-0.03744121,1.499673,0.4592176,-1.9805763
189,1778621678.3812468,-0.9843867,-1.4084969,-0.03744121,1.499673,0.4592176,-1.9805763
190,1778621678.391248,-0.9843867,-1.4084969,-0.03744121,1.499673,0.4592176,-1.9805763
191,1778621678.4012492,-0.9843867,-1.4084969,-0.03744121,1.499673,0.4592176,-1.9805763
192,1778621678.4112496,-0.9843867,-1.4084969,-0.03744121,1.499673,0.4592176,-1.9805763
193,1778621678.4212503,-0.9843867,-1.4084969,-0.03744121,1.499673,0.4592176,-1.9805763
194,1778621678.4312513,-0.9843867,-1.4084969,-0.03744121,1.499673,0.4592176,-1.9805763
195,1778621678.4412532,-0.9843867,-1.4084969,-0.03744121,1.499673,0.4592176,-1.9805763
196,1778621678.4512546,-0.9843867,-1.4084969,-0.03744121,1.499673,0.4592176,-1.9805763
197,1778621678.4612553,-0.9843867,-1.4084969,-0.03744121,1.499673,0.4592176,-1.9805763
198,1778621678.4712577,-0.9843867,-1.4084969,-0.03744121,1.499673,0.4592176,-1.9805763
199,1778621678.4812593,-0.101408355,-0.04914921,0.14403279,1.1759146,1.7658573,-1.2554798
200,1778621678.49126,-0.101408355,-0.04914921,0.14403279,1.1759146,1.7658573,-1.2554798
201,1778621678.501263,-0.101408355,-0.04914921,0.14403279,1.1759146,1.7658573,-1.2554798
202,1778621678.5112722,0.022989146,0.02426971,-0.41478032,-0.13072506,0.5905535,-2.1033602
203,1778621678.521273,0.022989146,0.02426971,-0.41478032,-0.13072506,0.5905535,-2.1033602
204,1778621678.5312734,0.022989146,0.02426971,-0.41478032,-0.13072506,0.5905535,-2.1033602
205,1778621678.5412776,0.026891813,0.0013415418,-0.3901447,-0.22113305,0.48976085,-2.0825908
206,1778621678.5512798,0.026891813,0.0013415418,-0.3901447,-0.22113305,0.48976085,-2.0825908
207,1778621678.5612805,0.026891813,0.0013415418,-0.3901447,-0.22113305,0.48976085,-2.0825908
208,1778621678.5712812,0.026891813,0.0013415418,-0.3901447,-0.22113305,0.48976085,-2.0825908
209,1778621678.5812855,0.026891813,0.0013415418,-0.3901447,-0.22113305,0.48976085,-2.0825908
210,1778621678.5912876,0.007378479,-0.06744295,-0.30452996,-0.22113305,0.48976085,-2.0825908
211,1778621678.6012886,0.007378479,-0.06744295,-0.30452996,-0.22113305,0.48976085,-2.0825908
212,1778621678.6112897,0.007378479,-0.06744295,-0.30452996,-0.22113305,0.48976085,-2.0825908
213,1778621678.621291,0.007378479,-0.06744295,-0.30452996,-0.43982264,0.26313,-1.9964588
214,1778621678.6312914,0.007378479,-0.06744295,-0.30452996,-0.43982264,0.26313,-1.9964588
215,1778621678.641292,-0.019208437,-0.10427438,-0.21306121,-0.46547896,-0.09483676,-1.7954843
216,1778621678.651293,-0.015793605,-0.09134679,-0.20696329,-0.46547896,-0.09483676,-1.7954843
217,1778621678.6612937,-0.015793605,-0.09134679,-0.20696329,-0.46547896,-0.09483676,-1.7954843
218,1778621678.6712945,-0.015793605,-0.09134679,-0.20696329,-0.46547896,-0.09483676,-1.7954843
219,1778621678.681295,-0.015793605,-0.09134679,-0.20696329,-0.46547896,-0.09483676,-1.7954843
220,1778621678.6912954,-0.015793605,-0.09134679,-0.20696329,-0.46547896,-0.09483676,-1.7954843
221,1778621678.7012968,-0.015793605,-0.09134679,-0.20696329,-0.46547896,-0.09483676,-1.7954843
222,1778621678.7112973,-0.015793605,-0.09134679,-0.20696329,-0.46547896,-0.09483676,-1.7954843
223,1778621678.7212982,-0.008963938,-0.04256346,0.0020732917,0.04886918,0.0010690134,-1.9298745
224,1778621678.731299,-0.008963938,-0.04256346,0.0020732917,0.04886918,0.0010690134,-1.9298745
225,1778621678.7412996,-0.008963938,-0.04256346,0.0020732917,0.04886918,0.0010690134,-1.9298745
226,1778621678.7513003,-0.008963938,-0.04256346,0.0020732917,0.17470732,0.069485866,-1.9310963
227,1778621678.7613013,-0.008963938,-0.04256346,0.0020732917,0.17470732,0.069485866,-1.9310963
228,1778621678.771302,-0.008963938,-0.04256346,0.0020732917,0.17470732,0.069485866,-1.9310963
229,1778621678.7813027,0.026891813,-0.06402813,0.14647196,0.68905544,0.51602805,-1.8834488
230,1778621678.7914095,0.026891813,-0.06402813,0.14647196,0.68905544,0.51602805,-1.8834488
231,1778621678.8014112,0.026891813,-0.06402813,0.14647196,0.68905544,0.51602805,-1.8834488
232,1778621678.8114114,0.026891813,-0.06402813,0.14647196,0.68905544,0.51602805,-1.8834488
233,1778621678.8214142,0.026891813,-0.06402813,0.14647196,0.68905544,0.51602805,-1.8834488
234,1778621678.8314157,0.026891813,-0.06402813,0.14647196,0.68905544,0.51602805,-1.8834488
235,1778621678.8414166,0.07030898,-0.038904708,0.1733028,0.9908227,1.1189516,-1.8290819
236,1778621678.8514175,0.07030898,-0.038904708,0.1733028,0.9908227,1.1189516,-1.8290819
237,1778621678.8614182,0.07030898,-0.038904708,0.1733028,0.9908227,1.1189516,-1.8290819
238,1778621678.871419,0.07030898,-0.038904708,0.1733028,0.9908227,1.1189516,-1.8290819
239,1778621678.8814197,0.07030898,-0.038904708,0.1733028,0.9908227,1.1189516,-1.8290819
240,1778621678.8914201,0.07030898,-0.038904708,0.1733028,0.9908227,1.1189516,-1.8290819
241,1778621678.9014235,0.07030898,-0.038904708,0.1733028,0.9908227,1.1189516,-1.8290819
242,1778621678.9114249,0.07030898,-0.038904708,0.1733028,0.9908227,1.1189516,-1.8290819
243,1778621678.9214256,0.07030898,-0.038904708,0.1733028,0.9908227,1.1189516,-1.8290819
244,1778621678.9314263,0.16250949,0.019635292,-0.3420931,-1.7880012,-1.6488768,-1.4900519
245,1778621678.941427,0.16250949,0.019635292,-0.3420931,-1.7880012,-1.6488768,-1.4900519
246,1778621678.9514277,0.21812248,0.020123126,-0.3738023,-1.5143338,-1.7484477,-1.6036727
247,1778621678.9614282,0.21812248,0.020123126,-0.3738023,-1.5143338,-1.7484477,-1.6036727
248,1778621678.9714286,0.23105007,-0.0035367915,-0.35380113,-1.5143338,-1.7484477,-1.6036727
249,1778621678.9814296,0.23105007,-0.0035367915,-0.35380113,-1.5143338,-1.7484477,-1.6036727
250,1778621678.9914303,0.23105007,-0.0035367915,-0.35380113,-1.5143338,-1.7484477,-1.6036727
251,1778621679.0014312,0.23105007,-0.0035367915,-0.35380113,-1.5143338,-1.7484477,-1.6036727
252,1778621679.011432,0.23105007,-0.0035367915,-0.35380113,-1.5143338,-1.7484477,-1.6036727
253,1778621679.0214326,0.23105007,-0.0035367915,-0.35380113,-1.5143338,-1.7484477,-1.6036727
254,1778621679.0314336,0.23105007,-0.0035367915,-0.35380113,-1.5143338,-1.7484477,-1.6036727
255,1778621679.0414352,0.23105007,-0.0035367915,-0.35380113,-1.5143338,-1.7484477,-1.6036727
256,1778621679.051436,0.23105007,-0.0035367915,-0.35380113,-1.5143338,-1.7484477,-1.6036727
257,1778621679.0614371,0.23105007,-0.0035367915,-0.35380113,-1.5143338,-1.7484477,-1.6036727
258,1778621679.0714378,0.23105007,-0.0035367915,-0.35380113,-1.5143338,-1.7484477,-1.6036727
259,1778621679.0814383,0.23105007,-0.0035367915,-0.35380113,-1.5143338,-1.7484477,-1.6036727
260,1778621679.091439,0.23105007,-0.0035367915,-0.35380113,-1.5143338,-1.7484477,-1.6036727
261,1778621679.1014395,0.23105007,-0.0035367915,-0.35380113,-1.5143338,-1.7484477,-1.6036727
262,1778621679.1114407,0.23105007,-0.0035367915,-0.35380113,-1.2895355,-1.2713623,-1.675144
263,1778621679.1214416,0.23105007,-0.0035367915,-0.35380113,-1.3182462,-0.3245219,-1.6830852
264,1778621679.1314425,0.23105007,-0.0035367915,-0.35380113,-1.3182462,-0.3245219,-1.6830852
265,1778621679.1414435,0.23105007,-0.0035367915,-0.35380113,-1.3182462,-0.3245219,-1.6830852
266,1778621679.151445,0.012500729,-0.36233822,0.31892106,-1.3182462,-0.3245219,-1.6830852
267,1778621679.161446,0.012500729,-0.36233822,0.31892106,-1.3182462,-0.3245219,-1.6830852
268,1778621679.1714473,-0.06238169,-0.4133168,0.35892338,-1.3512329,0.51724976,-1.4784455
269,1778621679.1814728,-0.06238169,-0.4133168,0.35892338,-1.3445134,0.6137664,-1.381318
270,1778621679.1914837,-0.06238169,-0.4133168,0.35892338,-1.3445134,0.6137664,-1.381318
271,1778621679.2014844,-0.06238169,-0.4133168,0.35892338,-1.3445134,0.6137664,-1.381318
272,1778621679.2114897,-0.06238169,-0.4133168,0.35892338,-1.3445134,0.6137664,-1.381318
273,1778621679.221491,-0.06238169,-0.4133168,0.35892338,-1.3445134,0.6137664,-1.381318
274,1778621679.2315018,-0.06238169,-0.4133168,0.35892338,-1.3445134,0.6137664,-1.381318
275,1778621679.241503,-0.06238169,-0.4133168,0.35892338,-1.3445134,0.6137664,-1.381318
276,1778621679.2515037,-0.06238169,-0.4133168,0.35892338,-1.3445134,0.6137664,-1.381318
277,1778621679.2615044,-0.06238169,-0.4133168,0.35892338,-1.3445134,0.6137664,-1.381318
278,1778621679.271505,-0.06238169,-0.4133168,0.35892338,-1.3445134,0.6137664,-1.381318
279,1778621679.2815058,-0.06238169,-0.4133168,0.35892338,-1.273653,0.5575668,-0.83948094
280,1778621679.291515,-0.06238169,-0.4133168,0.35892338,-1.273653,0.5575668,-0.83948094
281,1778621679.3015187,-0.06238169,-0.4133168,0.35892338,-1.273653,0.5575668,-0.83948094
282,1778621679.3115194,-0.54460496,-0.8579769,-0.80602264,-1.273653,0.5575668,-0.83948094
283,1778621679.3215199,-0.54460496,-0.8579769,-0.80602264,-1.273653,0.5575668,-0.83948094
284,1778621679.3315203,-0.75339764,-1.4802084,-0.32331154,-2.3573272,-3.3702936,1.283885
285,1778621679.3415213,-0.75339764,-1.4802084,-0.32331154,-2.3573272,-3.3702936,1.283885
286,1778621679.3515217,-0.75339764,-1.4802084,-0.32331154,-2.3573272,-3.3702936,1.283885
287,1778621679.3615222,-1.4227049,-3.9188874,0.058174126,-3.803855,-2.6836817,0.7206677
288,1778621679.3715236,-1.5702746,-4.0942636,1.1340905,-0.34819293,-2.755153,2.5001168
289,1778621679.3815243,-1.5702746,-4.0942636,1.1340905,-0.34819293,-2.755153,2.5001168
290,1778621679.3915246,-1.5702746,-4.0942636,1.1340905,-0.34819293,-2.755153,2.5001168
291,1778621679.4015942,-1.5702746,-4.0942636,1.1340905,0.36651886,4.316218,2.7725625
292,1778621679.4115956,-1.5702746,-4.0942636,1.1340905,0.36651886,4.316218,2.7725625
293,1778621679.4215968,-1.4434378,-3.9152286,1.1167725,0.36651886,4.316218,2.7725625
294,1778621679.4316065,-1.4434378,-3.9152286,1.1167725,0.36651886,4.316218,2.7725625
295,1778621679.4416094,-1.4434378,-3.9152286,1.1167725,0.36651886,4.316218,2.7725625
296,1778621679.4516106,-1.4434378,-3.9152286,1.1167725,0.36651886,4.316218,2.7725625
297,1778621679.461611,-1.4434378,-3.9152286,1.1167725,0.36651886,4.316218,2.7725625
298,1778621679.4716122,-0.5660696,-3.7005816,-0.22062263,1.6297872,5.0187125,1.3932298
299,1778621679.481616,-0.5660696,-3.7005816,-0.22062263,2.0366232,4.6039352,1.0554216
300,1778621679.4916184,-0.5660696,-3.7005816,-0.22062263,2.0366232,4.6039352,1.0554216
301,1778621679.501619,-0.5660696,-3.7005816,-0.22062263,2.0366232,4.6039352,1.0554216
302,1778621679.5116198,-0.5660696,-3.7005816,-0.22062263,2.0366232,4.6039352,1.0554216
303,1778621679.5216203,-0.5660696,-3.7005816,-0.22062263,2.0366232,4.6039352,1.0554216
304,1778621679.5316224,-0.5660696,-3.7005816,-0.22062263,2.6645923,3.4775004,0.17088942
305,1778621679.5416243,-0.5660696,-3.7005816,-0.22062263,2.6645923,3.4775004,0.17088942
306,1778621679.5516253,-0.5660696,-3.7005816,-0.22062263,2.6645923,3.4775004,0.17088942
307,1778621679.561627,-0.5660696,-3.7005816,-0.22062263,2.6645923,3.4775004,0.17088942
308,1778621679.5716279,-0.5660696,-3.7005816,-0.22062263,2.6645923,3.4775004,0.17088942
309,1778621679.5816314,-0.5660696,-3.7005816,-0.22062263,2.6645923,3.4775004,0.17088942
310,1778621679.5916414,-0.032623854,-2.8022366,-0.66138005,1.0995566,0.37369654,0.78786284
311,1778621679.6016428,-0.032623854,-2.8022366,-0.66138005,1.0995566,0.37369654,0.78786284
312,1778621679.6116443,-0.10823802,-2.5558808,-0.68406427,1.0995566,0.37369654,0.78786284
313,1778621679.621646,-0.10823802,-2.5558808,-0.68406427,1.0995566,0.37369654,0.78786284
314,1778621679.6316469,-0.10823802,-2.5558808,-0.68406427,1.0995566,0.37369654,0.78786284
315,1778621679.6416476,-0.10823802,-2.5558808,-0.68406427,1.0995566,0.37369654,0.78786284
316,1778621679.651716,-0.29702953,-2.0431678,-0.6794299,0.94928384,-0.037415467,1.0713041
317,1778621679.6617181,-0.29702953,-2.0431678,-0.6794299,0.94928384,-0.037415467,1.0713041
318,1778621679.6717193,-0.29702953,-2.0431678,-0.6794299,0.94928384,-0.037415467,1.0713041
319,1778621679.6817276,-0.29702953,-2.0431678,-0.6794299,0.78862643,-0.3837758,1.4115558
320,1778621679.6917305,-0.29702953,-2.0431678,-0.6794299,0.78862643,-0.3837758,1.4115558
321,1778621679.7017317,-0.29702953,-2.0431678,-0.6794299,0.78862643,-0.3837758,1.4115558
322,1778621679.7117321,-0.29702953,-2.0431678,-0.6794299,0.78862643,-0.3837758,1.4115558
323,1778621679.7217329,-0.29702953,-2.0431678,-0.6794299,0.78862643,-0.3837758,1.4115558
324,1778621679.7317333,-0.33508053,-1.9138923,-0.6384519,0.78862643,-0.3837758,1.4115558
325,1778621679.741734,-0.33508053,-1.9138923,-0.6384519,0.78862643,-0.3837758,1.4115558
326,1778621679.7517347,-0.33508053,-1.9138923,-0.6384519,0.78862643,-0.3837758,1.4115558
327,1778621679.7617354,-0.33508053,-1.9138923,-0.6384519,0.78862643,-0.3837758,1.4115558
328,1778621679.771736,-0.33508053,-1.9138923,-0.6384519,0.78862643,-0.3837758,1.4115558
329,1778621679.7817364,-0.33508053,-1.9138923,-0.6384519,0.78862643,-0.3837758,1.4115558
330,1778621679.7917395,-0.33508053,-1.9138923,-0.6384519,0.78862643,-0.3837758,1.4115558
331,1778621679.801741,-0.33508053,-1.9138923,-0.6384519,0.78862643,-0.3837758,1.4115558
332,1778621679.8117416,-0.34020278,-1.5767993,-0.46649066,0.8759801,-0.4882337,1.6937753
333,1778621679.8217523,-0.2819067,-1.4233757,-0.37599754,0.92729276,-0.45036006,1.7285947
334,1778621679.8317559,-0.2819067,-1.4233757,-0.37599754,0.92729276,-0.45036006,1.7285947
335,1778621679.8417566,-0.2819067,-1.4233757,-0.37599754,0.92729276,-0.45036006,1.7285947
336,1778621679.8521519,0.4483798,0.12134854,-0.23452587,0.8319978,-1.0160209,1.5795436
337,1778621679.8621528,0.4483798,0.12134854,-0.23452587,0.8319978,-1.0160209,1.5795436
338,1778621679.8721535,0.4483798,0.12134854,-0.23452587,0.8319978,-1.0160209,1.5795436
339,1778621679.8821542,0.4483798,0.12134854,-0.23452587,0.8319978,-1.0160209,1.5795436
340,1778621679.892155,0.4483798,0.12134854,-0.23452587,0.8319978,-1.0160209,1.5795436
341,1778621679.9021556,0.4483798,0.12134854,-0.23452587,0.8319978,-1.0160209,1.5795436
342,1778621679.9121563,0.4483798,0.12134854,-0.23452587,0.8319978,-1.0160209,1.5795436
343,1778621679.9221568,0.47203976,0.1879378,-0.2172078,0.8319978,-1.0160209,1.5795436
344,1778621679.9321575,0.47203976,0.1879378,-0.2172078,0.8319978,-1.0160209,1.5795436
345,1778621679.9421577,0.47203976,0.1879378,-0.2172078,0.8319978,-1.0160209,1.5795436
346,1778621679.9521585,0.47203976,0.1879378,-0.2172078,0.754418,-0.9805907,1.5447243
347,1778621679.9621594,0.47203976,0.1879378,-0.2172078,0.754418,-0.9805907,1.5447243
348,1778621679.97216,0.47203976,0.1879378,-0.2172078,0.754418,-0.9805907,1.5447243
349,1778621679.9821608,0.43569615,0.3211163,-0.12159246,0.64568406,-0.9304998,1.4824162
350,1778621679.9921615,0.43569615,0.3211163,-0.12159246,0.64568406,-0.9304998,1.4824162
351,1778621680.002162,-0.10896978,0.21428078,-0.33062905,-0.49296787,-2.2004876,0.98211783
352,1778621680.012163,-0.13604453,0.17891288,-0.3679483,-0.49296787,-2.2004876,0.98211783
353,1778621680.022172,-0.13604453,0.17891288,-0.3679483,-0.49296787,-2.2004876,0.98211783
354,1778621680.0321758,-0.13604453,0.17891288,-0.3679483,-0.48502663,-2.2157593,1.0297652
355,1778621680.0421796,-0.13604453,0.17891288,-0.3679483,-0.48502663,-2.2157593,1.0297652
356,1778621680.0521812,-0.13604453,0.17891288,-0.3679483,-0.48502663,-2.2157593,1.0297652
357,1778621680.062182,-0.13604453,0.17891288,-0.3679483,-0.48502663,-2.2157593,1.0297652
358,1778621680.0721822,-0.13604453,0.17891288,-0.3679483,-0.48502663,-2.2157593,1.0297652
359,1778621680.0821836,-0.13604453,0.17891288,-0.3679483,-0.48502663,-2.2157593,1.0297652
360,1778621680.0921848,-0.13604453,0.17891288,-0.3679483,-0.48502663,-2.2157593,1.0297652
361,1778621680.1021855,-0.13604453,0.17891288,-0.3679483,-0.48502663,-2.2157593,1.0297652
362,1778621680.1121862,-0.13604453,0.17891288,-0.3679483,-0.48502663,-2.2157593,1.0297652
363,1778621680.122189,-0.19897503,0.063540295,-0.4191708,-0.48502663,-2.2157593,1.0297652
364,1778621680.1321905,-0.19897503,0.063540295,-0.4191708,-0.48502663,-2.2157593,1.0297652
365,1778621680.1421916,-0.19897503,0.063540295,-0.4191708,-0.48502663,-2.2157593,1.0297652
366,1778621680.1521928,-0.25556368,-0.029879792,-0.36404565,-0.46792242,-1.1027637,1.2649482
367,1778621680.162194,-0.25556368,-0.029879792,-0.36404565,-0.46792242,-1.1027637,1.2649482
368,1778621680.172195,-0.25190493,-0.058418043,-0.31892106,-0.46792242,-1.1027637,1.2649482
369,1778621680.182196,-0.25190493,-0.058418043,-0.31892106,-0.46792242,-1.1027637,1.2649482
370,1778621680.1921966,-0.25190493,-0.058418043,-0.31892106,-0.46792242,-1.1027637,1.2649482
371,1778621680.2021973,-0.21629311,-0.1411058,-0.19379179,-0.3414734,-0.028252495,1.3388629
372,1778621680.2121983,-0.21629311,-0.1411058,-0.19379179,-0.3414734,-0.028252495,1.3388629
373,1778621680.2221992,0.04835648,-0.4586853,-0.2716012,0.0030543238,-0.87307847,1.9222387
374,1778621680.2322001,0.04835648,-0.4586853,-0.2716012,0.0030543238,-0.87307847,1.9222387
375,1778621680.2422004,0.04835648,-0.4586853,-0.2716012,0.0030543238,-0.87307847,1.9222387
376,1778621680.2522018,0.04835648,-0.4586853,-0.2716012,-0.15760311,-2.072206,1.9320126
377,1778621680.2622044,0.04835648,-0.4586853,-0.2716012,-0.15760311,-2.072206,1.9320126
378,1778621680.2722056,0.04835648,-0.4586853,-0.2716012,-0.15760311,-2.072206,1.9320126
379,1778621680.2822068,0.55838627,-0.035733793,0.18769388,-1.012203,-0.7044798,-0.38072148
380,1778621680.2922785,0.35520366,-0.14671588,0.04402696,-1.1184934,-0.23838998,-0.5890264
381,1778621680.30228,0.35520366,-0.14671588,0.04402696,-1.1184934,-0.23838998,-0.5890264
382,1778621680.3122804,0.35520366,-0.14671588,0.04402696,-1.1184934,-0.23838998,-0.5890264
383,1778621680.3222811,0.35520366,-0.14671588,0.04402696,-1.1184934,-0.23838998,-0.5890264
384,1778621680.3322816,0.35520366,-0.14671588,0.04402696,-1.1184934,-0.23838998,-0.5890264
385,1778621680.342282,0.35520366,-0.14671588,0.04402696,-1.1184934,-0.23838998,-0.5890264
386,1778621680.3522828,0.35520366,-0.14671588,0.04402696,-1.1184934,-0.23838998,-0.5890264
387,1778621680.3622832,0.19543824,-0.24403864,-0.2596493,-1.7629558,0.8061888,-0.95737785
388,1778621680.3722842,0.19543824,-0.24403864,-0.2596493,-1.7629558,0.8061888,-0.95737785
389,1778621680.3822849,0.19543824,-0.24403864,-0.2596493,-1.7629558,0.8061888,-0.95737785
390,1778621680.3922853,0.19543824,-0.24403864,-0.2596493,-1.7629558,0.8061888,-0.95737785
391,1778621680.4022858,0.08470006,-0.32331154,-0.7394334,-1.7629558,0.8061888,-0.95737785
392,1778621680.4122863,0.08470006,-0.32331154,-0.7394334,-1.7629558,0.8061888,-0.95737785
393,1778621680.4222867,0.08470006,-0.32331154,-0.7394334,-1.7629558,0.8061888,-0.95737785
394,1778621680.4322948,0.08470006,-0.32331154,-0.7394334,-2.0140212,1.0120503,-1.0050253
395,1778621680.4422977,0.08470006,-0.32331154,-0.7394334,-2.0140212,1.0120503,-1.0050253
396,1778621680.4522984,0.08470006,-0.32331154,-0.7394334,-2.0140212,1.0120503,-1.0050253
397,1778621680.462653,0.08470006,-0.32331154,-0.7394334,-2.0140212,1.0120503,-1.0050253
398,1778621680.472654,0.08470006,-0.32331154,-0.7394334,-2.0140212,1.0120503,-1.0050253
399,1778621680.482655,0.08470006,-0.32331154,-0.7394334,-2.0140212,1.0120503,-1.0050253
400,1778621680.4926555,0.08470006,-0.32331154,-0.7394334,-2.0140212,1.0120503,-1.0050253
401,1778621680.5026581,0.08470006,-0.32331154,-0.7394334,-2.0140212,1.0120503,-1.0050253
402,1778621680.5126731,0.08470006,-0.32331154,-0.7394334,-2.0140212,1.0120503,-1.0050253
403,1778621680.5226738,0.08470006,-0.32331154,-0.7394334,-2.0140212,1.0120503,-1.0050253
404,1778621680.5326748,-1.4514871,-1.0570129,-0.5213719,-4.5521646,0.08842268,-0.85414165
405,1778621680.5426755,-1.4514871,-1.0570129,-0.5213719,-4.5521646,0.08842268,-0.85414165
406,1778621680.5526762,-1.4514871,-1.0570129,-0.5213719,-4.5521646,0.08842268,-0.85414165
407,1778621680.5626771,-1.4514871,-1.0570129,-0.5213719,-4.3933396,-0.20234896,-0.64644766
408,1778621680.5727851,-1.5371019,-1.1548235,2.7693079,-2.6114469,0.7402154,-0.18829907
409,1778621680.5827866,-1.5371019,-1.1548235,2.7693079,-2.6114469,0.7402154,-0.18829907
410,1778621680.5927873,-1.5371019,-1.1548235,2.7693079,-2.6114469,0.7402154,-0.18829907
411,1778621680.6027877,-1.5371019,-1.1548235,2.7693079,-2.6114469,0.7402154,-0.18829907
412,1778621680.6127887,-1.5371019,-1.1548235,2.7693079,-2.6114469,0.7402154,-0.18829907
413,1778621680.6227896,-1.5371019,-1.1548235,2.7693079,-2.6114469,0.7402154,-0.18829907
414,1778621680.6327906,-1.5371019,-1.1548235,2.7693079,-2.6114469,0.7402154,-0.18829907
415,1778621680.6427922,-1.5371019,-1.1548235,2.7693079,-2.6114469,0.7402154,-0.18829907
416,1778621680.6527936,-1.5371019,-1.1548235,2.7693079,-2.6114469,0.7402154,-0.18829907
417,1778621680.6627946,-1.5371019,-1.1548235,2.7693079,-2.6114469,0.7402154,-0.18829907
418,1778621680.672796,-1.5371019,-1.1548235,2.7693079,-2.6114469,0.7402154,-0.18829907
419,1778621680.682797,-1.5371019,-1.1548235,2.7693079,-2.6114469,0.7402154,-0.18829907
420,1778621680.6927977,-1.5371019,-1.1548235,2.7693079,-2.6114469,0.7402154,-0.18829907
421,1778621680.7027984,-1.5290526,-1.2333647,2.628568,-2.6114469,0.7402154,-0.18829907
422,1778621680.7127995,-1.5290526,-1.2333647,2.628568,-2.6114469,0.7402154,-0.18829907
423,1778621680.722801,-1.5290526,-1.2333647,2.628568,-2.6114469,0.7402154,-0.18829907
424,1778621680.7328024,-1.5290526,-1.2333647,2.628568,-2.6114469,0.7402154,-0.18829907
425,1778621680.7428038,-1.5290526,-1.2333647,2.628568,-2.6114469,0.7402154,-0.18829907
426,1778621680.7528045,-1.5290526,-1.2333647,2.628568,-2.6114469,0.7402154,-0.18829907
427,1778621680.7628057,-1.5290526,-1.2333647,2.628568,-1.210734,2.2667665,-0.16752967
428,1778621680.7728064,-1.5290526,-1.2333647,2.628568,-1.210734,2.2667665,-0.16752967
429,1778621680.7828074,-1.5290526,-1.2333647,2.628568,-1.210734,2.2667665,-0.16752967
430,1778621680.7928083,-1.5290526,-1.2333647,2.628568,-1.210734,2.2667665,-0.16752967
431,1778621680.802809,-1.5290526,-1.2333647,2.628568,-1.210734,2.2667665,-0.16752967
432,1778621680.8128097,-1.5290526,-1.2333647,2.628568,-1.210734,2.2667665,-0.16752967
433,1778621680.8228104,-1.5290526,-1.2333647,2.628568,-1.210734,2.2667665,-0.16752967
434,1778621680.832811,-1.5290526,-1.2333647,2.628568,-1.210734,2.2667665,-0.16752967
435,1778621680.8428123,-4.1372538,-2.9239511,-2.2119584,-0.29016078,2.9436047,-0.36850417
436,1778621680.8528142,-4.1372538,-2.9239511,-2.2119584,-0.29016078,2.9436047,-0.36850417
437,1778621680.862815,-4.1372538,-2.9239511,-2.2119584,-0.29016078,2.9436047,-0.36850417
438,1778621680.8728163,-0.40484068,-3.435688,-0.42965922,1.2168427,-0.42287114,-0.39538223
439,1778621680.8828173,-0.40484068,-3.435688,-0.42965922,1.2168427,-0.42287114,-0.39538223
440,1778621680.8928185,-0.40484068,-3.435688,-0.42965922,1.2168427,-0.42287114,-0.39538223
441,1778621680.9028192,-0.40484068,-3.435688,-0.42965922,1.2168427,-0.42287114,-0.39538223
442,1778621680.9128199,-0.40484068,-3.435688,-0.42965922,1.2168427,-0.42287114,-0.39538223
443,1778621680.9228208,-0.40484068,-3.435688,-0.42965922,1.2168427,-0.42287114,-0.39538223
444,1778621680.9328225,-0.40484068,-3.435688,-0.42965922,1.2168427,-0.42287114,-0.39538223
445,1778621680.942824,-0.40484068,-3.435688,-0.42965922,1.2168427,-0.42287114,-0.39538223
446,1778621680.9528246,-0.6719294,-0.5945469,0.033538543,1.4483604,3.1647377,-1.8522947
447,1778621680.9628255,-0.3638627,-0.2669668,0.013293459,1.1496475,3.3266168,-1.4112504
448,1778621680.9728265,-0.3638627,-0.2669668,0.013293459,1.1496475,3.3266168,-1.4112504
449,1778621680.9828274,-0.27434528,-0.11305538,-0.03597771,0.8833105,3.3406668,-1.2438734
450,1778621680.9928334,-0.27434528,-0.11305538,-0.03597771,0.8833105,3.3406668,-1.2438734
451,1778621681.0028365,-0.27434528,-0.11305538,-0.03597771,0.8833105,3.3406668,-1.2438734
452,1778621681.0128381,-0.25849068,-0.080614455,-0.049393125,0.8833105,3.3406668,-1.2438734
453,1778621681.0229702,-0.25849068,-0.080614455,-0.049393125,0.8833105,3.3406668,-1.2438734
454,1778621681.032973,-0.25849068,-0.080614455,-0.049393125,0.8833105,3.3406668,-1.2438734
455,1778621681.0430536,-0.19043794,0.018903542,-0.11012838,0.8833105,3.3406668,-1.2438734
456,1778621681.053055,-0.19043794,0.018903542,-0.11012838,0.8833105,3.3406668,-1.2438734
457,1778621681.063059,-0.19043794,0.018903542,-0.11012838,0.67561644,3.1775658,-1.092379
458,1778621681.0730731,-0.1694611,0.042075627,-0.13281263,0.59192795,3.0108,-1.0239621
459,1778621681.0830739,-0.1694611,0.042075627,-0.13281263,0.59192795,3.0108,-1.0239621
460,1778621681.0930743,-0.1694611,0.042075627,-0.13281263,0.59192795,3.0108,-1.0239621
461,1778621681.103076,-0.07262619,0.105250046,-0.30623737,0.45387253,2.4298673,-0.9482148
462,1778621681.1130774,-0.07262619,0.105250046,-0.30623737,0.45387253,2.4298673,-0.9482148
463,1778621681.123079,-0.07262619,0.105250046,-0.30623737,0.45387253,2.4298673,-0.9482148
464,1778621681.1330807,0.042746395,0.19330397,-0.67138064,-0.023212861,0.4384482,-1.0532836
465,1778621681.143082,0.042746395,0.19330397,-0.67138064,-0.023212861,0.4384482,-1.0532836
466,1778621681.1530824,0.042746395,0.19330397,-0.67138064,-0.023212861,0.4384482,-1.0532836
467,1778621681.1634567,0.042746395,0.19330397,-0.67138064,-0.023212861,0.4384482,-1.0532836
468,1778621681.173458,0.042746395,0.19330397,-0.67138064,-0.023212861,0.4384482,-1.0532836
469,1778621681.183459,0.071040735,0.18086421,-0.67479545,-0.023212861,0.4384482,-1.0532836
470,1778621681.1934595,0.071040735,0.18086421,-0.67479545,-0.023212861,0.4384482,-1.0532836
471,1778621681.203461,0.071040735,0.18086421,-0.67479545,-0.12217296,0.10980295,-1.0893246
472,1778621681.2134628,0.071040735,0.18086421,-0.67479545,-0.12217296,0.10980295,-1.0893246
473,1778621681.223464,0.071040735,0.18086421,-0.67479545,-0.12217296,0.10980295,-1.0893246
474,1778621681.2334652,0.09274931,0.14964288,-0.6218656,-0.4331031,-0.78877914,-1.2053889
475,1778621681.2434661,0.09274931,0.14964288,-0.6218656,-0.4331031,-0.78877914,-1.2053889
476,1778621681.2534666,0.09274931,0.14964288,-0.6218656,-0.4331031,-0.78877914,-1.2053889
477,1778621681.2634676,0.3032494,-0.14598413,0.62625605,-0.262061,1.577711,-2.713614
478,1778621681.2734768,0.3032494,-0.14598413,0.62625605,-0.262061,1.577711,-2.713614
479,1778621681.28353,0.3032494,-0.14598413,0.62625605,-0.262061,1.577711,-2.713614
480,1778621681.2935326,0.3032494,-0.14598413,0.62625605,0.16493349,3.2026112,-2.7960808
481,1778621681.3039198,0.27129632,-0.17232713,0.608938,0.74158984,4.414567,-2.672686
482,1778621681.313923,0.27129632,-0.17232713,0.608938,0.74158984,4.414567,-2.672686
483,1778621681.3239264,0.27129632,-0.17232713,0.608938,0.74158984,4.414567,-2.672686
484,1778621681.3339279,0.27129632,-0.17232713,0.608938,0.74158984,4.414567,-2.672686
485,1778621681.3439288,0.1437279,-0.19476746,0.45795357,1.3555089,4.6179852,-2.4295619
486,1778621681.3539321,0.1437279,-0.19476746,0.45795357,1.3555089,4.6179852,-2.4295619
487,1778621681.363934,0.1437279,-0.19476746,0.45795357,1.3555089,4.6179852,-2.4295619
488,1778621681.3739347,0.086163566,-0.123055965,0.35965514,1.459356,4.5599527,-2.3874123
489,1778621681.3839355,0.086163566,-0.123055965,0.35965514,1.459356,4.5599527,-2.3874123
490,1778621681.3939362,0.086163566,-0.123055965,0.35965514,1.459356,4.5599527,-2.3874123
491,1778621681.403937,0.01762298,-0.11281146,0.08378538,1.6481131,4.370585,-2.3006694
492,1778621681.4139454,0.01762298,-0.11281146,0.08378538,1.6481131,4.370585,-2.3006694
493,1778621681.4239483,0.01762298,-0.11281146,0.08378538,1.6481131,4.370585,-2.3006694
494,1778621681.4339492,0.01762298,-0.11281146,0.08378538,1.6481131,4.370585,-2.3006694
495,1778621681.4443479,0.01762298,-0.11281146,0.08378538,1.6481131,4.370585,-2.3006694
496,1778621681.4543498,0.01762298,-0.11281146,0.08378538,1.6481131,4.370585,-2.3006694
497,1778621681.4643507,0.01762298,-0.11281146,0.08378538,1.6481131,4.370585,-2.3006694
498,1778621681.4743514,0.01762298,-0.11281146,0.08378538,1.6481131,4.370585,-2.3006694
499,1778621681.4843524,-0.038477857,-0.13012955,-0.5191766,1.5955788,3.1262531,-2.086256
500,1778621681.494353,-0.038477857,-0.13012955,-0.5191766,1.5955788,3.1262531,-2.086256
501,1778621681.5043538,-0.038477857,-0.13012955,-0.5191766,1.5955788,3.1262531,-2.086256
502,1778621681.5143547,-0.038477857,-0.13012955,-0.5191766,1.5955788,3.1262531,-2.086256
503,1778621681.524356,-0.14409378,-0.05549104,-0.61015755,0.79717857,0.7848085,-1.8431318
504,1778621681.5343568,-0.14409378,-0.05549104,-0.61015755,0.79717857,0.7848085,-1.8431318
505,1778621681.5443578,-0.14848427,0.05963763,-0.1411058,-0.36651886,-1.0667226,-1.5444189
506,1778621681.5543633,-0.14848427,0.05963763,-0.1411058,-0.6090322,-1.2304344,-1.4961605
507,1778621681.5643654,-0.14848427,0.05963763,-0.1411058,-0.6090322,-1.2304344,-1.4961605
508,1778621681.5743666,-0.14848427,0.05963763,-0.1411058,-0.6090322,-1.2304344,-1.4961605
509,1778621681.5843756,-0.16872935,0.045002624,-0.1425693,-0.9150754,-1.3440552,-1.4314089
510,1778621681.5943792,-0.16872935,0.045002624,-0.1425693,-0.9150754,-1.3440552,-1.4314089
511,1778621681.6043804,-0.24019694,0.0071955416,-0.034758125,-0.82161313,-1.3141229,-1.4552326
512,1778621681.6143808,-0.24019694,0.0071955416,-0.034758125,-0.82161313,-1.3141229,-1.4552326
513,1778621681.6243823,-0.24019694,0.0071955416,-0.034758125,-0.82161313,-1.3141229,-1.4552326
514,1778621681.6343837,-0.24117261,-0.00060979166,0.014513042,-1.129489,-1.3752093,-1.2982404
515,1778621681.6443846,-0.24117261,-0.00060979166,0.014513042,-1.129489,-1.3752093,-1.2982404
516,1778621681.6543853,-0.24117261,-0.00060979166,0.014513042,-1.129489,-1.3752093,-1.2982404
517,1778621681.6643863,-0.24117261,-0.00060979166,0.014513042,-1.129489,-1.3752093,-1.2982404
518,1778621681.6743867,-0.24117261,-0.00060979166,0.014513042,-1.129489,-1.3752093,-1.2982404
519,1778621681.6843874,-0.24117261,-0.00060979166,0.014513042,-1.129489,-1.3752093,-1.2982404
520,1778621681.6946192,-0.23800169,-0.04329521,0.1908648,-1.0128138,-1.2915208,-1.2597558
521,1778621681.704622,-0.23800169,-0.04329521,0.1908648,-1.0128138,-1.2915208,-1.2597558
522,1778621681.7146394,-0.23800169,-0.04329521,0.1908648,-1.0128138,-1.2915208,-1.2597558
523,1778621681.7246408,-0.23800169,-0.04329521,0.1908648,-1.0128138,-1.2915208,-1.2597558
524,1778621681.734642,-0.24727054,-0.034270294,0.1557408,-0.8100067,-1.1388047,-1.196226
525,1778621681.7446432,-0.23019636,-0.15915562,0.09817646,-0.85765415,-1.1724023,-1.2707515
526,1778621681.7546442,-0.23019636,-0.15915562,0.09817646,-0.85765415,-1.1724023,-1.2707515
527,1778621681.7646449,-0.2409287,-0.27818695,-0.17354672,-1.1728604,-1.471726,-0.9775364
528,1778621681.7746456,-0.2409287,-0.27818695,-0.17354672,-1.1728604,-1.471726,-0.9775364
529,1778621681.784646,-0.2409287,-0.27818695,-0.17354672,-1.1728604,-1.471726,-0.9775364
530,1778621681.7946467,-0.2409287,-0.27818695,-0.17354672,-1.1728604,-1.471726,-0.9775364
531,1778621681.8046548,-0.15946053,-0.46161228,-0.5057612,-1.1728604,-1.471726,-0.9775364
532,1778621681.8146584,-0.15946053,-0.46161228,-0.5057612,-1.1728604,-1.471726,-0.9775364
533,1778621681.8246593,-0.15946053,-0.46161228,-0.5057612,-1.1728604,-1.471726,-0.9775364
534,1778621681.8346622,-0.04701494,-0.73187196,-0.73601854,-1.1728604,-1.471726,-0.9775364
535,1778621681.8446634,-0.04701494,-0.73187196,-0.73601854,-1.1728604,-1.471726,-0.9775364
536,1778621681.8546646,0.09299323,-5.459465,-0.69674796,-0.10873393,1.8642066,-0.27320927
537,1778621681.8646653,0.09299323,-5.459465,-0.69674796,-0.10873393,1.8642066,-0.27320927
538,1778621681.8746655,0.09299323,-5.459465,-0.69674796,-0.10873393,1.8642066,-0.27320927
539,1778621681.8846664,0.09299323,-5.459465,-0.69674796,-0.10873393,1.8642066,-0.27320927
540,1778621681.8948193,0.09299323,-5.459465,-0.69674796,-0.10873393,1.8642066,-0.27320927
541,1778621681.9048197,0.09299323,-5.459465,-0.69674796,-0.10873393,1.8642066,-0.27320927
542,1778621681.9148207,0.09299323,-5.459465,-0.69674796,0.8649845,2.1983497,-0.54443324
543,1778621681.9248216,0.09299323,-5.459465,-0.69674796,0.8649845,2.1983497,-0.54443324
544,1778621681.9348223,0.97987425,-3.8942516,-0.19891405,0.8649845,2.1983497,-0.54443324
545,1778621681.9448245,0.97987425,-3.8942516,-0.19891405,0.8649845,2.1983497,-0.54443324
546,1778621681.9548259,0.97987425,-3.8942516,-0.19891405,0.8649845,2.1983497,-0.54443324
547,1778621681.9648268,0.97987425,-3.8942516,-0.19891405,0.8649845,2.1983497,-0.54443324
548,1778621681.9748273,0.97987425,-3.8942516,-0.19891405,0.8649845,2.1983497,-0.54443324
549,1778621681.9850433,0.97987425,-3.8942516,-0.19891405,0.8649845,2.1983497,-0.54443324
550,1778621681.9950445,0.97987425,-3.8942516,-0.19891405,1.0445788,2.3076944,-0.56092656
551,1778621682.0050461,0.97987425,-3.8942516,-0.19891405,1.0445788,2.3076944,-0.56092656
552,1778621682.0150468,0.97987425,-3.8942516,-0.19891405,1.0445788,2.3076944,-0.56092656
553,1778621682.025048,0.97987425,-3.8942516,-0.19891405,1.0445788,2.3076944,-0.56092656
554,1778621682.0350487,0.97987425,-3.8942516,-0.19891405,1.0445788,2.3076944,-0.56092656
555,1778621682.0450497,0.97987425,-3.8942516,-0.19891405,1.0445788,2.3076944,-0.56092656
556,1778621682.0550516,1.0103638,-3.562525,-0.31404272,1.314581,2.1885757,-0.55787224
557,1778621682.0650525,1.0103638,-3.562525,-0.31404272,1.314581,2.1885757,-0.55787224
558,1778621682.075053,1.0103638,-3.562525,-0.31404272,1.314581,2.1885757,-0.55787224
559,1778621682.085059,0.49911448,-3.2122605,-0.5391778,1.111163,0.22769985,-0.16814053
560,1778621682.0950618,0.49911448,-3.2122605,-0.5391778,1.111163,0.22769985,-0.16814053
561,1778621682.105063,0.025428312,-3.073716,-0.5684478,0.94073176,-0.20723587,-0.022143848
562,1778621682.1150737,0.19641389,-0.38209546,-0.061101127,1.0574069,-0.7166971,1.5343397
563,1778621682.125077,0.19641389,-0.38209546,-0.061101127,1.0574069,-0.7166971,1.5343397
564,1778621682.1350782,0.19641389,-0.38209546,-0.061101127,1.0574069,-0.7166971,1.5343397
565,1778621682.1450791,0.19641389,-0.38209546,-0.061101127,1.0574069,-0.7166971,1.5343397
566,1778621682.15508,0.19641389,-0.38209546,-0.061101127,1.1392628,0.2215912,1.8031201
567,1778621682.1650805,0.19641389,-0.38209546,-0.061101127,1.1392628,0.2215912,1.8031201
568,1778621682.1750813,0.19641389,-0.38209546,-0.061101127,1.1392628,0.2215912,1.8031201
569,1778621682.1850824,0.19641389,-0.38209546,-0.061101127,0.8949169,-2.2475243,1.1226168
570,1778621682.1950853,0.36593598,-0.2842849,-0.13866661,0.8949169,-2.2475243,1.1226168
571,1778621682.2050865,0.36593598,-0.2842849,-0.13866661,0.8949169,-2.2475243,1.1226168
572,1778621682.2150874,0.48350382,-0.10061563,-0.23233064,1.2993094,1.4323252,1.7817398
573,1778621682.225089,0.48350382,-0.10061563,-0.23233064,1.2993094,1.4323252,1.7817398
574,1778621682.2350903,0.48350382,-0.10061563,-0.23233064,1.2993094,1.4323252,1.7817398
575,1778621682.2450917,0.48350382,-0.10061563,-0.23233064,1.3041964,1.3938407,1.7823507
576,1778621682.2551012,0.48350382,-0.10061563,-0.23233064,1.3041964,1.3938407,1.7823507
577,1778621682.2651024,0.48350382,-0.10061563,-0.23233064,1.3041964,1.3938407,1.7823507
578,1778621682.2751036,0.48350382,-0.10061563,-0.23233064,1.3041964,1.3938407,1.7823507
579,1778621682.285104,0.48350382,-0.10061563,-0.23233064,1.3041964,1.3938407,1.7823507
580,1778621682.295105,-0.04481969,0.4601488,-0.07280912,0.031154104,-1.0074687,0.93508124
581,1778621682.305106,-0.04481969,0.4601488,-0.07280912,0.031154104,-1.0074687,0.93508124
582,1778621682.3151064,-0.04481969,0.4601488,-0.07280912,0.031154104,-1.0074687,0.93508124
583,1778621682.3251078,-0.074577525,0.07476046,-0.06890646,-0.67928165,-1.3232858,1.424384
584,1778621682.3351107,-0.074577525,0.07476046,-0.06890646,-0.67928165,-1.3232858,1.424384
585,1778621682.3451123,-0.074577525,0.07476046,-0.06890646,-0.67928165,-1.3232858,1.424384
586,1778621682.3551135,-0.08384635,0.053783625,-0.09500554,-0.74342245,-1.3342814,1.5893174
587,1778621682.3651142,-0.08384635,0.053783625,-0.09500554,-0.74342245,-1.3342814,1.5893174
588,1778621682.375115,-0.08384635,0.053783625,-0.09500554,-0.74342245,-1.3342814,1.5893174
589,1778621682.3851159,-0.08384635,0.053783625,-0.09500554,-0.74342245,-1.3342814,1.5893174
590,1778621682.3951166,-0.08384635,0.053783625,-0.09500554,-0.74342245,-1.3342814,1.5893174
591,1778621682.4051178,-0.11872645,-0.007683375,-0.20330454,-0.77091134,-1.3471096,1.8116722
592,1778621682.415119,-0.11872645,-0.007683375,-0.20330454,-0.77091134,-1.3471096,1.8116722
593,1778621682.4251316,-0.11872645,-0.007683375,-0.20330454,-0.77091134,-1.3471096,1.8116722
594,1778621682.435141,-0.11872645,-0.007683375,-0.20330454,-0.77091134,-1.3471096,1.8116722
595,1778621682.445142,-0.11872645,-0.007683375,-0.20330454,-0.75502884,-1.3440552,1.8727587
596,1778621682.455143,-0.11872645,-0.007683375,-0.20330454,-0.75502884,-1.3440552,1.8727587
597,1778621682.4651434,-0.15921661,-0.038904708,-0.2816018,-0.75502884,-1.3440552,1.8727587
598,1778621682.4751444,-0.18751094,-0.06475988,-0.32014063,-0.75502884,-1.3440552,1.8727587
599,1778621682.485145,-0.18751094,-0.06475988,-0.32014063,-0.75502884,-1.3440552,1.8727587
600,1778621682.4951456,-0.18751094,-0.06475988,-0.32014063,-0.75502884,-1.3440552,1.8727587
601,1778621682.5052326,-0.011403104,-0.19403571,-0.22208612,0.76052666,-0.23777911,1.9185735
602,1778621682.5152335,-0.011403104,-0.19403571,-0.22208612,0.76052666,-0.23777911,1.9185735
603,1778621682.525235,-0.011403104,-0.19403571,-0.22208612,0.76052666,-0.23777911,1.9185735
604,1778621682.5352356,-0.011403104,-0.19403571,-0.22208612,0.76052666,-0.23777911,1.9185735
605,1778621682.545237,0.025184397,-0.21037814,-0.21159773,0.75930494,-0.34651303,1.9179627
606,1778621682.555239,0.025184397,-0.21037814,-0.21159773,0.75930494,-0.34651303,1.9179627
607,1778621682.5652401,0.025184397,-0.21037814,-0.21159773,0.75930494,-0.34651303,1.9179627
608,1778621682.5752409,0.025184397,-0.21037814,-0.21159773,0.75930494,-0.34651303,1.9179627
609,1778621682.585242,-1.2139122,-1.6272901,-0.12110463,1.5106686,-0.57741994,-2.365421
610,1778621682.5952427,-1.2139122,-1.6272901,-0.12110463,1.5106686,-0.57741994,-2.365421
611,1778621682.6052432,-1.2139122,-1.6272901,-0.12110463,1.5106686,-0.57741994,-2.365421
612,1778621682.6152446,-1.2139122,-1.6272901,-0.12110463,1.5106686,-0.57741994,-2.365421
613,1778621682.6252453,-1.2139122,-1.6272901,-0.12110463,1.5106686,-0.57741994,-2.365421
614,1778621682.6352463,-1.2139122,-1.6272901,-0.12110463,1.5106686,-0.57741994,-2.365421
615,1778621682.6452503,-1.2139122,-1.6272901,-0.12110463,1.5106686,-0.57741994,-2.365421
616,1778621682.6552517,-1.2139122,-1.6272901,-0.12110463,1.5106686,-0.57741994,-2.365421
617,1778621682.6652539,-1.2139122,-1.6272901,-0.12110463,1.5106686,-0.57741994,-2.365421
618,1778621682.675255,-1.2139122,-1.6272901,-0.12110463,1.5106686,-0.57741994,-2.365421
619,1778621682.6852558,-1.2139122,-1.6272901,-0.12110463,1.5638138,-0.03924806,-2.275624
620,1778621682.6952565,-1.2139122,-1.6272901,-0.12110463,1.5638138,-0.03924806,-2.275624
621,1778621682.7052572,-1.2139122,-1.6272901,-0.12110463,1.5638138,-0.03924806,-2.275624
622,1778621682.7152586,-1.2139122,-1.6272901,-0.12110463,1.5638138,-0.03924806,-2.275624
623,1778621682.7252598,-0.95536065,-1.3023931,-0.023537958,1.5638138,-0.03924806,-2.275624
624,1778621682.7352605,-0.95536065,-1.3023931,-0.023537958,1.5638138,-0.03924806,-2.275624
625,1778621682.7452617,-0.95536065,-1.3023931,-0.023537958,1.5638138,-0.03924806,-2.275624
626,1778621682.7552645,-0.74120176,-1.0635986,-0.016220458,1.6707152,0.64492047,-2.0923645
627,1778621682.7652662,-0.74120176,-1.0635986,-0.016220458,1.6707152,0.64492047,-2.0923645
628,1778621682.775267,-0.74120176,-1.0635986,-0.016220458,1.6707152,0.64492047,-2.0923645
629,1778621682.7852678,-0.60558414,-0.8965157,-0.011829958,1.6707152,0.64492047,-2.0923645
630,1778621682.795268,-0.60558414,-0.8965157,-0.011829958,1.6707152,0.64492047,-2.0923645
631,1778621682.8052692,-0.60558414,-0.8965157,-0.011829958,1.6707152,0.64492047,-2.0923645
632,1778621682.81527,-0.60558414,-0.8965157,-0.011829958,1.6707152,0.64492047,-2.0923645
633,1778621682.8255315,-0.60558414,-0.8965157,-0.011829958,1.6823215,0.7982476,-2.0434954
634,1778621682.835533,-0.49069935,-0.7574832,-0.014513042,1.6737695,1.0841323,-1.9665264
635,1778621682.8455334,-0.49069935,-0.7574832,-0.014513042,1.6737695,1.0841323,-1.9665264
636,1778621682.855534,-0.49069935,-0.7574832,-0.014513042,1.6737695,1.0841323,-1.9665264
637,1778621682.8655434,-0.49069935,-0.7574832,-0.014513042,1.6737695,1.0841323,-1.9665264
638,1778621682.875547,-0.49069935,-0.7574832,-0.014513042,1.6737695,1.0841323,-1.9665264
639,1778621682.8855479,-0.49069935,-0.7574832,-0.014513042,1.6737695,1.0841323,-1.9665264
640,1778621682.8956573,-0.49069935,-0.7574832,-0.014513042,1.6737695,1.0841323,-1.9665264
641,1778621682.905659,-0.49069935,-0.7574832,-0.014513042,1.6737695,1.0841323,-1.9665264
642,1778621682.9156604,-0.28458977,-0.5255185,0.02646496,1.6737695,1.0841323,-1.9665264
643,1778621682.925661,-0.28458977,-0.5255185,0.02646496,1.6737695,1.0841323,-1.9665264
644,1778621682.9356618,-0.28458977,-0.5255185,0.02646496,1.6737695,1.0841323,-1.9665264
645,1778621682.9456627,-0.28458977,-0.5255185,0.02646496,1.4801253,1.7389793,-1.8162537
646,1778621682.9556634,-0.28458977,-0.5255185,0.02646496,1.4801253,1.7389793,-1.8162537
647,1778621682.9656646,-0.28458977,-0.5255185,0.02646496,1.4801253,1.7389793,-1.8162537
648,1778621682.9756658,-0.28458977,-0.5255185,0.02646496,1.4801253,1.7389793,-1.8162537
649,1778621682.9856668,-0.28458977,-0.5255185,0.02646496,1.4801253,1.7389793,-1.8162537
650,1778621682.9956677,-0.6841253,-3.9118135,0.76943517,0.20402883,-0.42959064,1.4103341
651,1778621683.0056684,-0.6841253,-3.9118135,0.76943517,0.20402883,-0.42959064,1.4103341
652,1778621683.015669,-0.6841253,-3.9118135,0.76943517,0.20402883,-0.42959064,1.4103341
653,1778621683.0256703,0.5425316,-3.653262,-0.22598879,1.0653481,-1.0264056,-0.53404856
654,1778621683.035671,0.5425316,-3.653262,-0.22598879,1.0653481,-1.0264056,-0.53404856
655,1778621683.0456722,0.5425316,-3.653262,-0.22598879,1.0653481,-1.0264056,-0.53404856
656,1778621683.0556731,0.5425316,-3.653262,-0.22598879,1.0653481,-1.0264056,-0.53404856
657,1778621683.066216,0.5425316,-3.653262,-0.22598879,0.51740247,-2.596328,0.42073312
658,1778621683.0762177,0.5425316,-3.653262,-0.22598879,0.51740247,-2.596328,0.42073312
659,1778621683.086219,0.5425316,-3.653262,-0.22598879,0.51740247,-2.596328,0.42073312
660,1778621683.0964932,-0.6365615,-1.3077593,0.03524596,1.0134246,2.888016,1.0242676
661,1778621683.1064947,-0.6365615,-1.3077593,0.03524596,1.0134246,2.888016,1.0242676
662,1778621683.1164958,-0.6365615,-1.3077593,0.03524596,1.2718204,3.2771368,0.93508124
663,1778621683.1264963,-0.6365615,-1.3077593,0.03524596,1.2718204,3.2771368,0.93508124
664,1778621683.1364975,-0.6365615,-1.3077593,0.03524596,1.2718204,3.2771368,0.93508124
665,1778621683.1465075,-0.57728976,-1.1709219,-0.13549572,1.2718204,3.2771368,0.93508124
666,1778621683.1565113,-0.57728976,-1.1709219,-0.13549572,1.2718204,3.2771368,0.93508124
667,1778621683.1665125,-0.57728976,-1.1709219,-0.13549572,1.2718204,3.2771368,0.93508124
668,1778621683.1765156,-0.57728976,-1.1709219,-0.13549572,1.2718204,3.2771368,0.93508124
669,1778621683.1866353,-0.57728976,-1.1709219,-0.13549572,1.2718204,3.2771368,0.93508124
670,1778621683.1966362,-0.57728976,-1.1709219,-0.13549572,1.2718204,3.2771368,0.93508124
671,1778621683.2066374,-0.024086772,0.054027542,-0.16891229,-0.16982041,-1.4540108,2.4347544
672,1778621683.2166386,-0.024086772,0.054027542,-0.16891229,-0.16982041,-1.4540108,2.4347544
673,1778621683.2266543,-0.024086772,0.054027542,-0.16891229,-0.16982041,-1.4540108,2.4347544
674,1778621683.2366633,-0.024086772,0.054027542,-0.16891229,-0.16982041,-1.4540108,2.4347544
675,1778621683.2466657,-0.013842272,-0.009878625,-0.03158721,-0.85765415,-3.2933247,1.5221223
676,1778621683.2566679,-0.013842272,-0.009878625,-0.03158721,-0.85765415,-3.2933247,1.5221223
677,1778621683.266669,-0.013842272,-0.009878625,-0.03158721,-0.85765415,-3.2933247,1.5221223
678,1778621683.2769918,-0.013842272,-0.009878625,-0.03158721,-0.6493493,-3.4521496,1.550833
679,1778621683.286994,-0.013842272,-0.009878625,-0.03158721,-0.6493493,-3.4521496,1.550833
680,1778621683.2969952,-0.013842272,-0.009878625,-0.03158721,-0.6493493,-3.4521496,1.550833
681,1778621683.3069968,-0.013842272,-0.009878625,-0.03158721,-0.4807506,-3.3910632,1.5807654
682,1778621683.316998,-0.013842272,-0.009878625,-0.03158721,-0.4807506,-3.3910632,1.5807654
683,1778621683.3269985,-0.013842272,-0.009878625,-0.03158721,-0.4807506,-3.3910632,1.5807654
684,1778621683.3369992,-0.0075004376,-0.031099375,-0.0013415418,-0.4807506,-3.3910632,1.5807654
685,1778621683.3469996,-0.0075004376,-0.031099375,-0.0013415418,-0.4807506,-3.3910632,1.5807654
686,1778621683.3570004,-0.0075004376,-0.031099375,-0.0013415418,-0.4807506,-3.3910632,1.5807654
687,1778621683.367213,-0.0075004376,-0.031099375,-0.0013415418,-0.4807506,-3.3910632,1.5807654
688,1778621683.3772142,-0.0075004376,-0.031099375,-0.0013415418,-0.4807506,-3.3910632,1.5807654
689,1778621683.3872154,-0.0075004376,-0.031099375,-0.0013415418,-0.4807506,-3.3910632,1.5807654
690,1778621683.3972166,-0.0075004376,-0.031099375,-0.0013415418,-0.4807506,-3.3910632,1.5807654
691,1778621683.4072175,-0.0075004376,-0.031099375,-0.0013415418,-0.4807506,-3.3910632,1.5807654
692,1778621683.417219,-0.0075004376,-0.031099375,-0.0013415418,-0.4807506,-3.3910632,1.5807654
693,1778621683.4272199,-0.0075004376,-0.031099375,-0.0013415418,-0.4807506,-3.3910632,1.5807654
694,1778621683.4372206,-0.0075004376,-0.031099375,-0.0013415418,-0.4807506,-3.3910632,1.5807654
695,1778621683.4472213,-0.0075004376,-0.031099375,-0.0013415418,-0.4807506,-3.3910632,1.5807654
696,1778621683.457223,-0.0075004376,-0.031099375,-0.0013415418,-0.4807506,-3.3910632,1.5807654
697,1778621683.4672236,-0.0075004376,-0.031099375,-0.0013415418,-0.4807506,-3.3910632,1.5807654
698,1778621683.4772246,-0.026038107,-0.043783043,0.017927876,-0.4807506,-3.3910632,1.5807654
699,1778621683.4873455,-0.026038107,-0.043783043,0.017927876,-0.4807506,-3.3910632,1.5807654
700,1778621683.4973462,-0.026038107,-0.043783043,0.017927876,-0.4807506,-3.3910632,1.5807654
701,1778621683.5073469,-0.051405437,-0.05646671,0.066223375,0.080634154,-2.4167337,1.514181
702,1778621683.5173473,-0.051405437,-0.05646671,0.066223375,0.080634154,-2.4167337,1.514181
703,1778621683.527348,-0.051405437,-0.05646671,0.066223375,0.080634154,-2.4167337,1.514181
704,1778621683.537351,0.18885247,-3.173478,-0.5716187,-0.8631519,-1.8620685,-1.8266385
705,1778621683.5473523,0.18885247,-3.173478,-0.5716187,-0.8631519,-1.8620685,-1.8266385
706,1778621683.5573533,0.49984625,0.15476513,-0.16452178,-1.8417573,-3.2249079,-2.1821618
707,1778621683.567355,0.49984625,0.15476513,-0.16452178,-1.8417573,-3.2249079,-2.1821618
708,1778621683.5773559,0.49984625,0.15476513,-0.16452178,-1.8417573,-3.2249079,-2.1821618
709,1778621683.5873566,-0.22629368,-0.6252804,-0.9850575,-0.8955278,-0.8156572,-0.33307403
710,1778621683.597544,-0.22629368,-0.6252804,-0.9850575,-0.8955278,-0.8156572,-0.33307403
711,1778621683.6075456,-0.22629368,-0.6252804,-0.9850575,-0.8955278,-0.8156572,-0.33307403
712,1778621683.6175466,-0.22629368,-0.6252804,-0.9850575,-0.8955278,-0.8156572,-0.33307403
713,1778621683.6275475,-0.22629368,-0.6252804,-0.9850575,-0.8955278,-0.8156572,-0.33307403
714,1778621683.6375482,-0.27117437,-0.8935887,-0.7487022,-0.8955278,-0.8156572,-0.33307403
715,1778621683.64755,-0.27117437,-0.8935887,-0.7487022,-0.8955278,-0.8156572,-0.33307403
716,1778621683.657551,-0.27117437,-0.8935887,-0.7487022,-0.8955278,-0.8156572,-0.33307403
717,1778621683.6675522,-0.27117437,-0.8935887,-0.7487022,-0.8955278,-0.8156572,-0.33307403
718,1778621683.677553,-0.27117437,-0.8935887,-0.7487022,-0.8955278,-0.8156572,-0.33307403
719,1778621683.687554,-0.27117437,-0.8935887,-0.7487022,-0.8955278,-0.8156572,-0.33307403
720,1778621683.6975543,-0.27117437,-0.8935887,-0.7487022,-0.8955278,-0.8156572,-0.33307403
721,1778621683.7076223,-0.27117437,-0.8935887,-0.7487022,-1.4263693,-1.5401428,-0.06551525
722,1778621683.7176232,-0.27117437,-0.8935887,-0.7487022,-1.4263693,-1.5401428,-0.06551525
723,1778621683.7276237,-0.27117437,-0.8935887,-0.7487022,-1.4263693,-1.5401428,-0.06551525
724,1778621683.7376246,-0.27117437,-0.8935887,-0.7487022,-1.4263693,-1.5401428,-0.06551525
725,1778621683.747625,-0.27117437,-0.8935887,-0.7487022,-1.4263693,-1.5401428,-0.06551525
726,1778621683.7576265,-0.31434762,-1.0018877,-0.43380582,-0.7525854,-0.74357516,-0.40515608
727,1778621683.7676482,-0.31434762,-1.0018877,-0.43380582,-0.7525854,-0.74357516,-0.40515608
728,1778621683.777649,-0.31434762,-1.0018877,-0.43380582,-0.7525854,-0.74357516,-0.40515608
729,1778621683.7876499,-0.31434762,-1.0018877,-0.43380582,-0.7525854,-0.74357516,-0.40515608
730,1778621683.7980008,-0.38459563,-1.3599575,0.25306356,-0.7525854,-0.74357516,-0.40515608
731,1778621683.8080025,-0.38459563,-1.3599575,0.25306356,-0.7525854,-0.74357516,-0.40515608
732,1778621683.8180037,-0.38459563,-1.3599575,0.25306356,-0.7525854,-0.74357516,-0.40515608
733,1778621683.8280041,-0.38459563,-1.3599575,0.25306356,-0.7525854,-0.74357516,-0.40515608
734,1778621683.8380048,-0.38459563,-1.3599575,0.25306356,-0.7525854,-0.74357516,-0.40515608
735,1778621683.8480055,-0.41508517,-1.5089904,0.3284338,0.12705988,-1.2402083,1.491579
736,1778621683.8580065,-0.41508517,-1.5089904,0.3284338,0.12705988,-1.2402083,1.491579
737,1778621683.8680072,-0.41508517,-1.5089904,0.3284338,0.12705988,-1.2402083,1.491579
738,1778621683.8780081,-0.65168434,-2.1026835,0.26355198,0.12705988,-1.2402083,1.491579
739,1778621683.888129,-0.65168434,-2.1026835,0.26355198,0.12705988,-1.2402083,1.491579
740,1778621683.8981295,-0.65168434,-2.1026835,0.26355198,0.12705988,-1.2402083,1.491579
741,1778621683.9081352,-0.65168434,-2.1026835,0.26355198,0.12705988,-1.2402083,1.491579
742,1778621683.918137,-0.65168434,-2.1026835,0.26355198,0.12705988,-1.2402083,1.491579
743,1778621683.928138,-0.65168434,-2.1026835,0.26355198,0.12705988,-1.2402083,1.491579
744,1778621683.9381387,-0.65168434,-2.1026835,0.26355198,0.12705988,-1.2402083,1.491579
745,1778621683.9481394,-0.65168434,-2.1026835,0.26355198,0.12705988,-1.2402083,1.491579
746,1778621683.9581404,-0.65168434,-2.1026835,0.26355198,0.12705988,-1.2402083,1.491579
747,1778621683.9681408,-0.65168434,-2.1026835,0.26355198,0.12705988,-1.2402083,1.491579
748,1778621683.9784906,-1.1258584,-3.2100654,0.17281497,0.17898338,0.5673407,2.5282166
749,1778621683.9884913,-1.1258584,-3.2100654,0.17281497,0.17898338,0.5673407,2.5282166
750,1778621683.998492,-1.1258584,-3.2100654,0.17281497,0.17898338,0.5673407,2.5282166
751,1778621684.0084927,-1.1258584,-3.2100654,0.17281497,0.17898338,0.5673407,2.5282166
752,1778621684.0184932,-1.3848978,-6.550748,-0.34819105,0.026267186,2.557538,3.5544693
753,1778621684.028494,-1.3848978,-6.550748,-0.34819105,0.026267186,2.557538,3.5544693
754,1778621684.0384948,-1.3848978,-6.550748,-0.34819105,0.026267186,2.557538,3.5544693
755,1778621684.0484972,-1.3848978,-6.550748,-0.34819105,0.026267186,2.557538,3.5544693
756,1778621684.0584986,-1.3848978,-6.550748,-0.34819105,0.026267186,2.557538,3.5544693
757,1778621684.0687268,-1.3848978,-6.550748,-0.34819105,-0.0018325944,2.9436047,3.5599673
758,1778621684.0787275,-1.3848978,-6.550748,-0.34819105,-0.0018325944,2.9436047,3.5599673
759,1778621684.0887287,-1.3848978,-6.550748,-0.34819105,-0.0018325944,2.9436047,3.5599673
760,1778621684.0987303,-1.3848978,-6.550748,-0.34819105,0.18997894,3.4261878,2.350455
761,1778621684.108743,-1.3848978,-6.550748,-0.34819105,0.18997894,3.4261878,2.350455
762,1778621684.1187453,-1.3848978,-6.550748,-0.34819105,0.18997894,3.4261878,2.350455
763,1778621684.1287465,-0.7160784,-7.3956757,-0.2628202,0.18997894,3.4261878,2.350455
764,1778621684.138747,-0.7160784,-7.3956757,-0.2628202,0.18997894,3.4261878,2.350455
765,1778621684.1487477,-0.7160784,-7.3956757,-0.2628202,0.18997894,3.4261878,2.350455
766,1778621684.159085,0.8301094,-5.1796927,-0.3325804,1.3781109,2.5092797,-0.20234896
767,1778621684.1690855,0.8301094,-5.1796927,-0.3325804,1.3781109,2.5092797,-0.20234896
768,1778621684.1790864,0.8301094,-5.1796927,-0.3325804,1.3781109,2.5092797,-0.20234896
769,1778621684.1890953,1.0406095,-4.8011336,-0.42965922,1.6114613,2.1189373,-0.5865829
770,1778621684.199098,1.0406095,-4.8011336,-0.42965922,1.6114613,2.1189373,-0.5865829
771,1778621684.209099,1.0406095,-4.8011336,-0.42965922,1.6114613,2.1189373,-0.5865829
772,1778621684.2190998,1.0406095,-4.8011336,-0.42965922,1.6114613,2.1189373,-0.5865829
773,1778621684.2291007,1.0406095,-4.8011336,-0.42965922,1.6114613,2.1189373,-0.5865829
774,1778621684.2391012,1.1435424,-3.6986303,-0.4511239,1.5668682,0.14950916,-1.0807725
775,1778621684.2492929,1.1435424,-3.6986303,-0.4511239,1.5668682,0.14950916,-1.0807725
776,1778621684.2592938,1.1435424,-3.6986303,-0.4511239,1.5668682,0.14950916,-1.0807725
777,1778621684.2692964,0.54009247,-2.8639476,-0.099152125,1.1685843,-0.37827802,-0.7973313
778,1778621684.2792976,0.54009247,-2.8639476,-0.099152125,1.1685843,-0.37827802,-0.7973313
779,1778621684.2892988,0.54009247,-2.8639476,-0.099152125,1.1685843,-0.37827802,-0.7973313
780,1778621684.2993,0.54009247,-2.8639476,-0.099152125,1.1685843,-0.37827802,-0.7973313
781,1778621684.3093004,0.54009247,-2.8639476,-0.099152125,1.1685843,-0.37827802,-0.7973313
782,1778621684.3193011,0.54009247,-2.8639476,-0.099152125,1.1685843,-0.37827802,-0.7973313
783,1778621684.3293016,0.54009247,-2.8639476,-0.099152125,1.1685843,-0.37827802,-0.7973313
784,1778621684.3396647,0.54009247,-2.8639476,-0.099152125,0.08613193,-0.82420933,0.87338394
785,1778621684.3496668,0.54009247,-2.8639476,-0.099152125,0.08613193,-0.82420933,0.87338394
786,1778621684.359668,0.54009247,-2.8639476,-0.099152125,0.08613193,-0.82420933,0.87338394
787,1778621684.369669,0.22543997,-2.5068536,-0.07036996,0.08613193,-0.82420933,0.87338394
788,1778621684.37967,0.22543997,-2.5068536,-0.07036996,0.08613193,-0.82420933,0.87338394
789,1778621684.3896704,0.22543997,-2.5068536,-0.07036996,0.08613193,-0.82420933,0.87338394
790,1778621684.3996708,0.22543997,-2.5068536,-0.07036996,0.08613193,-0.82420933,0.87338394
791,1778621684.4096718,-0.0670161,-2.2846453,-0.16915621,0.08613193,-0.82420933,0.87338394
792,1778621684.4196723,-0.0670161,-2.2846453,-0.16915621,0.08613193,-0.82420933,0.87338394
793,1778621684.429887,-0.0670161,-2.2846453,-0.16915621,0.08613193,-0.82420933,0.87338394
794,1778621684.4398887,-0.0670161,-2.2846453,-0.16915621,0.045814857,-0.5242747,1.4396555
795,1778621684.4498901,-0.0670161,-2.2846453,-0.16915621,0.045814857,-0.5242747,1.4396555
796,1778621684.4598918,-0.34312975,-2.107562,-0.2786748,0.10262528,-0.4479166,1.6045891
797,1778621684.469893,-0.34312975,-2.107562,-0.2786748,0.10262528,-0.4479166,1.6045891
798,1778621684.4798934,-0.34312975,-2.107562,-0.2786748,0.10262528,-0.4479166,1.6045891
799,1778621684.4898944,-0.34312975,-2.107562,-0.2786748,0.10262528,-0.4479166,1.6045891
800,1778621684.499895,-0.34312975,-2.107562,-0.2786748,0.10262528,-0.4479166,1.6045891
801,1778621684.509897,-0.34312975,-2.107562,-0.2786748,0.10262528,-0.4479166,1.6045891
802,1778621684.5202138,-0.60314494,-1.8846221,-0.3179454,0.26083925,-0.20112723,1.6888884
803,1778621684.530215,-0.60314494,-1.8846221,-0.3179454,0.26083925,-0.20112723,1.6888884
804,1778621684.5402157,-0.60314494,-1.8846221,-0.3179454,0.26083925,-0.20112723,1.6888884
805,1778621684.5502164,-0.60314494,-1.8846221,-0.3179454,0.26083925,-0.20112723,1.6888884
806,1778621684.5602171,-0.60314494,-1.8846221,-0.3179454,0.26083925,-0.20112723,1.6888884
807,1778621684.570218,-0.8212065,-1.6502184,-0.35111806,0.26083925,-0.20112723,1.6888884
808,1778621684.580219,-0.8212065,-1.6502184,-0.35111806,0.26083925,-0.20112723,1.6888884
809,1778621684.59022,-0.8212065,-1.6502184,-0.35111806,0.26083925,-0.20112723,1.6888884
810,1778621684.6002207,-0.8212065,-1.6502184,-0.35111806,0.26083925,-0.20112723,1.6888884
811,1778621684.6102467,-0.8212065,-1.6502184,-0.35111806,0.28527385,-0.11866048,1.5398374
812,1778621684.620248,-0.8212065,-1.6502184,-0.35111806,0.28527385,-0.11866048,1.5398374
813,1778621684.630249,-0.8212065,-1.6502184,-0.35111806,0.28527385,-0.11866048,1.5398374
814,1778621684.64025,-0.8212065,-1.6502184,-0.35111806,0.28527385,-0.11866048,1.5398374
815,1778621684.650251,-1.0190228,-1.4375229,-0.3372148,0.3762927,0.04138609,0.832456
816,1778621684.6602514,-1.0190228,-1.4375229,-0.3372148,0.3762927,0.04138609,0.832456
817,1778621684.670252,-1.0190228,-1.4375229,-0.3372148,0.3762927,0.04138609,0.832456
818,1778621684.6802537,-1.0190228,-1.4375229,-0.3372148,0.3762927,0.04138609,0.832456
819,1778621684.6902583,-1.0190228,-1.4375229,-0.3372148,0.52839804,0.1018617,0.5209149
820,1778621684.7002602,-1.0190228,-1.4375229,-0.3372148,0.52839804,0.1018617,0.5209149
821,1778621684.710261,-1.0212182,-1.4363034,-0.31160355,0.52839804,0.1018617,0.5209149
822,1778621684.72027,-1.0212182,-1.4363034,-0.31160355,0.52839804,0.1018617,0.5209149
823,1778621684.730275,-1.0212182,-1.4363034,-0.31160355,0.52839804,0.1018617,0.5209149
824,1778621684.7402766,-0.89560103,-1.3806903,-0.1630583,0.72204214,0.19349141,0.5086976
825,1778621684.7502773,-0.89560103,-1.3806903,-0.1630583,0.72204214,0.19349141,0.5086976
826,1778621684.760278,-0.89560103,-1.3806903,-0.1630583,0.72204214,0.19349141,0.5086976
827,1778621684.7702801,-0.11336028,-0.7648007,-0.08768804,0.5229002,0.72372204,1.7970115
828,1778621684.780281,-0.11336028,-0.7648007,-0.08768804,0.5229002,0.72372204,1.7970115
829,1778621684.790282,0.105920814,-0.5757653,-0.1325687,0.5070178,0.6204859,1.8336633
830,1778621684.800283,0.105920814,-0.5757653,-0.1325687,0.5070178,0.6204859,1.8336633
831,1778621684.8102834,0.105920814,-0.5757653,-0.1325687,0.5070178,0.6204859,1.8336633
832,1778621684.8202841,0.16543648,-0.50307816,-0.14622805,0.5070178,0.6204859,1.8336633
833,1778621684.8302848,0.16543648,-0.50307816,-0.14622805,0.5070178,0.6204859,1.8336633
834,1778621684.8402855,0.16543648,-0.50307816,-0.14622805,0.5070178,0.6204859,1.8336633
835,1778621684.850286,0.36788732,-0.15500905,-0.16891229,0.51251554,0.25763223,1.8868086
836,1778621684.8605967,0.36788732,-0.15500905,-0.16891229,0.51251554,0.25763223,1.8868086
837,1778621684.8705974,0.36788732,-0.15500905,-0.16891229,0.51251554,0.25763223,1.8868086
838,1778621684.880598,0.36788732,-0.15500905,-0.16891229,0.51251554,0.25763223,1.8868086
839,1778621684.8905988,0.36788732,-0.15500905,-0.16891229,0.51251554,0.25763223,1.8868086
840,1778621684.9005992,0.36788732,-0.15500905,-0.16891229,0.51251554,0.25763223,1.8868086
841,1778621684.9106,0.36788732,-0.15500905,-0.16891229,0.51251554,0.25763223,1.8868086
842,1778621684.9206004,0.36788732,-0.15500905,-0.16891229,0.51251554,0.25763223,1.8868086
843,1778621684.9306014,0.36788732,-0.15500905,-0.16891229,0.51251554,0.25763223,1.8868086
844,1778621684.940602,0.36788732,-0.15500905,-0.16891229,0.51251554,0.25763223,1.8868086
845,1778621684.9507926,0.36788732,-0.15500905,-0.16891229,0.51251554,0.25763223,1.8868086
846,1778621684.9607935,0.43081784,-0.029635875,-0.14793546,0.52656543,0.1348484,1.8892521
847,1778621684.9707942,0.43081784,-0.029635875,-0.14793546,0.5235111,-0.170584,1.6778928
848,1778621684.980795,0.43081784,-0.029635875,-0.14793546,0.5235111,-0.170584,1.6778928
849,1778621684.9907963,0.43081784,-0.029635875,-0.14793546,0.5235111,-0.170584,1.6778928
850,1778621685.0007994,0.5061881,0.33916613,0.107201375,0.44959646,-0.015424335,1.5538872
851,1778621685.0108006,0.5061881,0.33916613,0.107201375,0.44959646,-0.015424335,1.5538872
852,1778621685.0208013,0.5061881,0.33916613,0.107201375,0.44959646,-0.015424335,1.5538872
853,1778621685.0308022,0.5061881,0.33916613,0.107201375,0.44959646,-0.015424335,1.5538872
854,1778621685.041166,0.5061881,0.33916613,0.107201375,0.44959646,-0.015424335,1.5538872
855,1778621685.0511668,0.5061881,0.33916613,0.107201375,0.29932374,0.31199917,1.3810126
856,1778621685.0619676,0.5061881,0.33916613,0.107201375,0.29932374,0.31199917,1.3810126
857,1778621685.071969,0.5061881,0.33916613,0.107201375,0.29932374,0.31199917,1.3810126
858,1778621685.08197,0.535702,0.36868006,0.10939662,0.29932374,0.31199917,1.3810126
859,1778621685.0920324,0.535702,0.36868006,0.10939662,0.29932374,0.31199917,1.3810126
860,1778621685.102036,0.535702,0.36868006,0.10939662,0.29932374,0.31199917,1.3810126
861,1778621685.1120389,0.535702,0.36868006,0.10939662,0.29932374,0.31199917,1.3810126
862,1778621685.1220417,0.535702,0.36868006,0.10939662,0.29932374,0.31199917,1.3810126
863,1778621685.1320424,0.43130565,0.40258446,0.06890646,0.06352994,0.687681,1.1916444
864,1778621685.142043,0.43130565,0.40258446,0.06890646,0.06352994,0.687681,1.1916444
865,1778621685.1522174,0.43130565,0.40258446,0.06890646,0.06352994,0.687681,1.1916444
866,1778621685.1622188,0.16689998,-0.28818756,0.05646671,1.536325,3.3070693,-0.8810197
867,1778621685.1722202,0.16689998,-0.28818756,0.05646671,0.80878496,1.9454516,-1.3293945
868,1778621685.1822207,0.16689998,-0.28818756,0.05646671,0.80878496,1.9454516,-1.3293945
869,1778621685.1922219,0.23300138,-0.02792846,-0.24623388,0.80878496,1.9454516,-1.3293945
870,1778621685.202225,0.19616999,-0.015000875,-0.43965977,0.49235702,1.2924372,-1.5260929
871,1778621685.2122269,0.19616999,-0.015000875,-0.43965977,0.49235702,1.2924372,-1.5260929
872,1778621685.2222278,0.19616999,-0.015000875,-0.43965977,0.49235702,1.2924372,-1.5260929
873,1778621685.2322285,0.19616999,-0.015000875,-0.43965977,0.49235702,1.2924372,-1.5260929
874,1778621685.2425945,0.19616999,-0.015000875,-0.43965977,0.49235702,1.2924372,-1.5260929
875,1778621685.2525957,0.19616999,-0.015000875,-0.43965977,0.49235702,1.2924372,-1.5260929
876,1778621685.2625964,0.19616999,-0.015000875,-0.43965977,0.49235702,1.2924372,-1.5260929
877,1778621685.2725973,0.17982757,-0.013049542,-0.47966215,0.37934703,1.0407609,-1.5926772
878,1778621685.2825985,0.17982757,-0.013049542,-0.47966215,0.37934703,1.0407609,-1.5926772
879,1778621685.2925992,0.17982757,-0.013049542,-0.47966215,0.37934703,1.0407609,-1.5926772
880,1778621685.3026,0.1381178,-0.018171793,-0.5543006,0.37934703,1.0407609,-1.5926772
881,1778621685.3126009,0.42715907,0.0069516255,0.026708877,0.042760536,1.7835724,-3.1546586
882,1778621685.3226016,0.42715907,0.0069516255,0.026708877,0.042760536,1.7835724,-3.1546586
883,1778621685.3326037,0.42715907,0.0069516255,0.026708877,0.042760536,1.7835724,-3.1546586
884,1778621685.3426054,0.42715907,0.0069516255,0.026708877,0.042760536,1.7835724,-3.1546586
885,1778621685.3526068,0.42715907,0.0069516255,0.026708877,0.042760536,1.7835724,-3.1546586
886,1778621685.3626075,0.42715907,0.0069516255,0.026708877,0.042760536,1.7835724,-3.1546586
887,1778621685.3726082,0.42715907,0.0069516255,0.026708877,0.042760536,1.7835724,-3.1546586
888,1778621685.3826098,0.42715907,0.0069516255,0.026708877,-0.30421066,-0.6378955,-2.000124
889,1778621685.3926105,0.42715907,0.0069516255,0.026708877,-0.30421066,-0.6378955,-2.000124
890,1778621685.4026117,0.42715907,0.0069516255,0.026708877,-0.30421066,-0.6378955,-2.000124
891,1778621685.4126132,0.4059383,0.012561709,-0.06573554,-0.30421066,-0.6378955,-2.000124
892,1778621685.4226143,0.4059383,0.012561709,-0.06573554,-0.30421066,-0.6378955,-2.000124
893,1778621685.4326155,0.4059383,0.012561709,-0.06573554,-0.30421066,-0.6378955,-2.000124
894,1778621685.4426165,0.4059383,0.012561709,-0.06573554,-0.30421066,-0.6378955,-2.000124
895,1778621685.4529147,0.4059383,0.012561709,-0.06573554,0.84421515,3.6705337,-3.1277804
896,1778621685.4629192,0.4059383,0.012561709,-0.06573554,0.84421515,3.6705337,-3.1277804
897,1778621685.4729207,0.4059383,0.012561709,-0.06573554,0.84421515,3.6705337,-3.1277804
898,1778621685.4829211,0.4059383,0.012561709,-0.06573554,0.84421515,3.6705337,-3.1277804
899,1778621685.492922,0.32471406,-0.11842154,0.15354554,0.84421515,3.6705337,-3.1277804
900,1778621685.502923,0.1364104,0.09524946,-0.019391375,1.4165955,0.79336065,-2.4350598
901,1778621685.512924,0.1364104,0.09524946,-0.019391375,1.4165955,0.79336065,-2.4350598
902,1778621685.5229254,0.1364104,0.09524946,-0.019391375,1.4165955,0.79336065,-2.4350598
903,1778621685.532927,0.04616123,0.1469598,-0.17135146,1.1691952,0.18310672,-2.3874123
904,1778621685.5429287,0.04616123,0.1469598,-0.17135146,1.1691952,0.18310672,-2.3874123
905,1778621685.5529299,0.04616123,0.1469598,-0.17135146,1.1691952,0.18310672,-2.3874123
906,1778621685.5629737,0.04616123,0.1469598,-0.17135146,1.1691952,0.18310672,-2.3874123
907,1778621685.5729754,0.04616123,0.1469598,-0.17135146,1.1691952,0.18310672,-2.3874123
908,1778621685.5829768,-0.0014025208,0.14208147,-0.16988796,1.0323615,-0.10827578,-2.3538146
909,1778621685.593061,-0.0014025208,0.14208147,-0.16988796,1.0323615,-0.10827578,-2.3538146
910,1778621685.6030626,-0.0014025208,0.14208147,-0.16988796,1.0323615,-0.10827578,-2.3538146
911,1778621685.6130636,-0.0014025208,0.14208147,-0.16988796,0.7525854,-0.6073523,-2.2744024
912,1778621685.6230667,-0.0014025208,0.14208147,-0.16988796,0.7525854,-0.6073523,-2.2744024
913,1778621685.6330683,-0.0014025208,0.14208147,-0.16988796,0.7525854,-0.6073523,-2.2744024
914,1778621685.6430697,-0.06726002,0.07134563,-0.18281554,0.32925612,-1.1033745,-2.1473424
915,1778621685.6530707,-0.06726002,0.07134563,-0.18281554,0.32925612,-1.1033745,-2.1473424
916,1778621685.663072,-1.1207361,-1.3158085,-0.16110696,-0.93706656,-2.135736,0.2924515
917,1778621685.6732066,-1.1207361,-1.3158085,-0.16110696,-0.93706656,-2.135736,0.2924515
918,1778621685.6832075,-1.1207361,-1.3158085,-0.16110696,-0.93706656,-2.135736,0.2924515
919,1778621685.6932087,-0.8734046,-1.7482728,0.39282778,-0.93706656,-2.135736,0.2924515
920,1778621685.7032094,-0.8734046,-1.7482728,0.39282778,-0.93706656,-2.135736,0.2924515
921,1778621685.7132099,-0.8734046,-1.7482728,0.39282778,-0.93706656,-2.135736,0.2924515
922,1778621685.7232108,-0.8734046,-1.7482728,0.39282778,-0.45692685,-1.0239621,0.88621205
923,1778621685.7332263,-0.08140719,-0.053783625,-0.1164702,1.169806,0.35903576,1.7438662
924,1778621685.7432287,-0.08140719,-0.053783625,-0.1164702,1.169806,0.35903576,1.7438662
925,1778621685.7532296,-0.08140719,-0.053783625,-0.1164702,1.169806,0.35903576,1.7438662
926,1778621685.7632394,-0.009207855,0.010854292,-0.16013129,1.0989457,0.24113888,1.8935281
927,1778621685.7732432,-0.009207855,0.010854292,-0.16013129,1.0989457,0.24113888,1.8935281
928,1778621685.7832448,-0.009207855,0.010854292,-0.16013129,1.0989457,0.24113888,1.8935281
929,1778621685.7932456,-0.009207855,0.010854292,-0.16013129,1.0989457,0.24113888,1.8935281
930,1778621685.8032467,-0.009207855,0.010854292,-0.16013129,1.0989457,0.24113888,1.8935281
931,1778621685.8132508,-0.009207855,0.010854292,-0.16013129,1.0989457,0.24113888,1.8935281
932,1778621685.823253,-0.009207855,0.010854292,-0.16013129,1.0989457,0.24113888,1.8935281
933,1778621685.8332539,-0.009207855,0.010854292,-0.16013129,0.95478165,-0.031306818,2.0731223
934,1778621685.8432555,-0.009207855,0.010854292,-0.16013129,0.95478165,-0.031306818,2.0731223
935,1778621685.8532567,-0.009207855,0.010854292,-0.16013129,0.95478165,-0.031306818,2.0731223
936,1778621685.8632576,-0.009207855,0.010854292,-0.16013129,0.95478165,-0.031306818,2.0731223
937,1778621685.8737907,0.10616472,0.1425693,-0.27818695,0.95478165,-0.031306818,2.0731223
938,1778621685.8837917,0.10616472,0.1425693,-0.27818695,0.95478165,-0.031306818,2.0731223
939,1778621685.8937922,0.10323773,0.15037462,-0.021098793,0.073303774,-1.8474078,1.514792
940,1778621685.904321,0.10323773,0.15037462,-0.021098793,0.073303774,-1.8474078,1.514792
941,1778621685.9143229,0.10323773,0.15037462,-0.021098793,0.073303774,-1.8474078,1.514792
942,1778621685.9243257,-0.033599522,-0.1267147,-0.026221042,0.073303774,-1.8474078,1.514792
943,1778621685.9343274,-0.033599522,-0.1267147,-0.026221042,0.073303774,-1.8474078,1.514792
944,1778621685.9443285,-1.3712386,-2.6202748,-0.46673456,0.35246897,-2.144899,-1.8278601
945,1778621685.9543295,-1.3712386,-2.6202748,-0.46673456,0.35246897,-2.144899,-1.8278601
946,1778621685.96433,-1.3712386,-2.6202748,-0.46673456,0.35246897,-2.144899,-1.8278601
947,1778621685.9743304,-1.3712386,-2.6202748,-0.46673456,0.35246897,-2.144899,-1.8278601
948,1778621685.9843316,-1.3907518,-2.4536796,-0.39209604,0.35246897,-2.144899,-1.8278601
949,1778621685.994332,-1.3907518,-2.4536796,-0.39209604,0.35246897,-2.144899,-1.8278601
950,1778621686.0043337,-1.3907518,-2.4536796,-0.39209604,0.35246897,-2.144899,-1.8278601
951,1778621686.014335,-1.3907518,-2.4536796,-0.39209604,0.3817905,-2.094808,-1.8663446
952,1778621686.0243354,-1.3907518,-2.4536796,-0.39209604,0.3817905,-2.094808,-1.8663446
953,1778621686.034336,-0.12140953,-0.1015913,0.17696154,0.118507765,2.7102542,-2.4466662
954,1778621686.044341,-0.12140953,-0.1015913,0.17696154,0.118507765,2.7102542,-2.4466662
955,1778621686.0543435,-0.12140953,-0.1015913,0.17696154,0.118507765,2.7102542,-2.4466662
956,1778621686.064345,-0.12604393,-0.081346214,0.25477096,0.41355544,2.9521568,-2.2200353
957,1778621686.0743458,-0.12604393,-0.081346214,0.25477096,0.41355544,2.9521568,-2.2200353
958,1778621686.0843465,-0.12604393,-0.081346214,0.25477096,0.41355544,2.9521568,-2.2200353
959,1778621686.0943475,-0.12604393,-0.081346214,0.25477096,0.22418737,2.7933319,-2.3672538
960,1778621686.1043482,-0.12604393,-0.081346214,0.25477096,0.22418737,2.7933319,-2.3672538
961,1778621686.1143491,-0.12604393,-0.081346214,0.25477096,0.22418737,2.7933319,-2.3672538
962,1778621686.1243505,-0.12604393,-0.081346214,0.25477096,0.22418737,2.7933319,-2.3672538
963,1778621686.1343513,-0.12604393,-0.081346214,0.25477096,0.22418737,2.7933319,-2.3672538
964,1778621686.144353,-0.26824737,0.16110696,0.5001511,0.8655954,2.9454372,-1.810756
965,1778621686.1543586,-0.26824737,0.16110696,0.5001511,0.8655954,2.9454372,-1.810756
966,1778621686.1643605,-0.26824737,0.16110696,0.5001511,0.8655954,2.9454372,-1.810756
967,1778621686.174362,-0.24727054,0.06793079,-0.25477096,0.23518294,-0.090560704,-1.3379465
968,1778621686.1843626,-0.24727054,0.06793079,-0.25477096,0.23518294,-0.090560704,-1.3379465
969,1778621686.1943636,-0.24727054,0.06793079,-0.25477096,0.23518294,-0.090560704,-1.3379465
970,1778621686.2043672,-0.3494716,-0.3996575,-0.16183871,0.93706656,0.34193155,0.61620986
971,1778621686.2143688,-0.3494716,-0.3996575,-0.16183871,0.93706656,0.34193155,0.61620986
972,1778621686.2243695,-0.3494716,-0.3996575,-0.16183871,0.93706656,0.34193155,0.61620986
973,1778621686.2343855,-0.2860533,-0.33087295,-0.16013129,0.93523395,0.1886045,1.4005603
974,1778621686.244398,-0.2860533,-0.33087295,-0.16013129,0.93523395,0.1886045,1.4005603
975,1778621686.2543995,-0.1753151,-0.1923283,-0.14744763,0.93523395,0.1886045,1.4005603
976,1778621686.2644007,-0.1753151,-0.1923283,-0.14744763,0.93523395,0.1886045,1.4005603
977,1778621686.2744014,-0.1753151,-0.1923283,-0.14744763,0.93523395,0.1886045,1.4005603
978,1778621686.2844021,-0.1753151,-0.1923283,-0.14744763,0.93523395,0.1886045,1.4005603
979,1778621686.294408,-0.1753151,-0.1923283,-0.14744763,0.93523395,0.1886045,1.4005603
980,1778621686.3044107,-0.1753151,-0.1923283,-0.14744763,0.93523395,0.1886045,1.4005603
981,1778621686.3144114,-0.1753151,-0.1923283,-0.14744763,0.93523395,0.1886045,1.4005603
982,1778621686.324412,-0.1753151,-0.1923283,-0.14744763,0.93523395,0.1886045,1.4005603
983,1778621686.334413,0.11616532,0.18574256,-0.050368793,0.95844686,-0.27565274,1.9442298
984,1778621686.344414,0.11616532,0.18574256,-0.050368793,0.95844686,-0.27565274,1.9442298
985,1778621686.3544147,0.11616532,0.18574256,-0.050368793,0.95844686,-0.27565274,1.9442298
986,1778621686.3644173,-0.3111767,-0.058418043,-0.17574196,-1.020755,-0.15409064,1.9533929
987,1778621686.3744187,-0.26824737,-0.11598238,-0.27355254,-0.8833105,-0.48579022,2.2350016
988,1778621686.38442,-0.26824737,-0.11598238,-0.27355254,-0.8833105,-0.48579022,2.2350016
989,1778621686.3944206,-0.26824737,-0.11598238,-0.27355254,-0.8833105,-0.48579022,2.2350016
990,1778621686.4047797,-0.26824737,-0.11598238,-0.27355254,-0.8833105,-0.48579022,2.2350016
991,1778621686.4147809,-0.26824737,-0.11598238,-0.27355254,-0.8833105,-0.48579022,2.2350016
992,1778621686.4247816,-0.26824737,-0.11598238,-0.27355254,-0.8833105,-0.48579022,2.2350016
993,1778621686.4347823,-0.26824737,-0.11598238,-0.27355254,-0.8833105,-0.48579022,2.2350016
994,1778621686.4447832,-0.15970443,-0.19793838,-0.2859923,-0.8100067,-0.7154754,2.454302
995,1778621686.4547853,-0.15970443,-0.19793838,-0.2859923,-0.8100067,-0.7154754,2.454302
996,1778621686.4647858,-0.15970443,-0.19793838,-0.2859923,-0.8100067,-0.7154754,2.454302
997,1778621686.4747863,-0.15970443,-0.19793838,-0.2859923,-0.8100067,-0.7154754,2.454302
998,1778621686.484787,-0.15970443,-0.19793838,-0.2859923,-0.8100067,-0.7154754,2.454302
999,1778621686.4947877,-0.15970443,-0.19793838,-0.2859923,-0.8100067,-0.7154754,2.454302
