id,timestamp,acc_x,acc_y,acc_z,gyro_x,gyro_y,gyro_z
1,1778621208.2083616,-0.087992944,-0.9482261,-0.40209663,-1.6059635,2.4738495,-1.1125375
2,1778621208.2183638,-0.087992944,-0.9482261,-0.40209663,-1.6059635,2.4738495,-1.1125375
3,1778621208.2283666,-0.087992944,-0.9482261,-0.40209663,-1.6059635,2.4738495,-1.1125375
4,1778621208.238368,-0.087992944,-0.9482261,-0.40209663,-1.6059635,2.4738495,-1.1125375
5,1778621208.2483695,-0.37947336,-1.197021,-0.24867305,-1.635285,1.6223041,-1.1107049
6,1778621208.2583709,-0.37947336,-1.197021,-0.24867305,-1.635285,1.6223041,-1.1107049
7,1778621208.268372,-0.37947336,-1.197021,-0.24867305,-1.635285,1.6223041,-1.1107049
8,1778621208.2783735,-0.37947336,-1.197021,-0.24867305,-1.635285,1.6223041,-1.1107049
9,1778621208.2883859,-0.37947336,-1.197021,-0.24867305,-1.635285,1.6223041,-1.1107049
10,1778621208.298391,-0.37947336,-1.197021,-0.24867305,-1.635285,1.6223041,-1.1107049
11,1778621208.3083928,-0.37947336,-1.197021,-0.24867305,-1.635285,1.6223041,-1.1107049
12,1778621208.3183932,-0.37947336,-1.197021,-0.24867305,-1.635285,1.6223041,-1.1107049
13,1778621208.3283937,-0.37947336,-1.197021,-0.24867305,-1.635285,1.6223041,-1.1107049
14,1778621208.3383944,-0.05945469,-1.946577,-0.73553073,-2.9003859,-1.1302526,-1.3122903
15,1778621208.348395,-0.05945469,-1.946577,-0.73553073,-2.9003859,-1.1302526,-1.3122903
16,1778621208.358396,-0.1211656,-2.1624434,-0.87651455,-2.751335,-0.84131354,-1.159574
17,1778621208.3683968,-0.1211656,-2.1624434,-0.87651455,-2.751335,-0.84131354,-1.159574
18,1778621208.3783977,-0.1211656,-2.1624434,-0.87651455,-2.751335,-0.84131354,-1.159574
19,1778621208.3883986,-0.1211656,-2.1624434,-0.87651455,-2.751335,-0.84131354,-1.159574
20,1778621208.3984,-0.1211656,-2.1624434,-0.87651455,-2.751335,-0.84131354,-1.159574
21,1778621208.4084003,-0.1211656,-2.1624434,-0.87651455,-2.751335,-0.84131354,-1.159574
22,1778621208.4184008,-0.45142877,-1.4350837,-0.6021083,-2.1917827,-1.2420408,-0.49922925
23,1778621208.4284086,-0.30337137,-1.4067894,-0.5499101,-2.0341797,-1.7887648,-0.19929464
24,1778621208.4384115,-0.30337137,-1.4067894,-0.5499101,-2.0341797,-1.7887648,-0.19929464
25,1778621208.4484122,-0.30337137,-1.4067894,-0.5499101,-2.0341797,-1.7887648,-0.19929464
26,1778621208.458413,-0.30337137,-1.4067894,-0.5499101,-2.0341797,-1.7887648,-0.19929464
27,1778621208.468414,-0.04530752,-0.8009004,-0.18769388,-0.44348782,-2.1351252,0.35353798
28,1778621208.478415,-0.04530752,-0.8009004,-0.18769388,-0.44348782,-2.1351252,0.35353798
29,1778621208.488416,-0.04530752,-0.8009004,-0.18769388,-0.44348782,-2.1351252,0.35353798
30,1778621208.498417,-0.053600688,-0.76797163,-0.15939954,-0.44348782,-2.1351252,0.35353798
31,1778621208.5084176,-0.053600688,-0.76797163,-0.15939954,-0.44348782,-2.1351252,0.35353798
32,1778621208.5184186,-0.053600688,-0.76797163,-0.15939954,-0.44348782,-2.1351252,0.35353798
33,1778621208.5284195,-0.05921077,0.1469598,0.09793254,1.73058,-0.7466295,-0.0050396346
34,1778621208.538421,0.043722063,0.22330572,0.047929626,1.73058,-0.7466295,-0.0050396346
35,1778621208.5484223,0.043722063,0.22330572,0.047929626,1.73058,-0.7466295,-0.0050396346
36,1778621208.5584235,0.20763406,0.2172078,-0.050612707,2.2192717,-0.0368046,-0.23655738
37,1778621208.5684247,0.2008044,0.18891345,-0.06524771,2.2076652,0.057268575,-0.29825473
38,1778621208.5784252,0.2008044,0.18891345,-0.06524771,2.2076652,0.057268575,-0.29825473
39,1778621208.5884256,0.2008044,0.18891345,-0.06524771,2.2076652,0.057268575,-0.29825473
40,1778621208.598426,0.2008044,0.18891345,-0.06524771,2.2076652,0.057268575,-0.29825473
41,1778621208.6084275,0.2008044,0.18891345,-0.06524771,2.2076652,0.057268575,-0.29825473
42,1778621208.6184282,0.2008044,0.18891345,-0.06524771,2.2076652,0.057268575,-0.29825473
43,1778621208.6284313,0.2008044,0.18891345,-0.06524771,2.2076652,0.057268575,-0.29825473
44,1778621208.638433,0.2008044,0.18891345,-0.06524771,2.2076652,0.057268575,-0.29825473
45,1778621208.6484342,0.2008044,0.18891345,-0.06524771,2.2076652,0.057268575,-0.29825473
46,1778621208.6584349,0.2008044,0.18891345,-0.06524771,2.2076652,0.057268575,-0.29825473
47,1778621208.668436,-0.107750185,0.085004956,-0.4923458,1.2156209,0.9185879,-0.24999641
48,1778621208.678439,-0.107750185,0.085004956,-0.4923458,1.2156209,0.9185879,-0.24999641
49,1778621208.6884403,-0.107750185,0.085004956,-0.4923458,1.2156209,0.9185879,-0.24999641
50,1778621208.6984413,-0.107750185,0.085004956,-0.4923458,1.2156209,0.9185879,-0.24999641
51,1778621208.7084422,-0.107750185,0.085004956,-0.4923458,1.2156209,0.9185879,-0.24999641
52,1778621208.718443,-0.107750185,0.085004956,-0.4923458,1.2156209,0.9185879,-0.24999641
53,1778621208.728444,0.1686074,-1.630461,-0.76358116,0.8466586,4.1958776,-0.050854493
54,1778621208.7384448,0.1686074,-1.630461,-0.76358116,0.8466586,4.1958776,-0.050854493
55,1778621208.7484457,0.1686074,-1.630461,-0.76358116,0.8466586,4.1958776,-0.050854493
56,1778621208.7584472,0.1686074,-1.630461,-0.76358116,0.8466586,4.1958776,-0.050854493
57,1778621208.7684486,0.1686074,-1.630461,-0.76358116,0.8466586,4.1958776,-0.050854493
58,1778621208.77845,0.1686074,-1.630461,-0.76358116,0.8466586,4.1958776,-0.050854493
59,1778621208.7884517,0.1686074,-1.630461,-0.76358116,0.43065968,2.0193663,0.22036947
60,1778621208.798453,0.1686074,-1.630461,-0.76358116,0.43065968,2.0193663,0.22036947
61,1778621208.808454,0.1686074,-1.630461,-0.76358116,0.43065968,2.0193663,0.22036947
62,1778621208.818455,0.023476979,-1.3989841,-1.2309254,0.43065968,2.0193663,0.22036947
63,1778621208.8284557,0.023476979,-1.3989841,-1.2309254,0.43065968,2.0193663,0.22036947
64,1778621208.8384564,0.023476979,-1.3989841,-1.2309254,0.43065968,2.0193663,0.22036947
65,1778621208.8484755,0.023476979,-1.3989841,-1.2309254,0.43065968,2.0193663,0.22036947
66,1778621208.8584852,0.023476979,-1.3989841,-1.2309254,0.43065968,2.0193663,0.22036947
67,1778621208.8684864,-0.24166043,-1.1640923,-0.8535864,0.7849612,-0.7038689,0.40790495
68,1778621208.8784869,-0.24166043,-1.1640923,-0.8535864,0.7849612,-0.7038689,0.40790495
69,1778621208.888488,-0.24166043,-1.1640923,-0.8535864,0.7849612,-0.7038689,0.40790495
70,1778621208.8984888,-0.24166043,-1.1640923,-0.8535864,0.7849612,-0.7038689,0.40790495
71,1778621208.9084895,-0.24166043,-1.1640923,-0.8535864,0.7849612,-0.7038689,0.40790495
72,1778621208.9184904,-0.24166043,-1.1640923,-0.8535864,0.7849612,-0.7038689,0.40790495
73,1778621208.9284918,-0.24166043,-1.1640923,-0.8535864,0.7849612,-0.7038689,0.40790495
74,1778621208.938493,-0.24166043,-1.1640923,-0.8535864,0.7849612,-0.7038689,0.40790495
75,1778621208.9484944,-0.5053344,-1.1916549,-0.10110346,0.7849612,-0.7038689,0.40790495
76,1778621208.9584951,-0.5053344,-1.1916549,-0.10110346,0.7849612,-0.7038689,0.40790495
77,1778621208.9684975,-0.5053344,-1.1916549,-0.10110346,0.7849612,-0.7038689,0.40790495
78,1778621208.9784992,-0.5053344,-1.1916549,-0.10110346,1.1765256,-2.2230897,0.3969094
79,1778621208.9885006,-0.5053344,-1.1916549,-0.10110346,1.1765256,-2.2230897,0.3969094
80,1778621208.9985013,-0.5053344,-1.1916549,-0.10110346,1.1765256,-2.2230897,0.3969094
81,1778621209.0085022,-0.5053344,-1.1916549,-0.10110346,1.1765256,-2.2230897,0.3969094
82,1778621209.0185025,-0.5053344,-1.1916549,-0.10110346,1.1765256,-2.2230897,0.3969094
83,1778621209.0285046,-0.5053344,-1.1916549,-0.10110346,1.1765256,-2.2230897,0.3969094
84,1778621209.038506,-0.5053344,-1.1916549,-0.10110346,1.3891065,-2.334878,0.44516772
85,1778621209.048507,-0.5053344,-1.1916549,-0.10110346,1.3891065,-2.334878,0.44516772
86,1778621209.0585077,-0.5053344,-1.1916549,-0.10110346,1.3891065,-2.334878,0.44516772
87,1778621209.0685089,-0.6368055,-1.2567806,0.3972183,1.3891065,-2.334878,0.44516772
88,1778621209.0785105,-0.6368055,-1.2567806,0.3972183,1.3891065,-2.334878,0.44516772
89,1778621209.088512,-0.6368055,-1.2567806,0.3972183,1.3891065,-2.334878,0.44516772
90,1778621209.098514,-0.6368055,-1.2567806,0.3972183,1.3891065,-2.334878,0.44516772
91,1778621209.1086996,-0.6368055,-1.2567806,0.3972183,1.3891065,-2.334878,0.44516772
92,1778621209.1187007,0.19519432,-1.8780364,-0.7211396,1.8185445,0.016951498,0.33032513
93,1778621209.128704,0.19519432,-1.8780364,-0.7211396,1.8185445,0.016951498,0.33032513
94,1778621209.1387064,0.19519432,-1.8780364,-0.7211396,1.8185445,0.016951498,0.33032513
95,1778621209.1487093,0.19519432,-1.8780364,-0.7211396,1.8185445,0.016951498,0.33032513
96,1778621209.1587107,0.19519432,-1.8780364,-0.7211396,1.8185445,0.016951498,0.33032513
97,1778621209.1687114,0.22104947,0.053051874,-0.14817938,-0.18325943,0.14828743,-0.09117157
98,1778621209.1787124,0.22104947,0.053051874,-0.14817938,-0.18325943,0.14828743,-0.09117157
99,1778621209.1887136,0.22104947,0.053051874,-0.14817938,-0.18325943,0.14828743,-0.09117157
100,1778621209.198715,0.22104947,0.053051874,-0.14817938,-0.18325943,0.14828743,-0.09117157
101,1778621209.2087166,0.22104947,0.053051874,-0.14817938,-0.18325943,0.14828743,-0.09117157
102,1778621209.2187183,0.22104947,0.053051874,-0.14817938,-0.18325943,0.14828743,-0.09117157
103,1778621209.22872,0.22104947,0.053051874,-0.14817938,-0.18325943,0.14828743,-0.09117157
104,1778621209.2387211,0.22104947,0.053051874,-0.14817938,-0.18325943,0.14828743,-0.09117157
105,1778621209.248722,0.21739073,0.016220458,-0.17696154,-0.18325943,0.14828743,-0.09117157
106,1778621209.258723,-0.35996002,-0.4555144,-0.19769447,-2.1398594,0.4732675,-0.41431904
107,1778621209.2687242,-0.35996002,-0.4555144,-0.19769447,-2.1398594,0.4732675,-0.41431904
108,1778621209.2787254,-0.35996002,-0.4555144,-0.19769447,-2.1398594,0.4732675,-0.41431904
109,1778621209.2887366,-0.33069003,-0.9096872,-0.06451596,-2.4966044,0.22953244,-0.44425142
110,1778621209.2987404,-0.33069003,-0.9096872,-0.06451596,-2.4966044,0.22953244,-0.44425142
111,1778621209.3087428,-0.33069003,-0.9096872,-0.06451596,-2.4966044,0.22953244,-0.44425142
112,1778621209.3187447,-0.33069003,-0.9096872,-0.06451596,-2.7623305,-0.01725693,-0.46013388
113,1778621209.328746,-0.33069003,-0.9096872,-0.06451596,-2.7623305,-0.01725693,-0.46013388
114,1778621209.3387477,-0.33069003,-0.9096872,-0.06451596,-2.7623305,-0.01725693,-0.46013388
115,1778621209.3487484,-0.33069003,-0.9096872,-0.06451596,-2.7623305,-0.01725693,-0.46013388
116,1778621209.358749,-0.33069003,-0.9096872,-0.06451596,-2.7623305,-0.01725693,-0.46013388
117,1778621209.36875,-0.33069003,-0.9096872,-0.06451596,-2.7623305,-0.01725693,-0.46013388
118,1778621209.3787508,-0.33069003,-0.9096872,-0.06451596,-2.7623305,-0.01725693,-0.46013388
119,1778621209.388752,-0.33410487,-1.1540917,-0.054759294,-2.7623305,-0.01725693,-0.46013388
120,1778621209.398753,-0.33483663,-1.5365531,-0.04402696,-2.9852962,-0.25793764,-0.4741838
121,1778621209.4087539,-0.33483663,-1.5365531,-0.04402696,-2.9852962,-0.25793764,-0.4741838
122,1778621209.418756,-0.33483663,-1.5365531,-0.04402696,-2.9852962,-0.25793764,-0.4741838
123,1778621209.4287574,-0.33483663,-1.5365531,-0.04402696,-2.9852962,-0.25793764,-0.4741838
124,1778621209.4387581,-0.33483663,-1.5365531,-0.04402696,-2.9852962,-0.25793764,-0.4741838
125,1778621209.4487588,-0.33483663,-1.5365531,-0.04402696,-3.2223117,-0.4320341,-0.5487093
126,1778621209.4587598,-0.33483663,-1.5365531,-0.04402696,-3.2223117,-0.4320341,-0.5487093
127,1778621209.4687603,-0.33483663,-1.5365531,-0.04402696,-3.2223117,-0.4320341,-0.5487093
128,1778621209.4787612,-0.33483663,-1.5365531,-0.04402696,-3.2223117,-0.4320341,-0.5487093
129,1778621209.4887638,-0.33483663,-1.5365531,-0.04402696,-3.2223117,-0.4320341,-0.5487093
130,1778621209.4987824,-0.5658257,-2.7215002,0.16354613,-3.784918,-0.40759954,-0.6818778
131,1778621209.5087836,-0.5658257,-2.7215002,0.16354613,-3.784918,-0.40759954,-0.6818778
132,1778621209.5187843,-0.5658257,-2.7215002,0.16354613,-3.784918,-0.40759954,-0.6818778
133,1778621209.528785,-0.5728993,-2.8378484,0.39526698,-3.784918,-0.40759954,-0.6818778
134,1778621209.538786,-0.5728993,-2.8378484,0.39526698,-3.784918,-0.40759954,-0.6818778
135,1778621209.5487866,-0.5728993,-2.8378484,0.39526698,-3.784918,-0.40759954,-0.6818778
136,1778621209.5587895,-0.5728993,-2.8378484,0.39526698,-3.784918,-0.40759954,-0.6818778
137,1778621209.5687919,0.00079272914,-1.5667988,-0.27038163,-2.3206754,-2.0838125,-0.6201805
138,1778621209.5787933,0.00079272914,-1.5667988,-0.27038163,-2.3206754,-2.0838125,-0.6201805
139,1778621209.5887945,0.00079272914,-1.5667988,-0.27038163,-2.3206754,-2.0838125,-0.6201805
140,1778621209.5987952,0.00079272914,-1.5667988,-0.27038163,-2.3206754,-2.0838125,-0.6201805
141,1778621209.6087956,0.00079272914,-1.5667988,-0.27038163,-2.3206754,-2.0838125,-0.6201805
142,1778621209.6188004,0.00079272914,-1.5667988,-0.27038163,-2.3206754,-2.0838125,-0.6201805
143,1778621209.6288023,0.00079272914,-1.5667988,-0.27038163,-2.3206754,-2.0838125,-0.6201805
144,1778621209.6388035,0.00079272914,-1.5667988,-0.27038163,-1.8411465,-2.6311474,-0.68798643
145,1778621209.6488056,0.00079272914,-1.5667988,-0.27038163,-1.8411465,-2.6311474,-0.68798643
146,1778621209.6588066,0.00079272914,-1.5667988,-0.27038163,-1.8411465,-2.6311474,-0.68798643
147,1778621209.6688077,0.00079272914,-1.5667988,-0.27038163,-1.8411465,-2.6311474,-0.68798643
148,1778621209.678809,0.00079272914,-1.5667988,-0.27038163,-1.8411465,-2.6311474,-0.68798643
149,1778621209.6888115,0.00079272914,-1.5667988,-0.27038163,-1.8411465,-2.6311474,-0.68798643
150,1778621209.6989586,-0.06872352,-1.3255651,-0.21647604,-1.8411465,-2.6311474,-0.68798643
151,1778621209.7093346,-0.22897679,-0.9040772,-0.01841571,-1.4404192,-3.4356563,-0.7270818
152,1778621209.719336,-0.22897679,-0.9040772,-0.01841571,-1.4404192,-3.4356563,-0.7270818
153,1778621209.7293365,-0.22897679,-0.9040772,-0.01841571,-1.4404192,-3.4356563,-0.7270818
154,1778621209.7393372,-0.22897679,-0.9040772,-0.01841571,-1.4404192,-3.4356563,-0.7270818
155,1778621209.749338,-0.22897679,-0.9040772,-0.01841571,-1.4404192,-3.4356563,-0.7270818
156,1778621209.7593384,-0.22897679,-0.9040772,-0.01841571,-1.4404192,-3.4356563,-0.7270818
157,1778621209.7693388,-0.22897679,-0.9040772,-0.01841571,-1.4404192,-3.4356563,-0.7270818
158,1778621209.7793393,-0.22897679,-0.9040772,-0.01841571,-1.4404192,-3.4356563,-0.7270818
159,1778621209.7893488,-0.26775953,-0.40795064,0.29648072,-0.75502884,-3.9939866,-0.5560397
160,1778621209.7993522,-0.26775953,-0.40795064,0.29648072,-0.75502884,-3.9939866,-0.5560397
161,1778621209.8093529,-0.26775953,-0.40795064,0.29648072,-0.75502884,-3.9939866,-0.5560397
162,1778621209.8193536,-0.26775953,-0.40795064,0.29648072,-0.75502884,-3.9939866,-0.5560397
163,1778621209.8293543,-0.26775953,-0.40795064,0.29648072,-0.75502884,-3.9939866,-0.5560397
164,1778621209.839355,-0.26775953,-0.40795064,0.29648072,-0.75502884,-3.9939866,-0.5560397
165,1778621209.8493555,-0.26775953,-0.40795064,0.29648072,-0.75502884,-3.9939866,-0.5560397
166,1778621209.8593562,-0.286785,-0.0059759584,0.37672928,-0.28038692,-3.6384633,-0.49067715
167,1778621209.8693578,-0.286785,-0.0059759584,0.37672928,-0.28038692,-3.6384633,-0.49067715
168,1778621209.8793583,-0.286785,-0.0059759584,0.37672928,-0.28038692,-3.6384633,-0.49067715
169,1778621209.8893585,-0.286785,-0.0059759584,0.37672928,-0.28038692,-3.6384633,-0.49067715
170,1778621209.8993604,-0.286785,-0.0059759584,0.37672928,-0.28038692,-3.6384633,-0.49067715
171,1778621209.9093618,-0.286785,-0.0059759584,0.37672928,-0.28038692,-3.6384633,-0.49067715
172,1778621209.9193625,-0.286785,-0.0059759584,0.37672928,-0.28038692,-3.6384633,-0.49067715
173,1778621209.929489,0.07250423,0.6179629,0.37502187,0.83810645,-1.8205298,-0.27198756
174,1778621209.9394977,0.07250423,0.6179629,0.37502187,0.83810645,-1.8205298,-0.27198756
175,1778621209.949499,0.07250423,0.6179629,0.37502187,0.83810645,-1.8205298,-0.27198756
176,1778621209.9594996,0.07250423,0.6179629,0.37502187,0.83810645,-1.8205298,-0.27198756
177,1778621209.9695008,-0.18946227,0.5318603,0.35867947,0.83810645,-1.8205298,-0.27198756
178,1778621209.979502,-0.18946227,0.5318603,0.35867947,1.2974768,-0.8785763,-0.16630794
179,1778621209.9895034,-0.18946227,0.5318603,0.35867947,1.2974768,-0.8785763,-0.16630794
180,1778621209.9995043,-0.18946227,0.5318603,0.35867947,1.2974768,-0.8785763,-0.16630794
181,1778621210.0095053,-0.18946227,0.5318603,0.35867947,1.2974768,-0.8785763,-0.16630794
182,1778621210.0195065,-0.18946227,0.5318603,0.35867947,1.2974768,-0.8785763,-0.16630794
183,1778621210.0295072,-0.08384635,0.58820504,0.32355547,1.2974768,-0.8785763,-0.16630794
184,1778621210.0395179,-0.08384635,0.58820504,0.32355547,1.2974768,-0.8785763,-0.16630794
185,1778621210.049521,-0.08384635,0.58820504,0.32355547,1.2974768,-0.8785763,-0.16630794
186,1778621210.0595217,-0.08384635,0.58820504,0.32355547,1.2974768,-0.8785763,-0.16630794
187,1778621210.0695221,-0.08384635,0.58820504,0.32355547,1.2974768,-0.8785763,-0.16630794
188,1778621210.0795228,-0.08384635,0.58820504,0.32355547,1.6694934,-0.19257513,-0.09422589
189,1778621210.0895243,-0.08384635,0.58820504,0.32355547,1.9981387,0.19837834,-0.11988221
190,1778621210.0995245,-0.08384635,0.58820504,0.32355547,1.9981387,0.19837834,-0.11988221
191,1778621210.1095262,-0.08384635,0.58820504,0.32355547,1.9981387,0.19837834,-0.11988221
192,1778621210.1195273,-0.76559347,-1.3633722,0.708212,1.5577052,-0.91889334,0.4384482
193,1778621210.1295278,-0.76559347,-1.3633722,0.708212,1.5577052,-0.91889334,0.4384482
194,1778621210.1395288,-0.76559347,-1.3633722,0.708212,1.5577052,-0.91889334,0.4384482
195,1778621210.1499324,-0.76559347,-1.3633722,0.708212,1.5577052,-0.91889334,0.4384482
196,1778621210.1599355,-0.76559347,-1.3633722,0.708212,1.5577052,-0.91889334,0.4384482
197,1778621210.1699364,-0.59314436,-1.9077942,0.37599754,2.4856088,1.672395,1.1049017
198,1778621210.1799371,-0.59314436,-1.9077942,0.37599754,2.4856088,1.672395,1.1049017
199,1778621210.1899378,-0.59314436,-1.9077942,0.37599754,2.4856088,1.672395,1.1049017
200,1778621210.1999385,-0.59314436,-1.9077942,0.37599754,2.4856088,1.672395,1.1049017
201,1778621210.2099411,-0.59314436,-1.9077942,0.37599754,2.4856088,1.672395,1.1049017
202,1778621210.2199512,-0.59314436,-1.9077942,0.37599754,2.4856088,1.672395,1.1049017
203,1778621210.229953,-0.59314436,-1.9077942,0.37599754,2.4856088,1.672395,1.1049017
204,1778621210.2399545,-0.59314436,-1.9077942,0.37599754,2.4856088,1.672395,1.1049017
205,1778621210.2499557,0.19226731,-1.448743,-0.7540684,1.7495167,-0.446084,0.58016884
206,1778621210.2599561,0.19226731,-1.448743,-0.7540684,1.7495167,-0.446084,0.58016884
207,1778621210.2699568,0.19226731,-1.448743,-0.7540684,1.7495167,-0.446084,0.58016884
208,1778621210.2799575,0.19226731,-1.448743,-0.7540684,1.7495167,-0.446084,0.58016884
209,1778621210.2899594,-0.016525354,-1.1787273,-0.5713748,1.6963714,-1.4167482,0.5667298
210,1778621210.2999606,-0.016525354,-1.1787273,-0.5713748,1.6963714,-1.4167482,0.5667298
211,1778621210.3099618,-0.016525354,-1.1787273,-0.5713748,1.6963714,-1.4167482,0.5667298
212,1778621210.3199656,-0.016525354,-1.1787273,-0.5713748,1.2192861,-1.8840597,0.45799586
213,1778621210.3299673,-0.016525354,-1.1787273,-0.5713748,1.2192861,-1.8840597,0.45799586
214,1778621210.339968,-0.09970094,-1.0687209,-0.50454164,1.2192861,-1.8840597,0.45799586
215,1778621210.3500292,-0.09970094,-1.0687209,-0.50454164,1.2192861,-1.8840597,0.45799586
216,1778621210.3600297,-0.09970094,-1.0687209,-0.50454164,1.2192861,-1.8840597,0.45799586
217,1778621210.3700306,-0.09970094,-1.0687209,-0.50454164,1.2192861,-1.8840597,0.45799586
218,1778621210.3800316,-0.09970094,-1.0687209,-0.50454164,1.2192861,-1.8840597,0.45799586
219,1778621210.390033,-0.09970094,-1.0687209,-0.50454164,1.2192861,-1.8840597,0.45799586
220,1778621210.4000342,-0.066040434,-0.72943276,-0.4306349,1.0250311,-1.3037381,0.45371982
221,1778621210.4100354,-0.066040434,-0.72943276,-0.4306349,1.0250311,-1.3037381,0.45371982
222,1778621210.4200366,-0.066040434,-0.72943276,-0.4306349,1.0250311,-1.3037381,0.45371982
223,1778621210.430043,0.12738548,-0.19306004,-0.044270877,0.1631009,-0.4809033,0.32665995
224,1778621210.4400454,0.12738548,-0.19306004,-0.044270877,0.1631009,-0.4809033,0.32665995
225,1778621210.450046,0.12738548,-0.19306004,-0.044270877,0.1631009,-0.4809033,0.32665995
226,1778621210.4600468,0.12738548,-0.19306004,-0.044270877,0.15577053,-0.29947644,0.20570871
227,1778621210.4700472,0.12738548,-0.19306004,-0.044270877,0.15577053,-0.29947644,0.20570871
228,1778621210.480048,0.12738548,-0.19306004,-0.044270877,0.15577053,-0.29947644,0.20570871
229,1778621210.4900484,0.12738548,-0.19306004,-0.044270877,0.15577053,-0.29947644,0.20570871
230,1778621210.5000494,0.12738548,-0.19306004,-0.044270877,0.15577053,-0.29947644,0.20570871
231,1778621210.51005,0.12738548,-0.19306004,-0.044270877,0.15577053,-0.29947644,0.20570871
232,1778621210.5200508,0.12738548,-0.19306004,-0.044270877,0.15577053,-0.29947644,0.20570871
233,1778621210.5300555,0.12738548,-0.19306004,-0.044270877,0.08552107,0.27962336,0.052381653
234,1778621210.5400586,0.08152915,-0.056710627,-0.12890996,0.08552107,0.27962336,0.052381653
235,1778621210.5500598,0.08152915,-0.056710627,-0.12890996,0.08552107,0.27962336,0.052381653
236,1778621210.5600605,0.08152915,-0.056710627,-0.12890996,0.08552107,0.27962336,0.052381653
237,1778621210.5700607,0.08152915,-0.056710627,-0.12890996,0.08552107,0.27962336,0.052381653
238,1778621210.5800617,0.08152915,-0.056710627,-0.12890996,0.08552107,0.27962336,0.052381653
239,1778621210.5900629,0.08152915,-0.056710627,-0.12890996,0.08552107,0.27962336,0.052381653
240,1778621210.6000636,0.08152915,-0.056710627,-0.12890996,0.08552107,0.27962336,0.052381653
241,1778621210.610065,0.14616705,0.05646671,-0.35843554,-0.33780822,1.1415535,-0.12232567
242,1778621210.6200662,0.14616705,0.05646671,-0.35843554,-0.33780822,1.1415535,-0.12232567
243,1778621210.6300666,0.14616705,0.05646671,-0.35843554,-0.33780822,1.1415535,-0.12232567
244,1778621210.640068,0.14616705,0.05646671,-0.35843554,-0.33780822,1.1415535,-0.12232567
245,1778621210.650077,0.14616705,0.05646671,-0.35843554,-0.33780822,1.1415535,-0.12232567
246,1778621210.6600802,0.14616705,0.05646671,-0.35843554,-0.33780822,1.1415535,-0.12232567
247,1778621210.6700814,-0.30483487,-0.20623155,-0.21159773,-1.8936808,0.9124793,-0.6959277
248,1778621210.6800818,-0.30483487,-0.20623155,-0.21159773,-1.8936808,0.9124793,-0.6959277
249,1778621210.6900823,-0.30483487,-0.20623155,-0.21159773,-1.8936808,0.9124793,-0.6959277
250,1778621210.700083,-0.30483487,-0.20623155,-0.21159773,-1.8936808,0.9124793,-0.6959277
251,1778621210.7100842,-0.30483487,-0.20623155,-0.21159773,-1.8936808,0.9124793,-0.6959277
252,1778621210.720085,-0.30483487,-0.20623155,-0.21159773,-1.8936808,0.9124793,-0.6959277
253,1778621210.7300854,-0.3477642,-0.4077067,-0.15671647,-2.2430954,0.64003354,-0.7002038
254,1778621210.7400863,-0.3477642,-0.4077067,-0.15671647,-2.2430954,0.64003354,-0.7002038
255,1778621210.750087,-0.3477642,-0.4077067,-0.15671647,-2.2430954,0.64003354,-0.7002038
256,1778621210.7600882,-0.3477642,-0.4077067,-0.15671647,-2.2430954,0.64003354,-0.7002038
257,1778621210.7700891,-0.3477642,-0.4077067,-0.15671647,-2.2430954,0.64003354,-0.7002038
258,1778621210.7800906,-0.3477642,-0.4077067,-0.15671647,-2.2430954,0.64003354,-0.7002038
259,1778621210.7900913,-0.3477642,-0.4077067,-0.15671647,-2.2430954,0.64003354,-0.7002038
260,1778621210.8000925,-0.3684971,-0.7045533,-0.14037405,-2.2430954,0.64003354,-0.7002038
261,1778621210.8100936,-0.3684971,-0.7045533,-0.14037405,-2.2430954,0.64003354,-0.7002038
262,1778621210.8200943,-0.3684971,-0.7045533,-0.14037405,-2.2430954,0.64003354,-0.7002038
263,1778621210.830095,-0.3684971,-0.7045533,-0.14037405,-2.2430954,0.64003354,-0.7002038
264,1778621210.8400958,-0.36654577,-0.85383034,-0.15476513,-2.7733262,0.33093598,-0.653778
265,1778621210.8500962,-0.36654577,-0.85383034,-0.15476513,-2.7733262,0.33093598,-0.653778
266,1778621210.8600972,-0.36654577,-0.85383034,-0.15476513,-2.7733262,0.33093598,-0.653778
267,1778621210.8700976,-0.36654577,-0.85383034,-0.15476513,-2.7733262,0.33093598,-0.653778
268,1778621210.880098,-0.36654577,-0.85383034,-0.15476513,-2.7733262,0.33093598,-0.653778
269,1778621210.8901112,-0.36654577,-0.85383034,-0.15476513,-2.7733262,0.33093598,-0.653778
270,1778621210.9001155,-0.37898555,-1.2155588,-0.18305947,-2.9523094,0.16539164,-0.6592758
271,1778621210.9101171,-0.37898555,-1.2155588,-0.18305947,-2.9523094,0.16539164,-0.6592758
272,1778621210.9201179,-0.37898555,-1.2155588,-0.18305947,-2.9523094,0.16539164,-0.6592758
273,1778621210.9301186,-0.37898555,-1.2155588,-0.18305947,-2.9523094,0.16539164,-0.6592758
274,1778621210.940119,-0.421427,-1.5938735,-0.15671647,-3.194212,0.025503604,-0.7270818
275,1778621210.95012,-0.421427,-1.5938735,-0.15671647,-3.194212,0.025503604,-0.7270818
276,1778621210.960121,-0.421427,-1.5938735,-0.15671647,-3.194212,0.025503604,-0.7270818
277,1778621210.970122,-0.65729445,-3.0707889,0.06915038,-3.3872452,0.3584249,-0.879798
278,1778621210.9801226,-0.71290743,-3.0244446,0.23672113,-3.3872452,0.3584249,-0.879798
279,1778621210.990123,-0.71290743,-3.0244446,0.23672113,-3.3872452,0.3584249,-0.879798
280,1778621211.0001237,-0.71290743,-3.0244446,0.23672113,-3.2058184,1.2221878,-0.5688678
281,1778621211.0101247,-0.71290743,-3.0244446,0.23672113,-3.2058184,1.2221878,-0.5688678
282,1778621211.0201259,-0.71290743,-3.0244446,0.23672113,-3.2058184,1.2221878,-0.5688678
283,1778621211.0301263,-0.5338726,-2.642959,0.12842213,-2.9107707,1.9051346,-0.2762636
284,1778621211.0401273,-0.5338726,-2.642959,0.12842213,-2.9107707,1.9051346,-0.2762636
285,1778621211.0501282,-0.5338726,-2.642959,0.12842213,-2.9107707,1.9051346,-0.2762636
286,1778621211.0602949,-0.49582162,-2.286597,-0.19769447,-2.9107707,1.9051346,-0.2762636
287,1778621211.0703053,-0.49582162,-2.286597,-0.19769447,-2.9107707,1.9051346,-0.2762636
288,1778621211.0803084,-0.49582162,-2.286597,-0.19769447,-2.9107707,1.9051346,-0.2762636
289,1778621211.0903091,-0.49582162,-2.286597,-0.19769447,-2.9107707,1.9051346,-0.2762636
290,1778621211.1003098,-0.49582162,-2.286597,-0.19769447,-2.9107707,1.9051346,-0.2762636
291,1778621211.1103106,-0.49582162,-2.286597,-0.19769447,-2.9107707,1.9051346,-0.2762636
292,1778621211.1203117,-0.38069293,-2.1078057,-0.39063254,-2.5583017,0.72494376,-0.56092656
293,1778621211.130313,-0.38069293,-2.1078057,-0.39063254,-2.5583017,0.72494376,-0.56092656
294,1778621211.140314,-0.38069293,-2.1078057,-0.39063254,-2.5583017,0.72494376,-0.56092656
295,1778621211.1505792,-0.38069293,-2.1078057,-0.39063254,-2.5583017,0.72494376,-0.56092656
296,1778621211.1605802,-0.38069293,-2.1078057,-0.39063254,-2.5583017,0.72494376,-0.56092656
297,1778621211.1705813,-0.036282603,-1.8248626,-0.35697204,-2.1300855,-2.0874777,-0.41126472
298,1778621211.180582,-0.036282603,-1.8248626,-0.35697204,-2.1300855,-2.0874777,-0.41126472
299,1778621211.1905825,-0.036282603,-1.8248626,-0.35697204,-2.1300855,-2.0874777,-0.41126472
300,1778621211.2005837,-0.036282603,-1.8248626,-0.35697204,-2.1300855,-2.0874777,-0.41126472
301,1778621211.210585,-0.036282603,-1.8248626,-0.35697204,-2.1300855,-2.0874777,-0.41126472
302,1778621211.2205863,-0.036282603,-1.8248626,-0.35697204,-2.1300855,-2.0874777,-0.41126472
303,1778621211.2305875,-0.036282603,-1.8248626,-0.35697204,-1.6212351,-1.9127704,-0.5505419
304,1778621211.2405891,-0.036282603,-1.8248626,-0.35697204,-1.6212351,-1.9127704,-0.5505419
305,1778621211.2505908,-0.036282603,-1.8248626,-0.35697204,-1.6212351,-1.9127704,-0.5505419
306,1778621211.2605922,-0.036282603,-1.8248626,-0.35697204,-1.6212351,-1.9127704,-0.5505419
307,1778621211.270593,-0.036282603,-1.8248626,-0.35697204,-1.6212351,-1.9127704,-0.5505419
308,1778621211.280594,-0.04677102,-1.6760736,-0.2579419,-1.6212351,-1.9127704,-0.5505419
309,1778621211.2907531,-0.04677102,-1.6760736,-0.2579419,-1.6212351,-1.9127704,-0.5505419
310,1778621211.3007689,-0.04677102,-1.6760736,-0.2579419,-1.6212351,-1.9127704,-0.5505419
311,1778621211.3107703,-0.04677102,-1.6760736,-0.2579419,-1.6212351,-1.9127704,-0.5505419
312,1778621211.3207707,-0.04677102,-1.6760736,-0.2579419,-1.6212351,-1.9127704,-0.5505419
313,1778621211.3307712,-0.09262736,-1.5665549,-0.27062553,-1.6212351,-1.9127704,-0.5505419
314,1778621211.340772,-0.09262736,-1.5665549,-0.27062553,-1.6212351,-1.9127704,-0.5505419
315,1778621211.3507724,-0.09262736,-1.5665549,-0.27062553,-1.6212351,-1.9127704,-0.5505419
316,1778621211.3607736,-0.15385045,-1.3060517,-0.2891632,-1.2858703,-1.8009821,-0.59818935
317,1778621211.3707745,-0.15385045,-1.3060517,-0.2891632,-1.2858703,-1.8009821,-0.59818935
318,1778621211.3807752,-0.15385045,-1.3060517,-0.2891632,-1.2858703,-1.8009821,-0.59818935
319,1778621211.3907762,-0.15385045,-1.3060517,-0.2891632,-1.2858703,-1.8009821,-0.59818935
320,1778621211.400778,-0.21629311,-1.0035952,-0.23598938,-0.47464192,-1.9885175,-0.6165153
321,1778621211.4107788,-0.21629311,-1.0035952,-0.23598938,-0.47464192,-1.9885175,-0.6165153
322,1778621211.4207819,-0.21629311,-1.0035952,-0.23598938,-0.47464192,-1.9885175,-0.6165153
323,1778621211.4307833,-0.21629311,-1.0035952,-0.23598938,-0.47464192,-1.9885175,-0.6165153
324,1778621211.4407847,-0.21629311,-1.0035952,-0.23598938,-0.47464192,-1.9885175,-0.6165153
325,1778621211.4507864,-0.21629311,-1.0035952,-0.23598938,-0.47464192,-1.9885175,-0.6165153
326,1778621211.460797,-0.21629311,-1.0035952,-0.23598938,-0.47464192,-1.9885175,-0.6165153
327,1778621211.4708004,-0.21629311,-1.0035952,-0.23598938,-0.47464192,-1.9885175,-0.6165153
328,1778621211.4808013,-0.21629311,-1.0035952,-0.23598938,-0.47464192,-1.9885175,-0.6165153
329,1778621211.4908023,-0.21629311,-1.0035952,-0.23598938,-0.47464192,-1.9885175,-0.6165153
330,1778621211.5008032,-0.21629311,-1.0035952,-0.23598938,-0.47464192,-1.9885175,-0.6165153
331,1778621211.5108042,-0.21629311,-1.0035952,-0.23598938,-0.47464192,-1.9885175,-0.6165153
332,1778621211.5208051,-0.21629311,-1.0035952,-0.23598938,-0.47464192,-1.9885175,-0.6165153
333,1778621211.530806,-0.3204455,-0.5391778,-0.08085837,0.2131918,-2.3910775,-0.6323978
334,1778621211.540809,-0.3204455,-0.5391778,-0.08085837,0.2131918,-2.3910775,-0.6323978
335,1778621211.5508106,-0.3204455,-0.5391778,-0.08085837,0.2131918,-2.3910775,-0.6323978
336,1778621211.5608113,-0.3204455,-0.5391778,-0.08085837,0.2131918,-2.3910775,-0.6323978
337,1778621211.5708127,-0.3204455,-0.5391778,-0.08085837,0.2131918,-2.3910775,-0.6323978
338,1778621211.5808146,-0.3204455,-0.5391778,-0.08085837,0.2131918,-2.3910775,-0.6323978
339,1778621211.5908158,-0.3204455,-0.5391778,-0.08085837,0.2131918,-2.3910775,-0.6323978
340,1778621211.6008167,-0.3204455,-0.5391778,-0.08085837,0.2131918,-2.3910775,-0.6323978
341,1778621211.6108181,-0.3489838,-0.08622454,0.048173543,0.5210677,-2.433838,-0.572533
342,1778621211.6208189,-0.3489838,-0.08622454,0.048173543,0.5210677,-2.433838,-0.572533
343,1778621211.6308196,-0.3489838,-0.08622454,0.048173543,0.5210677,-2.433838,-0.572533
344,1778621211.6408205,-0.3489838,-0.08622454,0.048173543,0.5210677,-2.433838,-0.572533
345,1778621211.6508217,-0.3489838,-0.08622454,0.048173543,0.89430606,-2.0691516,-0.45891216
346,1778621211.6608229,-0.3489838,-0.08622454,0.048173543,0.89430606,-2.0691516,-0.45891216
347,1778621211.670825,-0.3489838,-0.08622454,0.048173543,0.89430606,-2.0691516,-0.45891216
348,1778621211.6808267,-0.3489838,-0.08622454,0.048173543,0.89430606,-2.0691516,-0.45891216
349,1778621211.6908278,-0.3489838,-0.08622454,0.048173543,0.89430606,-2.0691516,-0.45891216
350,1778621211.7008297,-0.3489838,-0.08622454,0.048173543,0.89430606,-2.0691516,-0.45891216
351,1778621211.710831,-0.3621553,0.085980624,0.082077965,0.89430606,-2.0691516,-0.45891216
352,1778621211.720832,-0.3621553,0.085980624,0.082077965,0.89430606,-2.0691516,-0.45891216
353,1778621211.7308433,-0.3621553,0.085980624,0.082077965,0.89430606,-2.0691516,-0.45891216
354,1778621211.7415597,-0.3621553,0.085980624,0.082077965,1.1850777,-1.4326307,-0.31719154
355,1778621211.7515638,-0.3621553,0.085980624,0.082077965,1.1850777,-1.4326307,-0.31719154
356,1778621211.7617843,-0.3621553,0.085980624,0.082077965,1.1850777,-1.4326307,-0.31719154
357,1778621211.7717848,-0.3621553,0.085980624,0.082077965,1.1850777,-1.4326307,-0.31719154
358,1778621211.7817855,-0.3621553,0.085980624,0.082077965,1.4257584,-0.6843213,-0.14065161
359,1778621211.7917883,-0.3621553,0.085980624,0.082077965,1.4257584,-0.6843213,-0.14065161
360,1778621211.80179,-0.3621553,0.085980624,0.082077965,1.4257584,-0.6843213,-0.14065161
361,1778621211.8117917,-0.3621553,0.085980624,0.082077965,1.4257584,-0.6843213,-0.14065161
362,1778621211.8217936,-0.3621553,0.085980624,0.082077965,1.4257584,-0.6843213,-0.14065161
363,1778621211.8317947,-0.3621553,0.085980624,0.082077965,1.4257584,-0.6843213,-0.14065161
364,1778621211.8417962,-0.19946286,0.39502305,0.046466127,1.4257584,-0.6843213,-0.14065161
365,1778621211.8518057,-0.19946286,0.39502305,0.046466127,1.4257584,-0.6843213,-0.14065161
366,1778621211.8618088,-0.19946286,0.39502305,0.046466127,1.4257584,-0.6843213,-0.14065161
367,1778621211.87181,-0.19946286,0.39502305,0.046466127,1.4257584,-0.6843213,-0.14065161
368,1778621211.881811,-0.19946286,0.39502305,0.046466127,1.4257584,-0.6843213,-0.14065161
369,1778621211.8918114,-0.19946286,0.39502305,0.046466127,1.4257584,-0.6843213,-0.14065161
370,1778621211.9018128,-0.06555261,0.4591731,0.09671296,1.8179336,-0.006872229,0.045051277
371,1778621211.9118137,-0.06555261,0.4591731,0.09671296,1.8179336,-0.006872229,0.045051277
372,1778621211.9218144,0.14128873,0.5177131,0.27404037,1.8179336,-0.006872229,0.045051277
373,1778621211.9318154,0.14128873,0.5177131,0.27404037,2.2204936,-0.27565274,0.017562363
374,1778621211.9418159,0.14128873,0.5177131,0.27404037,2.2204936,-0.27565274,0.017562363
375,1778621211.951817,0.14128873,0.5177131,0.27404037,2.2204936,-0.27565274,0.017562363
376,1778621211.9618177,0.3064203,0.5923516,0.5069808,2.2204936,-0.27565274,0.017562363
377,1778621211.9718182,0.3064203,0.5923516,0.5069808,2.2204936,-0.27565274,0.017562363
378,1778621211.9818194,0.3064203,0.5923516,0.5069808,2.2204936,-0.27565274,0.017562363
379,1778621211.9918206,0.3064203,0.5923516,0.5069808,2.2204936,-0.27565274,0.017562363
380,1778621212.0018213,0.3064203,0.5923516,0.5069808,2.2204936,-0.27565274,0.017562363
381,1778621212.0118222,0.3064203,0.5923516,0.5069808,2.6731443,-0.23655738,-0.16569707
382,1778621212.0218234,0.3064203,0.5923516,0.5069808,2.6731443,-0.23655738,-0.16569707
383,1778621212.0318244,0.3064203,0.5923516,0.5069808,2.6731443,-0.23655738,-0.16569707
384,1778621212.0418248,-0.63802505,-1.6694876,1.1894597,1.6475023,-1.4277437,-0.035582874
385,1778621212.0518258,-0.63802505,-1.6694876,1.1894597,1.6475023,-1.4277437,-0.035582874
386,1778621212.0618265,-0.5663135,-2.183664,1.4970386,2.3817618,0.6168207,0.7921389
387,1778621212.0718272,-0.5663135,-2.183664,1.4970386,2.3817618,0.6168207,0.7921389
388,1778621212.0818298,-0.5663135,-2.183664,1.4970386,2.3817618,0.6168207,0.7921389
389,1778621212.091832,-0.5663135,-2.183664,1.4970386,2.3817618,0.6168207,0.7921389
390,1778621212.1021373,-0.5663135,-2.183664,1.4970386,2.3817618,0.6168207,0.7921389
391,1778621212.1121378,-0.5663135,-2.183664,1.4970386,2.3817618,0.6168207,0.7921389
392,1778621212.122139,-0.5663135,-2.183664,1.4970386,2.3817618,0.6168207,0.7921389
393,1778621212.1322126,-0.5663135,-2.183664,1.4970386,2.2779148,1.4579815,0.9320269
394,1778621212.1422138,-0.5663135,-2.183664,1.4970386,2.2779148,1.4579815,0.9320269
395,1778621212.1522145,-0.6911989,-2.5414898,1.4982581,2.2779148,1.4579815,0.9320269
396,1778621212.1622152,-0.6911989,-2.5414898,1.4982581,2.2779148,1.4579815,0.9320269
397,1778621212.1722164,-0.6911989,-2.5414898,1.4982581,2.2779148,1.4579815,0.9320269
398,1778621212.1822171,-0.13750802,-1.9590167,0.5603985,1.1539235,3.0944881,0.117744185
399,1778621212.192489,-0.13750802,-1.9590167,0.5603985,1.1539235,3.0944881,0.117744185
400,1778621212.2024896,-0.13750802,-1.9590167,0.5603985,1.1539235,3.0944881,0.117744185
401,1778621212.2124927,-0.13750802,-1.9590167,0.5603985,1.1539235,3.0944881,0.117744185
402,1778621212.2225063,-0.13750802,-1.9590167,0.5603985,1.1539235,3.0944881,0.117744185
403,1778621212.232507,0.051771317,-1.5877756,-0.34331274,0.31276277,2.9772022,-0.35017824
404,1778621212.2425106,0.051771317,-1.5877756,-0.34331274,0.31276277,2.9772022,-0.35017824
405,1778621212.252512,0.051771317,-1.5877756,-0.34331274,0.31276277,2.9772022,-0.35017824
406,1778621212.2625127,-0.03091644,-1.6065571,-0.4686859,1.9614868,0.81413,0.38041604
407,1778621212.2725136,-0.03091644,-1.6065571,-0.4686859,1.9614868,0.81413,0.38041604
408,1778621212.2827175,-0.03091644,-1.6065571,-0.4686859,1.9614868,0.81413,0.38041604
409,1778621212.2927186,0.020306062,-1.4470357,-0.50356597,1.7580688,0.13668099,0.4555524
410,1778621212.3027196,0.020306062,-1.4470357,-0.50356597,1.7580688,0.13668099,0.4555524
411,1778621212.3127203,0.020306062,-1.4470357,-0.50356597,1.7580688,0.13668099,0.4555524
412,1778621212.3227212,0.020306062,-1.4470357,-0.50356597,1.7580688,0.13668099,0.4555524
413,1778621212.3327222,0.020306062,-1.4470357,-0.50356597,1.7580688,0.13668099,0.4555524
414,1778621212.342723,0.045185562,-1.3216624,-0.4991755,1.3677262,-0.6317869,0.5093085
415,1778621212.3527234,0.041038983,-1.0818924,-0.4220978,1.0360267,-0.60002196,0.5997165
416,1778621212.362724,0.041038983,-1.0818924,-0.4220978,1.0360267,-0.60002196,0.5997165
417,1778621212.3730857,0.053966567,-0.98871624,-0.37941238,1.0360267,-0.60002196,0.5997165
418,1778621212.3830872,0.053966567,-0.98871624,-0.37941238,1.0360267,-0.60002196,0.5997165
419,1778621212.393088,0.053966567,-0.98871624,-0.37941238,1.0360267,-0.60002196,0.5997165
420,1778621212.4030921,0.053966567,-0.98871624,-0.37941238,1.0360267,-0.60002196,0.5997165
421,1778621212.4130938,0.053966567,-0.98871624,-0.37941238,1.0360267,-0.60002196,0.5997165
422,1778621212.4230945,0.053966567,-0.98871624,-0.37941238,1.0360267,-0.60002196,0.5997165
423,1778621212.4330955,0.058844898,-0.8940765,-0.38794947,1.0360267,-0.60002196,0.5997165
424,1778621212.4430964,0.058844898,-0.8940765,-0.38794947,0.7874047,-0.37033677,0.6375901
425,1778621212.453097,0.058844898,-0.8940765,-0.38794947,0.7874047,-0.37033677,0.6375901
426,1778621212.4633012,0.058844898,-0.8940765,-0.38794947,0.7874047,-0.37033677,0.6375901
427,1778621212.473304,0.058844898,-0.8940765,-0.38794947,0.7874047,-0.37033677,0.6375901
428,1778621212.483305,0.058844898,-0.8940765,-0.38794947,0.7874047,-0.37033677,0.6375901
429,1778621212.493306,0.10689648,-0.7972416,-0.49795586,0.5430588,0.15256348,0.6052143
430,1778621212.5033064,0.10689648,-0.7972416,-0.49795586,0.5430588,0.15256348,0.6052143
431,1778621212.5133078,0.16543648,-0.7182126,-0.42307347,0.5430588,0.15256348,0.6052143
432,1778621212.5233092,0.16543648,-0.7182126,-0.42307347,0.5430588,0.15256348,0.6052143
433,1778621212.5333097,0.16543648,-0.7182126,-0.42307347,0.5430588,0.15256348,0.6052143
434,1778621212.5433106,-0.123604774,-0.10500612,-0.030855458,-1.431867,1.4616467,-0.7038689
435,1778621212.553312,-0.24873403,-0.21062206,0.033538543,-1.431867,1.4616467,-0.7038689
436,1778621212.5633132,-0.24873403,-0.21062206,0.033538543,-1.431867,1.4616467,-0.7038689
437,1778621212.5733142,-0.38801044,-0.66186786,-0.03280679,-2.0005822,1.0377065,-0.4949532
438,1778621212.5833232,-0.38801044,-0.66186786,-0.03280679,-2.4685047,0.64430964,-0.33857182
439,1778621212.593326,-0.38801044,-0.66186786,-0.03280679,-2.4685047,0.64430964,-0.33857182
440,1778621212.6033268,-0.38801044,-0.66186786,-0.03280679,-2.4685047,0.64430964,-0.33857182
441,1778621212.6133275,-0.38801044,-0.66186786,-0.03280679,-2.4685047,0.64430964,-0.33857182
442,1778621212.6233287,-0.17190027,-1.7436384,-0.52112794,-1.4556907,0.69256794,-0.56642437
443,1778621212.6333299,-0.015549688,-1.5294795,-0.4557583,-1.2315034,0.43050694,-0.48151416
444,1778621212.6433308,-0.015549688,-1.5294795,-0.4557583,-1.2315034,0.43050694,-0.48151416
445,1778621212.6533322,-0.015549688,-1.5294795,-0.4557583,-0.8979712,0.16966769,-0.28848088
446,1778621212.663333,-0.015549688,-1.5294795,-0.4557583,-0.8979712,0.16966769,-0.28848088
447,1778621212.6733336,-0.015549688,-1.5294795,-0.4557583,-0.8979712,0.16966769,-0.28848088
448,1778621212.683335,-0.015549688,-1.5294795,-0.4557583,-0.8979712,0.16966769,-0.28848088
449,1778621212.693345,-0.015549688,-1.5294795,-0.4557583,-0.8979712,0.16966769,-0.28848088
450,1778621212.7033482,-0.015549688,-1.5294795,-0.4557583,-0.8979712,0.16966769,-0.28848088
451,1778621212.7133489,0.06518673,-0.9574949,-0.22428137,-0.48441577,-0.38133234,-0.15164718
452,1778621212.7233496,0.06518673,-0.9574949,-0.22428137,-0.48441577,-0.38133234,-0.15164718
453,1778621212.7333508,0.06518673,-0.9574949,-0.22428137,-0.48441577,-0.38133234,-0.15164718
454,1778621212.7433522,0.06518673,-0.9574949,-0.22428137,-0.48441577,-0.38133234,-0.15164718
455,1778621212.753353,0.06518673,-0.9574949,-0.22428137,-0.48441577,-0.38133234,-0.15164718
456,1778621212.7633538,0.06518673,-0.9574949,-0.22428137,-0.48441577,-0.38133234,-0.15164718
457,1778621212.773357,0.06518673,-0.9574949,-0.22428137,-0.48441577,-0.38133234,-0.15164718
458,1778621212.7833593,0.06518673,-0.9574949,-0.22428137,-0.48441577,-0.38133234,-0.15164718
459,1778621212.7933605,0.072016396,-0.8872469,-0.15403338,0.7024945,-0.49250972,-0.03497201
460,1778621212.803466,-0.038477857,-0.55308104,0.18305947,0.99998564,-0.1565341,0.08353576
461,1778621212.8134694,-0.038477857,-0.55308104,0.18305947,0.99998564,-0.1565341,0.08353576
462,1778621212.8234706,-0.038477857,-0.55308104,0.18305947,0.99998564,-0.1565341,0.08353576
463,1778621212.833472,-0.39849886,-0.14159364,0.16110696,1.9779801,2.1769693,0.45188722
464,1778621212.8434732,-0.39849886,-0.14159364,0.16110696,1.9779801,2.1769693,0.45188722
465,1778621212.853474,-0.39849886,-0.14159364,0.16110696,1.9779801,2.1769693,0.45188722
466,1778621212.8634748,-0.39849886,-0.14159364,0.16110696,1.9779801,2.1769693,0.45188722
467,1778621212.8734756,-0.29410252,-0.025733208,0.1923283,1.9779801,2.1769693,0.45188722
468,1778621212.883477,0.269345,0.52332324,0.19549921,3.207651,3.1500769,-0.6214022
469,1778621212.8934777,0.269345,0.52332324,0.19549921,3.207651,3.1500769,-0.6214022
470,1778621212.9034789,0.269345,0.52332324,0.19549921,3.207651,3.1500769,-0.6214022
471,1778621212.9134803,0.269345,0.52332324,0.19549921,3.207651,3.1500769,-0.6214022
472,1778621212.9234807,0.269345,0.52332324,0.19549921,3.207651,3.1500769,-0.6214022
473,1778621212.9334817,0.39496207,-0.55137366,-1.3860565,0.24006985,4.1054697,-1.1589632
474,1778621212.9434826,0.39496207,-0.55137366,-1.3860565,0.24006985,4.1054697,-1.1589632
475,1778621212.9534833,0.39496207,-0.55137366,-1.3860565,0.24006985,4.1054697,-1.1589632
476,1778621212.963484,-0.4765522,-1.7863237,-0.16866837,0.24006985,4.1054697,-1.1589632
477,1778621212.9734876,-0.4765522,-1.7863237,-0.16866837,0.24006985,4.1054697,-1.1589632
478,1778621212.983489,-0.4765522,-1.7863237,-0.16866837,0.24006985,4.1054697,-1.1589632
479,1778621212.99349,-0.4765522,-1.7863237,-0.16866837,-1.1502584,4.570338,-1.2017237
480,1778621213.003491,-0.4765522,-1.7863237,-0.16866837,-1.1502584,4.570338,-1.2017237
481,1778621213.0134916,-0.04189269,-1.5087465,-0.8982231,-1.1502584,4.570338,-1.2017237
482,1778621213.0234926,0.32764107,-1.0365238,-1.3682506,-1.5595378,4.274679,-1.0172426
483,1778621213.0334935,0.32764107,-1.0365238,-1.3682506,-1.5595378,4.274679,-1.0172426
484,1778621213.0434947,0.32764107,-1.0365238,-1.3682506,-1.5595378,4.274679,-1.0172426
485,1778621213.0537553,0.32764107,-1.0365238,-1.3682506,-1.5595378,4.274679,-1.0172426
486,1778621213.0637558,0.32764107,-1.0365238,-1.3682506,-1.5595378,4.274679,-1.0172426
487,1778621213.0737567,-0.6904671,-1.9502357,0.36599696,-0.034819294,1.9998186,0.4506655
488,1778621213.0837624,-0.6904671,-1.9502357,0.36599696,-0.034819294,1.9998186,0.4506655
489,1778621213.0937643,-0.6904671,-1.9502357,0.36599696,-0.034819294,1.9998186,0.4506655
490,1778621213.1037652,-0.96609294,-2.3487954,1.0226207,0.6004801,1.7285947,1.1250602
491,1778621213.113766,-0.96609294,-2.3487954,1.0226207,0.6004801,1.7285947,1.1250602
492,1778621213.1237664,-0.96609294,-2.3487954,1.0226207,0.6004801,1.7285947,1.1250602
493,1778621213.133768,-0.96609294,-2.3487954,1.0226207,0.6004801,1.7285947,1.1250602
494,1778621213.1439745,-0.96609294,-2.3487954,1.0226207,0.6004801,1.7285947,1.1250602
495,1778621213.1539755,-0.96609294,-2.3487954,1.0226207,0.6004801,1.7285947,1.1250602
496,1778621213.163976,-0.25849068,-2.1092694,-0.29013887,-1.138652,2.3748896,-0.78022707
497,1778621213.1739767,-0.25849068,-2.1092694,-0.29013887,-1.138652,2.3748896,-0.78022707
498,1778621213.1839774,-0.25849068,-2.1092694,-0.29013887,-1.138652,2.3748896,-0.78022707
499,1778621213.1939783,0.06811373,-1.0999422,-0.51649356,-1.364061,1.9295691,-1.3959787
500,1778621213.203979,0.06811373,-1.0999422,-0.51649356,-1.364061,1.9295691,-1.3959787
501,1778621213.2139797,0.06811373,-1.0999422,-0.51649356,-1.364061,1.9295691,-1.3959787
502,1778621213.223983,-0.18116911,-0.9755447,-0.13378829,-0.62796897,1.1714859,-0.8956805
503,1778621213.2342618,-0.18116911,-0.9755447,-0.13378829,-0.62796897,1.1714859,-0.8956805
504,1778621213.2442627,-0.18116911,-0.9755447,-0.13378829,-0.62796897,1.1714859,-0.8956805
505,1778621213.254273,-0.18116911,-0.9755447,-0.13378829,-0.62796897,1.1714859,-0.8956805
506,1778621213.2642763,-0.18116911,-0.9755447,-0.13378829,-0.62796897,1.1714859,-0.8956805
507,1778621213.2742774,-0.18116911,-0.9755447,-0.13378829,-0.62796897,1.1714859,-0.8956805
508,1778621213.2842782,-0.18116911,-0.9755447,-0.13378829,-0.62796897,1.1714859,-0.8956805
509,1778621213.294279,-0.3621553,-0.5511297,0.37990022,-0.62796897,1.1714859,-0.8956805
510,1778621213.3042803,-0.3621553,-0.5511297,0.37990022,-0.62796897,1.1714859,-0.8956805
511,1778621213.314281,-0.3621553,-0.5511297,0.37990022,-0.62796897,1.1714859,-0.8956805
512,1778621213.3246331,0.18397415,-2.370748,0.14720371,1.043357,3.588067,0.22036947
513,1778621213.3346343,0.5164326,-1.5575299,-0.10598179,0.19792019,3.2472045,0.39629853
514,1778621213.3446352,0.5164326,-1.5575299,-0.10598179,0.19792019,3.2472045,0.39629853
515,1778621213.3546362,0.5164326,-1.5575299,-0.10598179,0.39584038,2.9246678,0.5093085
516,1778621213.3646376,0.5164326,-1.5575299,-0.10598179,0.39584038,2.9246678,0.5093085
517,1778621213.374638,0.5164326,-1.5575299,-0.10598179,0.39584038,2.9246678,0.5093085
518,1778621213.3846388,0.5164326,-1.5575299,-0.10598179,0.39584038,2.9246678,0.5093085
519,1778621213.3946397,0.5164326,-1.5575299,-0.10598179,0.39584038,2.9246678,0.5093085
520,1778621213.40464,0.5164326,-1.5575299,-0.10598179,0.39584038,2.9246678,0.5093085
521,1778621213.4148486,0.319104,-1.44606,-0.063540295,0.94256437,2.7084217,0.47204575
522,1778621213.4248672,0.319104,-1.44606,-0.063540295,0.94256437,2.7084217,0.47204575
523,1778621213.4348686,0.319104,-1.44606,-0.063540295,0.94256437,2.7084217,0.47204575
524,1778621213.44487,-0.28532153,-1.2026312,0.25647837,0.91996235,2.6882632,0.25030184
525,1778621213.455011,-0.3141037,-1.0404266,0.38453463,0.91996235,2.6882632,0.25030184
526,1778621213.465014,-0.3141037,-1.0404266,0.38453463,0.91996235,2.6882632,0.25030184
527,1778621213.475015,-0.3141037,-1.0404266,0.38453463,0.91996235,2.6882632,0.25030184
528,1778621213.4850159,-0.3141037,-1.0404266,0.38453463,0.91996235,2.6882632,0.25030184
529,1778621213.4950173,-0.3141037,-1.0404266,0.38453463,0.62857985,2.9955282,0.18982624
530,1778621213.5052218,-0.3141037,-1.0404266,0.38453463,0.62857985,2.9955282,0.18982624
531,1778621213.5152223,-0.3141037,-1.0404266,0.38453463,0.62857985,2.9955282,0.18982624
532,1778621213.5252235,-0.3141037,-1.0404266,0.38453463,0.62857985,2.9955282,0.18982624
533,1778621213.5352268,-0.3141037,-1.0404266,0.38453463,0.62857985,2.9955282,0.18982624
534,1778621213.5452282,-0.3141037,-1.0404266,0.38453463,0.62857985,2.9955282,0.18982624
535,1778621213.5552287,-0.3141037,-1.0404266,0.38453463,0.62857985,2.9955282,0.18982624
536,1778621213.5652335,-0.066772185,-0.8221212,0.26964986,0.43615746,3.3993099,0.22525638
537,1778621213.5752354,-0.066772185,-0.8221212,0.26964986,0.43615746,3.3993099,0.22525638
538,1778621213.5852365,-0.066772185,-0.8221212,0.26964986,0.43615746,3.3993099,0.22525638
539,1778621213.5955768,-0.066772185,-0.8221212,0.26964986,0.43615746,3.3993099,0.22525638
540,1778621213.6055775,-0.066772185,-0.8221212,0.26964986,0.43615746,3.3993099,0.22525638
541,1778621213.6155787,0.13738607,-0.7716304,0.18013246,0.17104214,3.9631379,0.16661337
542,1778621213.6255794,0.13738607,-0.7716304,0.18013246,0.17104214,3.9631379,0.16661337
543,1778621213.6355803,0.13738607,-0.7716304,0.18013246,0.17104214,3.9631379,0.16661337
544,1778621213.6455812,0.18153499,0.06793079,0.22989148,-1.2712096,5.6136947,-1.0221295
545,1778621213.655582,0.18153499,0.06793079,0.22989148,-1.2712096,5.6136947,-1.0221295
546,1778621213.665583,0.18153499,0.06793079,0.22989148,-1.2712096,5.6136947,-1.0221295
547,1778621213.6755843,0.18153499,0.06793079,0.22989148,-1.2712096,5.6136947,-1.0221295
548,1778621213.6857402,0.18153499,0.06793079,0.22989148,-1.2712096,5.6136947,-1.0221295
549,1778621213.6957414,0.023476979,0.112567544,0.13452004,-1.2767074,5.544056,-1.0215186
550,1778621213.7057428,0.023476979,0.112567544,0.13452004,-1.2767074,5.544056,-1.0215186
551,1778621213.715744,0.023476979,0.112567544,0.13452004,-1.2767074,5.544056,-1.0215186
552,1778621213.7257454,-0.08823685,0.009390792,0.0693943,-1.2938116,5.358353,-0.9738712
553,1778621213.7357464,-0.08823685,0.009390792,0.0693943,-1.2938116,5.358353,-0.9738712
554,1778621213.7457485,-0.08823685,0.009390792,0.0693943,-1.2938116,5.358353,-0.9738712
555,1778621213.7557504,-0.08823685,0.009390792,0.0693943,-1.2938116,5.358353,-0.9738712
556,1778621213.7657516,-0.08823685,0.009390792,0.0693943,-1.2938116,5.358353,-0.9738712
557,1778621213.7760983,-0.08823685,0.009390792,0.0693943,-1.2938116,5.358353,-0.9738712
558,1778621213.7861004,-0.08823685,0.009390792,0.0693943,-1.3756675,4.8910418,-0.9024
559,1778621213.796103,-0.08823685,0.009390792,0.0693943,-1.3756675,4.8910418,-0.9024
560,1778621213.8061051,-0.08823685,0.009390792,0.0693943,-1.3756675,4.8910418,-0.9024
561,1778621213.8161304,-0.07043094,-0.1164702,-0.049393125,-1.3756675,4.8910418,-0.9024
562,1778621213.8261335,-0.07043094,-0.1164702,-0.049393125,-1.3756675,4.8910418,-0.9024
563,1778621213.8361356,-0.07043094,-0.1164702,-0.049393125,-1.3756675,4.8910418,-0.9024
564,1778621213.846138,0.1817789,-0.26916206,-0.06671121,-1.7623448,3.9894052,-0.70570153
565,1778621213.8561409,0.1817789,-0.26916206,-0.06671121,-1.7623448,3.9894052,-0.70570153
566,1778621213.8661425,0.2654423,-0.32038453,0.06256463,-1.7623448,3.9894052,-0.70570153
567,1778621213.8761437,0.2654423,-0.32038453,0.06256463,-1.7623448,3.9894052,-0.70570153
568,1778621213.8861468,0.2654423,-0.32038453,0.06256463,-1.7623448,3.9894052,-0.70570153
569,1778621213.8961484,0.29885888,-0.41404852,0.2508683,-1.793499,3.894721,-0.74357516
570,1778621213.90615,0.29885888,-0.41404852,0.2508683,-1.793499,3.894721,-0.74357516
571,1778621213.9161518,0.29885888,-0.41404852,0.2508683,-1.793499,3.894721,-0.74357516
572,1778621213.926153,0.29885888,-0.41404852,0.2508683,-1.793499,3.894721,-0.74357516
573,1778621213.9361537,0.29885888,-0.41404852,0.2508683,-1.793499,3.894721,-0.74357516
574,1778621213.9461553,0.29885888,-0.41404852,0.2508683,-1.793499,3.894721,-0.74357516
575,1778621213.9561572,0.24446549,-0.5916199,0.30721304,-1.793499,3.894721,-0.74357516
576,1778621213.9661584,0.24446549,-0.5916199,0.30721304,-1.793499,3.894721,-0.74357516
577,1778621213.9761596,-0.8065714,-1.7977878,-0.43844023,-2.2577562,3.2136068,1.0053307
578,1778621213.9861608,-0.8065714,-1.7977878,-0.43844023,-2.2577562,3.2136068,1.0053307
579,1778621213.9961612,-0.8065714,-1.7977878,-0.43844023,-2.2577562,3.2136068,1.0053307
580,1778621214.0061626,-0.8065714,-1.7977878,-0.43844023,-2.2577562,3.2136068,1.0053307
581,1778621214.0161636,-0.8065714,-1.7977878,-0.43844023,-2.2577562,3.2136068,1.0053307
582,1778621214.0261648,-0.8065714,-1.7977878,-0.43844023,-2.2577562,3.2136068,1.0053307
583,1778621214.036166,0.054942228,-1.1711658,-0.5350312,-1.2589923,-0.3837758,1.8544327
584,1778621214.046167,0.054942228,-1.1711658,-0.5350312,-1.2589923,-0.3837758,1.8544327
585,1778621214.0561686,-0.097749606,-0.5447879,-0.16037522,-0.0971275,-0.5884155,2.0535746
586,1778621214.0661702,-0.097749606,-0.5447879,-0.16037522,-0.0971275,-0.5884155,2.0535746
587,1778621214.0761712,-0.097749606,-0.5447879,-0.16037522,-0.0971275,-0.5884155,2.0535746
588,1778621214.0861719,-0.120921694,-0.4308788,-0.097444706,0.3536907,-0.30863944,1.9741622
589,1778621214.0961795,-0.120921694,-0.4308788,-0.097444706,0.3536907,-0.30863944,1.9741622
590,1778621214.1061828,-0.120921694,-0.4308788,-0.097444706,0.3536907,-0.30863944,1.9741622
591,1778621214.1163597,-0.15067953,-0.17232713,-0.092078544,1.0641265,0.58139056,1.6345215
592,1778621214.1268685,-0.49557772,-0.3052617,0.76089805,0.90285814,4.509251,-0.20723587
593,1778621214.1368706,-0.49557772,-0.3052617,0.76089805,0.90285814,4.509251,-0.20723587
594,1778621214.1472666,-0.49557772,-0.3052617,0.76089805,0.90285814,4.509251,-0.20723587
595,1778621214.1572678,-0.49557772,-0.3052617,0.76089805,0.90285814,4.509251,-0.20723587
596,1778621214.1672695,-0.6655876,-0.47063723,0.6340614,2.1868958,0.80313444,-0.056963142
597,1778621214.177271,-0.6655876,-0.47063723,0.6340614,2.1868958,0.80313444,-0.056963142
598,1778621214.1872716,-0.6655876,-0.47063723,0.6340614,2.1868958,0.80313444,-0.056963142
599,1778621214.1972725,-0.6655876,-0.47063723,0.6340614,2.1868958,0.80313444,-0.056963142
600,1778621214.2072732,-0.7614469,-0.8291947,0.43868414,2.1868958,0.80313444,-0.056963142
601,1778621214.2172737,-0.7614469,-0.8291947,0.43868414,2.1868958,0.80313444,-0.056963142
602,1778621214.2274714,-0.7614469,-0.8291947,0.43868414,2.1868958,0.80313444,-0.056963142
603,1778621214.237472,-0.7614469,-0.8291947,0.43868414,2.1868958,0.80313444,-0.056963142
604,1778621214.2474723,-0.7614469,-0.8291947,0.43868414,2.1868958,0.80313444,-0.056963142
605,1778621214.2574732,-0.7614469,-0.8291947,0.43868414,1.9755367,0.525191,0.34681848
606,1778621214.2674737,-0.7614469,-0.8291947,0.43868414,1.9755367,0.525191,0.34681848
607,1778621214.2774744,-0.7614469,-0.8291947,0.43868414,1.9755367,0.525191,0.34681848
608,1778621214.287475,-1.2461092,-1.1350663,-0.53698254,1.9755367,0.525191,0.34681848
609,1778621214.2974756,-1.2461092,-1.1350663,-0.53698254,1.9755367,0.525191,0.34681848
610,1778621214.3074763,-0.45264837,-2.0329235,-0.23818462,1.4856231,2.1653628,1.2954915
611,1778621214.317478,-0.45264837,-2.0329235,-0.23818462,1.4856231,2.1653628,1.2954915
612,1778621214.3274791,-0.45264837,-2.0329235,-0.23818462,1.4856231,2.1653628,1.2954915
613,1778621214.3374803,0.7657154,-2.5653934,0.54917836,2.0402884,3.3376124,1.2582288
614,1778621214.3474813,0.7657154,-2.5653934,0.54917836,1.9278892,3.236209,0.5826123
615,1778621214.357482,0.7657154,-2.5653934,0.54917836,1.9278892,3.236209,0.5826123
616,1778621214.3674834,0.7657154,-2.5653934,0.54917836,1.9278892,3.236209,0.5826123
617,1778621214.3774846,0.81645006,-2.5919805,-0.013049542,1.9278892,3.236209,0.5826123
618,1778621214.3874848,0.81645006,-2.5919805,-0.013049542,1.9278892,3.236209,0.5826123
619,1778621214.3974855,0.81645006,-2.5919805,-0.013049542,1.9278892,3.236209,0.5826123
620,1778621214.4075968,-0.39508402,-1.9887747,-0.0037807084,2.2711952,0.43783733,0.70661783
621,1778621214.4175978,-0.39508402,-1.9887747,-0.0037807084,2.2711952,0.43783733,0.70661783
622,1778621214.4275982,-0.12140953,-2.145613,-0.2923341,2.4678936,-0.51694435,0.47693267
623,1778621214.4375987,-0.12140953,-2.145613,-0.2923341,2.4678936,-0.51694435,0.47693267
624,1778621214.4476,-0.12140953,-2.145613,-0.2923341,2.4678936,-0.51694435,0.47693267
625,1778621214.4576008,0.0061588963,-2.1068301,-0.35843554,2.4678936,-0.51694435,0.47693267
626,1778621214.4676018,0.0061588963,-2.1068301,-0.35843554,2.4678936,-0.51694435,0.47693267
627,1778621214.4776025,0.0061588963,-2.1068301,-0.35843554,2.4678936,-0.51694435,0.47693267
628,1778621214.4876032,0.0061588963,-2.1068301,-0.35843554,2.4678936,-0.51694435,0.47693267
629,1778621214.497604,0.0061588963,-2.1068301,-0.35843554,2.4678936,-0.51694435,0.47693267
630,1778621214.507605,0.0061588963,-2.1068301,-0.35843554,2.4678936,-0.51694435,0.47693267
631,1778621214.5176067,0.0061588963,-2.1068301,-0.35843554,2.4678936,-0.51694435,0.47693267
632,1778621214.5276082,0.0061588963,-2.1068301,-0.35843554,2.4678936,-0.51694435,0.47693267
633,1778621214.5376098,0.0061588963,-2.1068301,-0.35843554,2.4678936,-0.51694435,0.47693267
634,1778621214.547613,0.0061588963,-2.1068301,-0.35843554,2.6242752,-1.0239621,0.28328854
635,1778621214.5576143,0.0061588963,-2.1068301,-0.35843554,2.6242752,-1.0239621,0.28328854
636,1778621214.567821,0.0061588963,-2.1068301,-0.35843554,2.6242752,-1.0239621,0.28328854
637,1778621214.5778222,0.0061588963,-2.1068301,-0.35843554,2.6242752,-1.0239621,0.28328854
638,1778621214.5878232,0.0061588963,-2.1068301,-0.35843554,2.6242752,-1.0239621,0.28328854
639,1778621214.5978246,0.28617525,-1.7902265,-0.5084443,2.6261077,-0.9812015,-0.07651082
640,1778621214.607826,0.28617525,-1.7902265,-0.5084443,2.6261077,-0.9812015,-0.07651082
641,1778621214.6178265,0.28617525,-1.7902265,-0.5084443,2.6261077,-0.9812015,-0.07651082
642,1778621214.6278274,0.28617525,-1.7902265,-0.5084443,2.6261077,-0.9812015,-0.07651082
643,1778621214.637828,0.28617525,-1.7902265,-0.5084443,2.6261077,-0.9812015,-0.07651082
644,1778621214.6478288,0.27471116,-1.5738723,-0.56942344,2.379929,-0.67699087,-0.319635
645,1778621214.6578312,0.27471116,-1.5738723,-0.56942344,2.379929,-0.67699087,-0.319635
646,1778621214.6678324,0.27471116,-1.5738723,-0.56942344,2.379929,-0.67699087,-0.319635
647,1778621214.6778336,0.15933856,-1.3775194,-0.5540567,2.1386375,-0.54565495,-0.33735007
648,1778621214.687834,0.15933856,-1.3775194,-0.5540567,2.1386375,-0.54565495,-0.33735007
649,1778621214.697835,0.15933856,-1.3775194,-0.5540567,2.1386375,-0.54565495,-0.33735007
650,1778621214.7078364,0.15933856,-1.3775194,-0.5540567,2.1386375,-0.54565495,-0.33735007
651,1778621214.7178373,0.15933856,-1.3775194,-0.5540567,2.1386375,-0.54565495,-0.33735007
652,1778621214.7278383,-0.5843634,-0.86773354,-0.418683,-2.3481643,-0.21090107,-1.0722204
653,1778621214.7378395,-0.5843634,-0.86773354,-0.418683,-2.3481643,-0.21090107,-1.0722204
654,1778621214.7478402,-0.5843634,-0.86773354,-0.418683,-2.3481643,-0.21090107,-1.0722204
655,1778621214.757841,-0.5843634,-0.86773354,-0.418683,-2.7690501,-0.5401572,-0.8278745
656,1778621214.767842,-0.5843634,-0.86773354,-0.418683,-2.7690501,-0.5401572,-0.8278745
657,1778621214.7778428,-0.5843634,-0.86773354,-0.418683,-2.7690501,-0.5401572,-0.8278745
658,1778621214.7878435,-0.7072974,-1.0892099,-0.34623972,-2.7690501,-0.5401572,-0.8278745
659,1778621214.7978466,-0.7072974,-1.0892099,-0.34623972,-2.7690501,-0.5401572,-0.8278745
660,1778621214.807848,-0.7072974,-1.0892099,-0.34623972,-2.7690501,-0.5401572,-0.8278745
661,1778621214.817862,-0.7072974,-1.0892099,-0.34623972,-2.7690501,-0.5401572,-0.8278745
662,1778621214.8278666,-0.7072974,-1.0892099,-0.34623972,-2.7690501,-0.5401572,-0.8278745
663,1778621214.837867,-0.80827886,-1.4099603,-0.08524887,-3.3041675,-0.9622647,-0.6531672
664,1778621214.847868,-0.80827886,-1.4099603,-0.08524887,-3.3041675,-0.9622647,-0.6531672
665,1778621214.8578682,-0.80827886,-1.4099603,-0.08524887,-3.3041675,-0.9622647,-0.6531672
666,1778621214.867869,-0.80827886,-1.4099603,-0.08524887,-3.3041675,-0.9622647,-0.6531672
667,1778621214.8778696,-0.80827886,-1.4099603,-0.08524887,-3.3041675,-0.9622647,-0.6531672
668,1778621214.8878703,-0.80827886,-1.4099603,-0.08524887,-3.3041675,-0.9622647,-0.6531672
669,1778621214.8978713,-0.92706627,-2.0760968,0.30452996,-3.6474736,-0.5713113,-0.9952514
670,1778621214.9078743,-0.9009672,-2.3607476,0.43722063,-3.5845544,0.46715885,-0.9579887
671,1778621214.9178762,-0.9009672,-2.3607476,0.43722063,-3.5845544,0.46715885,-0.9579887
672,1778621214.927877,-0.06799178,-2.175371,-0.6808934,-3.6486952,-1.2395973,0.26496258
673,1778621214.9378932,-0.06799178,-2.175371,-0.6808934,-3.6486952,-1.2395973,0.26496258
674,1778621214.947901,-0.06799178,-2.175371,-0.6808934,-3.6486952,-1.2395973,0.26496258
675,1778621214.9579015,-0.06799178,-2.175371,-0.6808934,-3.6486952,-1.2395973,0.26496258
676,1778621214.9679022,-0.06799178,-2.175371,-0.6808934,-3.6486952,-1.2395973,0.26496258
677,1778621214.977903,0.21665898,-1.8375462,-0.34526405,-2.1471896,-0.48029244,-0.33001968
678,1778621214.9879038,0.21665898,-1.8375462,-0.34526405,-2.1471896,-0.48029244,-0.33001968
679,1778621214.9979043,0.21665898,-1.8375462,-0.34526405,-2.1471896,-0.48029244,-0.33001968
680,1778621215.0079052,-0.009207855,-1.5848485,-0.30135906,-1.6010766,-1.5389211,-0.6458368
681,1778621215.0179062,-0.009207855,-1.5848485,-0.30135906,-1.6010766,-1.5389211,-0.6458368
682,1778621215.0279067,-0.009207855,-1.5848485,-0.30135906,-1.6010766,-1.5389211,-0.6458368
683,1778621215.0379074,-0.009207855,-1.5848485,-0.30135906,-1.6010766,-1.5389211,-0.6458368
684,1778621215.047908,-0.009207855,-1.5848485,-0.30135906,-1.6010766,-1.5389211,-0.6458368
685,1778621215.0579088,-0.18336436,-1.3804464,-0.17549805,-1.6389502,-2.4436119,-0.64156073
686,1778621215.06791,-0.18336436,-1.3804464,-0.17549805,-1.6389502,-2.4436119,-0.64156073
687,1778621215.0779104,-0.18336436,-1.3804464,-0.17549805,-1.6389502,-2.4436119,-0.64156073
688,1778621215.0879111,-0.18336436,-1.3804464,-0.17549805,-1.6389502,-2.4436119,-0.64156073
689,1778621215.0979135,-0.18336436,-1.3804464,-0.17549805,-1.6389502,-2.4436119,-0.64156073
690,1778621215.1079152,-0.18336436,-1.3804464,-0.17549805,-1.6389502,-2.4436119,-0.64156073
691,1778621215.117916,-0.18336436,-1.3804464,-0.17549805,-1.7195843,-3.2756097,-0.5218312
692,1778621215.1279168,-0.18336436,-1.3804464,-0.17549805,-1.7195843,-3.2756097,-0.5218312
693,1778621215.1379173,-0.18336436,-1.3804464,-0.17549805,-1.7195843,-3.2756097,-0.5218312
694,1778621215.1479177,-0.28239453,-1.1462865,0.022318374,-1.7195843,-3.2756097,-0.5218312
695,1778621215.1582532,-0.28239453,-1.1462865,0.022318374,-1.7195843,-3.2756097,-0.5218312
696,1778621215.1682537,-0.28239453,-1.1462865,0.022318374,-1.7195843,-3.2756097,-0.5218312
697,1778621215.1782544,-0.28239453,-1.1462865,0.022318374,-1.7195843,-3.2756097,-0.5218312
698,1778621215.1882553,-0.32678735,-0.8038274,0.34331274,-1.7195843,-3.2756097,-0.5218312
699,1778621215.198256,-0.32678735,-0.8038274,0.34331274,-1.7195843,-3.2756097,-0.5218312
700,1778621215.2082565,-0.22604977,0.579668,0.0071955416,0.59803665,-0.753349,0.06459895
701,1778621215.2182572,-0.22604977,0.579668,0.0071955416,0.59803665,-0.753349,0.06459895
702,1778621215.2282588,-0.22604977,0.579668,0.0071955416,0.59803665,-0.753349,0.06459895
703,1778621215.2382603,0.030306645,0.53015286,-0.21525647,1.6194025,0.21853687,-0.00320704
704,1778621215.248491,0.030306645,0.53015286,-0.21525647,1.6194025,0.21853687,-0.00320704
705,1778621215.2584934,0.030306645,0.53015286,-0.21525647,1.6194025,0.21853687,-0.00320704
706,1778621215.2684946,0.030306645,0.53015286,-0.21525647,1.9321653,0.36514443,-0.066126116
707,1778621215.2785006,0.030306645,0.53015286,-0.21525647,1.9321653,0.36514443,-0.066126116
708,1778621215.2885034,0.030306645,0.53015286,-0.21525647,1.9321653,0.36514443,-0.066126116
709,1778621215.2985053,0.22592781,-0.124031626,-0.8960279,0.27672175,0.9552398,-0.11499529
710,1778621215.3085077,0.22592781,-0.124031626,-0.8960279,0.27672175,0.9552398,-0.11499529
711,1778621215.3185093,0.22592781,-0.124031626,-0.8960279,0.27672175,0.9552398,-0.11499529
712,1778621215.3285108,0.061527982,-0.24281906,-1.2158027,-0.8472695,0.85200363,0.09453133
713,1778621215.3385122,0.061527982,-0.24281906,-1.2158027,-0.8472695,0.85200363,0.09453133
714,1778621215.3485136,0.061527982,-0.24281906,-1.2158027,-0.8472695,0.85200363,0.09453133
715,1778621215.3585145,0.061527982,-0.24281906,-1.2158027,-0.8472695,0.85200363,0.09453133
716,1778621215.3685179,0.061527982,-0.24281906,-1.2158027,-0.8472695,0.85200363,0.09453133
717,1778621215.3785203,0.061527982,-0.24281906,-1.2158027,-0.8472695,0.85200363,0.09453133
718,1778621215.3885236,0.061527982,-0.24281906,-1.2158027,-0.8472695,0.85200363,0.09453133
719,1778621215.398525,0.061527982,-0.24281906,-1.2158027,-0.8472695,0.85200363,0.09453133
720,1778621215.4085262,0.061527982,-0.24281906,-1.2158027,-0.8472695,0.85200363,0.09453133
721,1778621215.4185271,0.061527982,-0.24281906,-1.2158027,-0.8472695,0.85200363,0.09453133
722,1778621215.4285283,0.061527982,-0.24281906,-1.2158027,-0.8472695,0.85200363,0.09453133
723,1778621215.4385297,-0.051649354,-0.07500438,0.6143041,-1.689652,1.2502875,0.61315554
724,1778621215.4485312,-0.051649354,-0.07500438,0.6143041,-1.689652,1.2502875,0.61315554
725,1778621215.4585319,-0.051649354,-0.07500438,0.6143041,-1.689652,1.2502875,0.61315554
726,1778621215.4685342,-0.04189269,-0.032562874,1.4245954,0.15821397,0.93935734,0.2423606
727,1778621215.4785361,-0.04189269,-0.032562874,1.4245954,0.15821397,0.93935734,0.2423606
728,1778621215.4885373,-0.04189269,-0.032562874,1.4245954,0.15821397,0.93935734,0.2423606
729,1778621215.498538,-0.04189269,-0.032562874,1.4245954,0.15821397,0.93935734,0.2423606
730,1778621215.5085392,-0.2160492,-0.13598356,1.3806903,1.1722496,0.5319105,-0.42164943
731,1778621215.5185401,-0.2160492,-0.13598356,1.3806903,1.1722496,0.5319105,-0.42164943
732,1778621215.5285406,-0.2160492,-0.13598356,1.3806903,1.1722496,0.5319105,-0.42164943
733,1778621215.5385423,0.0064028124,-0.61893857,0.53698254,1.6187917,-1.4876084,0.43111783
734,1778621215.5485432,0.0064028124,-0.61893857,0.53698254,1.6187917,-1.4876084,0.43111783
735,1778621215.5585444,0.0064028124,-0.61893857,0.53698254,1.6187917,-1.4876084,0.43111783
736,1778621215.5685458,0.0064028124,-0.61893857,0.53698254,1.6187917,-1.4876084,0.43111783
737,1778621215.5785475,0.0064028124,-0.61893857,0.53698254,1.6187917,-1.4876084,0.43111783
738,1778621215.5885487,0.0064028124,-0.61893857,0.53698254,1.6187917,-1.4876084,0.43111783
739,1778621215.59855,0.0064028124,-0.61893857,0.53698254,1.6187917,-1.4876084,0.43111783
740,1778621215.6085515,0.0064028124,-0.61893857,0.53698254,1.6187917,-1.4876084,0.43111783
741,1778621215.618553,0.0064028124,-0.61893857,0.53698254,1.6187917,-1.4876084,0.43111783
742,1778621215.6285565,0.0064028124,-0.61893857,0.53698254,1.6187917,-1.4876084,0.43111783
743,1778621215.6385584,0.0064028124,-0.61893857,0.53698254,1.6187917,-1.4876084,0.43111783
744,1778621215.6485596,0.0064028124,-0.61893857,0.53698254,1.6187917,-1.4876084,0.43111783
745,1778621215.6585624,-0.19287711,-2.3902614,-0.15013072,2.8790057,0.7866411,0.7683152
746,1778621215.6685643,-0.19287711,-2.3902614,-0.15013072,2.8790057,0.7866411,0.7683152
747,1778621215.6785657,-0.19287711,-2.3902614,-0.15013072,2.8790057,0.7866411,0.7683152
748,1778621215.6885667,-0.19287711,-2.3902614,-0.15013072,2.8790057,0.7866411,0.7683152
749,1778621215.6985674,-0.19287711,-2.3902614,-0.15013072,2.8790057,0.7866411,0.7683152
750,1778621215.7085683,0.0705529,-0.971642,-0.5713748,1.3616176,-1.9219333,0.49281517
751,1778621215.7185688,0.0705529,-0.971642,-0.5713748,1.3616176,-1.9219333,0.49281517
752,1778621215.7285695,0.17080265,-0.90480894,-0.4877114,1.3616176,-1.9219333,0.49281517
753,1778621215.738571,0.17080265,-0.90480894,-0.4877114,1.3616176,-1.9219333,0.49281517
754,1778621215.7485716,0.17080265,-0.90480894,-0.4877114,1.3616176,-1.9219333,0.49281517
755,1778621215.758573,0.17080265,-0.90480894,-0.4877114,1.3616176,-1.9219333,0.49281517
756,1778621215.7685738,0.17080265,-0.90480894,-0.4877114,1.3616176,-1.9219333,0.49281517
757,1778621215.778574,0.17080265,-0.90480894,-0.4877114,1.3616176,-1.9219333,0.49281517
758,1778621215.788575,0.17080265,-0.90480894,-0.4877114,1.2895355,-1.5205952,0.38163778
759,1778621215.7985754,0.17080265,-0.90480894,-0.4877114,1.2895355,-1.5205952,0.38163778
760,1778621215.8085768,0.17080265,-0.90480894,-0.4877114,1.2895355,-1.5205952,0.38163778
761,1778621215.8185806,-0.4953338,-0.23964813,-0.20964637,-1.7635666,0.09025527,-0.46563166
762,1778621215.8285902,-0.4953338,-0.23964813,-0.20964637,-1.7635666,0.09025527,-0.46563166
763,1778621215.8389182,-0.4953338,-0.23964813,-0.20964637,-1.7635666,0.09025527,-0.46563166
764,1778621215.8489192,-0.4953338,-0.23964813,-0.20964637,-1.7635666,0.09025527,-0.46563166
765,1778621215.8589196,-0.4953338,-0.23964813,-0.20964637,-1.7635666,0.09025527,-0.46563166
766,1778621215.8689208,-0.4953338,-0.23964813,-0.20964637,-1.7635666,0.09025527,-0.46563166
767,1778621215.87893,-0.4953338,-0.23964813,-0.20964637,-1.7635666,0.09025527,-0.46563166
768,1778621215.8889334,-0.4953338,-0.23964813,-0.20964637,-1.7635666,0.09025527,-0.46563166
769,1778621215.898935,-0.5058222,-0.47624728,-0.08963938,-2.1392484,-0.14981459,-0.3404044
770,1778621215.908936,-0.5058222,-0.47624728,-0.08963938,-2.1392484,-0.14981459,-0.3404044
771,1778621215.9189372,-0.5058222,-0.47624728,-0.08963938,-2.1392484,-0.14981459,-0.3404044
772,1778621215.9291272,-0.47191778,-0.6816251,-0.06988213,-2.4135268,-0.29764387,-0.27015495
773,1778621215.939128,-0.47191778,-0.6816251,-0.06988213,-2.4135268,-0.29764387,-0.27015495
774,1778621215.9491289,-0.47191778,-0.6816251,-0.06988213,-2.837467,-0.56459177,-0.22617269
775,1778621215.9591367,-0.47191778,-0.6816251,-0.06988213,-2.837467,-0.56459177,-0.22617269
776,1778621215.969139,-0.47191778,-0.6816251,-0.06988213,-2.837467,-0.56459177,-0.22617269
777,1778621215.9791403,-0.47191778,-0.6816251,-0.06988213,-2.837467,-0.56459177,-0.22617269
778,1778621215.9891512,-0.37166804,-1.0348165,-0.04036821,-2.837467,-0.56459177,-0.22617269
779,1778621215.9991553,-0.37166804,-1.0348165,-0.04036821,-2.837467,-0.56459177,-0.22617269
780,1778621216.0091574,-0.37166804,-1.0348165,-0.04036821,-2.837467,-0.56459177,-0.22617269
781,1778621216.019455,-0.26532036,-2.3234282,0.009390792,-3.3805256,-0.8523091,-0.26160285
782,1778621216.0294583,-0.26532036,-2.3234282,0.009390792,-3.3805256,-0.8523091,-0.26160285
783,1778621216.0394595,-0.26532036,-2.3234282,0.009390792,-3.65908,-0.7881683,-0.5780308
784,1778621216.0494604,-0.26532036,-2.3234282,0.009390792,-3.65908,-0.7881683,-0.5780308
785,1778621216.059461,-0.26532036,-2.3234282,0.009390792,-3.65908,-0.7881683,-0.5780308
786,1778621216.069462,-0.26532036,-2.3234282,0.009390792,-3.65908,-0.7881683,-0.5780308
787,1778621216.079463,-0.26532036,-2.3234282,0.009390792,-3.65908,-0.7881683,-0.5780308
788,1778621216.0894644,-0.26166162,-2.90956,0.03866079,-3.65908,-0.7881683,-0.5780308
789,1778621216.099466,-0.26166162,-2.90956,0.03866079,-3.65908,-0.7881683,-0.5780308
790,1778621216.109467,-0.26166162,-2.90956,0.03866079,-3.65908,-0.7881683,-0.5780308
791,1778621216.119468,-0.26166162,-2.90956,0.03866079,-3.65908,-0.7881683,-0.5780308
792,1778621216.1294684,-0.26166162,-2.90956,0.03866079,-3.65908,-0.7881683,-0.5780308
793,1778621216.1394694,-0.26166162,-2.90956,0.03866079,-3.65908,-0.7881683,-0.5780308
794,1778621216.1494708,-0.30312744,-3.211529,0.3035543,-3.2607963,-0.13881902,-0.59452415
795,1778621216.1594715,-0.30312744,-3.211529,0.3035543,-3.2607963,-0.13881902,-0.59452415
796,1778621216.169472,-0.30312744,-3.211529,0.3035543,-3.2607963,-0.13881902,-0.59452415
797,1778621216.179473,0.010061563,-1.8051053,-0.5050295,-2.544252,-0.8822415,0.041996952
798,1778621216.1894734,0.010061563,-1.8051053,-0.5050295,-2.544252,-0.8822415,0.041996952
799,1778621216.1994743,0.010061563,-1.8051053,-0.5050295,-2.544252,-0.8822415,0.041996952
800,1778621216.2094753,0.010061563,-1.8051053,-0.5050295,-2.4355178,-1.4460696,0.14401138
801,1778621216.2194762,0.010061563,-1.8051053,-0.5050295,-2.4355178,-1.4460696,0.14401138
802,1778621216.2294798,0.010061563,-1.8051053,-0.5050295,-2.4355178,-1.4460696,0.14401138
803,1778621216.239481,0.010061563,-1.8051053,-0.5050295,-2.4355178,-1.4460696,0.14401138
804,1778621216.2494836,0.010061563,-1.8051053,-0.5050295,-2.4355178,-1.4460696,0.14401138
805,1778621216.2594852,0.18836464,-1.7780305,-0.33989787,-2.1532984,-1.5822924,0.07925971
806,1778621216.2697725,0.25983223,-1.7563219,-0.31428665,-1.8258748,-1.4527892,-0.011759147
807,1778621216.2797737,0.25983223,-1.7563219,-0.31428665,-1.8258748,-1.4527892,-0.011759147
808,1778621216.289775,0.25983223,-1.7563219,-0.31428665,-1.8258748,-1.4527892,-0.011759147
809,1778621216.2997758,0.25983223,-1.7563219,-0.31428665,-1.8258748,-1.4527892,-0.011759147
810,1778621216.3097768,0.25983223,-1.7563219,-0.31428665,-1.8258748,-1.4527892,-0.011759147
811,1778621216.3197773,0.25983223,-1.7563219,-0.31428665,-1.8258748,-1.4527892,-0.011759147
812,1778621216.3297782,0.25983223,-1.7563219,-0.31428665,-1.8258748,-1.4527892,-0.011759147
813,1778621216.3397799,0.25983223,-1.7563219,-0.31428665,-1.8258748,-1.4527892,-0.011759147
814,1778621216.349781,0.25983223,-1.7563219,-0.31428665,-1.8258748,-1.4527892,-0.011759147
815,1778621216.359782,0.25983223,-1.7563219,-0.31428665,-1.8258748,-1.4527892,-0.011759147
816,1778621216.3697836,0.22665958,-1.6180212,-0.19403571,-0.9902118,-1.4320197,-0.39477137
817,1778621216.3798127,0.22665958,-1.6180212,-0.19403571,-0.9902118,-1.4320197,-0.39477137
818,1778621216.389814,0.22665958,-1.6180212,-0.19403571,-0.9902118,-1.4320197,-0.39477137
819,1778621216.3998158,0.062015813,-1.4267905,-0.18257163,-0.9902118,-1.4320197,-0.39477137
820,1778621216.409817,0.062015813,-1.4267905,-0.18257163,-0.9902118,-1.4320197,-0.39477137
821,1778621216.4198182,0.062015813,-1.4267905,-0.18257163,-0.9902118,-1.4320197,-0.39477137
822,1778621216.4298193,0.062015813,-1.4267905,-0.18257163,-0.9902118,-1.4320197,-0.39477137
823,1778621216.4398208,0.062015813,-1.4267905,-0.18257163,-0.9902118,-1.4320197,-0.39477137
824,1778621216.4500432,0.062015813,-1.4267905,-0.18257163,-0.9902118,-1.4320197,-0.39477137
825,1778621216.460045,-0.07530928,-1.2082412,-0.18744996,-0.9902118,-1.4320197,-0.39477137
826,1778621216.470046,-0.07530928,-1.2082412,-0.18744996,-0.9902118,-1.4320197,-0.39477137
827,1778621216.480047,-0.07530928,-1.2082412,-0.18744996,-0.9902118,-1.4320197,-0.39477137
828,1778621216.4900517,-0.07530928,-1.2082412,-0.18744996,-0.7648027,-1.751502,-0.52855074
829,1778621216.5000541,-0.07530928,-1.2082412,-0.18744996,-0.7648027,-1.751502,-0.52855074
830,1778621216.5100558,-0.22580586,-0.7730939,-0.020367041,-0.6194169,-2.4002404,-0.6330086
831,1778621216.5200572,-0.22580586,-0.7730939,-0.020367041,-0.6194169,-2.4002404,-0.6330086
832,1778621216.530058,-0.22580586,-0.7730939,-0.020367041,-0.6194169,-2.4002404,-0.6330086
833,1778621216.5400589,0.26007617,0.6313783,0.43331796,2.4642286,1.5942043,-0.6330086
834,1778621216.550059,0.26007617,0.6313783,0.43331796,2.4642286,1.5942043,-0.6330086
835,1778621216.560061,0.26007617,0.6313783,0.43331796,2.4642286,1.5942043,-0.6330086
836,1778621216.5700667,0.26007617,0.6313783,0.43331796,2.4642286,1.5942043,-0.6330086
837,1778621216.5800693,0.26007617,0.6313783,0.43331796,2.4642286,1.5942043,-0.6330086
838,1778621216.5900712,0.26007617,0.6313783,0.43331796,2.4642286,1.5942043,-0.6330086
839,1778621216.6000724,0.26007617,0.6313783,0.43331796,2.4642286,1.5942043,-0.6330086
840,1778621216.610073,0.26007617,0.6313783,0.43331796,2.4642286,1.5942043,-0.6330086
841,1778621216.6200738,0.30422506,0.582351,0.3942913,2.4642286,1.5942043,-0.6330086
842,1778621216.630075,0.30422506,0.582351,0.3942913,2.4642286,1.5942043,-0.6330086
843,1778621216.640076,0.30422506,0.582351,0.3942913,2.4642286,1.5942043,-0.6330086
844,1778621216.6500766,0.30422506,0.582351,0.3942913,2.4642286,1.5942043,-0.6330086
845,1778621216.6600835,0.30422506,0.582351,0.3942913,2.4642286,1.5942043,-0.6330086
846,1778621216.6700857,0.30422506,0.582351,0.3942913,2.4642286,1.5942043,-0.6330086
847,1778621216.6800869,0.19690172,0.44526988,0.111591876,2.4642286,1.5942043,-0.6330086
848,1778621216.6900873,0.19690172,0.44526988,0.111591876,2.4642286,1.5942043,-0.6330086
849,1778621216.7000883,0.19690172,0.44526988,0.111591876,2.4642286,1.5942043,-0.6330086
850,1778621216.7100892,0.19690172,0.44526988,0.111591876,2.4642286,1.5942043,-0.6330086
851,1778621216.7200897,0.19690172,0.44526988,0.111591876,2.4642286,1.5942043,-0.6330086
852,1778621216.7300904,0.11592139,0.34575188,-0.18159597,2.4648395,2.5434883,-0.6348412
853,1778621216.740096,0.11592139,0.34575188,-0.18159597,2.4648395,2.5434883,-0.6348412
854,1778621216.7500985,0.11592139,0.34575188,-0.18159597,2.4648395,2.5434883,-0.6348412
855,1778621216.7600994,0.11592139,0.34575188,-0.18159597,2.1038184,3.2777476,-0.5358811
856,1778621216.770102,-0.35191077,-0.50307816,1.4699638,0.9767728,0.40607235,-0.07467822
857,1778621216.7801032,-0.35191077,-0.50307816,1.4699638,0.9767728,0.40607235,-0.07467822
858,1778621216.7901042,-0.35191077,-0.50307816,1.4699638,0.9767728,0.40607235,-0.07467822
859,1778621216.8001082,-0.35191077,-0.50307816,1.4699638,0.9767728,0.40607235,-0.07467822
860,1778621216.8101099,-0.35191077,-0.50307816,1.4699638,0.9767728,0.40607235,-0.07467822
861,1778621216.8201134,-0.35191077,-0.50307816,1.4699638,0.9767728,0.40607235,-0.07467822
862,1778621216.8301158,-0.35191077,-0.50307816,1.4699638,0.9767728,0.40607235,-0.07467822
863,1778621216.8401165,-0.35191077,-0.50307816,1.4699638,0.9767728,0.40607235,-0.07467822
864,1778621216.8501172,-0.35191077,-0.50307816,1.4699638,0.9767728,0.40607235,-0.07467822
865,1778621216.860118,-0.35191077,-0.50307816,1.4699638,0.9767728,0.40607235,-0.07467822
866,1778621216.8701186,-0.35191077,-0.50307816,1.4699638,0.9767728,0.40607235,-0.07467822
867,1778621216.8801196,-0.35191077,-0.50307816,1.4699638,0.9767728,0.40607235,-0.07467822
868,1778621216.8901203,-0.35191077,-0.50307816,1.4699638,0.9767728,0.40607235,-0.07467822
869,1778621216.9001217,-0.5014317,-1.1806786,1.2611711,1.6022983,0.7658717,0.105526894
870,1778621216.91013,-0.89096665,-3.292509,1.448743,3.4086254,2.6766567,1.8153374
871,1778621216.9201334,-0.89096665,-3.292509,1.448743,3.4086254,2.6766567,1.8153374
872,1778621216.9301343,-0.89096665,-3.292509,1.448743,3.4086254,2.6766567,1.8153374
873,1778621216.940135,-0.89096665,-3.292509,1.448743,3.4086254,2.6766567,1.8153374
874,1778621216.9501357,0.6122918,-2.567345,-1.2011676,1.4617994,5.658899,0.85200363
875,1778621216.9601362,0.6122918,-2.567345,-1.2011676,1.4617994,5.658899,0.85200363
876,1778621216.9701366,0.6122918,-2.567345,-1.2011676,1.4617994,5.658899,0.85200363
877,1778621216.9801376,0.59741294,-1.8285214,-1.8029101,0.18875721,2.1219916,-0.2206749
878,1778621216.990138,0.59741294,-1.8285214,-1.8029101,0.18875721,2.1219916,-0.2206749
879,1778621217.0001385,0.59741294,-1.8285214,-1.8029101,0.18875721,2.1219916,-0.2206749
880,1778621217.0101397,-0.0082321875,-1.2092168,0.1703758,1.1979058,-2.3189955,0.34376416
881,1778621217.0201418,-0.0082321875,-1.2092168,0.1703758,1.1979058,-2.3189955,0.34376416
882,1778621217.0301433,-0.0082321875,-1.2092168,0.1703758,1.1979058,-2.3189955,0.34376416
883,1778621217.0401444,-0.0082321875,-1.2092168,0.1703758,1.1979058,-2.3189955,0.34376416
884,1778621217.0501537,-0.2570272,-1.3060517,0.6816251,1.6407828,-0.22983788,0.2875646
885,1778621217.0601578,-0.2570272,-1.3060517,0.6816251,1.6407828,-0.22983788,0.2875646
886,1778621217.0701597,-0.40142587,-1.5255768,0.83846354,1.6407828,-0.22983788,0.2875646
887,1778621217.0801606,-0.40142587,-1.5255768,0.83846354,1.6407828,-0.22983788,0.2875646
888,1778621217.090161,-0.40142587,-1.5255768,0.83846354,1.6407828,-0.22983788,0.2875646
889,1778621217.100162,-0.40264544,-1.7382721,0.6433302,1.6407828,-0.22983788,0.2875646
890,1778621217.1101625,-0.40264544,-1.7382721,0.6433302,1.6407828,-0.22983788,0.2875646
891,1778621217.1201634,-0.40264544,-1.7382721,0.6433302,1.6407828,-0.22983788,0.2875646
892,1778621217.1301641,-0.1911697,-1.979018,-0.016220458,2.3109014,0.7506001,0.54657125
893,1778621217.1401646,-0.1911697,-1.979018,-0.016220458,2.3109014,0.7506001,0.54657125
894,1778621217.1501653,-0.1911697,-1.979018,-0.016220458,2.3109014,0.7506001,0.54657125
895,1778621217.1602595,-0.1911697,-1.979018,-0.016220458,2.3109014,0.7506001,0.54657125
896,1778621217.1702616,-0.1911697,-1.979018,-0.016220458,2.3109014,0.7506001,0.54657125
897,1778621217.1802623,-0.1911697,-1.979018,-0.016220458,2.3109014,0.7506001,0.54657125
898,1778621217.1902628,-0.1911697,-1.979018,-0.016220458,2.3109014,0.7506001,0.54657125
899,1778621217.2002637,-0.1911697,-1.979018,-0.016220458,2.3109014,0.7506001,0.54657125
900,1778621217.2102647,0.022989146,-1.8943788,-0.35087416,2.3109014,0.7506001,0.54657125
901,1778621217.2202652,0.022989146,-1.8943788,-0.35087416,2.3109014,0.7506001,0.54657125
902,1778621217.230266,0.022989146,-1.8943788,-0.35087416,2.4636176,-0.45524698,0.16722423
903,1778621217.240267,0.022989146,-1.8943788,-0.35087416,2.4636176,-0.45524698,0.16722423
904,1778621217.2502677,0.022989146,-1.8943788,-0.35087416,2.4636176,-0.45524698,0.16722423
905,1778621217.2602684,0.022989146,-1.8943788,-0.35087416,2.4636176,-0.45524698,0.16722423
906,1778621217.2702694,-0.072870106,-0.66967326,-0.46624672,1.0140356,-1.0887138,0.49403688
907,1778621217.28027,-0.072870106,-0.66967326,-0.46624672,1.0140356,-1.0887138,0.49403688
908,1778621217.2902708,-0.072870106,-0.66967326,-0.46624672,1.0140356,-1.0887138,0.49403688
909,1778621217.3003478,-0.072870106,-0.66967326,-0.46624672,0.85826504,-0.82298756,0.46715885
910,1778621217.3103485,-0.072870106,-0.66967326,-0.46624672,0.85826504,-0.82298756,0.46715885
911,1778621217.32035,-0.072870106,-0.66967326,-0.46624672,0.85826504,-0.82298756,0.46715885
912,1778621217.3303509,-0.072870106,-0.66967326,-0.46624672,0.85826504,-0.82298756,0.46715885
913,1778621217.340352,-0.17116854,-0.11281146,-0.15622863,-1.5595378,0.39080074,-0.4705186
914,1778621217.3503535,-0.17116854,-0.11281146,-0.15622863,-1.5595378,0.39080074,-0.4705186
915,1778621217.360354,-0.17116854,-0.11281146,-0.15622863,-1.5595378,0.39080074,-0.4705186
916,1778621217.370355,-0.23848954,-0.1908648,-0.09939604,-1.5595378,0.39080074,-0.4705186
917,1778621217.3803558,-0.23848954,-0.1908648,-0.09939604,-1.5595378,0.39080074,-0.4705186
918,1778621217.3903565,-0.23848954,-0.1908648,-0.09939604,-1.5595378,0.39080074,-0.4705186
919,1778621217.4003577,-0.23848954,-0.1908648,-0.09939604,-1.5595378,0.39080074,-0.4705186
920,1778621217.4104257,-0.23848954,-0.1908648,-0.09939604,-1.5595378,0.39080074,-0.4705186
921,1778621217.4204266,-0.23848954,-0.1908648,-0.09939604,-1.5595378,0.39080074,-0.4705186
922,1778621217.4304302,-0.23848954,-0.1908648,-0.09939604,-1.5595378,0.39080074,-0.4705186
923,1778621217.4404318,-0.23848954,-0.1908648,-0.09939604,-1.5595378,0.39080074,-0.4705186
924,1778621217.4504328,-0.23848954,-0.1908648,-0.09939604,-1.5595378,0.39080074,-0.4705186
925,1778621217.4604342,-0.23848954,-0.1908648,-0.09939604,-1.5595378,0.39080074,-0.4705186
926,1778621217.470435,-0.23848954,-0.1908648,-0.09939604,-1.5595378,0.39080074,-0.4705186
927,1778621217.480436,-0.024086772,-2.2443993,-0.17988855,-2.8252497,0.83612114,-0.5254964
928,1778621217.4904366,-0.024086772,-2.2443993,-0.17988855,-2.8252497,0.83612114,-0.5254964
929,1778621217.500437,-0.024086772,-2.2443993,-0.17988855,-2.8252497,0.83612114,-0.5254964
930,1778621217.5104382,-0.024086772,-2.2443993,-0.17988855,-2.2565346,1.514792,-0.48884454
931,1778621217.5204394,-0.024086772,-2.2443993,-0.17988855,-2.2565346,1.514792,-0.48884454
932,1778621217.5304396,-0.024086772,-2.2443993,-0.17988855,-2.2565346,1.514792,-0.48884454
933,1778621217.540441,-0.024086772,-2.2443993,-0.17988855,-2.109316,0.8159626,-0.4637991
934,1778621217.5504415,-0.024086772,-2.2443993,-0.17988855,-2.109316,0.8159626,-0.4637991
935,1778621217.5604427,-0.024086772,-2.2443993,-0.17988855,-2.109316,0.8159626,-0.4637991
936,1778621217.570444,-0.024086772,-2.2443993,-0.17988855,-2.109316,0.8159626,-0.4637991
937,1778621217.5804446,-0.024086772,-2.2443993,-0.17988855,-2.109316,0.8159626,-0.4637991
938,1778621217.590445,-0.024086772,-2.2443993,-0.17988855,-2.109316,0.8159626,-0.4637991
939,1778621217.600446,0.014208145,-2.0524368,-0.7326037,-2.109316,0.8159626,-0.4637991
940,1778621217.6104467,0.014208145,-2.0524368,-0.7326037,-2.109316,0.8159626,-0.4637991
941,1778621217.6204476,0.014208145,-2.0524368,-0.7326037,-2.109316,0.8159626,-0.4637991
942,1778621217.6304486,0.014208145,-2.0524368,-0.7326037,-2.109316,0.8159626,-0.4637991
943,1778621217.6404493,0.014208145,-2.0524368,-0.7326037,-2.109316,0.8159626,-0.4637991
944,1778621217.6504498,0.014208145,-2.0524368,-0.7326037,-2.2608106,-0.7020363,-0.3440696
945,1778621217.6604605,0.014208145,-2.0524368,-0.7326037,-2.2608106,-0.7020363,-0.3440696
946,1778621217.670464,0.014208145,-2.0524368,-0.7326037,-2.2608106,-0.7020363,-0.3440696
947,1778621217.6804657,-0.018964522,-1.9390156,-0.8343169,-2.2608106,-0.7020363,-0.3440696
948,1778621217.6904664,-0.018964522,-1.9390156,-0.8343169,-2.2608106,-0.7020363,-0.3440696
949,1778621217.7004673,-0.018964522,-1.9390156,-0.8343169,-2.2608106,-0.7020363,-0.3440696
950,1778621217.710468,-0.18482786,-0.7716304,-0.053783625,-0.7232639,-4.3238535,-0.47968158
951,1778621217.7204685,-0.18482786,-0.7716304,-0.053783625,-0.7232639,-4.3238535,-0.47968158
952,1778621217.7304697,-0.18482786,-0.7716304,-0.053783625,-0.7232639,-4.3238535,-0.47968158
953,1778621217.7404714,-0.15848486,-0.3706314,0.16866837,-0.5907062,-4.4704614,-0.46746427
954,1778621217.7504725,-0.15848486,-0.3706314,0.16866837,-0.5907062,-4.4704614,-0.46746427
955,1778621217.7604733,-0.15848486,-0.3706314,0.16866837,-0.38912088,-4.1387615,-0.45219266
956,1778621217.7704792,-0.15848486,-0.3706314,0.16866837,-0.38912088,-4.1387615,-0.45219266
957,1778621217.780481,-0.15848486,-0.3706314,0.16866837,-0.38912088,-4.1387615,-0.45219266
958,1778621217.7904823,-0.15848486,-0.3706314,0.16866837,-0.38912088,-4.1387615,-0.45219266
959,1778621217.8004827,-0.15848486,-0.3706314,0.16866837,-0.38912088,-4.1387615,-0.45219266
960,1778621217.8104832,-0.15848486,-0.3706314,0.16866837,-0.38912088,-4.1387615,-0.45219266
961,1778621217.8204842,0.071040735,0.08695629,-0.33477563,-0.30054548,-0.27687445,0.9008728
962,1778621217.8304844,0.071040735,0.08695629,-0.33477563,-0.30054548,-0.27687445,0.9008728
963,1778621217.8404853,-0.12482436,0.08329754,-0.34892282,-1.1056652,-0.39171705,1.1378883
964,1778621217.8504877,-0.12482436,0.08329754,-0.34892282,-1.1056652,-0.39171705,1.1378883
965,1778621217.8604891,-0.12482436,0.08329754,-0.34892282,-1.1056652,-0.39171705,1.1378883
966,1778621217.87049,-0.16897328,-2.388798,0.46649066,-0.2131918,0.30222535,-0.7002038
967,1778621217.880491,-0.16897328,-2.388798,0.46649066,-0.2131918,0.30222535,-0.7002038
968,1778621217.8904917,-0.16897328,-2.388798,0.46649066,-0.2131918,0.30222535,-0.7002038
969,1778621217.9004924,-0.16897328,-2.388798,0.46649066,-0.2131918,0.30222535,-0.7002038
970,1778621217.9105034,-0.16897328,-2.388798,0.46649066,-0.2131918,0.30222535,-0.7002038
971,1778621217.9205067,-0.16897328,-2.388798,0.46649066,-0.2131918,0.30222535,-0.7002038
972,1778621217.9305077,-0.16897328,-2.388798,0.46649066,-0.2131918,0.30222535,-0.7002038
973,1778621217.9405215,-0.16897328,-2.388798,0.46649066,-0.2131918,0.30222535,-0.7002038
974,1778621217.9505327,-0.16897328,-2.388798,0.46649066,-0.2131918,0.30222535,-0.7002038
975,1778621217.9605331,-0.16897328,-2.388798,0.46649066,-0.2131918,0.30222535,-0.7002038
976,1778621217.970534,-0.16897328,-2.388798,0.46649066,-0.2131918,0.30222535,-0.7002038
977,1778621217.9805353,-0.16897328,-2.388798,0.46649066,-0.2131918,0.30222535,-0.7002038
978,1778621217.9905357,-0.16897328,-2.388798,0.46649066,0.77091134,0.56367546,-0.7484621
979,1778621218.0005362,-0.16897328,-2.388798,0.46649066,0.77091134,0.56367546,-0.7484621
980,1778621218.0105374,0.009573729,-1.6402177,0.02426971,0.77091134,0.56367546,-0.7484621
981,1778621218.0210054,0.009573729,-1.6402177,0.02426971,0.77091134,0.56367546,-0.7484621
982,1778621218.031007,0.009573729,-1.6402177,0.02426971,0.77091134,0.56367546,-0.7484621
983,1778621218.0410078,0.009573729,-1.6402177,0.02426971,0.77091134,0.56367546,-0.7484621
984,1778621218.0510085,0.009573729,-1.6402177,0.02426971,0.77091134,0.56367546,-0.7484621
985,1778621218.0610094,0.2212934,-1.2858068,0.0015854583,1.2870921,0.5404626,-0.75884676
986,1778621218.0710104,0.19226731,-1.6260705,-0.07012604,1.0360267,0.755487,-0.95126915
987,1778621218.0810113,0.19226731,-1.6260705,-0.07012604,1.0360267,0.755487,-0.95126915
988,1778621218.091012,0.19226731,-1.6260705,-0.07012604,1.0360267,0.755487,-0.95126915
989,1778621218.1010127,-0.03433127,-1.74437,-0.07817529,1.6823215,-0.8327614,-1.0508401
990,1778621218.1110132,-0.03433127,-1.74437,-0.07817529,1.6823215,-0.8327614,-1.0508401
991,1778621218.1210144,0.054942228,0.07280912,0.23013538,-0.262061,-2.08198,-0.06062833
992,1778621218.131015,0.054942228,0.07280912,0.23013538,-0.262061,-2.08198,-0.06062833
993,1778621218.1410158,0.054942228,0.07280912,0.23013538,-0.262061,-2.08198,-0.06062833
994,1778621218.1510167,-0.12775135,-0.11573846,0.1220803,-1.3261875,-2.5480697,0.6388118
995,1778621218.1610255,-0.12775135,-0.11573846,0.1220803,-1.3261875,-2.5480697,0.6388118
996,1778621218.171029,-0.12775135,-0.11573846,0.1220803,-1.3261875,-2.5480697,0.6388118
997,1778621218.1810308,-0.12775135,-0.11573846,0.1220803,-1.3261875,-2.5480697,0.6388118
998,1778621218.1912012,-0.12775135,-0.11573846,0.1220803,-1.4086542,-2.216981,0.75793046
999,1778621218.201203,-0.12775135,-0.11573846,0.1220803,-1.4086542,-2.216981,0.75793046
