id,timestamp,acc_x,acc_y,acc_z,gyro_x,gyro_y,gyro_z
1,1778621145.3890996,-0.0062808543,-1.0355482,-0.107933134,-0.31459537,-0.8981239,0.344375
2,1778621145.3991024,-0.0062808543,-1.0355482,-0.107933134,-0.31459537,-0.8981239,0.344375
3,1778621145.4091039,-0.0062808543,-1.0355482,-0.107933134,-0.31459537,-0.8981239,0.344375
4,1778621145.4191055,-0.0062808543,-1.0355482,-0.107933134,-0.31459537,-0.8981239,0.344375
5,1778621145.4291077,-0.0062808543,-1.0355482,-0.107933134,-0.31459537,-0.8981239,0.344375
6,1778621145.4391086,-0.0062808543,-1.0355482,-0.107933134,-0.31459537,-0.8981239,0.344375
7,1778621145.4491093,-0.0062808543,-1.0355482,-0.107933134,-0.31459537,-0.8981239,0.344375
8,1778621145.4591098,-0.0062808543,-1.0355482,-0.107933134,-0.31459537,-0.8981239,0.344375
9,1778621145.469112,-0.0062808543,-1.0355482,-0.107933134,-0.31459537,-0.8981239,0.344375
10,1778621145.479113,-0.0062808543,-1.0355482,-0.107933134,-0.31459537,-0.8981239,0.344375
11,1778621145.4891143,-0.0062808543,-1.0355482,-0.107933134,-0.31459537,-0.8981239,0.344375
12,1778621145.499115,-0.0062808543,-1.0355482,-0.107933134,-0.31459537,-0.8981239,0.344375
13,1778621145.5091157,-0.0062808543,-1.0355482,-0.107933134,-0.31459537,-0.8981239,0.344375
14,1778621145.5191166,-0.0062808543,-1.0355482,-0.107933134,-0.31459537,-0.8981239,0.344375
15,1778621145.529118,-0.0062808543,-1.0355482,-0.107933134,-0.31459537,-0.8981239,0.344375
16,1778621145.539416,0.016159479,-1.0331091,-0.12378771,-0.31459537,-0.8981239,0.344375
17,1778621145.549418,0.016159479,-1.0331091,-0.12378771,-0.31459537,-0.8981239,0.344375
18,1778621145.5594187,0.016159479,-1.0331091,-0.12378771,-0.31459537,-0.8981239,0.344375
19,1778621145.569419,0.016159479,-1.0331091,-0.12378771,-0.31459537,-0.8981239,0.344375
20,1778621145.5794196,0.016159479,-1.0331091,-0.12378771,-0.37323838,-0.8694133,0.32665995
21,1778621145.5894208,0.05250306,-1.0367678,-0.15013072,-0.37323838,-0.8694133,0.32665995
22,1778621145.5994215,0.05250306,-1.0367678,-0.15013072,-0.37323838,-0.8694133,0.32665995
23,1778621145.6094224,0.05250306,-1.0367678,-0.15013072,-0.37323838,-0.8694133,0.32665995
24,1778621145.619423,0.05250306,-1.0367678,-0.15013072,-0.478918,-0.8339831,0.308334
25,1778621145.6294243,0.05250306,-1.0367678,-0.15013072,-0.478918,-0.8339831,0.308334
26,1778621145.6394253,0.05250306,-1.0367678,-0.15013072,-0.478918,-0.8339831,0.308334
27,1778621145.6494257,0.05250306,-1.0367678,-0.15013072,-0.478918,-0.8339831,0.308334
28,1778621145.6594262,0.05250306,-1.0367678,-0.15013072,-0.478918,-0.8339831,0.308334
29,1778621145.6694272,0.05250306,-1.0367678,-0.15013072,-0.478918,-0.8339831,0.308334
30,1778621145.6794348,0.05250306,-1.0367678,-0.15013072,-0.478918,-0.8339831,0.308334
31,1778621145.6894355,0.05250306,-1.0367678,-0.15013072,-0.478918,-0.8339831,0.308334
32,1778621145.6994362,0.05250306,-1.0367678,-0.15013072,-0.478918,-0.8339831,0.308334
33,1778621145.7094374,0.05250306,-1.0367678,-0.15013072,-0.478918,-0.8339831,0.308334
34,1778621145.719438,0.05250306,-1.0367678,-0.15013072,-0.478918,-0.8339831,0.308334
35,1778621145.7294388,0.05250306,-1.0367678,-0.15013072,-0.478918,-0.8339831,0.308334
36,1778621145.7394397,0.05250306,-1.0367678,-0.15013072,-0.478918,-0.8339831,0.308334
37,1778621145.749441,0.05250306,-1.0367678,-0.15013072,-0.54672396,-0.8694133,0.2924515
38,1778621145.7594423,0.05250306,-1.0367678,-0.15013072,-0.54672396,-0.8694133,0.2924515
39,1778621145.7694433,0.05250306,-1.0367678,-0.15013072,-0.54672396,-0.8694133,0.2924515
40,1778621145.7794437,0.05250306,-1.0367678,-0.15013072,-0.54672396,-0.8694133,0.2924515
41,1778621145.789445,0.07079682,-1.0445732,-0.1615948,-0.54672396,-0.8694133,0.2924515
42,1778621145.7995467,0.07079682,-1.0445732,-0.1615948,-0.54672396,-0.8694133,0.2924515
43,1778621145.8095481,0.07079682,-1.0445732,-0.1615948,-0.54672396,-0.8694133,0.2924515
44,1778621145.8195493,0.0017683958,-0.608694,-0.45722178,-2.9614725,-0.48395762,-0.18524474
45,1778621145.8295505,0.0017683958,-0.608694,-0.45722178,-2.9614725,-0.48395762,-0.18524474
46,1778621145.839551,0.0017683958,-0.608694,-0.45722178,-2.9614725,-0.48395762,-0.18524474
47,1778621145.8495517,0.0017683958,-0.608694,-0.45722178,-2.9614725,-0.48395762,-0.18524474
48,1778621145.8595526,-0.10579886,-0.7433361,-0.4091702,-2.9614725,-0.48395762,-0.18524474
49,1778621145.8695538,-0.10579886,-0.7433361,-0.4091702,-2.9614725,-0.48395762,-0.18524474
50,1778621145.8795545,-0.10579886,-0.7433361,-0.4091702,-2.9614725,-0.48395762,-0.18524474
51,1778621145.889555,-0.10579886,-0.7433361,-0.4091702,-2.9614725,-0.48395762,-0.18524474
52,1778621145.8995562,-0.10579886,-0.7433361,-0.4091702,-2.9614725,-0.48395762,-0.18524474
53,1778621145.9095583,-0.10579886,-0.7433361,-0.4091702,-2.9614725,-0.48395762,-0.18524474
54,1778621145.9195592,-0.10579886,-0.7433361,-0.4091702,-2.9614725,-0.48395762,-0.18524474
55,1778621145.9295607,-0.10579886,-0.7433361,-0.4091702,-2.9614725,-0.48395762,-0.18524474
56,1778621145.9395635,-0.10579886,-0.7433361,-0.4091702,-2.9614725,-0.48395762,-0.18524474
57,1778621145.9495645,-0.42313445,-1.7524194,-0.2828214,-1.6358958,-2.4277294,-1.6684245
58,1778621145.959573,-0.42313445,-1.7524194,-0.2828214,-1.6358958,-2.4277294,-1.6684245
59,1778621145.9695764,-0.42313445,-1.7524194,-0.2828214,-1.6358958,-2.4277294,-1.6684245
60,1778621145.9795773,-0.48947978,-1.6570479,-0.3386783,-1.4941752,-2.4631596,-1.5059344
61,1778621145.989578,-0.48947978,-1.6570479,-0.3386783,-1.4941752,-2.4631596,-1.5059344
62,1778621145.9995787,-0.48947978,-1.6570479,-0.3386783,-1.4941752,-2.4631596,-1.5059344
63,1778621146.0095794,-0.48947978,-1.6570479,-0.3386783,-1.4941752,-2.4631596,-1.5059344
64,1778621146.01958,-0.48947978,-1.6570479,-0.3386783,-1.4941752,-2.4631596,-1.5059344
65,1778621146.0295882,-0.48947978,-1.6570479,-0.3386783,-1.4941752,-2.4631596,-1.5059344
66,1778621146.0395894,-0.2072682,-0.49405318,-0.084761046,0.16676609,-2.4802637,0.1556178
67,1778621146.0495899,-0.2072682,-0.49405318,-0.084761046,0.16676609,-2.4802637,0.1556178
68,1778621146.0595906,-0.2072682,-0.49405318,-0.084761046,0.16676609,-2.4802637,0.1556178
69,1778621146.0695913,-0.2072682,-0.49405318,-0.084761046,0.16676609,-2.4802637,0.1556178
70,1778621146.0795918,-0.2072682,-0.49405318,-0.084761046,0.16676609,-2.4802637,0.1556178
71,1778621146.0895922,-0.2072682,-0.49405318,-0.084761046,0.16676609,-2.4802637,0.1556178
72,1778621146.0996742,-0.2072682,-0.49405318,-0.084761046,0.365908,-2.2102616,0.1867719
73,1778621146.1096752,-0.2072682,-0.49405318,-0.084761046,0.365908,-2.2102616,0.1867719
74,1778621146.119676,-0.20385335,-0.3620943,-0.024757542,0.365908,-2.2102616,0.1867719
75,1778621146.1296768,-0.20385335,-0.3620943,-0.024757542,0.365908,-2.2102616,0.1867719
76,1778621146.1396775,-0.20385335,-0.3620943,-0.024757542,0.365908,-2.2102616,0.1867719
77,1778621146.1496801,-0.20385335,-0.3620943,-0.024757542,0.365908,-2.2102616,0.1867719
78,1778621146.1596813,-0.20385335,-0.3620943,-0.024757542,0.365908,-2.2102616,0.1867719
79,1778621146.1696823,-0.20385335,-0.3620943,-0.024757542,0.365908,-2.2102616,0.1867719
80,1778621146.179683,-0.03725827,0.009390792,-0.03158721,1.337183,-0.08384119,0.098196514
81,1778621146.1896837,-0.03725827,0.009390792,-0.03158721,1.337183,-0.08384119,0.098196514
82,1778621146.1996844,-0.03725827,0.009390792,-0.03158721,1.337183,-0.08384119,0.098196514
83,1778621146.2096853,-0.03725827,0.009390792,-0.03158721,1.337183,-0.08384119,0.098196514
84,1778621146.2196865,-0.03725827,0.009390792,-0.03158721,1.337183,-0.08384119,0.098196514
85,1778621146.2296872,-0.03725827,0.009390792,-0.03158721,1.337183,-0.08384119,0.098196514
86,1778621146.2396882,-0.03725827,0.009390792,-0.03158721,1.337183,-0.08384119,0.098196514
87,1778621146.2496889,-0.03725827,0.009390792,-0.03158721,1.337183,-0.08384119,0.098196514
88,1778621146.2596896,-0.03725827,0.009390792,-0.03158721,1.337183,-0.08384119,0.098196514
89,1778621146.2696905,-0.03725827,0.009390792,-0.03158721,1.337183,-0.08384119,0.098196514
90,1778621146.2796915,-0.03725827,0.009390792,-0.03158721,1.337183,-0.08384119,0.098196514
91,1778621146.2896922,-0.03725827,0.009390792,-0.03158721,1.337183,-0.08384119,0.098196514
92,1778621146.2996929,-0.03725827,0.009390792,-0.03158721,1.337183,-0.08384119,0.098196514
93,1778621146.309695,-0.03725827,0.009390792,-0.03158721,1.337183,-0.08384119,0.098196514
94,1778621146.319697,-0.03725827,0.009390792,-0.03158721,1.337183,-0.08384119,0.098196514
95,1778621146.3296974,-0.03725827,0.009390792,-0.03158721,1.337183,-0.08384119,0.098196514
96,1778621146.3396978,-0.03725827,0.009390792,-0.03158721,1.2510511,0.45982847,-0.03497201
97,1778621146.3496983,-0.03725827,0.009390792,-0.03158721,1.2510511,0.45982847,-0.03497201
98,1778621146.3597,-0.03725827,0.009390792,-0.03158721,1.2510511,0.45982847,-0.03497201
99,1778621146.3697011,-0.03725827,0.009390792,-0.03158721,1.2510511,0.45982847,-0.03497201
100,1778621146.3797016,-0.03725827,0.009390792,-0.03158721,1.2510511,0.45982847,-0.03497201
101,1778621146.3897023,-0.03725827,0.009390792,-0.03158721,1.2510511,0.45982847,-0.03497201
102,1778621146.399703,0.112750486,-0.02695279,-0.16330221,1.2510511,0.45982847,-0.03497201
103,1778621146.4097035,0.112750486,-0.02695279,-0.16330221,1.2510511,0.45982847,-0.03497201
104,1778621146.4197044,0.045917314,0.08939546,-0.3823394,0.07391464,-0.22739442,-0.33001968
105,1778621146.4297051,0.045917314,0.08939546,-0.3823394,0.07391464,-0.22739442,-0.33001968
106,1778621146.4397056,0.045917314,0.08939546,-0.3823394,0.07391464,-0.22739442,-0.33001968
107,1778621146.4497066,0.02420873,0.13915445,-0.23916028,-0.19914192,-0.3666716,-0.28420484
108,1778621146.4597077,0.02420873,0.13915445,-0.23916028,-0.19914192,-0.3666716,-0.28420484
109,1778621146.46971,0.02420873,0.13915445,-0.23916028,-0.19914192,-0.3666716,-0.28420484
110,1778621146.4797187,0.02420873,0.13915445,-0.23916028,-0.19914192,-0.3666716,-0.28420484
111,1778621146.4897194,0.02420873,0.13915445,-0.23916028,-0.19914192,-0.3666716,-0.28420484
112,1778621146.4997203,0.02420873,0.13915445,-0.23916028,-0.19914192,-0.3666716,-0.28420484
113,1778621146.5097213,0.02420873,0.13915445,-0.23916028,-0.19914192,-0.3666716,-0.28420484
114,1778621146.5197217,0.02420873,0.13915445,-0.23916028,-0.19914192,-0.3666716,-0.28420484
115,1778621146.529723,0.02420873,0.13915445,-0.23916028,-0.19914192,-0.3666716,-0.28420484
116,1778621146.5397377,0.02420873,0.13915445,-0.23916028,-0.19914192,-0.3666716,-0.28420484
117,1778621146.5497384,0.02420873,0.13915445,-0.23916028,-0.19914192,-0.3666716,-0.28420484
118,1778621146.5597389,0.02420873,0.13915445,-0.23916028,-0.21563527,0.027336199,-0.21578798
119,1778621146.5697398,0.02420873,0.13915445,-0.23916028,-0.21563527,0.027336199,-0.21578798
120,1778621146.5797405,0.02420873,0.13915445,-0.23916028,-0.21563527,0.027336199,-0.21578798
121,1778621146.5897415,0.02420873,0.13915445,-0.23916028,-0.21563527,0.027336199,-0.21578798
122,1778621146.5997422,0.02420873,0.13915445,-0.23916028,-0.21563527,0.027336199,-0.21578798
123,1778621146.609743,0.02420873,0.13915445,-0.23916028,-0.21563527,0.027336199,-0.21578798
124,1778621146.6197443,-0.4428917,-0.31550622,0.43258622,-0.320704,1.3547454,0.24358234
125,1778621146.6297452,-0.4428917,-0.31550622,0.43258622,-0.320704,1.3547454,0.24358234
126,1778621146.639746,-0.5077735,-0.5316164,0.6033279,1.0653481,0.65164,0.1886045
127,1778621146.6497467,-0.5077735,-0.5316164,0.6033279,1.0653481,0.65164,0.1886045
128,1778621146.659747,-0.5077735,-0.5316164,0.6033279,1.0653481,0.65164,0.1886045
129,1778621146.6697493,-0.5077735,-0.5316164,0.6033279,1.0653481,0.65164,0.1886045
130,1778621146.6797614,-0.5077735,-0.5316164,0.6033279,1.0653481,0.65164,0.1886045
131,1778621146.6897626,-0.5077735,-0.5316164,0.6033279,1.0653481,0.65164,0.1886045
132,1778621146.6997643,-0.5077735,-0.5316164,0.6033279,1.0653481,0.65164,0.1886045
133,1778621146.7097652,-0.5077735,-0.5316164,0.6033279,1.0653481,0.65164,0.1886045
134,1778621146.7197657,-0.5077735,-0.5316164,0.6033279,1.0653481,0.65164,0.1886045
135,1778621146.7297666,-0.5077735,-0.5316164,0.6033279,1.0653481,0.65164,0.1886045
136,1778621146.7397668,-0.5077735,-0.5316164,0.6033279,1.0653481,0.65164,0.1886045
137,1778621146.7497675,-0.5077735,-0.5316164,0.6033279,1.0653481,0.65164,0.1886045
138,1778621146.7597685,-0.6197313,-1.1733612,0.8735875,1.0653481,0.65164,0.1886045
139,1778621146.7697687,-0.6197313,-1.1733612,0.8735875,1.0653481,0.65164,0.1886045
140,1778621146.7797697,-0.6197313,-1.1733612,0.8735875,1.0653481,0.65164,0.1886045
141,1778621146.7897794,-0.6197313,-1.1733612,0.8735875,1.0653481,0.65164,0.1886045
142,1778621146.7997825,-0.6197313,-1.1733612,0.8735875,1.0653481,0.65164,0.1886045
143,1778621146.8097832,-0.6197313,-1.1733612,0.8735875,1.0653481,0.65164,0.1886045
144,1778621146.8197834,-0.6197313,-1.1733612,0.8735875,1.0653481,0.65164,0.1886045
145,1778621146.8297842,-0.6197313,-1.1733612,0.8735875,1.9443825,0.6412553,0.47693267
146,1778621146.839785,-0.7390065,-1.8182768,1.0111566,1.9443825,0.6412553,0.47693267
147,1778621146.849786,-0.7390065,-1.8182768,1.0111566,1.9443825,0.6412553,0.47693267
148,1778621146.8597872,-0.7390065,-1.8182768,1.0111566,1.9443825,0.6412553,0.47693267
149,1778621146.8697898,-0.7390065,-1.8182768,1.0111566,1.9443825,0.6412553,0.47693267
150,1778621146.8798006,-0.7390065,-1.8182768,1.0111566,1.9443825,0.6412553,0.47693267
151,1778621146.890004,-0.7390065,-1.8182768,1.0111566,1.9443825,0.6412553,0.47693267
152,1778621146.900005,-0.7390065,-1.8182768,1.0111566,1.9443825,0.6412553,0.47693267
153,1778621146.910006,-0.7390065,-1.8182768,1.0111566,1.9443825,0.6412553,0.47693267
154,1778621146.9200068,-0.7390065,-1.8182768,1.0111566,1.9443825,0.6412553,0.47693267
155,1778621146.9300075,-0.7390065,-1.8182768,1.0111566,1.9443825,0.6412553,0.47693267
156,1778621146.9400082,-0.7390065,-1.8182768,1.0111566,1.9443825,0.6412553,0.47693267
157,1778621146.9500089,-0.7390065,-1.8182768,1.0111566,1.9443825,0.6412553,0.47693267
158,1778621146.9600098,-0.7390065,-1.8182768,1.0111566,1.9443825,0.6412553,0.47693267
159,1778621146.9700105,-0.7390065,-1.8182768,1.0111566,1.9443825,0.6412553,0.47693267
160,1778621146.9800112,-0.7390065,-1.8182768,1.0111566,2.7659957,1.3858994,1.2747221
161,1778621146.9900122,-0.7390065,-1.8182768,1.0111566,2.7659957,1.3858994,1.2747221
162,1778621147.0000138,-0.7390065,-1.8182768,1.0111566,2.7659957,1.3858994,1.2747221
163,1778621147.010018,-0.7390065,-1.8182768,1.0111566,2.7659957,1.3858994,1.2747221
164,1778621147.0200198,-0.7390065,-1.8182768,1.0111566,2.7659957,1.3858994,1.2747221
165,1778621147.0300207,-0.7390065,-1.8182768,1.0111566,2.7659957,1.3858994,1.2747221
166,1778621147.0400212,-0.7390065,-1.8182768,1.0111566,2.7659957,1.3858994,1.2747221
167,1778621147.0500221,-0.7390065,-1.8182768,1.0111566,2.7659957,1.3858994,1.2747221
168,1778621147.060023,-0.7390065,-1.8182768,1.0111566,2.7659957,1.3858994,1.2747221
169,1778621147.0700238,-0.7390065,-1.8182768,1.0111566,2.7659957,1.3858994,1.2747221
170,1778621147.0800247,-0.7390065,-1.8182768,1.0111566,2.7659957,1.3858994,1.2747221
171,1778621147.090026,-0.81340116,-2.7788205,1.1089672,2.7659957,1.3858994,1.2747221
172,1778621147.1000266,-0.81340116,-2.7788205,1.1089672,2.7659957,1.3858994,1.2747221
173,1778621147.110029,-0.81340116,-2.7788205,1.1089672,2.33106,3.7707155,1.478751
174,1778621147.120031,-0.15263085,-2.8702896,0.45307523,2.33106,3.7707155,1.478751
175,1778621147.130032,-0.15263085,-2.8702896,0.45307523,2.33106,3.7707155,1.478751
176,1778621147.1400423,-0.63192713,-1.7765671,0.6186946,1.6756021,-0.13271037,1.4701988
177,1778621147.1500435,-0.63192713,-1.7765671,0.6186946,1.6756021,-0.13271037,1.4701988
178,1778621147.1600444,-0.63192713,-1.7765671,0.6186946,1.6756021,-0.13271037,1.4701988
179,1778621147.1700456,-0.63192713,-1.7765671,0.6186946,1.6756021,-0.13271037,1.4701988
180,1778621147.1800463,-0.63192713,-1.7765671,0.6186946,1.6756021,-0.13271037,1.4701988
181,1778621147.190047,-0.63192713,-1.7765671,0.6186946,1.6756021,-0.13271037,1.4701988
182,1778621147.2000487,-0.63192713,-1.7765671,0.6186946,1.6756021,-0.13271037,1.4701988
183,1778621147.2100499,-0.63192713,-1.7765671,0.6186946,1.6756021,-0.13271037,1.4701988
184,1778621147.220051,-0.63192713,-1.7765671,0.6186946,2.1319182,1.0706933,1.9405646
185,1778621147.2303407,-0.63192713,-1.7765671,0.6186946,2.1319182,1.0706933,1.9405646
186,1778621147.240342,-0.63192713,-1.7765671,0.6186946,2.1319182,1.0706933,1.9405646
187,1778621147.2503428,-0.63192713,-1.7765671,0.6186946,2.1319182,1.0706933,1.9405646
188,1778621147.2603438,-0.63192713,-1.7765671,0.6186946,2.1319182,1.0706933,1.9405646
189,1778621147.2703443,-0.63192713,-1.7765671,0.6186946,2.1319182,1.0706933,1.9405646
190,1778621147.280346,-0.40776768,-2.1822007,0.3050178,2.1319182,1.0706933,1.9405646
191,1778621147.290347,-0.40776768,-2.1822007,0.3050178,2.1319182,1.0706933,1.9405646
192,1778621147.3003476,-0.40776768,-2.1822007,0.3050178,2.1319182,1.0706933,1.9405646
193,1778621147.3103487,-0.40776768,-2.1822007,0.3050178,2.1319182,1.0706933,1.9405646
194,1778621147.3203492,-0.40776768,-2.1822007,0.3050178,2.1319182,1.0706933,1.9405646
195,1778621147.33035,-0.40776768,-2.1822007,0.3050178,2.1319182,1.0706933,1.9405646
196,1778621147.3403509,-0.3284948,-0.71552956,-0.47453988,0.5192351,-0.9659299,0.27595815
197,1778621147.3503523,-0.3284948,-0.71552956,-0.47453988,0.5192351,-0.9659299,0.27595815
198,1778621147.3603532,-0.24044085,-0.60015696,-0.38331506,0.5192351,-0.9659299,0.27595815
199,1778621147.3703544,-0.24044085,-0.60015696,-0.38331506,0.5192351,-0.9659299,0.27595815
200,1778621147.380355,-0.24044085,-0.60015696,-0.38331506,0.5192351,-0.9659299,0.27595815
201,1778621147.390359,-0.24044085,-0.60015696,-0.38331506,0.5192351,-0.9659299,0.27595815
202,1778621147.40038,-0.103359684,-0.49356538,-0.3255068,0.5192351,-0.9659299,0.27595815
203,1778621147.4103835,-0.103359684,-0.49356538,-0.3255068,0.5192351,-0.9659299,0.27595815
204,1778621147.4203844,-0.103359684,-0.49356538,-0.3255068,0.5192351,-0.9659299,0.27595815
205,1778621147.430385,-0.103359684,-0.49356538,-0.3255068,0.5192351,-0.9659299,0.27595815
206,1778621147.4403856,-0.103359684,-0.49356538,-0.3255068,0.27305657,-0.79122263,0.34376416
207,1778621147.4503865,-0.103359684,-0.49356538,-0.3255068,0.27305657,-0.79122263,0.34376416
208,1778621147.4603872,-0.103359684,-0.49356538,-0.3255068,0.27305657,-0.79122263,0.34376416
209,1778621147.4703884,-0.103359684,-0.49356538,-0.3255068,0.27305657,-0.79122263,0.34376416
210,1778621147.4803896,-0.103359684,-0.49356538,-0.3255068,0.27305657,-0.79122263,0.34376416
211,1778621147.4903903,-0.103359684,-0.49356538,-0.3255068,0.27305657,-0.79122263,0.34376416
212,1778621147.5003912,-0.012378771,-0.44892865,-0.3035543,0.27305657,-0.79122263,0.34376416
213,1778621147.5103924,-0.012378771,-0.44892865,-0.3035543,0.27305657,-0.79122263,0.34376416
214,1778621147.5203927,-0.012378771,-0.44892865,-0.3035543,0.27305657,-0.79122263,0.34376416
215,1778621147.5303934,-0.012378771,-0.44892865,-0.3035543,0.27305657,-0.79122263,0.34376416
216,1778621147.5403945,-0.012378771,-0.44892865,-0.3035543,0.27305657,-0.79122263,0.34376416
217,1778621147.550396,-0.012378771,-0.44892865,-0.3035543,0.27305657,-0.79122263,0.34376416
218,1778621147.5603974,-0.012378771,-0.44892865,-0.3035543,0.27305657,-0.79122263,0.34376416
219,1778621147.5703986,-0.012378771,-0.44892865,-0.3035543,0.27305657,-0.79122263,0.34376416
220,1778621147.5803995,-0.012378771,-0.44892865,-0.3035543,0.27305657,-0.79122263,0.34376416
221,1778621147.5904047,-0.012378771,-0.44892865,-0.3035543,0.27305657,-0.79122263,0.34376416
222,1778621147.6004076,-0.012378771,-0.44892865,-0.3035543,0.27305657,-0.79122263,0.34376416
223,1778621147.6104093,-0.012378771,-0.44892865,-0.3035543,0.27305657,-0.79122263,0.34376416
224,1778621147.620411,-0.012378771,-0.44892865,-0.3035543,0.27305657,-0.79122263,0.34376416
225,1778621147.6304119,-0.012378771,-0.44892865,-0.3035543,0.27305657,-0.79122263,0.34376416
226,1778621147.640413,-0.012378771,-0.44892865,-0.3035543,-0.032986697,-0.44180796,0.34926194
227,1778621147.650414,-0.012378771,-0.44892865,-0.3035543,-0.032986697,-0.44180796,0.34926194
228,1778621147.6604147,-0.012378771,-0.44892865,-0.3035543,-0.032986697,-0.44180796,0.34926194
229,1778621147.6704154,-0.012378771,-0.44892865,-0.3035543,-0.032986697,-0.44180796,0.34926194
230,1778621147.6804163,-0.012378771,-0.44892865,-0.3035543,-0.032986697,-0.44180796,0.34926194
231,1778621147.6904178,0.14202048,-0.37868062,-0.2628202,-0.032986697,-0.44180796,0.34926194
232,1778621147.7004185,0.14202048,-0.37868062,-0.2628202,-0.032986697,-0.44180796,0.34926194
233,1778621147.7104216,0.14202048,-0.37868062,-0.2628202,-0.032986697,-0.44180796,0.34926194
234,1778621147.7204235,0.14202048,-0.37868062,-0.2628202,-0.032986697,-0.44180796,0.34926194
235,1778621147.7304242,0.14202048,-0.37868062,-0.2628202,-0.032986697,-0.44180796,0.34926194
236,1778621147.7404246,0.14202048,-0.37868062,-0.2628202,-0.032986697,-0.44180796,0.34926194
237,1778621147.7504256,0.14202048,-0.37868062,-0.2628202,-0.032986697,-0.44180796,0.34926194
238,1778621147.760426,0.14202048,-0.37868062,-0.2628202,-0.032986697,-0.44180796,0.34926194
239,1778621147.7704265,0.14202048,-0.37868062,-0.2628202,-0.032986697,-0.44180796,0.34926194
240,1778621147.7804277,0.14202048,-0.37868062,-0.2628202,-0.032986697,-0.44180796,0.34926194
241,1778621147.7904284,0.14202048,-0.37868062,-0.2628202,-0.032986697,-0.44180796,0.34926194
242,1778621147.8004293,0.14202048,-0.37868062,-0.2628202,-0.032986697,-0.44180796,0.34926194
243,1778621147.8104305,0.14202048,-0.37868062,-0.2628202,-0.15699224,-0.20418155,0.19410229
244,1778621147.8207443,0.14202048,-0.37868062,-0.2628202,-0.15699224,-0.20418155,0.19410229
245,1778621147.830745,0.14202048,-0.37868062,-0.2628202,-0.15699224,-0.20418155,0.19410229
246,1778621147.8407466,0.28910223,-0.2742843,-0.2189152,-0.15699224,-0.20418155,0.19410229
247,1778621147.8507478,0.28910223,-0.2742843,-0.2189152,-0.15699224,-0.20418155,0.19410229
248,1778621147.8607483,0.28910223,-0.2742843,-0.2189152,-0.15699224,-0.20418155,0.19410229
249,1778621147.8707495,0.28910223,-0.2742843,-0.2189152,-0.15699224,-0.20418155,0.19410229
250,1778621147.88075,0.28910223,-0.2742843,-0.2189152,-0.15699224,-0.20418155,0.19410229
251,1778621147.8907506,0.28910223,-0.2742843,-0.2189152,-0.15699224,-0.20418155,0.19410229
252,1778621147.9007518,0.31837222,-0.2128173,-0.20159712,-0.15699224,-0.20418155,0.19410229
253,1778621147.9107525,0.31837222,-0.2128173,-0.20159712,-0.15699224,-0.20418155,0.19410229
254,1778621147.9207532,0.31837222,-0.2128173,-0.20159712,-0.30543238,0.123852834,-0.0368046
255,1778621147.9307537,0.31837222,-0.2128173,-0.20159712,-0.30543238,0.123852834,-0.0368046
256,1778621147.9407542,0.31837222,-0.2128173,-0.20159712,-0.30543238,0.123852834,-0.0368046
257,1778621147.950755,0.31837222,-0.2128173,-0.20159712,-0.30543238,0.123852834,-0.0368046
258,1778621147.9607558,0.31837222,-0.2128173,-0.20159712,-0.30543238,0.123852834,-0.0368046
259,1778621147.9707563,0.31837222,-0.2128173,-0.20159712,-0.30543238,0.123852834,-0.0368046
260,1778621147.980757,0.114701815,-0.040612124,-0.17891288,-0.30237806,0.5209149,-0.62689996
261,1778621147.9907575,0.114701815,-0.040612124,-0.17891288,-0.30237806,0.5209149,-0.62689996
262,1778621148.000758,0.114701815,-0.040612124,-0.17891288,-0.30237806,0.5209149,-0.62689996
263,1778621148.0107586,0.12201932,-0.10842097,-0.19940189,-0.30237806,0.5209149,-0.62689996
264,1778621148.020759,0.12201932,-0.10842097,-0.19940189,-0.30237806,0.5209149,-0.62689996
265,1778621148.03076,0.12201932,-0.10842097,-0.19940189,-0.33536476,0.42500916,-0.5077813
266,1778621148.040761,0.12201932,-0.10842097,-0.19940189,-0.33536476,0.42500916,-0.5077813
267,1778621148.0507617,0.12201932,-0.10842097,-0.19940189,-0.33536476,0.42500916,-0.5077813
268,1778621148.0607634,0.12201932,-0.10842097,-0.19940189,-0.33536476,0.42500916,-0.5077813
269,1778621148.0707695,0.12201932,-0.10842097,-0.19940189,-0.33536476,0.42500916,-0.5077813
270,1778621148.0807927,0.12201932,-0.10842097,-0.19940189,-0.33536476,0.42500916,-0.5077813
271,1778621148.090794,0.12201932,-0.10842097,-0.19940189,-0.33536476,0.42500916,-0.5077813
272,1778621148.100795,0.12201932,-0.10842097,-0.19940189,-0.33536476,0.42500916,-0.5077813
273,1778621148.1107957,0.12201932,-0.10842097,-0.19940189,-0.33536476,0.42500916,-0.5077813
274,1778621148.120797,0.12201932,-0.10842097,-0.19940189,-0.33536476,0.42500916,-0.5077813
275,1778621148.1307976,0.12201932,-0.10842097,-0.19940189,-0.33536476,0.42500916,-0.5077813
276,1778621148.1407986,0.12201932,-0.10842097,-0.19940189,-0.33536476,0.42500916,-0.5077813
277,1778621148.1508,0.10177423,-0.0013415418,-0.17598589,-0.3488038,0.8000801,-0.7680097
278,1778621148.1608012,0.10177423,-0.0013415418,-0.17598589,-0.3488038,0.8000801,-0.7680097
279,1778621148.1708016,0.10177423,-0.0013415418,-0.17598589,-0.3488038,0.8000801,-0.7680097
280,1778621148.1808112,0.10177423,-0.0013415418,-0.17598589,-0.3488038,0.8000801,-0.7680097
281,1778621148.1908145,0.10177423,-0.0013415418,-0.17598589,-0.3488038,0.8000801,-0.7680097
282,1778621148.2008154,0.10177423,-0.0013415418,-0.17598589,-0.3488038,0.8000801,-0.7680097
283,1778621148.2109127,0.10177423,-0.0013415418,-0.17598589,-0.3488038,0.8000801,-0.7680097
284,1778621148.2209134,0.10177423,-0.0013415418,-0.17598589,-0.3488038,0.8000801,-0.7680097
285,1778621148.2309139,0.10177423,-0.0013415418,-0.17598589,-0.3488038,0.8000801,-0.7680097
286,1778621148.2409146,0.10177423,-0.0013415418,-0.17598589,-0.3488038,0.8000801,-0.7680097
287,1778621148.2509153,0.10177423,-0.0013415418,-0.17598589,-0.3488038,0.8000801,-0.7680097
288,1778621148.2609158,0.10177423,-0.0013415418,-0.17598589,-0.3488038,0.8000801,-0.7680097
289,1778621148.2709167,0.10177423,-0.0013415418,-0.17598589,-0.3488038,0.8000801,-0.7680097
290,1778621148.2809174,0.10177423,-0.0013415418,-0.17598589,-0.3488038,0.8000801,-0.7680097
291,1778621148.2909186,0.057625312,-0.0020732917,-0.18671821,-0.3488038,0.8000801,-0.7680097
292,1778621148.3009195,0.057625312,-0.0020732917,-0.18671821,-0.3488038,0.8000801,-0.7680097
293,1778621148.3109202,0.057625312,-0.0020732917,-0.18671821,-0.55894125,1.0065525,-0.8535308
294,1778621148.3209212,0.057625312,-0.0020732917,-0.18671821,-0.55894125,1.0065525,-0.8535308
295,1778621148.330922,0.057625312,-0.0020732917,-0.18671821,-0.55894125,1.0065525,-0.8535308
296,1778621148.3409228,0.057625312,-0.0020732917,-0.18671821,-0.55894125,1.0065525,-0.8535308
297,1778621148.3509247,0.057625312,-0.0020732917,-0.18671821,-0.55894125,1.0065525,-0.8535308
298,1778621148.3609254,0.057625312,-0.0020732917,-0.18671821,-0.55894125,1.0065525,-0.8535308
299,1778621148.3709264,0.057625312,-0.0020732917,-0.18671821,-0.42027497,0.9485203,-0.8327614
300,1778621148.3809273,0.057625312,-0.0020732917,-0.18671821,-0.42027497,0.9485203,-0.8327614
301,1778621148.390928,0.057625312,-0.0020732917,-0.18671821,-0.42027497,0.9485203,-0.8327614
302,1778621148.4009292,0.057625312,-0.0020732917,-0.18671821,-0.42027497,0.9485203,-0.8327614
303,1778621148.41093,0.057625312,-0.0020732917,-0.18671821,-0.42027497,0.9485203,-0.8327614
304,1778621148.420931,0.057625312,-0.0020732917,-0.18671821,-0.42027497,0.9485203,-0.8327614
305,1778621148.4309328,0.057625312,-0.0020732917,-0.18671821,-0.42027497,0.9485203,-0.8327614
306,1778621148.4409335,0.057625312,-0.0020732917,-0.18671821,-0.42027497,0.9485203,-0.8327614
307,1778621148.450934,0.057625312,-0.0020732917,-0.18671821,-0.42027497,0.9485203,-0.8327614
308,1778621148.4609346,0.057625312,-0.0020732917,-0.18671821,-0.42027497,0.9485203,-0.8327614
309,1778621148.4709373,0.057625312,-0.0020732917,-0.18671821,-0.42027497,0.9485203,-0.8327614
310,1778621148.480947,0.057625312,-0.0020732917,-0.18671821,-0.42027497,0.9485203,-0.8327614
311,1778621148.4909482,0.057625312,-0.0020732917,-0.18671821,-0.42027497,0.9485203,-0.8327614
312,1778621148.5009499,0.057625312,-0.0020732917,-0.18671821,-0.42027497,0.9485203,-0.8327614
313,1778621148.510952,-0.09384694,-0.15793604,-0.24598998,-0.42027497,0.9485203,-0.8327614
314,1778621148.5209525,-0.09384694,-0.15793604,-0.24598998,-0.42027497,0.9485203,-0.8327614
315,1778621148.5309536,-0.09384694,-0.15793604,-0.24598998,-0.42027497,0.9485203,-0.8327614
316,1778621148.540954,-0.43654984,-2.1743953,-0.21915914,-2.723846,-0.3092503,0.012064579
317,1778621148.5509548,-0.43654984,-2.1743953,-0.21915914,-2.723846,-0.3092503,0.012064579
318,1778621148.560956,-0.43654984,-2.1743953,-0.21915914,-2.723846,-0.3092503,0.012064579
319,1778621148.5709567,-0.43654984,-2.1743953,-0.21915914,-2.723846,-0.3092503,0.012064579
320,1778621148.5809572,-0.43654984,-2.1743953,-0.21915914,-2.723846,-0.3092503,0.012064579
321,1778621148.5909576,-0.43654984,-2.1743953,-0.21915914,-2.723846,-0.3092503,0.012064579
322,1778621148.6009583,-0.43654984,-2.1743953,-0.21915914,-2.723846,-0.3092503,0.012064579
323,1778621148.6109598,-0.43654984,-2.1743953,-0.21915914,-2.723846,-0.3092503,0.012064579
324,1778621148.620961,-0.43654984,-2.1743953,-0.21915914,-2.723846,-0.3092503,0.012064579
325,1778621148.6309612,-0.43654984,-2.1743953,-0.21915914,-2.723846,-0.3092503,0.012064579
326,1778621148.6409624,-0.43654984,-2.1743953,-0.21915914,-2.723846,-0.3092503,0.012064579
327,1778621148.6509635,-0.43654984,-2.1743953,-0.21915914,-2.723846,-0.3092503,0.012064579
328,1778621148.6609643,-0.43654984,-2.1743953,-0.21915914,-2.723846,-0.3092503,0.012064579
329,1778621148.670965,-0.3055666,-2.1270752,-0.20989029,-2.723846,-0.3092503,0.012064579
330,1778621148.6809745,-0.3055666,-2.1270752,-0.20989029,-2.723846,-0.3092503,0.012064579
331,1778621148.6909783,-0.3055666,-2.1270752,-0.20989029,-2.723846,-0.3092503,0.012064579
332,1778621148.7009795,-0.3055666,-2.1270752,-0.20989029,-2.723846,-0.3092503,0.012064579
333,1778621148.7109878,-0.3055666,-2.1270752,-0.20989029,-2.525315,-0.5346594,0.06826414
334,1778621148.7209914,-0.3055666,-2.1270752,-0.20989029,-2.525315,-0.5346594,0.06826414
335,1778621148.7309935,-0.3055666,-2.1270752,-0.20989029,-2.525315,-0.5346594,0.06826414
336,1778621148.7409937,-0.3055666,-2.1270752,-0.20989029,-2.525315,-0.5346594,0.06826414
337,1778621148.7509947,-0.3055666,-2.1270752,-0.20989029,-2.525315,-0.5346594,0.06826414
338,1778621148.760996,-0.3055666,-2.1270752,-0.20989029,-2.1581852,-0.65866494,-0.048411034
339,1778621148.7709968,-0.3055666,-2.1270752,-0.20989029,-2.1581852,-0.65866494,-0.048411034
340,1778621148.7809975,-0.3055666,-2.1270752,-0.20989029,-2.1581852,-0.65866494,-0.048411034
341,1778621148.790999,-0.12726352,-2.0765846,-0.2584297,-2.1581852,-0.65866494,-0.048411034
342,1778621148.8009999,-0.12726352,-2.0765846,-0.2584297,-2.1581852,-0.65866494,-0.048411034
343,1778621148.811001,-0.12726352,-2.0765846,-0.2584297,-2.1581852,-0.65866494,-0.048411034
344,1778621148.8210106,-0.12726352,-2.0765846,-0.2584297,-2.1581852,-0.65866494,-0.048411034
345,1778621148.831014,-0.12726352,-2.0765846,-0.2584297,-2.1581852,-0.65866494,-0.048411034
346,1778621148.8410144,-0.12726352,-2.0765846,-0.2584297,-2.1581852,-0.65866494,-0.048411034
347,1778621148.8510149,-0.12726352,-2.0765846,-0.2584297,-2.1581852,-0.65866494,-0.048411034
348,1778621148.8610156,0.020306062,-2.0207276,-0.26306412,-2.1581852,-0.65866494,-0.048411034
349,1778621148.871016,0.020306062,-2.0207276,-0.26306412,-2.1581852,-0.65866494,-0.048411034
350,1778621148.8810163,0.020306062,-2.0207276,-0.26306412,-2.1581852,-0.65866494,-0.048411034
351,1778621148.891017,-0.24873403,-0.3501424,0.100127794,-0.39095345,-2.416123,-0.46990773
352,1778621148.9010181,-0.24336785,-0.052807957,0.17135146,0.086742796,-2.2340853,-0.44364056
353,1778621148.9110277,-0.24336785,-0.052807957,0.17135146,0.086742796,-2.2340853,-0.44364056
354,1778621148.921034,-0.24336785,-0.052807957,0.17135146,0.086742796,-2.2340853,-0.44364056
355,1778621148.931036,-0.23190376,0.13769096,0.1967188,0.086742796,-2.2340853,-0.44364056
356,1778621148.9410374,-0.23190376,0.13769096,0.1967188,0.086742796,-2.2340853,-0.44364056
357,1778621148.9510381,-0.23190376,0.13769096,0.1967188,0.086742796,-2.2340853,-0.44364056
358,1778621148.9610388,-0.23190376,0.13769096,0.1967188,0.5540544,-1.7539455,-0.4045452
359,1778621148.9710395,-0.23190376,0.13769096,0.1967188,0.5540544,-1.7539455,-0.4045452
360,1778621148.9810405,-0.23190376,0.13769096,0.1967188,0.5540544,-1.7539455,-0.4045452
361,1778621148.9910412,-0.23190376,0.13769096,0.1967188,0.5540544,-1.7539455,-0.4045452
362,1778621149.0010421,-0.23190376,0.13769096,0.1967188,0.5540544,-1.7539455,-0.4045452
363,1778621149.0110433,-0.23190376,0.13769096,0.1967188,0.5540544,-1.7539455,-0.4045452
364,1778621149.0210438,-0.23190376,0.13769096,0.1967188,0.5540544,-1.7539455,-0.4045452
365,1778621149.031045,-0.20434119,0.32989728,0.16671704,0.5540544,-1.7539455,-0.4045452
366,1778621149.0410457,-0.20434119,0.32989728,0.16671704,0.5540544,-1.7539455,-0.4045452
367,1778621149.051046,-0.20434119,0.32989728,0.16671704,0.5540544,-1.7539455,-0.4045452
368,1778621149.0610473,-0.20434119,0.32989728,0.16671704,0.5540544,-1.7539455,-0.4045452
369,1778621149.0710487,-0.20434119,0.32989728,0.16671704,0.5540544,-1.7539455,-0.4045452
370,1778621149.0810497,-0.20434119,0.32989728,0.16671704,0.5540544,-1.7539455,-0.4045452
371,1778621149.0910504,-0.20434119,0.32989728,0.16671704,1.0128138,-1.1406373,-0.33001968
372,1778621149.1010513,-0.20434119,0.32989728,0.16671704,1.0128138,-1.1406373,-0.33001968
373,1778621149.1110518,-0.20434119,0.32989728,0.16671704,1.0128138,-1.1406373,-0.33001968
374,1778621149.1210527,-0.20434119,0.32989728,0.16671704,1.0128138,-1.1406373,-0.33001968
375,1778621149.131053,-0.20434119,0.32989728,0.16671704,1.0128138,-1.1406373,-0.33001968
376,1778621149.141054,-0.20434119,0.32989728,0.16671704,1.0128138,-1.1406373,-0.33001968
377,1778621149.1510546,-0.20434119,0.32989728,0.16671704,1.0128138,-1.1406373,-0.33001968
378,1778621149.161055,-0.20434119,0.32989728,0.16671704,1.0128138,-1.1406373,-0.33001968
379,1778621149.1710556,-0.20434119,0.32989728,0.16671704,1.4282019,-0.5083922,-0.24633121
380,1778621149.1810565,-0.20434119,0.32989728,0.16671704,1.4282019,-0.5083922,-0.24633121
381,1778621149.191057,-0.20434119,0.32989728,0.16671704,1.4282019,-0.5083922,-0.24633121
382,1778621149.201058,-0.15433827,0.4311227,0.1454963,1.4282019,-0.5083922,-0.24633121
383,1778621149.2110586,-0.15433827,0.4311227,0.1454963,1.4282019,-0.5083922,-0.24633121
384,1778621149.221059,-0.15433827,0.4311227,0.1454963,1.4282019,-0.5083922,-0.24633121
385,1778621149.2310603,-0.15433827,0.4311227,0.1454963,1.4282019,-0.5083922,-0.24633121
386,1778621149.2410612,-0.15433827,0.4311227,0.1454963,1.4282019,-0.5083922,-0.24633121
387,1778621149.2510622,-0.15433827,0.4311227,0.1454963,1.4282019,-0.5083922,-0.24633121
388,1778621149.2610633,-0.15433827,0.4311227,0.1454963,1.4282019,-0.5083922,-0.24633121
389,1778621149.2710638,-0.15433827,0.4311227,0.1454963,1.4282019,-0.5083922,-0.24633121
390,1778621149.2810643,-0.15433827,0.4311227,0.1454963,1.4282019,-0.5083922,-0.24633121
391,1778621149.291065,-0.15433827,0.4311227,0.1454963,1.7037019,-0.10033454,-0.19746204
392,1778621149.3010662,-0.15433827,0.4311227,0.1454963,1.7037019,-0.10033454,-0.19746204
393,1778621149.311067,-0.15433827,0.4311227,0.1454963,1.7037019,-0.10033454,-0.19746204
394,1778621149.3210678,-0.15433827,0.4311227,0.1454963,1.7037019,-0.10033454,-0.19746204
395,1778621149.3310685,-0.15433827,0.4311227,0.1454963,1.7037019,-0.10033454,-0.19746204
396,1778621149.341069,-0.15433827,0.4311227,0.1454963,1.7037019,-0.10033454,-0.19746204
397,1778621149.3511496,-0.15433827,0.4311227,0.1454963,1.7037019,-0.10033454,-0.19746204
398,1778621149.3611503,-0.15433827,0.4311227,0.1454963,1.7037019,-0.10033454,-0.19746204
399,1778621149.3714378,0.057625312,0.50429773,0.18110813,2.1361942,0.2283107,-0.16997312
400,1778621149.3814383,0.057625312,0.50429773,0.18110813,2.1361942,0.2283107,-0.16997312
401,1778621149.3914473,0.057625312,0.50429773,0.18110813,2.1361942,0.2283107,-0.16997312
402,1778621149.4014633,0.057625312,0.50429773,0.18110813,2.1361942,0.2283107,-0.16997312
403,1778621149.411464,0.057625312,0.50429773,0.18110813,2.1361942,0.2283107,-0.16997312
404,1778621149.4214652,0.057625312,0.50429773,0.18110813,2.1361942,0.2283107,-0.16997312
405,1778621149.4314666,0.12982465,0.5069808,0.2684303,2.335336,0.17516547,-0.16630794
406,1778621149.4414685,0.12982465,0.5069808,0.2684303,2.335336,0.17516547,-0.16630794
407,1778621149.4514697,0.14324006,0.4877114,0.33965397,2.335336,0.17516547,-0.16630794
408,1778621149.461471,0.14324006,0.4877114,0.33965397,2.335336,0.17516547,-0.16630794
409,1778621149.4714718,0.14324006,0.4877114,0.33965397,2.335336,0.17516547,-0.16630794
410,1778621149.4814727,0.14324006,0.4877114,0.33965397,2.412305,0.34193155,-0.15714496
411,1778621149.491482,0.14324006,0.4877114,0.33965397,2.412305,0.34193155,-0.15714496
412,1778621149.501529,0.14324006,0.4877114,0.33965397,2.412305,0.34193155,-0.15714496
413,1778621149.5115304,0.14324006,0.4877114,0.33965397,2.412305,0.34193155,-0.15714496
414,1778621149.521531,0.14324006,0.4877114,0.33965397,2.412305,0.34193155,-0.15714496
415,1778621149.5315323,0.14324006,0.4877114,0.33965397,2.412305,0.34193155,-0.15714496
416,1778621149.5415337,0.14324006,0.4877114,0.33965397,2.412305,0.34193155,-0.15714496
417,1778621149.5515342,0.14324006,0.4877114,0.33965397,2.412305,0.34193155,-0.15714496
418,1778621149.561535,0.14324006,0.4877114,0.33965397,2.412305,0.34193155,-0.15714496
419,1778621149.5715358,0.14324006,0.4877114,0.33965397,2.412305,0.34193155,-0.15714496
420,1778621149.5815368,0.14324006,0.4877114,0.33965397,2.412305,0.34193155,-0.15714496
421,1778621149.5915384,0.14324006,0.4877114,0.33965397,2.3322818,0.88987726,-0.13271037
422,1778621149.6015396,0.14324006,0.4877114,0.33965397,2.3322818,0.88987726,-0.13271037
423,1778621149.6115408,0.14324006,0.4877114,0.33965397,2.3322818,0.88987726,-0.13271037
424,1778621149.621543,0.121775396,0.42722008,0.23306239,2.3322818,0.88987726,-0.13271037
425,1778621149.6315444,0.121775396,0.42722008,0.23306239,2.3322818,0.88987726,-0.13271037
426,1778621149.6415453,0.121775396,0.42722008,0.23306239,2.3322818,0.88987726,-0.13271037
427,1778621149.6515465,0.121775396,0.42722008,0.23306239,2.3322818,0.88987726,-0.13271037
428,1778621149.6616054,0.121775396,0.42722008,0.23306239,2.3322818,0.88987726,-0.13271037
429,1778621149.6716063,0.121775396,0.42722008,0.23306239,2.3322818,0.88987726,-0.13271037
430,1778621149.6816077,0.12397064,0.3867299,0.09354204,2.3322818,0.88987726,-0.13271037
431,1778621149.6916087,0.12397064,0.3867299,0.09354204,2.3322818,0.88987726,-0.13271037
432,1778621149.7016096,0.12397064,0.3867299,0.09354204,2.109927,1.5044073,-0.14126249
433,1778621149.7116115,0.12397064,0.3867299,0.09354204,2.109927,1.5044073,-0.14126249
434,1778621149.7216125,0.12397064,0.3867299,0.09354204,2.109927,1.5044073,-0.14126249
435,1778621149.731614,0.12397064,0.3867299,0.09354204,2.109927,1.5044073,-0.14126249
436,1778621149.741615,0.12397064,0.3867299,0.09354204,2.109927,1.5044073,-0.14126249
437,1778621149.7516158,0.12397064,0.3867299,0.09354204,2.109927,1.5044073,-0.14126249
438,1778621149.7616167,0.12397064,0.3867299,0.09354204,2.109927,1.5044073,-0.14126249
439,1778621149.7716177,0.12397064,0.3867299,0.09354204,2.109927,1.5044073,-0.14126249
440,1778621149.7816186,0.12397064,0.3867299,0.09354204,2.109927,1.5044073,-0.14126249
441,1778621149.7916195,0.081773065,-0.005488125,-0.5728383,2.109927,1.5044073,-0.14126249
442,1778621149.80162,0.081773065,-0.005488125,-0.5728383,2.109927,1.5044073,-0.14126249
443,1778621149.8116207,0.081773065,-0.005488125,-0.5728383,2.109927,1.5044073,-0.14126249
444,1778621149.8216221,0.081773065,-0.005488125,-0.5728383,2.109927,1.5044073,-0.14126249
445,1778621149.8316224,0.081773065,-0.005488125,-0.5728383,2.109927,1.5044073,-0.14126249
446,1778621149.8416238,0.081773065,-0.005488125,-0.5728383,1.3891065,2.4622433,-0.2866483
447,1778621149.8516247,0.081773065,-0.005488125,-0.5728383,1.3891065,2.4622433,-0.2866483
448,1778621149.8616257,0.081773065,-0.005488125,-0.5728383,1.3891065,2.4622433,-0.2866483
449,1778621149.871626,0.081773065,-0.005488125,-0.5728383,0.5009091,2.8867943,-0.35567603
450,1778621149.8816266,0.081773065,-0.005488125,-0.5728383,0.5009091,2.8867943,-0.35567603
451,1778621149.8916278,-0.27629662,-0.86456263,-1.6607066,-0.9816597,2.6925392,-0.28359398
452,1778621149.9016287,-0.2994687,-1.173849,-2.019752,-0.9816597,2.6925392,-0.28359398
453,1778621149.9116292,-0.2994687,-1.173849,-2.019752,-0.9816597,2.6925392,-0.28359398
454,1778621149.9216309,-0.2994687,-1.173849,-2.019752,-0.9816597,2.6925392,-0.28359398
455,1778621149.9316328,-0.2994687,-1.173849,-2.019752,-2.277304,2.2899795,-0.20479241
456,1778621149.9416335,-0.2994687,-1.173849,-2.019752,-2.277304,2.2899795,-0.20479241
457,1778621149.951637,-0.2994687,-1.173849,-2.019752,-3.0433283,2.0150902,-0.21578798
458,1778621149.9616394,-0.2994687,-1.173849,-2.019752,-3.0433283,2.0150902,-0.21578798
459,1778621149.9716399,-0.2994687,-1.173849,-2.019752,-3.0433283,2.0150902,-0.21578798
460,1778621149.9816408,-0.2804432,-1.1462865,1.2667812,-0.23701553,-0.25854853,-0.68126696
461,1778621149.9916418,-0.2804432,-1.1462865,1.2667812,-0.23701553,-0.25854853,-0.68126696
462,1778621150.0016425,-0.2804432,-1.1462865,1.2667812,-0.23701553,-0.25854853,-0.68126696
463,1778621150.0116434,-0.33459267,-1.4443525,0.85383034,0.96516633,3.0718863,0.506865
464,1778621150.0216439,-0.33459267,-1.4443525,0.85383034,0.96516633,3.0718863,0.506865
465,1778621150.0316448,-0.33459267,-1.4443525,0.85383034,0.96516633,3.0718863,0.506865
466,1778621150.041646,-0.33459267,-1.4443525,0.85383034,0.96516633,3.0718863,0.506865
467,1778621150.0516467,-0.33459267,-1.4443525,0.85383034,0.96516633,3.0718863,0.506865
468,1778621150.0616474,-0.30117613,-1.5680183,-0.7887046,0.97249675,3.0358453,0.30100363
469,1778621150.071649,-0.46557596,-1.4853306,-0.49429715,1.4929535,-0.24877468,0.4488329
470,1778621150.0816503,-0.46557596,-1.4853306,-0.49429715,1.4929535,-0.24877468,0.4488329
471,1778621150.0918963,-0.46557596,-1.4853306,-0.49429715,1.4929535,-0.24877468,0.4488329
472,1778621150.1019247,-0.46557596,-1.4853306,-0.49429715,1.4929535,-0.24877468,0.4488329
473,1778621150.111926,-0.46557596,-1.4853306,-0.49429715,1.4929535,-0.24877468,0.4488329
474,1778621150.121927,-0.46557596,-1.4853306,-0.49429715,1.4929535,-0.24877468,0.4488329
475,1778621150.1319275,-0.5855829,-1.4655733,0.1367153,1.4929535,-0.24877468,0.4488329
476,1778621150.1419282,-0.5855829,-1.4655733,0.1367153,1.4929535,-0.24877468,0.4488329
477,1778621150.1519287,-0.5855829,-1.4655733,0.1367153,1.4929535,-0.24877468,0.4488329
478,1778621150.1619294,-0.5855829,-1.4655733,0.1367153,1.4929535,-0.24877468,0.4488329
479,1778621150.17193,-0.5855829,-1.4655733,0.1367153,1.4929535,-0.24877468,0.4488329
480,1778621150.182201,-0.5855829,-1.4655733,0.1367153,2.1575744,-0.22006404,0.606436
481,1778621150.1922016,-0.5855829,-1.4655733,0.1367153,2.1575744,-0.22006404,0.606436
482,1778621150.2022028,-0.5855829,-1.4655733,0.1367153,2.1575744,-0.22006404,0.606436
483,1778621150.212204,-0.5855829,-1.4655733,0.1367153,2.1575744,-0.22006404,0.606436
484,1778621150.2222047,-0.5855829,-1.4655733,0.1367153,2.1575744,-0.22006404,0.606436
485,1778621150.2322054,-0.5855829,-1.4655733,0.1367153,2.1575744,-0.22006404,0.606436
486,1778621150.2422068,-0.5855829,-1.4655733,0.1367153,2.1575744,-0.22006404,0.606436
487,1778621150.2522082,-0.5855829,-1.4655733,0.1367153,2.1575744,-0.22006404,0.606436
488,1778621150.2622087,-0.5855829,-1.4655733,0.1367153,2.1575744,-0.22006404,0.606436
489,1778621150.2722178,-0.5855829,-1.4655733,0.1367153,2.1575744,-0.22006404,0.606436
490,1778621150.2822208,-0.5855829,-1.4655733,0.1367153,2.1575744,-0.22006404,0.606436
491,1778621150.2922223,-0.5855829,-1.4655733,0.1367153,2.1575744,-0.22006404,0.606436
492,1778621150.3022225,-0.5855829,-1.4655733,0.1367153,2.1575744,-0.22006404,0.606436
493,1778621150.312224,-0.57997286,-1.519235,0.61991423,2.1575744,-0.22006404,0.606436
494,1778621150.3222253,-0.57997286,-1.519235,0.61991423,2.1575744,-0.22006404,0.606436
495,1778621150.3322258,-0.57997286,-1.519235,0.61991423,2.1575744,-0.22006404,0.606436
496,1778621150.3422265,-0.57997286,-1.519235,0.61991423,2.1575744,-0.22006404,0.606436
497,1778621150.3522282,-0.57997286,-1.519235,0.61991423,2.1575744,-0.22006404,0.606436
498,1778621150.3622296,-0.57997286,-1.519235,0.61991423,2.1575744,-0.22006404,0.606436
499,1778621150.3722303,-0.57997286,-1.519235,0.61991423,2.1575744,-0.22006404,0.606436
500,1778621150.3822308,-0.57997286,-1.519235,0.61991423,2.1575744,-0.22006404,0.606436
501,1778621150.3922315,-0.57997286,-1.519235,0.61991423,2.1575744,-0.22006404,0.606436
502,1778621150.4022322,-0.57997286,-1.519235,0.61991423,2.1575744,-0.22006404,0.606436
503,1778621150.4122329,-0.57997286,-1.519235,0.61991423,2.1575744,-0.22006404,0.606436
504,1778621150.4222338,-0.57997286,-1.519235,0.61991423,2.5851798,0.91980964,0.68035066
505,1778621150.4322345,-0.57997286,-1.519235,0.61991423,2.5851798,0.91980964,0.68035066
506,1778621150.4422352,-0.57997286,-1.519235,0.61991423,2.5851798,0.91980964,0.68035066
507,1778621150.4522357,-0.5594838,-1.6404614,0.7750452,2.5851798,0.91980964,0.68035066
508,1778621150.4622364,-0.5594838,-1.6404614,0.7750452,2.5851798,0.91980964,0.68035066
509,1778621150.4722369,-0.5594838,-1.6404614,0.7750452,2.5851798,0.91980964,0.68035066
510,1778621150.4822376,-0.3477642,-2.1102452,0.31721362,2.6664248,1.3235912,0.6357575
511,1778621150.4922426,-0.3477642,-2.1102452,0.31721362,2.6664248,1.3235912,0.6357575
512,1778621150.5022447,-0.3477642,-2.1102452,0.31721362,2.6664248,1.3235912,0.6357575
513,1778621150.5122454,-0.3477642,-2.1102452,0.31721362,2.4685047,0.67729634,0.4659371
514,1778621150.522246,-0.3477642,-2.1102452,0.31721362,2.4685047,0.67729634,0.4659371
515,1778621150.5322466,-0.3477642,-2.1102452,0.31721362,2.4685047,0.67729634,0.4659371
516,1778621150.5422475,0.09933506,-1.9636511,-0.047929626,2.1496332,-0.40332347,0.3572032
517,1778621150.5522482,0.09933506,-1.9636511,-0.047929626,2.1496332,-0.40332347,0.3572032
518,1778621150.5622494,0.09933506,-1.9636511,-0.047929626,2.1496332,-0.40332347,0.3572032
519,1778621150.5722506,0.09933506,-1.9636511,-0.047929626,2.1496332,-0.40332347,0.3572032
520,1778621150.582251,0.09933506,-1.9636511,-0.047929626,2.1496332,-0.40332347,0.3572032
521,1778621150.5922542,0.09933506,-1.9636511,-0.047929626,2.1496332,-0.40332347,0.3572032
522,1778621150.6022713,0.09933506,-1.9636511,-0.047929626,2.1496332,-0.40332347,0.3572032
523,1778621150.6122725,0.09933506,-1.9636511,-0.047929626,2.1496332,-0.40332347,0.3572032
524,1778621150.6222734,0.09933506,-1.9636511,-0.047929626,2.1496332,-0.40332347,0.3572032
525,1778621150.6322749,0.09933506,-1.9636511,-0.047929626,2.1496332,-0.40332347,0.3572032
526,1778621150.6422753,0.09933506,-1.9636511,-0.047929626,2.1496332,-0.40332347,0.3572032
527,1778621150.6522765,0.09933506,-1.9636511,-0.047929626,2.1496332,-0.40332347,0.3572032
528,1778621150.6622772,0.09933506,-1.9636511,-0.047929626,2.1496332,-0.40332347,0.3572032
529,1778621150.6722786,0.09933506,-1.9636511,-0.047929626,2.1496332,-0.40332347,0.3572032
530,1778621150.6822798,0.25568563,-1.8792561,-0.33014122,1.9749259,-0.09789108,0.30100363
531,1778621150.6922803,0.25568563,-1.8792561,-0.33014122,1.9749259,-0.09789108,0.30100363
532,1778621150.7022808,0.25568563,-1.8792561,-0.33014122,1.9749259,-0.09789108,0.30100363
533,1778621150.712282,0.104701236,-0.10598179,-0.24281906,-0.23518294,0.9912808,-0.07467822
534,1778621150.7222826,0.104701236,-0.10598179,-0.24281906,-0.23518294,0.9912808,-0.07467822
535,1778621150.7322834,0.104701236,-0.10598179,-0.24281906,-0.23518294,0.9912808,-0.07467822
536,1778621150.742294,0.104701236,-0.10598179,-0.24281906,-0.23518294,0.9912808,-0.07467822
537,1778621150.752297,0.104701236,-0.10598179,-0.24281906,-0.23518294,0.9912808,-0.07467822
538,1778621150.7622986,0.104701236,-0.10598179,-0.24281906,-0.23518294,0.9912808,-0.07467822
539,1778621150.7728364,0.104701236,-0.10598179,-0.24281906,-0.48624837,1.7518075,-0.30558512
540,1778621150.7828372,0.104701236,-0.10598179,-0.24281906,-0.48624837,1.7518075,-0.30558512
541,1778621150.7928379,0.104701236,-0.10598179,-0.24281906,-0.48624837,1.7518075,-0.30558512
542,1778621150.8028386,0.104701236,-0.10598179,-0.24281906,-0.48624837,1.7518075,-0.30558512
543,1778621150.81284,0.104701236,-0.10598179,-0.24281906,-0.48624837,1.7518075,-0.30558512
544,1778621150.8228416,0.104701236,-0.10598179,-0.24281906,-0.48624837,1.7518075,-0.30558512
545,1778621150.8328426,0.104701236,-0.10598179,-0.24281906,-0.48624837,1.7518075,-0.30558512
546,1778621150.842843,0.104701236,-0.10598179,-0.24281906,-0.48624837,1.7518075,-0.30558512
547,1778621150.852844,0.10640865,-0.1791568,-0.31355488,-0.48624837,1.7518075,-0.30558512
548,1778621150.8628566,0.10640865,-0.1791568,-0.31355488,-0.48624837,1.7518075,-0.30558512
549,1778621150.8728578,0.10640865,-0.1791568,-0.31355488,-0.48624837,1.7518075,-0.30558512
550,1778621150.882859,-0.17043677,-0.1308613,-0.30574957,-1.3603959,1.3406955,-0.41187558
551,1778621150.8928597,-0.17043677,-0.1308613,-0.30574957,-1.3603959,1.3406955,-0.41187558
552,1778621150.9028604,-0.17043677,-0.1308613,-0.30574957,-1.3603959,1.3406955,-0.41187558
553,1778621150.9128613,-0.17043677,-0.1308613,-0.30574957,-1.3603959,1.3406955,-0.41187558
554,1778621150.9228625,-0.17043677,-0.1308613,-0.30574957,-1.3603959,1.3406955,-0.41187558
555,1778621150.932863,-0.17043677,-0.1308613,-0.30574957,-1.3603959,1.3406955,-0.41187558
556,1778621150.9428637,-0.17043677,-0.1308613,-0.30574957,-1.3603959,1.3406955,-0.41187558
557,1778621150.9528644,-0.35166687,-0.91627294,-0.11183579,-2.4110832,0.5862775,-0.30436337
558,1778621150.962866,-0.35166687,-0.91627294,-0.11183579,-2.5729625,0.27107126,-0.26160285
559,1778621150.9728668,-0.35166687,-0.91627294,-0.11183579,-2.5729625,0.27107126,-0.26160285
560,1778621150.9828677,-0.37191194,-1.1570188,-0.13330047,-2.5729625,0.27107126,-0.26160285
561,1778621150.9928687,-0.37191194,-1.1570188,-0.13330047,-2.5729625,0.27107126,-0.26160285
562,1778621151.0028696,-0.37191194,-1.1570188,-0.13330047,-2.5729625,0.27107126,-0.26160285
563,1778621151.01287,-0.37191194,-1.1570188,-0.13330047,-2.5729625,0.27107126,-0.26160285
564,1778621151.0228708,-0.37191194,-1.1570188,-0.13330047,-2.5729625,0.27107126,-0.26160285
565,1778621151.0328712,-0.37191194,-1.1570188,-0.13330047,-2.5729625,0.27107126,-0.26160285
566,1778621151.042872,-0.37191194,-1.1570188,-0.13330047,-2.5729625,0.27107126,-0.26160285
567,1778621151.052873,-0.37191194,-1.1570188,-0.13330047,-2.5729625,0.27107126,-0.26160285
568,1778621151.0628736,-0.37191194,-1.1570188,-0.13330047,-2.5729625,0.27107126,-0.26160285
569,1778621151.0728743,-0.37191194,-1.1570188,-0.13330047,-2.5729625,0.27107126,-0.26160285
570,1778621151.0828753,-0.37191194,-1.1570188,-0.13330047,-2.5729625,0.27107126,-0.26160285
571,1778621151.0928762,-0.38410777,-1.3762999,-0.119641125,-2.5729625,0.27107126,-0.26160285
572,1778621151.1028767,-0.38410777,-1.3762999,-0.119641125,-2.5729625,0.27107126,-0.26160285
573,1778621151.1128774,-0.38410777,-1.3762999,-0.119641125,-2.5729625,0.27107126,-0.26160285
574,1778621151.1228786,-0.38410777,-1.3762999,-0.119641125,-2.5729625,0.27107126,-0.26160285
575,1778621151.1328793,-0.38410777,-1.3762999,-0.119641125,-2.5729625,0.27107126,-0.26160285
576,1778621151.142881,-0.38410777,-1.3762999,-0.119641125,-2.5729625,0.27107126,-0.26160285
577,1778621151.1528816,-0.4021576,-1.7729083,-0.053051874,-2.6645923,0.1452331,-0.25427246
578,1778621151.1628823,-0.4021576,-1.7729083,-0.053051874,-2.6645923,0.1452331,-0.25427246
579,1778621151.172883,-0.4021576,-1.7729083,-0.053051874,-2.6645923,0.1452331,-0.25427246
580,1778621151.1828837,-0.47435695,-2.3017197,-0.011098208,-2.964527,-0.038026333,-0.33918267
581,1778621151.1931276,-0.47435695,-2.3017197,-0.011098208,-2.964527,-0.038026333,-0.33918267
582,1778621151.203129,-0.47435695,-2.3017197,-0.011098208,-2.964527,-0.038026333,-0.33918267
583,1778621151.2131298,-0.47435695,-2.3017197,-0.011098208,-2.964527,-0.038026333,-0.33918267
584,1778621151.2231305,-0.47435695,-2.3017197,-0.011098208,-2.964527,-0.038026333,-0.33918267
585,1778621151.2331312,-0.47435695,-2.3017197,-0.011098208,-3.0781476,-0.13148865,-0.42164943
586,1778621151.2431319,-0.47435695,-2.3017197,-0.011098208,-3.0781476,-0.13148865,-0.42164943
587,1778621151.2531323,-0.47435695,-2.3017197,-0.011098208,-3.0781476,-0.13148865,-0.42164943
588,1778621151.2631335,-0.47435695,-2.3017197,-0.011098208,-3.0103416,-0.17791437,-0.36850417
589,1778621151.2731342,-0.47435695,-2.3017197,-0.011098208,-3.0103416,-0.17791437,-0.36850417
590,1778621151.2831347,-0.47435695,-2.3017197,-0.011098208,-3.0103416,-0.17791437,-0.36850417
591,1778621151.2931352,-0.47435695,-2.3017197,-0.011098208,-3.0103416,-0.17791437,-0.36850417
592,1778621151.303136,-0.47435695,-2.3017197,-0.011098208,-3.0103416,-0.17791437,-0.36850417
593,1778621151.3131402,-0.47435695,-2.3017197,-0.011098208,-3.0103416,-0.17791437,-0.36850417
594,1778621151.3231592,-0.47435695,-2.3017197,-0.011098208,-3.0103416,-0.17791437,-0.36850417
595,1778621151.3331594,-0.47435695,-2.3017197,-0.011098208,-3.0103416,-0.17791437,-0.36850417
596,1778621151.3431604,-0.47435695,-2.3017197,-0.011098208,-3.0103416,-0.17791437,-0.36850417
597,1778621151.3531618,-0.47435695,-2.3017197,-0.011098208,-3.0103416,-0.17791437,-0.36850417
598,1778621151.3631625,-0.47435695,-2.3017197,-0.011098208,-3.0103416,-0.17791437,-0.36850417
599,1778621151.373164,-0.46533203,-2.5051463,0.111591876,-3.0103416,-0.17791437,-0.36850417
600,1778621151.383165,-0.46533203,-2.5051463,0.111591876,-3.0103416,-0.17791437,-0.36850417
601,1778621151.3931656,-0.46533203,-2.5051463,0.111591876,-3.0103416,-0.17791437,-0.36850417
602,1778621151.4031668,-0.48874804,-2.4917307,0.34575188,-3.0103416,-0.17791437,-0.36850417
603,1778621151.4131677,-0.48874804,-2.4917307,0.34575188,-3.0103416,-0.17791437,-0.36850417
604,1778621151.4231684,-0.48874804,-2.4917307,0.34575188,-3.0103416,-0.17791437,-0.36850417
605,1778621151.4331696,-0.48874804,-2.4917307,0.34575188,-3.0103416,-0.17791437,-0.36850417
606,1778621151.4431703,-0.48874804,-2.4917307,0.34575188,-3.0103416,-0.17791437,-0.36850417
607,1778621151.4531713,-0.48874804,-2.4917307,0.34575188,-3.0103416,-0.17791437,-0.36850417
608,1778621151.4631727,-0.48874804,-2.4917307,0.34575188,-2.7977607,0.28328854,-0.19318599
609,1778621151.4731736,-0.48874804,-2.4917307,0.34575188,-2.7977607,0.28328854,-0.19318599
610,1778621151.4831743,-0.48874804,-2.4917307,0.34575188,-2.7977607,0.28328854,-0.19318599
611,1778621151.4931805,-0.48874804,-2.4917307,0.34575188,-2.7977607,0.28328854,-0.19318599
612,1778621151.503181,-0.48874804,-2.4917307,0.34575188,-2.7977607,0.28328854,-0.19318599
613,1778621151.5131814,-0.48874804,-2.4917307,0.34575188,-2.7977607,0.28328854,-0.19318599
614,1778621151.523182,-0.48874804,-2.4917307,0.34575188,-2.7977607,0.28328854,-0.19318599
615,1778621151.5331824,-0.48874804,-2.4917307,0.34575188,-2.7977607,0.28328854,-0.19318599
616,1778621151.5431833,-0.48874804,-2.4917307,0.34575188,-2.7977607,0.28328854,-0.19318599
617,1778621151.553184,-0.48874804,-2.4917307,0.34575188,-2.7977607,0.28328854,-0.19318599
618,1778621151.5631852,-0.48874804,-2.4917307,0.34575188,-2.5338671,0.88315773,-0.03375028
619,1778621151.5731862,-0.48874804,-2.4917307,0.34575188,-2.5338671,0.88315773,-0.03375028
620,1778621151.5831869,-0.48874804,-2.4917307,0.34575188,-2.5338671,0.88315773,-0.03375028
621,1778621151.593188,-0.48874804,-2.4917307,0.34575188,-2.5338671,0.88315773,-0.03375028
622,1778621151.6031978,-0.44045252,-2.3853831,0.39916962,-2.5338671,0.88315773,-0.03375028
623,1778621151.613201,-0.44045252,-2.3853831,0.39916962,-2.5338671,0.88315773,-0.03375028
624,1778621151.6232018,-0.44045252,-2.3853831,0.39916962,-2.5338671,0.88315773,-0.03375028
625,1778621151.6332505,-0.24117261,-2.1109767,0.05939371,-2.5338671,0.88315773,-0.03375028
626,1778621151.6432512,-0.24117261,-2.1109767,0.05939371,-2.5338671,0.88315773,-0.03375028
627,1778621151.6532516,-0.24117261,-2.1109767,0.05939371,-2.5338671,0.88315773,-0.03375028
628,1778621151.663252,-0.24117261,-2.1109767,0.05939371,-2.5338671,0.88315773,-0.03375028
629,1778621151.6732528,-0.24117261,-2.1109767,0.05939371,-2.5338671,0.88315773,-0.03375028
630,1778621151.6832545,-0.29751736,-2.060974,-0.26916206,-1.9993604,0.26496258,-0.37888888
631,1778621151.6932554,-0.29751736,-2.060974,-0.26916206,-1.9993604,0.26496258,-0.37888888
632,1778621151.7032833,-0.44094035,-2.06073,-0.44648945,-1.9168937,-0.7649554,-0.31474808
633,1778621151.7132838,-0.44094035,-2.06073,-0.44648945,-1.9168937,-0.7649554,-0.31474808
634,1778621151.7232845,-0.44094035,-2.06073,-0.44648945,-1.9168937,-0.7649554,-0.31474808
635,1778621151.7332852,-0.40703595,-2.0007267,-0.5769849,-1.9168937,-0.7649554,-0.31474808
636,1778621151.7432854,-0.40703595,-2.0007267,-0.5769849,-1.9168937,-0.7649554,-0.31474808
637,1778621151.7532861,-0.40703595,-2.0007267,-0.5769849,-1.9168937,-0.7649554,-0.31474808
638,1778621151.7632878,-0.40703595,-2.0007267,-0.5769849,-1.9168937,-0.7649554,-0.31474808
639,1778621151.7732887,-0.40703595,-2.0007267,-0.5769849,-1.9168937,-0.7649554,-0.31474808
640,1778621151.78329,-0.40703595,-2.0007267,-0.5769849,-1.9168937,-0.7649554,-0.31474808
641,1778621151.7935674,-0.40703595,-2.0007267,-0.5769849,-1.9168937,-0.7649554,-0.31474808
642,1778621151.8035681,-0.40703595,-2.0007267,-0.5769849,-1.9168937,-0.7649554,-0.31474808
643,1778621151.8135693,-0.40703595,-2.0007267,-0.5769849,-1.9168937,-0.7649554,-0.31474808
644,1778621151.8235703,-0.40703595,-2.0007267,-0.5769849,-1.9168937,-0.7649554,-0.31474808
645,1778621151.8335707,-0.40703595,-2.0007267,-0.5769849,-1.9168937,-0.7649554,-0.31474808
646,1778621151.8435714,-0.3111767,-1.97292,-0.5186888,-1.9168937,-0.7649554,-0.31474808
647,1778621151.8535721,-0.3111767,-1.97292,-0.5186888,-1.9168937,-0.7649554,-0.31474808
648,1778621151.8635728,-0.3111767,-1.97292,-0.5186888,-1.9168937,-0.7649554,-0.31474808
649,1778621151.8735738,-0.3111767,-1.97292,-0.5186888,-1.9168937,-0.7649554,-0.31474808
650,1778621151.8838563,-0.3111767,-1.97292,-0.5186888,-1.9168937,-0.7649554,-0.31474808
651,1778621151.893857,-0.3111767,-1.97292,-0.5186888,-1.9168937,-0.7649554,-0.31474808
652,1778621151.903858,-0.3111767,-1.97292,-0.5186888,-1.7989968,-1.8351905,-0.25121814
653,1778621151.9138584,-0.3111767,-1.97292,-0.5186888,-1.7989968,-1.8351905,-0.25121814
654,1778621151.9238591,-0.3111767,-1.97292,-0.5186888,-1.7989968,-1.8351905,-0.25121814
655,1778621151.9338603,-0.3111767,-1.97292,-0.5186888,-1.7989968,-1.8351905,-0.25121814
656,1778621151.943861,-0.3111767,-1.97292,-0.5186888,-1.7989968,-1.8351905,-0.25121814
657,1778621151.9538617,-0.3111767,-1.97292,-0.5186888,-1.7989968,-1.8351905,-0.25121814
658,1778621151.9638638,-0.3111767,-1.97292,-0.5186888,-1.7989968,-1.8351905,-0.25121814
659,1778621151.9738648,-0.3111767,-1.97292,-0.5186888,-1.7989968,-1.8351905,-0.25121814
660,1778621151.983867,-0.3111767,-1.97292,-0.5186888,-1.7989968,-1.8351905,-0.25121814
661,1778621151.9938703,-0.07530928,-1.7638835,-0.23720895,-1.2644901,-1.9530874,-0.30986115
662,1778621152.0038729,-0.07530928,-1.7638835,-0.23720895,-1.2644901,-1.9530874,-0.30986115
663,1778621152.0138738,-0.07530928,-1.7638835,-0.23720895,-1.2644901,-1.9530874,-0.30986115
664,1778621152.0238745,-0.07530928,-1.7638835,-0.23720895,-1.2644901,-1.9530874,-0.30986115
665,1778621152.0338752,-0.07530928,-1.7638835,-0.23720895,-1.2644901,-1.9530874,-0.30986115
666,1778621152.0438764,-0.11043327,-1.3180037,-0.3111157,-0.33536476,-1.250593,-0.57680905
667,1778621152.0538774,-0.11043327,-1.3180037,-0.3111157,-0.33536476,-1.250593,-0.57680905
668,1778621152.0638778,-0.11043327,-1.3180037,-0.3111157,-0.33536476,-1.250593,-0.57680905
669,1778621152.0738857,-0.15433827,-1.0955517,-0.31575012,-0.33536476,-1.250593,-0.57680905
670,1778621152.0838895,-0.15433827,-1.0955517,-0.31575012,-0.33536476,-1.250593,-0.57680905
671,1778621152.0938907,-0.15433827,-1.0955517,-0.31575012,-0.33536476,-1.250593,-0.57680905
672,1778621152.1042979,-0.15433827,-1.0955517,-0.31575012,-0.14172062,-1.512654,-0.6030763
673,1778621152.1143198,-0.15433827,-1.0955517,-0.31575012,-0.14172062,-1.512654,-0.6030763
674,1778621152.124327,-0.15433827,-1.0955517,-0.31575012,-0.14172062,-1.512654,-0.6030763
675,1778621152.134328,-0.15433827,-1.0955517,-0.31575012,-0.14172062,-1.512654,-0.6030763
676,1778621152.144329,-0.15433827,-1.0955517,-0.31575012,-0.14172062,-1.512654,-0.6030763
677,1778621152.1543303,-0.15433827,-1.0955517,-0.31575012,-0.042760536,-1.9836307,-0.57680905
678,1778621152.164331,-0.15433827,-1.0955517,-0.31575012,-0.042760536,-1.9836307,-0.57680905
679,1778621152.1743324,-0.15433827,-1.0955517,-0.31575012,-0.042760536,-1.9836307,-0.57680905
680,1778621152.184333,-0.1604362,-0.88334423,-0.19720663,-0.042760536,-1.9836307,-0.57680905
681,1778621152.1943338,-0.1604362,-0.88334423,-0.19720663,-0.042760536,-1.9836307,-0.57680905
682,1778621152.2043345,-0.1604362,-0.88334423,-0.19720663,-0.042760536,-1.9836307,-0.57680905
683,1778621152.2143354,-0.1604362,-0.88334423,-0.19720663,-0.042760536,-1.9836307,-0.57680905
684,1778621152.224336,-0.1604362,-0.88334423,-0.19720663,-0.042760536,-1.9836307,-0.57680905
685,1778621152.2343366,-0.1604362,-0.88334423,-0.19720663,-0.042760536,-1.9836307,-0.57680905
686,1778621152.244338,-0.1604362,-0.88334423,-0.19720663,-0.042760536,-1.9836307,-0.57680905
687,1778621152.2543387,-0.1604362,-0.88334423,-0.19720663,-0.042760536,-1.9836307,-0.57680905
688,1778621152.2643404,-0.1604362,-0.88334423,-0.19720663,-0.042760536,-1.9836307,-0.57680905
689,1778621152.2743409,-0.1604362,-0.88334423,-0.19720663,-0.042760536,-1.9836307,-0.57680905
690,1778621152.284341,-0.1604362,-0.88334423,-0.19720663,-0.042760536,-1.9836307,-0.57680905
691,1778621152.294342,-0.1604362,-0.88334423,-0.19720663,-0.042760536,-1.9836307,-0.57680905
692,1778621152.3043425,-0.1604362,-0.88334423,-0.19720663,-0.042760536,-1.9836307,-0.57680905
693,1778621152.3144875,-0.1604362,-0.88334423,-0.19720663,-0.042760536,-1.9836307,-0.57680905
694,1778621152.3244886,-0.1604362,-0.88334423,-0.19720663,-0.042760536,-1.9836307,-0.57680905
695,1778621152.3344896,-0.1604362,-0.88334423,-0.19720663,-0.042760536,-1.9836307,-0.57680905
696,1778621152.34449,-0.1604362,-0.88334423,-0.19720663,0.07147118,-2.1277947,-0.5780308
697,1778621152.3544948,-0.1604362,-0.88334423,-0.19720663,0.07147118,-2.1277947,-0.5780308
698,1778621152.3644958,-0.1604362,-0.88334423,-0.19720663,0.07147118,-2.1277947,-0.5780308
699,1778621152.3744972,-0.16921718,-0.6574774,-0.050368793,0.31703883,-2.1149666,-0.5688678
700,1778621152.3844974,-0.16921718,-0.6574774,-0.050368793,0.31703883,-2.1149666,-0.5688678
701,1778621152.3944988,-0.16921718,-0.6574774,-0.050368793,0.31703883,-2.1149666,-0.5688678
702,1778621152.404822,-0.16921718,-0.6574774,-0.050368793,0.31703883,-2.1149666,-0.5688678
703,1778621152.4148228,-0.16921718,-0.6574774,-0.050368793,0.31703883,-2.1149666,-0.5688678
704,1778621152.4248238,-0.16921718,-0.6574774,-0.050368793,0.31703883,-2.1149666,-0.5688678
705,1778621152.4348254,-0.19043794,-0.45502654,0.063540295,0.31703883,-2.1149666,-0.5688678
706,1778621152.4448261,-0.19043794,-0.45502654,0.063540295,0.31703883,-2.1149666,-0.5688678
707,1778621152.4548273,-0.19043794,-0.45502654,0.063540295,0.31703883,-2.1149666,-0.5688678
708,1778621152.4648285,0.18543765,-0.41356072,-0.9243222,1.1545345,2.6784894,-0.30436337
709,1778621152.4748292,0.18543765,-0.41356072,-0.9243222,1.1545345,2.6784894,-0.30436337
710,1778621152.4848297,0.18543765,-0.41356072,-0.9243222,1.1545345,2.6784894,-0.30436337
711,1778621152.495232,-0.1999507,-1.0504271,-2.0956101,-1.1484258,2.386496,-0.35689774
712,1778621152.5052323,-0.1999507,-1.0504271,-2.0956101,-1.1484258,2.386496,-0.35689774
713,1778621152.5152357,-0.1999507,-1.0504271,-2.0956101,-2.9278748,1.1055125,-0.2414443
714,1778621152.5252364,-0.1999507,-1.0504271,-2.0956101,-2.9278748,1.1055125,-0.2414443
715,1778621152.5352373,-0.16726585,-0.66894144,1.595093,-1.2302817,0.20143266,-0.48395762
716,1778621152.5452385,-0.27580878,-0.8855395,1.6297292,-1.2302817,0.20143266,-0.48395762
717,1778621152.5552394,-0.27580878,-0.8855395,1.6297292,-1.2302817,0.20143266,-0.48395762
718,1778621152.56524,-0.27580878,-0.8855395,1.6297292,-1.2302817,0.20143266,-0.48395762
719,1778621152.5752409,-0.27580878,-0.8855395,1.6297292,-1.2302817,0.20143266,-0.48395762
720,1778621152.5852418,-0.27580878,-0.8855395,1.6297292,-1.2302817,0.20143266,-0.48395762
721,1778621152.5952427,-0.27580878,-0.8855395,1.6297292,-1.2302817,0.20143266,-0.48395762
722,1778621152.605244,-0.27580878,-0.8855395,1.6297292,-1.2302817,0.20143266,-0.48395762
723,1778621152.6152444,-0.27580878,-0.8855395,1.6297292,-1.2302817,0.20143266,-0.48395762
724,1778621152.6252458,-0.27580878,-0.8855395,1.6297292,-1.2302817,0.20143266,-0.48395762
725,1778621152.6352468,-0.27580878,-0.8855395,1.6297292,-1.2302817,0.20143266,-0.48395762
726,1778621152.645248,-0.27580878,-0.8855395,1.6297292,-1.2302817,0.20143266,-0.48395762
727,1778621152.6552489,-0.27580878,-0.8855395,1.6297292,-1.2302817,0.20143266,-0.48395762
728,1778621152.6652493,-0.27580878,-0.8855395,1.6297292,-1.2302817,0.20143266,-0.48395762
729,1778621152.6752505,-0.27580878,-0.8855395,1.6297292,0.53511757,-0.5920807,-0.46746427
730,1778621152.6852515,-0.27580878,-0.8855395,1.6297292,0.53511757,-0.5920807,-0.46746427
731,1778621152.6952522,-0.27580878,-0.8855395,1.6297292,0.53511757,-0.5920807,-0.46746427
732,1778621152.7052534,-0.27580878,-0.8855395,1.6297292,0.53511757,-0.5920807,-0.46746427
733,1778621152.7152543,-0.27580878,-0.8855395,1.6297292,0.53511757,-0.5920807,-0.46746427
734,1778621152.725255,-0.27580878,-0.8855395,1.6297292,0.53511757,-0.5920807,-0.46746427
735,1778621152.7352557,-0.27580878,-0.8855395,1.6297292,0.53511757,-0.5920807,-0.46746427
736,1778621152.7452564,-0.48630884,-1.513137,1.8219355,1.3090832,1.9790492,0.57589275
737,1778621152.7552571,-0.48630884,-1.513137,1.8219355,1.3090832,1.9790492,0.57589275
738,1778621152.7652578,-0.48630884,-1.513137,1.8219355,1.3090832,1.9790492,0.57589275
739,1778621152.7752583,-0.64753777,-1.7633957,1.6360711,1.3090832,1.9790492,0.57589275
740,1778621152.785259,-0.64753777,-1.7633957,1.6360711,1.3090832,1.9790492,0.57589275
741,1778621152.7952602,-0.64753777,-1.7633957,1.6360711,1.3090832,1.9790492,0.57589275
742,1778621152.8052611,-0.64583033,-1.7841285,1.0350604,1.3090832,1.9790492,0.57589275
743,1778621152.8152618,-0.64583033,-1.7841285,1.0350604,1.3090832,1.9790492,0.57589275
744,1778621152.8252628,-0.64583033,-1.7841285,1.0350604,1.3090832,1.9790492,0.57589275
745,1778621152.8353233,-0.64583033,-1.7841285,1.0350604,1.2021819,3.299128,0.7182243
746,1778621152.8453236,-0.64583033,-1.7841285,1.0350604,1.2021819,3.299128,0.7182243
747,1778621152.8553247,-0.34239805,-1.7114413,-0.13305654,1.2021819,3.299128,0.7182243
748,1778621152.8657577,-0.34239805,-1.7114413,-0.13305654,1.2021819,3.299128,0.7182243
749,1778621152.8757586,-0.34239805,-1.7114413,-0.13305654,1.2021819,3.299128,0.7182243
750,1778621152.8857596,-0.34239805,-1.7114413,-0.13305654,1.2021819,3.299128,0.7182243
751,1778621152.8957598,-0.34239805,-1.7114413,-0.13305654,1.2021819,3.299128,0.7182243
752,1778621152.905761,-0.3216651,-1.5233816,-0.47697908,1.1368194,-0.59574586,0.42195484
753,1778621152.9157615,-0.3216651,-1.5233816,-0.47697908,1.1368194,-0.59574586,0.42195484
754,1778621152.9257624,-0.3216651,-1.5233816,-0.47697908,1.1368194,-0.59574586,0.42195484
755,1778621152.9357643,-0.56119126,-1.5626522,0.85504985,1.6847651,-0.84436786,0.38896814
756,1778621152.9457648,-0.56119126,-1.5626522,0.85504985,1.6847651,-0.84436786,0.38896814
757,1778621152.9557652,-0.56119126,-1.5626522,0.85504985,1.6847651,-0.84436786,0.38896814
758,1778621152.965766,-0.5026513,-1.595093,0.90261364,2.4825544,0.9900591,0.47632182
759,1778621152.9757676,-0.29288295,-1.823643,0.3811198,2.6175556,1.7365359,0.5416843
760,1778621152.9857693,-0.29288295,-1.823643,0.3811198,2.6175556,1.7365359,0.5416843
761,1778621152.9957824,-0.29288295,-1.823643,0.3811198,2.3481643,1.1995857,0.4140136
762,1778621153.0057847,-0.29288295,-1.823643,0.3811198,2.3481643,1.1995857,0.4140136
763,1778621153.0159886,-0.29288295,-1.823643,0.3811198,2.3481643,1.1995857,0.4140136
764,1778621153.0259893,-0.19799936,-1.8768167,0.2145247,2.3481643,1.1995857,0.4140136
765,1778621153.03599,-0.19799936,-1.8768167,0.2145247,2.3481643,1.1995857,0.4140136
766,1778621153.045991,-0.19799936,-1.8768167,0.2145247,2.1025965,0.42073312,0.41095927
767,1778621153.0559916,-0.19799936,-1.8768167,0.2145247,2.1025965,0.42073312,0.41095927
768,1778621153.065992,-0.19799936,-1.8768167,0.2145247,2.1025965,0.42073312,0.41095927
769,1778621153.0759926,-0.19799936,-1.8768167,0.2145247,2.1025965,0.42073312,0.41095927
770,1778621153.085993,-0.19799936,-1.8768167,0.2145247,2.1025965,0.42073312,0.41095927
771,1778621153.0959938,-0.19799936,-1.8768167,0.2145247,2.1025965,0.42073312,0.41095927
772,1778621153.1059945,-0.19799936,-1.8768167,0.2145247,2.1025965,0.42073312,0.41095927
773,1778621153.115995,-0.19799936,-1.8768167,0.2145247,2.1025965,0.42073312,0.41095927
774,1778621153.1259956,-0.19799936,-1.8768167,0.2145247,2.1025965,0.42073312,0.41095927
775,1778621153.1359963,-0.017744938,-1.9207218,-0.12988563,2.1025965,0.42073312,0.41095927
776,1778621153.145997,-0.017744938,-1.9207218,-0.12988563,2.1025965,0.42073312,0.41095927
777,1778621153.1559975,-0.017744938,-1.9207218,-0.12988563,2.1025965,0.42073312,0.41095927
778,1778621153.1659987,-0.017744938,-1.9207218,-0.12988563,2.1025965,0.42073312,0.41095927
779,1778621153.1760075,-0.017744938,-1.9207218,-0.12988563,2.1025965,0.42073312,0.41095927
780,1778621153.1860108,-0.017744938,-1.9207218,-0.12988563,2.1025965,0.42073312,0.41095927
781,1778621153.1960118,0.18348631,-1.8751096,-0.46210015,2.1025965,0.42073312,0.41095927
782,1778621153.2060125,0.18348631,-1.8751096,-0.46210015,2.1025965,0.42073312,0.41095927
783,1778621153.216013,0.18348631,-1.8751096,-0.46210015,1.8771875,0.0059559317,0.43050694
784,1778621153.2260137,0.18348631,-1.8751096,-0.46210015,1.8771875,0.0059559317,0.43050694
785,1778621153.2360141,0.18348631,-1.8751096,-0.46210015,1.8771875,0.0059559317,0.43050694
786,1778621153.2460153,0.2532465,-1.7907143,-0.61552376,1.7159191,-0.14004076,0.44577858
787,1778621153.256017,0.2532465,-1.7907143,-0.61552376,1.6358958,-0.636063,0.51724976
788,1778621153.266029,0.2532465,-1.7907143,-0.61552376,1.6358958,-0.636063,0.51724976
789,1778621153.27603,0.2532465,-1.7907143,-0.61552376,1.6358958,-0.636063,0.51724976
790,1778621153.286038,0.1949504,-1.615826,-0.6004009,1.5479313,-1.236543,0.5685624
791,1778621153.2960417,0.1949504,-1.615826,-0.6004009,1.5479313,-1.236543,0.5685624
792,1778621153.306043,0.1949504,-1.615826,-0.6004009,1.5479313,-1.236543,0.5685624
793,1778621153.3160436,0.1949504,-1.615826,-0.6004009,1.5479313,-1.236543,0.5685624
794,1778621153.326045,0.1949504,-1.615826,-0.6004009,1.5479313,-1.236543,0.5685624
795,1778621153.3360457,0.1949504,-1.615826,-0.6004009,1.5479313,-1.236543,0.5685624
796,1778621153.3460462,0.1949504,-1.615826,-0.6004009,1.5479313,-1.236543,0.5685624
797,1778621153.356327,0.12811723,-1.4128873,-0.4996633,1.5479313,-1.236543,0.5685624
798,1778621153.3663287,0.12811723,-1.4128873,-0.4996633,1.5479313,-1.236543,0.5685624
799,1778621153.3763297,0.12811723,-1.4128873,-0.4996633,1.5479313,-1.236543,0.5685624
800,1778621153.3863306,0.12811723,-1.4128873,-0.4996633,1.5479313,-1.236543,0.5685624
801,1778621153.3963318,0.12811723,-1.4128873,-0.4996633,1.5479313,-1.236543,0.5685624
802,1778621153.4063325,0.12811723,-1.4128873,-0.4996633,1.5479313,-1.236543,0.5685624
803,1778621153.4163332,0.12811723,-1.4128873,-0.4996633,1.5479313,-1.236543,0.5685624
804,1778621153.4263341,0.12811723,-1.4128873,-0.4996633,1.5479313,-1.236543,0.5685624
805,1778621153.436335,0.12811723,-1.4128873,-0.4996633,1.5479313,-1.236543,0.5685624
806,1778621153.4466321,0.12811723,-1.4128873,-0.4996633,1.5479313,-1.236543,0.5685624
807,1778621153.4566329,0.12811723,-1.4128873,-0.4996633,1.5479313,-1.236543,0.5685624
808,1778621153.4666345,0.12811723,-1.4128873,-0.4996633,1.5479313,-1.236543,0.5685624
809,1778621153.4766371,0.12811723,-1.4128873,-0.4996633,1.5479313,-1.236543,0.5685624
810,1778621153.4866385,0.12811723,-1.4128873,-0.4996633,1.5479313,-1.236543,0.5685624
811,1778621153.4966402,0.02859923,-1.2075095,-0.39112037,1.1911863,-1.6617049,0.6510291
812,1778621153.5066423,0.02859923,-1.2075095,-0.39112037,1.1911863,-1.6617049,0.6510291
813,1778621153.5166438,0.02859923,-1.2075095,-0.39112037,1.1911863,-1.6617049,0.6510291
814,1778621153.526646,0.02859923,-1.2075095,-0.39112037,1.1911863,-1.6617049,0.6510291
815,1778621153.536927,-0.045063604,-1.0284746,-0.31989673,1.1911863,-1.6617049,0.6510291
816,1778621153.546928,-0.045063604,-1.0284746,-0.31989673,1.1911863,-1.6617049,0.6510291
817,1778621153.5569296,-0.045063604,-1.0284746,-0.31989673,1.1911863,-1.6617049,0.6510291
818,1778621153.5669312,-0.045063604,-1.0284746,-0.31989673,1.1911863,-1.6617049,0.6510291
819,1778621153.5769324,-0.045063604,-1.0284746,-0.31989673,1.1911863,-1.6617049,0.6510291
820,1778621153.586934,-0.045063604,-1.0284746,-0.31989673,1.1911863,-1.6617049,0.6510291
821,1778621153.596936,-0.045063604,-1.0284746,-0.31989673,1.1911863,-1.6617049,0.6510291
822,1778621153.6069372,-0.045063604,-1.0284746,-0.31989673,1.1911863,-1.6617049,0.6510291
823,1778621153.6169379,-0.045063604,-1.0284746,-0.31989673,1.1911863,-1.6617049,0.6510291
824,1778621153.6272037,-0.045063604,-1.0284746,-0.31989673,1.1911863,-1.6617049,0.6510291
825,1778621153.6372046,-0.045063604,-1.0284746,-0.31989673,0.9431752,-1.7234023,0.67546374
826,1778621153.6472058,-0.045063604,-1.0284746,-0.31989673,0.9431752,-1.7234023,0.67546374
827,1778621153.6572063,-0.045063604,-1.0284746,-0.31989673,0.9431752,-1.7234023,0.67546374
828,1778621153.6672091,-0.045063604,-1.0284746,-0.31989673,0.9431752,-1.7234023,0.67546374
829,1778621153.6772113,-0.15067953,-0.58747333,-0.14964288,-1.0152572,1.6119194,-0.62934345
830,1778621153.6872122,-0.15067953,-0.58747333,-0.14964288,-1.0152572,1.6119194,-0.62934345
831,1778621153.6972134,-0.15067953,-0.58747333,-0.14964288,-1.0152572,1.6119194,-0.62934345
832,1778621153.707214,-0.15067953,-0.58747333,-0.14964288,-1.0152572,1.6119194,-0.62934345
833,1778621153.7172148,-0.15067953,-0.58747333,-0.14964288,-1.0152572,1.6119194,-0.62934345
834,1778621153.7272165,-0.15067953,-0.58747333,-0.14964288,-1.0152572,1.6119194,-0.62934345
835,1778621153.737218,-0.15067953,-0.58747333,-0.14964288,-1.0152572,1.6119194,-0.62934345
836,1778621153.7472188,-0.15067953,-0.58747333,-0.14964288,-1.0152572,1.6119194,-0.62934345
837,1778621153.7572203,-0.15067953,-0.58747333,-0.14964288,-1.0152572,1.6119194,-0.62934345
838,1778621153.7672212,-0.15067953,-0.58747333,-0.14964288,-1.0152572,1.6119194,-0.62934345
839,1778621153.7772214,-0.15067953,-0.58747333,-0.14964288,-1.0152572,1.6119194,-0.62934345
840,1778621153.7872229,-0.15067953,-0.58747333,-0.14964288,-1.0152572,1.6119194,-0.62934345
841,1778621153.797224,-0.15067953,-0.58747333,-0.14964288,-1.0152572,1.6119194,-0.62934345
842,1778621153.807225,-0.15067953,-0.58747333,-0.14964288,-1.0152572,1.6119194,-0.62934345
843,1778621153.8172257,-0.15067953,-0.58747333,-0.14964288,-1.0152572,1.6119194,-0.62934345
844,1778621153.8272262,-0.15067953,-0.58747333,-0.14964288,-1.0152572,1.6119194,-0.62934345
845,1778621153.8372273,0.1378739,-0.11134796,-0.15354554,-1.0152572,1.6119194,-0.62934345
846,1778621153.8472285,0.1378739,-0.11134796,-0.15354554,-1.0152572,1.6119194,-0.62934345
847,1778621153.8572292,0.1378739,-0.11134796,-0.15354554,-1.0152572,1.6119194,-0.62934345
848,1778621153.8672297,0.1378739,-0.11134796,-0.15354554,-1.0152572,1.6119194,-0.62934345
849,1778621153.877248,0.105920814,-0.19306004,-0.107201375,-1.0152572,1.6119194,-0.62934345
850,1778621153.8872492,0.105920814,-0.19306004,-0.107201375,-1.0152572,1.6119194,-0.62934345
851,1778621153.89725,0.105920814,-0.19306004,-0.107201375,-1.0152572,1.6119194,-0.62934345
852,1778621153.907251,0.105920814,-0.19306004,-0.107201375,-1.0152572,1.6119194,-0.62934345
853,1778621153.9172513,0.105920814,-0.19306004,-0.107201375,-1.2877029,1.2563962,-0.7826705
854,1778621153.927252,0.105920814,-0.19306004,-0.107201375,-1.2877029,1.2563962,-0.7826705
855,1778621153.9372525,0.105920814,-0.19306004,-0.107201375,-1.2877029,1.2563962,-0.7826705
856,1778621153.9472535,0.032501895,-0.30843264,-0.11403105,-1.2877029,1.2563962,-0.7826705
857,1778621153.9572542,0.032501895,-0.30843264,-0.11403105,-1.2877029,1.2563962,-0.7826705
858,1778621153.9675388,0.032501895,-0.30843264,-0.11403105,-1.2877029,1.2563962,-0.7826705
859,1778621153.97754,0.032501895,-0.30843264,-0.11403105,-1.2877029,1.2563962,-0.7826705
860,1778621153.987541,0.032501895,-0.30843264,-0.11403105,-1.2877029,1.2563962,-0.7826705
861,1778621153.9975436,0.032501895,-0.30843264,-0.11403105,-1.2877029,1.2563962,-0.7826705
862,1778621154.0075464,0.032501895,-0.30843264,-0.11403105,-1.5858049,0.6980657,-0.8694133
863,1778621154.017557,0.032501895,-0.30843264,-0.11403105,-1.5858049,0.6980657,-0.8694133
864,1778621154.02756,0.032501895,-0.30843264,-0.11403105,-1.5858049,0.6980657,-0.8694133
865,1778621154.037561,0.032501895,-0.30843264,-0.11403105,-1.5858049,0.6980657,-0.8694133
866,1778621154.0475616,0.032501895,-0.30843264,-0.11403105,-1.5858049,0.6980657,-0.8694133
867,1778621154.0578246,0.032501895,-0.30843264,-0.11403105,-1.5858049,0.6980657,-0.8694133
868,1778621154.067826,-0.25507587,-0.7811431,-0.19623096,-1.5858049,0.6980657,-0.8694133
869,1778621154.0778267,-0.25507587,-0.7811431,-0.19623096,-1.5858049,0.6980657,-0.8694133
870,1778621154.0880046,-0.3553256,-1.9538945,0.15500905,-2.5607452,0.4818196,0.042607818
871,1778621154.0980053,-0.3553256,-1.9538945,0.15500905,-2.5607452,0.4818196,0.042607818
872,1778621154.1080062,-0.3553256,-1.9538945,0.15500905,-2.5607452,0.4818196,0.042607818
873,1778621154.118007,-0.3553256,-1.9538945,0.15500905,-2.5607452,0.4818196,0.042607818
874,1778621154.1280088,-0.3553256,-1.9538945,0.15500905,-2.5607452,0.4818196,0.042607818
875,1778621154.13801,-0.3553256,-1.9538945,0.15500905,-2.5607452,0.4818196,0.042607818
876,1778621154.148127,-0.3553256,-1.9538945,0.15500905,-2.5607452,0.4818196,0.042607818
877,1778621154.1581287,-0.3553256,-1.9538945,0.15500905,-2.5607452,0.4818196,0.042607818
878,1778621154.1681304,-0.16653411,-1.697782,-0.015488708,-2.0140212,0.45310894,-0.35567603
879,1778621154.1781318,-0.16653411,-1.697782,-0.015488708,-2.0140212,0.45310894,-0.35567603
880,1778621154.188133,-0.16653411,-1.697782,-0.015488708,-2.0140212,0.45310894,-0.35567603
881,1778621154.198134,-0.31678677,-1.7231492,-0.15866779,-2.0140212,0.45310894,-0.35567603
882,1778621154.2081351,-0.31678677,-1.7231492,-0.15866779,-2.0140212,0.45310894,-0.35567603
883,1778621154.2181358,-0.31678677,-1.7231492,-0.15866779,-2.0140212,0.45310894,-0.35567603
884,1778621154.2281368,-0.31678677,-1.7231492,-0.15866779,-2.0140212,0.45310894,-0.35567603
885,1778621154.2384102,-0.31678677,-1.7231492,-0.15866779,-2.0140212,0.45310894,-0.35567603
886,1778621154.248411,-0.31678677,-1.7231492,-0.15866779,-2.0140212,0.45310894,-0.35567603
887,1778621154.2584121,-0.31678677,-1.7231492,-0.15866779,-2.0140212,0.45310894,-0.35567603
888,1778621154.2684171,-0.43191543,-1.7697374,-0.17232713,-1.9309436,0.26740605,-0.41248643
889,1778621154.2784202,-0.43191543,-1.7697374,-0.17232713,-1.9309436,0.26740605,-0.41248643
890,1778621154.2884219,-0.43191543,-1.7697374,-0.17232713,-1.9309436,0.26740605,-0.41248643
891,1778621154.2984262,-0.43191543,-1.7697374,-0.17232713,-1.9309436,0.26740605,-0.41248643
892,1778621154.3084285,-0.43191543,-1.7697374,-0.17232713,-1.9309436,0.26740605,-0.41248643
893,1778621154.3184302,-0.43191543,-1.7697374,-0.17232713,-1.9309436,0.26740605,-0.41248643
894,1778621154.3288713,-0.43191543,-1.7697374,-0.17232713,-1.9309436,0.26740605,-0.41248643
895,1778621154.338872,-0.43191543,-1.7697374,-0.17232713,-1.9309436,0.26740605,-0.41248643
896,1778621154.3488724,-0.43191543,-1.7697374,-0.17232713,-1.9309436,0.26740605,-0.41248643
897,1778621154.3588731,-0.43191543,-1.7697374,-0.17232713,-1.9309436,0.26740605,-0.41248643
898,1778621154.3688748,-0.43191543,-1.7697374,-0.17232713,-1.9309436,0.26740605,-0.41248643
899,1778621154.3788764,-0.43191543,-1.7697374,-0.17232713,-1.9309436,0.26740605,-0.41248643
900,1778621154.3888779,-0.43191543,-1.7697374,-0.17232713,-1.9309436,0.26740605,-0.41248643
901,1778621154.3988793,-0.51557887,-1.8212038,-0.17574196,-1.9309436,0.26740605,-0.41248643
902,1778621154.4088802,-0.51557887,-1.8212038,-0.17574196,-1.9309436,0.26740605,-0.41248643
903,1778621154.4188812,-0.51557887,-1.8212038,-0.17574196,-1.9309436,0.26740605,-0.41248643
904,1778621154.4288826,-0.51557887,-1.8212038,-0.17574196,-1.8509203,0.08414663,-0.45463613
905,1778621154.4388833,-0.51557887,-1.8212038,-0.17574196,-1.8509203,0.08414663,-0.45463613
906,1778621154.448884,-0.51557887,-1.8212038,-0.17574196,-1.8509203,0.08414663,-0.45463613
907,1778621154.4588854,-0.51557887,-1.8212038,-0.17574196,-1.8509203,0.08414663,-0.45463613
908,1778621154.468886,-0.51557887,-1.8212038,-0.17574196,-1.8509203,0.08414663,-0.45463613
909,1778621154.4788864,-0.51557887,-1.8212038,-0.17574196,-1.8509203,0.08414663,-0.45463613
910,1778621154.4888873,-0.51557887,-1.8212038,-0.17574196,-1.5680898,-0.030695954,-0.56092656
911,1778621154.4988883,-0.51557887,-1.8212038,-0.17574196,-1.5680898,-0.030695954,-0.56092656
912,1778621154.5088897,-0.51557887,-1.8212038,-0.17574196,-1.5680898,-0.030695954,-0.56092656
913,1778621154.51889,-0.51557887,-1.8212038,-0.17574196,-1.5680898,-0.030695954,-0.56092656
914,1778621154.5288913,-0.51557887,-1.8212038,-0.17574196,-1.5680898,-0.030695954,-0.56092656
915,1778621154.5388927,-0.61924344,-1.8651088,-0.22720838,-1.5680898,-0.030695954,-0.56092656
916,1778621154.5488937,-0.61924344,-1.8651088,-0.22720838,-1.5680898,-0.030695954,-0.56092656
917,1778621154.558894,-0.61924344,-1.8651088,-0.22720838,-1.5680898,-0.030695954,-0.56092656
918,1778621154.5688949,-0.09409086,-0.31575012,0.07817529,0.81916964,-0.8474222,0.33826637
919,1778621154.5788956,-0.09409086,-0.31575012,0.07817529,0.81916964,-0.8474222,0.33826637
920,1778621154.588896,-0.09409086,-0.31575012,0.07817529,0.81916964,-0.8474222,0.33826637
921,1778621154.598897,-1.2775745,-1.59241,-1.574848,-2.4312418,5.4786935,-0.6672171
922,1778621154.6088977,-1.2775745,-1.59241,-1.574848,-2.4312418,5.4786935,-0.6672171
923,1778621154.6188982,-1.2775745,-1.59241,-1.574848,-2.4312418,5.4786935,-0.6672171
924,1778621154.6288993,-0.85364735,-2.5829556,1.560213,1.8771875,-0.0050396346,1.0737475
925,1778621154.6388998,-0.85364735,-2.5829556,1.560213,1.8771875,-0.0050396346,1.0737475
926,1778621154.6489007,0.44740415,-0.9855453,0.75528795,0.51618075,2.7414083,0.026725333
927,1778621154.6589017,0.44740415,-0.9855453,0.75528795,0.51618075,2.7414083,0.026725333
928,1778621154.6689024,0.44740415,-0.9855453,0.75528795,0.51618075,2.7414083,0.026725333
929,1778621154.6789036,0.44740415,-0.9855453,0.75528795,0.51618075,2.7414083,0.026725333
930,1778621154.6889043,0.44740415,-0.9855453,0.75528795,0.51618075,2.7414083,0.026725333
931,1778621154.6989045,0.44740415,-0.9855453,0.75528795,0.51618075,2.7414083,0.026725333
932,1778621154.7089055,0.44740415,-0.9855453,0.75528795,0.8032872,2.7786713,-0.4167625
933,1778621154.7189062,0.44740415,-0.9855453,0.75528795,0.8032872,2.7786713,-0.4167625
934,1778621154.7289064,0.44740415,-0.9855453,0.75528795,0.8032872,2.7786713,-0.4167625
935,1778621154.7389076,0.44740415,-0.9855453,0.75528795,0.65973395,3.2600327,-0.9634865
936,1778621154.7489083,0.44740415,-0.9855453,0.75528795,0.65973395,3.2600327,-0.9634865
937,1778621154.7589092,0.44740415,-0.9855453,0.75528795,0.65973395,3.2600327,-0.9634865
938,1778621154.768911,0.44740415,-0.9855453,0.75528795,0.65973395,3.2600327,-0.9634865
939,1778621154.778912,0.44740415,-0.9855453,0.75528795,0.65973395,3.2600327,-0.9634865
940,1778621154.788913,0.9869478,-0.8382196,0.12915388,0.65973395,3.2600327,-0.9634865
941,1778621154.7989137,0.9869478,-0.8382196,0.12915388,0.65973395,3.2600327,-0.9634865
942,1778621154.8089144,0.9869478,-0.8382196,0.12915388,0.65973395,3.2600327,-0.9634865
943,1778621154.8189154,0.9869478,-0.8382196,0.12915388,0.65973395,3.2600327,-0.9634865
944,1778621154.8289163,0.9869478,-0.8382196,0.12915388,0.65973395,3.2600327,-0.9634865
945,1778621154.8389168,0.9869478,-0.8382196,0.12915388,0.65973395,3.2600327,-0.9634865
946,1778621154.8489175,0.9869478,-0.8382196,0.12915388,0.65973395,3.2600327,-0.9634865
947,1778621154.8589182,0.9869478,-0.8382196,0.12915388,0.65973395,3.2600327,-0.9634865
948,1778621154.868919,0.9869478,-0.8382196,0.12915388,0.65973395,3.2600327,-0.9634865
949,1778621154.8789196,0.9869478,-0.8382196,0.12915388,0.65973395,3.2600327,-0.9634865
950,1778621154.8889203,0.9869478,-0.8382196,0.12915388,0.65973395,3.2600327,-0.9634865
951,1778621154.898921,0.7949854,-1.1772639,-0.37014353,0.65973395,3.2600327,-0.9634865
952,1778621154.908922,0.7949854,-1.1772639,-0.37014353,0.65973395,3.2600327,-0.9634865
953,1778621154.9189224,0.7949854,-1.1772639,-0.37014353,0.65973395,3.2600327,-0.9634865
954,1778621154.9289231,0.4978949,-1.2419018,-0.45722178,0.65973395,3.2600327,-0.9634865
955,1778621154.9389236,0.4978949,-1.2419018,-0.45722178,0.65973395,3.2600327,-0.9634865
956,1778621154.9489243,0.4978949,-1.2419018,-0.45722178,0.65973395,3.2600327,-0.9634865
957,1778621154.9589248,0.4978949,-1.2419018,-0.45722178,0.65973395,3.2600327,-0.9634865
958,1778621154.9689255,0.4978949,-1.2419018,-0.45722178,0.65973395,3.2600327,-0.9634865
959,1778621154.9789264,0.4978949,-1.2419018,-0.45722178,0.65973395,3.2600327,-0.9634865
960,1778621154.9889276,0.4978949,-1.2419018,-0.45722178,0.65973395,3.2600327,-0.9634865
961,1778621154.9989283,0.4978949,-1.2419018,-0.45722178,0.65973395,3.2600327,-0.9634865
962,1778621155.0089285,0.4978949,-1.2419018,-0.45722178,0.65973395,3.2600327,-0.9634865
963,1778621155.0189295,0.4978949,-1.2419018,-0.45722178,0.12034036,4.170832,-1.4588978
964,1778621155.0289302,0.4978949,-1.2419018,-0.45722178,0.12034036,4.170832,-1.4588978
965,1778621155.0389304,0.4978949,-1.2419018,-0.45722178,0.12034036,4.170832,-1.4588978
966,1778621155.0489311,0.4978949,-1.2419018,-0.45722178,0.12034036,4.170832,-1.4588978
967,1778621155.058932,0.4978949,-1.2419018,-0.45722178,0.12034036,4.170832,-1.4588978
968,1778621155.0689335,0.4978949,-1.2419018,-0.45722178,0.12034036,4.170832,-1.4588978
969,1778621155.078934,0.4978949,-1.2419018,-0.45722178,0.12034036,4.170832,-1.4588978
970,1778621155.0889347,0.4978949,-1.2419018,-0.45722178,0.61269736,3.001026,-1.1162027
971,1778621155.0989354,0.4978949,-1.2419018,-0.45722178,0.61269736,3.001026,-1.1162027
972,1778621155.1089356,0.4978949,-1.2419018,-0.45722178,0.61269736,3.001026,-1.1162027
973,1778621155.1189492,0.4978949,-1.2419018,-0.45722178,0.61269736,3.001026,-1.1162027
974,1778621155.12896,0.4978949,-1.2419018,-0.45722178,0.61269736,3.001026,-1.1162027
975,1778621155.1389604,0.4978949,-1.2419018,-0.45722178,0.61269736,3.001026,-1.1162027
976,1778621155.1489608,0.4978949,-1.2419018,-0.45722178,0.61269736,3.001026,-1.1162027
977,1778621155.1589618,0.4978949,-1.2419018,-0.45722178,0.61269736,3.001026,-1.1162027
978,1778621155.1689627,0.4978949,-1.2419018,-0.45722178,0.61269736,3.001026,-1.1162027
979,1778621155.1789634,0.4978949,-1.2419018,-0.45722178,0.61269736,3.001026,-1.1162027
980,1778621155.188964,0.4978949,-1.2419018,-0.45722178,0.61269736,3.001026,-1.1162027
981,1778621155.198964,0.4978949,-1.2419018,-0.45722178,0.61269736,3.001026,-1.1162027
982,1778621155.208965,0.17568098,-1.1982406,-0.34623972,0.61269736,3.001026,-1.1162027
983,1778621155.2189655,0.17568098,-1.1982406,-0.34623972,0.61269736,3.001026,-1.1162027
984,1778621155.2289662,0.17568098,-1.1982406,-0.34623972,0.61269736,3.001026,-1.1162027
985,1778621155.2389667,0.17568098,-1.1982406,-0.34623972,0.8778127,1.8635957,-0.6030763
986,1778621155.2489674,0.17568098,-1.1982406,-0.34623972,0.8778127,1.8635957,-0.6030763
987,1778621155.2589684,0.17568098,-1.1982406,-0.34623972,0.8778127,1.8635957,-0.6030763
988,1778621155.2689688,0.17568098,-1.1982406,-0.34623972,0.8778127,1.8635957,-0.6030763
989,1778621155.2789698,0.17568098,-1.1982406,-0.34623972,0.8778127,1.8635957,-0.6030763
990,1778621155.288971,0.17568098,-1.1982406,-0.34623972,0.8778127,1.8635957,-0.6030763
991,1778621155.2989712,0.17568098,-1.1982406,-0.34623972,0.8778127,1.8635957,-0.6030763
992,1778621155.3089721,0.17568098,-1.1982406,-0.34623972,0.8778127,1.8635957,-0.6030763
993,1778621155.3189733,0.17568098,-1.1982406,-0.34623972,0.8778127,1.8635957,-0.6030763
994,1778621155.3289738,0.17568098,-1.1982406,-0.34623972,0.8778127,1.8635957,-0.6030763
995,1778621155.338975,0.17568098,-1.1982406,-0.34623972,0.8778127,1.8635957,-0.6030763
996,1778621155.3489766,0.17568098,-1.1982406,-0.34623972,0.8778127,1.8635957,-0.6030763
997,1778621155.3589776,0.17568098,-1.1982406,-0.34623972,0.8778127,1.8635957,-0.6030763
998,1778621155.3689785,0.17568098,-1.1982406,-0.34623972,0.8778127,1.8635957,-0.6030763
999,1778621155.3789794,0.17568098,-1.1982406,-0.34623972,0.8778127,1.8635957,-0.6030763
