id,timestamp,acc_x,acc_y,acc_z,gyro_x,gyro_y,gyro_z
1,1778620355.3196008,4.8457093,0.63918364,1.4999655,0.43676832,1.9353724,-7.09718
2,1778620355.3296027,4.8457093,0.63918364,1.4999655,0.43676832,1.9353724,-7.09718
3,1778620355.3396041,4.8457093,0.63918364,1.4999655,0.43676832,1.9353724,-7.09718
4,1778620355.3496058,4.8457093,0.63918364,1.4999655,0.43676832,1.9353724,-7.09718
5,1778620355.3596077,4.8457093,0.63918364,1.4999655,0.43676832,1.9353724,-7.09718
6,1778620355.3696094,4.823025,0.38819337,1.5941174,0.5833759,2.23042,-7.0073824
7,1778620355.3796103,4.823025,0.38819337,1.5941174,0.5833759,2.23042,-7.0073824
8,1778620355.3896115,3.5897827,0.23574546,1.6138747,4.048201,1.0202969,-7.480803
9,1778620355.399613,3.5897827,0.23574546,1.6138747,4.048201,1.0202969,-7.480803
10,1778620355.4096138,3.5897827,0.23574546,1.6138747,4.048201,1.0202969,-7.480803
11,1778620355.419615,3.0697522,0.23086715,1.5636278,4.5674357,0.61529356,-7.4716396
12,1778620355.4296231,3.0697522,0.23086715,1.5636278,4.5674357,0.61529356,-7.4716396
13,1778620355.439626,3.0697522,0.23086715,1.5636278,4.5674357,0.61529356,-7.4716396
14,1778620355.4496279,3.0697522,0.23086715,1.5636278,4.5674357,0.61529356,-7.4716396
15,1778620355.459629,3.0697522,0.23086715,1.5636278,4.5674357,0.61529356,-7.4716396
16,1778620355.4696305,3.0697522,0.23086715,1.5636278,4.5674357,0.61529356,-7.4716396
17,1778620355.4796326,3.0697522,0.23086715,1.5636278,4.5674357,0.61529356,-7.4716396
18,1778620355.489634,3.0697522,0.23086715,1.5636278,4.5674357,0.61529356,-7.4716396
19,1778620355.4996352,3.0697522,0.23086715,1.5636278,4.5674357,0.61529356,-7.4716396
20,1778620355.5096438,2.8992546,0.1676927,1.4889894,4.5674357,0.61529356,-7.4716396
21,1778620355.519645,2.8992546,0.1676927,1.4889894,4.5674357,0.61529356,-7.4716396
22,1778620355.5296462,2.8992546,0.1676927,1.4889894,4.5674357,0.61529356,-7.4716396
23,1778620355.5396476,2.8992546,0.1676927,1.4889894,4.5674357,0.61529356,-7.4716396
24,1778620355.5496495,2.8992546,0.1676927,1.4889894,4.5674357,0.61529356,-7.4716396
25,1778620355.5596516,2.8992546,0.1676927,1.4889894,4.5674357,0.61529356,-7.4716396
26,1778620355.5696535,2.8992546,0.1676927,1.4889894,4.674948,0.5969676,-7.426436
27,1778620355.5796547,2.8992546,0.1676927,1.4889894,4.674948,0.5969676,-7.426436
28,1778620355.589656,2.8992546,0.1676927,1.4889894,4.674948,0.5969676,-7.426436
29,1778620355.5996575,2.1057937,-0.8009004,0.9211513,4.37257,-0.9955569,-7.587704
30,1778620355.6096594,2.1057937,-0.8009004,0.9211513,4.37257,-0.9955569,-7.587704
31,1778620355.6196604,1.8311435,-0.960178,0.92481005,1.689652,0.27137667,-6.736159
32,1778620355.629661,1.8311435,-0.960178,0.92481005,1.689652,0.27137667,-6.736159
33,1778620355.6396627,1.8311435,-0.960178,0.92481005,1.689652,0.27137667,-6.736159
34,1778620355.6496665,1.8311435,-0.960178,0.92481005,1.689652,0.27137667,-6.736159
35,1778620355.6596675,1.8311435,-0.960178,0.92481005,1.689652,0.27137667,-6.736159
36,1778620355.6696687,1.8311435,-0.960178,0.92481005,1.689652,0.27137667,-6.736159
37,1778620355.6796703,1.7857751,-1.0616473,0.81797457,1.689652,0.27137667,-6.736159
38,1778620355.6896718,1.7857751,-1.0616473,0.81797457,1.689652,0.27137667,-6.736159
39,1778620355.6996737,1.7857751,-1.0616473,0.81797457,1.689652,0.27137667,-6.736159
40,1778620355.7096822,1.3747753,-1.2945877,0.7401651,1.400713,0.03497201,-5.044674
41,1778620355.719687,1.3747753,-1.2945877,0.7401651,1.400713,0.03497201,-5.044674
42,1778620355.7296891,1.3747753,-1.2945877,0.7401651,1.400713,0.03497201,-5.044674
43,1778620355.739854,-0.36435053,-2.4700222,-0.16110696,2.7079635,-0.5093085,-2.8388414
44,1778620355.749855,-0.36435053,-2.4700222,-0.16110696,2.7079635,-0.5093085,-2.8388414
45,1778620355.7598562,-0.36435053,-2.4700222,-0.16110696,2.7079635,-0.5093085,-2.8388414
46,1778620355.769857,-0.36435053,-2.4700222,-0.16110696,2.7079635,-0.5093085,-2.8388414
47,1778620355.7798576,-0.36435053,-2.4700222,-0.16110696,2.7079635,-0.5093085,-2.8388414
48,1778620355.789859,-0.36435053,-2.4700222,-0.16110696,2.7079635,-0.5093085,-2.8388414
49,1778620355.79986,-0.36435053,-2.4700222,-0.16110696,2.7079635,-0.5093085,-2.8388414
50,1778620355.8098612,-0.36435053,-2.4700222,-0.16110696,2.7079635,-0.5093085,-2.8388414
51,1778620355.8198707,-1.7424798,-2.1858592,-0.02841629,1.721417,-1.9063562,3.3070693
52,1778620355.8298743,-1.7424798,-2.1858592,-0.02841629,1.721417,-1.9063562,3.3070693
53,1778620355.8398767,-1.7424798,-2.1858592,-0.02841629,1.721417,-1.9063562,3.3070693
54,1778620355.849878,-2.49106,-0.9311519,0.16135088,-3.7287185,2.8144069,1.8012875
55,1778620355.8598795,-2.49106,-0.9311519,0.16135088,-3.7287185,2.8144069,1.8012875
56,1778620355.8698804,-2.49106,-0.9311519,0.16135088,-3.7287185,2.8144069,1.8012875
57,1778620355.8798816,-2.49106,-0.9311519,0.16135088,-3.7287185,2.8144069,1.8012875
58,1778620355.8898826,-2.5295987,-1.5926539,0.04036821,-6.6559825,4.318356,1.3070979
59,1778620355.8998837,-2.5295987,-1.5926539,0.04036821,-6.6559825,4.318356,1.3070979
60,1778620355.9098842,-2.5295987,-1.5926539,0.04036821,-6.6559825,4.318356,1.3070979
61,1778620355.9198854,-2.5295987,-1.5926539,0.04036821,-6.6559825,4.318356,1.3070979
62,1778620355.9298868,-2.5295987,-1.5926539,0.04036821,-6.6559825,4.318356,1.3070979
63,1778620355.9398882,-2.5295987,-1.5926539,0.04036821,-6.6559825,4.318356,1.3070979
64,1778620355.9498894,-2.5295987,-1.5926539,0.04036821,-6.6559825,4.318356,1.3070979
65,1778620355.9598923,-2.5295987,-1.5926539,0.04036821,-7.2711234,4.720305,1.8287765
66,1778620355.9699035,-2.5295987,-1.5926539,0.04036821,-7.2711234,4.720305,1.8287765
67,1778620355.9799051,-2.3166595,-2.327331,0.19452354,-6.4666147,4.44847,4.50131
68,1778620355.989914,-2.3166595,-2.327331,0.19452354,-6.4666147,4.44847,4.50131
69,1778620355.9999166,-2.3166595,-2.327331,0.19452354,-6.4666147,4.44847,4.50131
70,1778620356.0099173,-2.3166595,-2.327331,0.19452354,-6.4666147,4.44847,4.50131
71,1778620356.019918,-2.3166595,-2.327331,0.19452354,-6.4666147,4.44847,4.50131
72,1778620356.0299184,-2.3166595,-2.327331,0.19452354,-6.4666147,4.44847,4.50131
73,1778620356.0399196,-1.6715,-2.2902558,0.11476279,-6.4666147,4.44847,4.50131
74,1778620356.0499203,-1.6715,-2.2902558,0.11476279,-6.4666147,4.44847,4.50131
75,1778620356.0599215,-1.6715,-2.2902558,0.11476279,-6.4666147,4.44847,4.50131
76,1778620356.06993,-1.6715,-2.2902558,0.11476279,-6.4666147,4.44847,4.50131
77,1778620356.0799348,-1.6715,-2.2902558,0.11476279,-6.4666147,4.44847,4.50131
78,1778620356.0899365,-1.6715,-2.2902558,0.11476279,-6.4666147,4.44847,4.50131
79,1778620356.100152,-1.6715,-2.2902558,0.11476279,-6.4666147,4.44847,4.50131
80,1778620356.1101527,-1.6715,-2.2902558,0.11476279,-6.4666147,4.44847,4.50131
81,1778620356.1201537,-0.9938995,-2.1129282,0.031099375,-6.4666147,4.44847,4.50131
82,1778620356.1306615,-0.9938995,-2.1129282,0.031099375,-6.4666147,4.44847,4.50131
83,1778620356.1406655,-0.9938995,-2.1129282,0.031099375,-6.4666147,4.44847,4.50131
84,1778620356.1506686,-0.9938995,-2.1129282,0.031099375,-6.4666147,4.44847,4.50131
85,1778620356.1606705,-0.9938995,-2.1129282,0.031099375,-6.4666147,4.44847,4.50131
86,1778620356.1706722,-0.9938995,-2.1129282,0.031099375,-6.4666147,4.44847,4.50131
87,1778620356.1806731,-0.9938995,-2.1129282,0.031099375,-5.5381002,3.7514734,5.417607
88,1778620356.1906738,-0.9938995,-2.1129282,0.031099375,-5.5381002,3.7514734,5.417607
89,1778620356.2006748,-0.9938995,-2.1129282,0.031099375,-5.5381002,3.7514734,5.417607
90,1778620356.2106764,-0.9938995,-2.1129282,0.031099375,-5.5381002,3.7514734,5.417607
91,1778620356.2206776,-0.9938995,-2.1129282,0.031099375,-5.5381002,3.7514734,5.417607
92,1778620356.2306786,-0.9938995,-2.1129282,0.031099375,-5.5381002,3.7514734,5.417607
93,1778620356.2407038,-0.9938995,-2.1129282,0.031099375,-5.5381002,3.7514734,5.417607
94,1778620356.2507071,-0.9938995,-2.1129282,0.031099375,-5.5381002,3.7514734,5.417607
95,1778620356.260708,-0.9938995,-2.1129282,0.031099375,-5.5381002,3.7514734,5.417607
96,1778620356.27071,-0.9938995,-2.1129282,0.031099375,-5.5381002,3.7514734,5.417607
97,1778620356.280732,-0.9938995,-2.1129282,0.031099375,-5.5381002,3.7514734,5.417607
98,1778620356.2907326,-0.9938995,-2.1129282,0.031099375,-5.5381002,3.7514734,5.417607
99,1778620356.3007338,-0.9938995,-2.1129282,0.031099375,-5.5381002,3.7514734,5.417607
100,1778620356.3107345,-0.9938995,-2.1129282,0.031099375,-5.5381002,3.7514734,5.417607
101,1778620356.3207362,-0.4843575,-2.0102391,-0.059149794,-4.607753,2.935358,5.9069095
102,1778620356.3307378,-0.4843575,-2.0102391,-0.059149794,-4.607753,2.935358,5.9069095
103,1778620356.3407388,-0.4843575,-2.0102391,-0.059149794,-4.607753,2.935358,5.9069095
104,1778620356.3507395,-0.4843575,-2.0102391,-0.059149794,-4.607753,2.935358,5.9069095
105,1778620356.3607402,-0.4843575,-2.0102391,-0.059149794,-4.607753,2.935358,5.9069095
106,1778620356.3709471,-0.4843575,-2.0102391,-0.059149794,-4.607753,2.935358,5.9069095
107,1778620356.3809514,-0.4843575,-2.0102391,-0.059149794,-4.607753,2.935358,5.9069095
108,1778620356.3909523,-0.4843575,-2.0102391,-0.059149794,-4.607753,2.935358,5.9069095
109,1778620356.4009554,-0.4843575,-2.0102391,-0.059149794,-4.607753,2.935358,5.9069095
110,1778620356.4109569,-0.4843575,-2.0102391,-0.059149794,-4.607753,2.935358,5.9069095
111,1778620356.4209578,0.24227023,-1.9287711,-0.25306356,-4.607753,2.935358,5.9069095
112,1778620356.4309595,0.24227023,-1.9287711,-0.25306356,-4.607753,2.935358,5.9069095
113,1778620356.440961,0.24227023,-1.9287711,-0.25306356,-4.607753,2.935358,5.9069095
114,1778620356.4509618,0.24227023,-1.9287711,-0.25306356,-3.803244,2.0294454,6.054739
115,1778620356.461334,0.24227023,-1.9287711,-0.25306356,-3.803244,2.0294454,6.054739
116,1778620356.4713345,0.24227023,-1.9287711,-0.25306356,-3.803244,2.0294454,6.054739
117,1778620356.4813356,0.24227023,-1.9287711,-0.25306356,-3.803244,2.0294454,6.054739
118,1778620356.4913392,0.24227023,-1.9287711,-0.25306356,-3.803244,2.0294454,6.054739
119,1778620356.5013406,0.24227023,-1.9287711,-0.25306356,-3.803244,2.0294454,6.054739
120,1778620356.511342,0.24227023,-1.9287711,-0.25306356,-3.803244,2.0294454,6.054739
121,1778620356.5213428,0.24227023,-1.9287711,-0.25306356,-3.3463173,1.2615885,6.162251
122,1778620356.5313435,0.24227023,-1.9287711,-0.25306356,-3.3463173,1.2615885,6.162251
123,1778620356.5413442,0.5813144,-2.0390213,-0.33672696,-3.3463173,1.2615885,6.162251
124,1778620356.551527,0.5813144,-2.0390213,-0.33672696,-3.3463173,1.2615885,6.162251
125,1778620356.5615277,0.5813144,-2.0390213,-0.33672696,-3.3463173,1.2615885,6.162251
126,1778620356.5715287,0.5813144,-2.0390213,-0.33672696,-3.3463173,1.2615885,6.162251
127,1778620356.5816107,0.5813144,-2.0390213,-0.33672696,-3.3463173,1.2615885,6.162251
128,1778620356.5916114,0.5813144,-2.0390213,-0.33672696,-3.3463173,1.2615885,6.162251
129,1778620356.6016142,0.5813144,-2.0390213,-0.33672696,-3.3463173,1.2615885,6.162251
130,1778620356.6116254,0.5813144,-2.0390213,-0.33672696,-3.3463173,1.2615885,6.162251
131,1778620356.6216261,0.5813144,-2.0390213,-0.33672696,-3.3463173,1.2615885,6.162251
132,1778620356.6318483,0.5813144,-2.0390213,-0.33672696,-3.3463173,1.2615885,6.162251
133,1778620356.6418514,0.5813144,-2.0390213,-0.33672696,-3.3463173,1.2615885,6.162251
134,1778620356.6518524,0.5813144,-2.0390213,-0.33672696,-3.3463173,1.2615885,6.162251
135,1778620356.6618526,0.5813144,-2.0390213,-0.33672696,-3.3463173,1.2615885,6.162251
136,1778620356.6718538,1.1098819,-2.4192874,-0.28087005,-3.3463173,1.2615885,6.162251
137,1778620356.6818545,1.1098819,-2.4192874,-0.28087005,-3.3463173,1.2615885,6.162251
138,1778620356.6918554,1.1098819,-2.4192874,-0.28087005,-3.3463173,1.2615885,6.162251
139,1778620356.7018566,1.1098819,-2.4192874,-0.28087005,-2.872286,0.024587307,6.8012156
140,1778620356.7118597,1.1098819,-2.4192874,-0.28087005,-2.872286,0.024587307,6.8012156
141,1778620356.7218614,1.1098819,-2.4192874,-0.28087005,-2.872286,0.024587307,6.8012156
142,1778620356.7318625,1.1098819,-2.4192874,-0.28087005,-2.872286,0.024587307,6.8012156
143,1778620356.7418635,1.589422,-2.6710095,-0.099152125,-2.5185955,-1.0193806,8.119462
144,1778620356.7518644,1.589422,-2.6710095,-0.099152125,-2.5185955,-1.0193806,8.119462
145,1778620356.7618654,1.589422,-2.6710095,-0.099152125,-2.5185955,-1.0193806,8.119462
146,1778620356.7721736,2.3131227,-2.7263787,0.18574256,-2.1881177,-1.582598,9.421825
147,1778620356.7821743,2.3131227,-2.7263787,0.18574256,-2.1881177,-1.582598,9.421825
148,1778620356.7921746,2.3131227,-2.7263787,0.18574256,-2.1881177,-1.582598,9.421825
149,1778620356.8021765,2.3131227,-2.7263787,0.18574256,-2.1881177,-1.582598,9.421825
150,1778620356.8121777,2.3131227,-2.7263787,0.18574256,-2.1881177,-1.582598,9.421825
151,1778620356.8224127,2.3131227,-2.7263787,0.18574256,-2.1881177,-1.582598,9.421825
152,1778620356.8324137,2.3131227,-2.7263787,0.18574256,-2.1881177,-1.582598,9.421825
153,1778620356.8424149,3.0243838,-2.6107621,0.34355664,-2.1881177,-1.582598,9.421825
154,1778620356.852416,4.633746,-1.9780421,0.52381104,-1.5338814,-2.0755658,11.274578
155,1778620356.862417,4.633746,-1.9780421,0.52381104,-1.5338814,-2.0755658,11.274578
156,1778620356.8724177,4.633746,-1.9780421,0.52381104,-1.698815,-1.9081888,10.757787
157,1778620356.8824186,4.633746,-1.9780421,0.52381104,-1.698815,-1.9081888,10.757787
158,1778620356.892419,4.633746,-1.9780421,0.52381104,-1.698815,-1.9081888,10.757787
159,1778620356.90242,5.140361,-1.65095,0.54308045,-1.698815,-1.9081888,10.757787
160,1778620356.9127617,5.140361,-1.65095,0.54308045,-1.698815,-1.9081888,10.757787
161,1778620356.9227624,5.140361,-1.65095,0.54308045,-1.698815,-1.9081888,10.757787
162,1778620356.9327633,5.140361,-1.65095,0.54308045,-1.698815,-1.9081888,10.757787
163,1778620356.9427643,5.140361,-1.65095,0.54308045,-1.698815,-1.9081888,10.757787
164,1778620356.9527655,5.140361,-1.65095,0.54308045,-1.698815,-1.9081888,10.757787
165,1778620356.9627662,5.140361,-1.65095,0.54308045,-1.698815,-1.9081888,10.757787
166,1778620356.972767,5.140361,-1.65095,0.54308045,-1.698815,-1.9081888,10.757787
167,1778620356.9827685,5.140361,-1.65095,0.54308045,-1.698815,-1.9081888,10.757787
168,1778620356.992773,5.140361,-1.65095,0.54308045,-1.698815,-1.9081888,10.757787
169,1778620357.0029786,5.140361,-1.65095,0.54308045,-1.698815,-1.9081888,10.757787
170,1778620357.0129797,5.140361,-1.65095,0.54308045,-1.698815,-1.9081888,10.757787
171,1778620357.0229812,5.140361,-1.65095,0.54308045,-1.698815,-1.9081888,10.757787
172,1778620357.0329828,5.140361,-1.65095,0.54308045,-1.698815,-1.9081888,10.757787
173,1778620357.0429864,5.140361,-1.65095,0.54308045,-1.698815,-1.9081888,10.757787
174,1778620357.0529892,5.140361,-1.65095,0.54308045,-1.698815,-1.9081888,10.757787
175,1778620357.0629907,5.140361,-1.65095,0.54308045,-1.698815,-1.9081888,10.757787
176,1778620357.0729926,5.310127,-1.3958131,0.550398,-1.806938,-1.7646357,9.016822
177,1778620357.0829937,5.310127,-1.3958131,0.550398,-1.806938,-1.7646357,9.016822
178,1778620357.0932848,5.037672,-1.1848252,0.55527633,-1.806938,-1.7646357,9.016822
179,1778620357.1032858,5.037672,-1.1848252,0.55527633,-1.806938,-1.7646357,9.016822
180,1778620357.1132867,5.037672,-1.1848252,0.55527633,-1.806938,-1.7646357,9.016822
181,1778620357.123288,5.037672,-1.1848252,0.55527633,-1.806938,-1.7646357,9.016822
182,1778620357.1339204,4.261773,-0.9943263,0.72260314,-1.7831143,-1.3400846,8.058375
183,1778620357.1439216,4.261773,-0.9943263,0.72260314,-1.7831143,-1.3400846,8.058375
184,1778620357.153923,4.261773,-0.9943263,0.72260314,-1.7831143,-1.3400846,8.058375
185,1778620357.163924,4.261773,-0.9943263,0.72260314,-1.7831143,-1.3400846,8.058375
186,1778620357.173925,4.261773,-0.9943263,0.72260314,-1.7831143,-1.3400846,8.058375
187,1778620357.1839259,4.261773,-0.9943263,0.72260314,-1.7831143,-1.3400846,8.058375
188,1778620357.1939263,4.261773,-0.9943263,0.72260314,-1.7831143,-1.3400846,8.058375
189,1778620357.2039275,4.261773,-0.9943263,0.72260314,-1.7831143,-1.3400846,8.058375
190,1778620357.2139282,4.261773,-0.9943263,0.72260314,-1.7831143,-1.3400846,8.058375
191,1778620357.2239287,4.261773,-0.9943263,0.72260314,-1.7831143,-1.3400846,8.058375
192,1778620357.2339294,4.261773,-0.9943263,0.72260314,-1.7831143,-1.3400846,8.058375
193,1778620357.2439394,4.261773,-0.9943263,0.72260314,-1.7831143,-1.3400846,8.058375
194,1778620357.253942,4.261773,-0.9943263,0.72260314,-1.7831143,-1.3400846,8.058375
195,1778620357.263943,4.261773,-0.9943263,0.72260314,-1.7831143,-1.3400846,8.058375
196,1778620357.273944,4.261773,-0.9943263,0.72260314,-1.7831143,-1.3400846,8.058375
197,1778620357.2839453,3.5256324,-0.96944684,0.78138703,-2.2913537,-0.8336777,7.6387115
198,1778620357.2939463,3.5256324,-0.96944684,0.78138703,-3.8295114,0.099723674,6.921556
199,1778620357.303947,3.5256324,-0.96944684,0.78138703,-3.8295114,0.099723674,6.921556
200,1778620357.313948,3.5256324,-0.96944684,0.78138703,-3.8295114,0.099723674,6.921556
201,1778620357.32395,3.5256324,-0.96944684,0.78138703,-3.8295114,0.099723674,6.921556
202,1778620357.3339574,3.5256324,-0.96944684,0.78138703,-3.8295114,0.099723674,6.921556
203,1778620357.3439584,3.03536,-1.1911671,0.7850458,-4.617527,0.10766492,6.6796536
204,1778620357.3539593,3.03536,-1.1911671,0.7850458,-4.617527,0.10766492,6.6796536
205,1778620357.3642323,3.03536,-1.1911671,0.7850458,-4.617527,0.10766492,6.6796536
206,1778620357.374233,2.8912053,-1.2101926,1.0009121,-4.617527,0.10766492,6.6796536
207,1778620357.384234,2.827299,1.4892333,0.56234986,-2.4324636,0.41737336,4.527577
208,1778620357.3942347,2.827299,1.4892333,0.56234986,-2.4324636,0.41737336,4.527577
209,1778620357.4042354,2.827299,1.4892333,0.56234986,-2.4324636,0.41737336,4.527577
210,1778620357.4142358,2.827299,1.4892333,0.56234986,-2.4324636,0.41737336,4.527577
211,1778620357.4242365,2.7587585,1.5082587,0.5986935,-3.902815,0.87368935,3.2960737
212,1778620357.434239,2.7587585,1.5082587,0.5986935,-3.902815,0.87368935,3.2960737
213,1778620357.4442403,2.7587585,1.5082587,0.5986935,-3.902815,0.87368935,3.2960737
214,1778620357.454436,2.5006948,1.4309372,0.9662759,-3.902815,0.87368935,3.2960737
215,1778620357.464437,2.5006948,1.4309372,0.9662759,-4.860651,1.1583524,2.7688973
216,1778620357.4744372,2.5006948,1.4309372,0.9662759,-4.860651,1.1583524,2.7688973
217,1778620357.484438,2.5006948,1.4309372,0.9662759,-4.860651,1.1583524,2.7688973
218,1778620357.494447,2.5006948,1.4309372,0.9662759,-4.860651,1.1583524,2.7688973
219,1778620357.50445,2.5006948,1.4309372,0.9662759,-4.860651,1.1583524,2.7688973
220,1778620357.514451,2.5006948,1.4309372,0.9662759,-4.860651,1.1583524,2.7688973
221,1778620357.5244515,2.5006948,1.4309372,0.9662759,-4.860651,1.1583524,2.7688973
222,1778620357.5344522,2.5006948,1.4309372,0.9662759,-4.860651,1.1583524,2.7688973
223,1778620357.5448196,2.3484907,1.4584998,1.3043444,-5.5454307,1.5651883,2.62229
224,1778620357.55482,2.3484907,1.4584998,1.3043444,-5.5454307,1.5651883,2.62229
225,1778620357.5648205,2.3484907,1.4584998,1.3043444,-5.980366,2.0801473,2.6772676
226,1778620357.5748236,2.3484907,1.4584998,1.3043444,-5.980366,2.0801473,2.6772676
227,1778620357.5848255,2.3484907,1.4584998,1.3043444,-5.980366,2.0801473,2.6772676
228,1778620357.5948262,2.3484907,1.4584998,1.3043444,-5.980366,2.0801473,2.6772676
229,1778620357.604827,2.3484907,1.4584998,1.3043444,-5.980366,2.0801473,2.6772676
230,1778620357.6148276,2.3484907,1.4584998,1.3043444,-5.980366,2.0801473,2.6772676
231,1778620357.6248286,2.488011,1.9863353,1.770957,-5.980366,2.0801473,2.6772676
232,1778620357.6351652,2.488011,1.9863353,1.770957,-5.980366,2.0801473,2.6772676
233,1778620357.6451676,2.488011,1.9863353,1.770957,-5.980366,2.0801473,2.6772676
234,1778620357.6551688,2.488011,1.9863353,1.770957,-5.980366,2.0801473,2.6772676
235,1778620357.6655128,2.488011,1.9863353,1.770957,-5.980366,2.0801473,2.6772676
236,1778620357.6755145,2.488011,1.9863353,1.770957,-5.980366,2.0801473,2.6772676
237,1778620357.6855154,2.488011,1.9863353,1.770957,-6.062833,2.2096505,2.964374
238,1778620357.6955163,2.488011,1.9863353,1.770957,-6.062833,2.2096505,2.964374
239,1778620357.705517,2.9136455,2.292207,1.9392594,-5.8667455,1.981798,3.199557
240,1778620357.715518,4.5734987,3.1927474,2.6471057,-4.543612,0.73868823,3.009578
241,1778620357.725519,4.5734987,3.1927474,2.6471057,-4.543612,0.73868823,3.009578
242,1778620357.73552,4.5734987,3.1927474,2.6471057,-4.543612,0.73868823,3.009578
243,1778620357.7455227,4.5734987,3.1927474,2.6471057,-4.543612,0.73868823,3.009578
244,1778620357.755524,4.5734987,3.1927474,2.6471057,-4.543612,0.73868823,3.009578
245,1778620357.7655256,4.5734987,3.1927474,2.6471057,-4.543612,0.73868823,3.009578
246,1778620357.775527,5.9421153,2.9217558,3.7047284,-0.14355323,0.423482,-1.8382448
247,1778620357.7855282,5.9421153,2.9217558,3.7047284,-0.14355323,0.423482,-1.8382448
248,1778620357.7955294,5.9421153,2.9217558,3.7047284,1.2113448,0.798553,-2.9304712
249,1778620357.8055315,5.9421153,2.9217558,3.7047284,1.2113448,0.798553,-2.9304712
250,1778620357.8155327,5.9421153,2.9217558,3.7047284,1.2113448,0.798553,-2.9304712
251,1778620357.8255336,5.9872394,1.3587378,3.1103034,1.8307618,0.82176584,-3.3061528
252,1778620357.8355348,5.9872394,1.3587378,3.1103034,1.8307618,0.82176584,-3.3061528
253,1778620357.845536,5.9872394,1.3587378,3.1103034,1.8307618,0.82176584,-3.3061528
254,1778620357.8555381,5.9013805,0.6708928,2.8144326,1.8307618,0.82176584,-3.3061528
255,1778620357.8655393,5.9013805,0.6708928,2.8144326,1.8307618,0.82176584,-3.3061528
256,1778620357.8755407,3.041946,0.31331098,1.5941174,1.3322961,4.191296,-5.4087496
257,1778620357.8855443,3.041946,0.31331098,1.5941174,1.3322961,4.191296,-5.4087496
258,1778620357.8955455,3.041946,0.31331098,1.5941174,1.3322961,4.191296,-5.4087496
259,1778620357.9055467,3.041946,0.31331098,1.5941174,1.3322961,4.191296,-5.4087496
260,1778620357.9155478,3.041946,0.31331098,1.5941174,1.3322961,4.191296,-5.4087496
261,1778620357.9255486,3.041946,0.31331098,1.5941174,1.3322961,4.191296,-5.4087496
262,1778620357.9355497,2.9348664,0.30721304,1.5738723,1.3322961,4.191296,-5.4087496
263,1778620357.945551,2.9348664,0.30721304,1.5738723,1.3322961,4.191296,-5.4087496
264,1778620357.9555523,2.9348664,0.30721304,1.5738723,2.8270822,3.7392561,-5.7887073
265,1778620357.965553,2.9348664,0.30721304,1.5738723,2.8270822,3.7392561,-5.7887073
266,1778620357.9755542,2.9348664,0.30721304,1.5738723,2.8270822,3.7392561,-5.7887073
267,1778620357.9855552,2.5772846,-0.4016088,1.1577505,4.1447177,4.484511,-6.589551
268,1778620357.995556,3.1075594,-1.0262794,0.8838321,5.443416,2.9341362,-7.398336
269,1778620358.005558,3.1075594,-1.0262794,0.8838321,5.443416,2.9341362,-7.398336
270,1778620358.01556,3.0329208,-1.086283,0.71870047,5.3157454,2.8345654,-7.4374313
271,1778620358.0255623,3.0329208,-1.086283,0.71870047,5.1013317,2.6213734,-7.3928385
272,1778620358.0355647,3.0329208,-1.086283,0.71870047,5.1013317,2.6213734,-7.3928385
273,1778620358.0455654,3.0329208,-1.086283,0.71870047,5.1013317,2.6213734,-7.3928385
274,1778620358.0555732,3.085363,-1.0577446,0.6050353,5.1013317,2.6213734,-7.3928385
275,1778620358.0657372,3.085363,-1.0577446,0.6050353,5.1013317,2.6213734,-7.3928385
276,1778620358.0757382,3.2439086,-0.933591,0.5786923,4.84599,2.2249222,-7.487522
277,1778620358.0857885,3.3146448,-1.2106804,1.1040888,4.211302,1.7032437,-8.204678
278,1778620358.0957897,3.3146448,-1.2106804,1.1040888,4.211302,1.7032437,-8.204678
279,1778620358.1057906,3.3146448,-1.2106804,1.1040888,4.211302,1.7032437,-8.204678
280,1778620358.1157918,3.3146448,-1.2106804,1.1040888,4.211302,1.7032437,-8.204678
281,1778620358.1257925,3.3146448,-1.2106804,1.1040888,4.211302,1.7032437,-8.204678
282,1778620358.1357934,3.3146448,-1.2106804,1.1040888,4.211302,1.7032437,-8.204678
283,1778620358.1457944,3.3146448,-1.2106804,1.1040888,4.211302,1.7032437,-8.204678
284,1778620358.155941,3.3146448,-1.2106804,1.1040888,4.241845,1.8999422,-8.072731
285,1778620358.165942,3.3146448,-1.2106804,1.1040888,4.241845,1.8999422,-8.072731
286,1778620358.1759424,3.3146448,-1.2106804,1.1040888,4.241845,1.8999422,-8.072731
287,1778620358.1859431,3.3146448,-1.2106804,1.1040888,4.241845,1.8999422,-8.072731
288,1778620358.1959445,3.3146448,-1.2106804,1.1040888,4.4690866,1.977522,-7.6451254
289,1778620358.2059455,3.3146448,-1.2106804,1.1040888,4.4690866,1.977522,-7.6451254
290,1778620358.215947,3.3146448,-1.2106804,1.1040888,4.4690866,1.977522,-7.6451254
291,1778620358.2259483,3.2312253,-1.2111683,0.968715,4.745198,1.6916373,-7.4539247
292,1778620358.2359488,3.2312253,-1.2111683,0.968715,4.745198,1.6916373,-7.4539247
293,1778620358.246326,3.1451225,-1.0616473,0.58479017,4.9938197,1.0001384,-7.4954634
294,1778620358.2563267,3.1451225,-1.0616473,0.58479017,4.9938197,1.0001384,-7.4954634
295,1778620358.2663274,3.1451225,-1.0616473,0.58479017,4.9938197,1.0001384,-7.4954634
296,1778620358.2763288,3.1451225,-1.0616473,0.58479017,5.0622363,0.2035707,-7.5363917
297,1778620358.286329,3.1451225,-1.0616473,0.58479017,5.0622363,0.2035707,-7.5363917
298,1778620358.2963297,3.1451225,-1.0616473,0.58479017,5.0622363,0.2035707,-7.5363917
299,1778620358.306331,2.9673073,-1.1265291,0.5255185,5.0622363,0.2035707,-7.5363917
300,1778620358.3163323,2.9673073,-1.1265291,0.5255185,5.0622363,0.2035707,-7.5363917
301,1778620358.3263338,2.9673073,-1.1265291,0.5255185,5.0622363,0.2035707,-7.5363917
302,1778620358.33654,-0.14043503,-2.4605093,-0.036465544,4.7671885,-1.4530946,-4.037358
303,1778620358.346542,-0.14043503,-2.4605093,-0.036465544,4.7671885,-1.4530946,-4.037358
304,1778620358.3565435,-2.0512784,-3.721315,-0.29404154,-3.5399613,0.0923933,4.275901
305,1778620358.3665538,-2.0512784,-3.721315,-0.29404154,-3.5399613,0.0923933,4.275901
306,1778620358.376557,-2.0512784,-3.721315,-0.29404154,-3.5399613,0.0923933,4.275901
307,1778620358.386559,-1.428559,-3.436664,-0.1630583,-2.760498,-0.23503022,5.2215195
308,1778620358.3965604,-1.428559,-3.436664,-0.1630583,-2.760498,-0.23503022,5.2215195
309,1778620358.4065628,-1.428559,-3.436664,-0.1630583,-2.760498,-0.23503022,5.2215195
310,1778620358.4165802,-0.25556368,-3.0378602,-0.3213602,-2.0744967,-0.35048366,6.0467978
311,1778620358.4265826,-0.25556368,-3.0378602,-0.3213602,-2.0744967,-0.35048366,6.0467978
312,1778620358.4365838,-0.25556368,-3.0378602,-0.3213602,-2.0744967,-0.35048366,6.0467978
313,1778620358.4465845,-0.25556368,-3.0378602,-0.3213602,-2.0744967,-0.35048366,6.0467978
314,1778620358.4565847,-0.25556368,-3.0378602,-0.3213602,-2.0744967,-0.35048366,6.0467978
315,1778620358.4665859,4.077616,-0.96359277,0.105250046,0.38545567,-1.6717842,9.258725
316,1778620358.476588,4.077616,-0.96359277,0.105250046,0.38545567,-1.6717842,9.258725
317,1778620358.4865892,4.077616,-0.96359277,0.105250046,0.38545567,-1.6717842,9.258725
318,1778620358.4965901,4.077616,-0.96359277,0.105250046,0.5839867,-2.3535092,8.581886
319,1778620358.506599,4.077616,-0.96359277,0.105250046,0.5839867,-2.3535092,8.581886
320,1778620358.5166023,4.077616,-0.96359277,0.105250046,0.5839867,-2.3535092,8.581886
321,1778620358.526603,3.825162,-0.9196878,0.21793956,0.5839867,-2.3535092,8.581886
322,1778620358.5368397,3.825162,-0.9196878,0.21793956,0.5839867,-2.3535092,8.581886
323,1778620358.5468426,3.825162,-0.9196878,0.21793956,0.5839867,-2.3535092,8.581886
324,1778620358.5568435,3.825162,-0.9196878,0.21793956,0.5839867,-2.3535092,8.581886
325,1778620358.5668871,3.825162,-0.9196878,0.21793956,0.5839867,-2.3535092,8.581886
326,1778620358.576888,3.825162,-0.9196878,0.21793956,0.5839867,-2.3535092,8.581886
327,1778620358.5868971,2.8185182,1.3467859,0.84139055,-0.948673,0.29397866,4.859277
328,1778620358.5969007,2.8185182,1.3467859,0.84139055,-0.948673,0.29397866,4.859277
329,1778620358.6069024,2.8185182,1.3467859,0.84139055,-0.948673,0.29397866,4.859277
330,1778620358.6169033,2.8185182,1.3467859,0.84139055,-1.2699878,0.7356339,4.283842
331,1778620358.6269042,2.8185182,1.3467859,0.84139055,-1.2699878,0.7356339,4.283842
332,1778620358.636905,2.8185182,1.3467859,0.84139055,-1.2699878,0.7356339,4.283842
333,1778620358.6469057,2.8185182,1.3467859,0.84139055,-1.2699878,0.7356339,4.283842
334,1778620358.6569066,2.909499,1.5197228,0.88919824,-1.2699878,0.7356339,4.283842
335,1778620358.6669073,2.909499,1.5197228,0.88919824,-1.2699878,0.7356339,4.283842
336,1778620358.676908,2.909499,1.5197228,0.88919824,-1.2699878,0.7356339,4.283842
337,1778620358.686909,2.6777782,1.3160524,0.66162395,-2.2504258,1.1339177,3.3119562
338,1778620358.69691,2.6777782,1.3160524,0.66162395,-2.2504258,1.1339177,3.3119562
339,1778620358.7069106,2.6777782,1.3160524,0.66162395,-2.2504258,1.1339177,3.3119562
340,1778620358.7169123,2.6777782,1.3160524,0.66162395,-2.2504258,1.1339177,3.3119562
341,1778620358.7269218,3.4592872,2.3641624,1.2811724,0.16737695,-1.2563962,4.690678
342,1778620358.7369235,3.4592872,2.3641624,1.2811724,0.16737695,-1.2563962,4.690678
343,1778620358.7469244,3.4592872,2.3641624,1.2811724,0.16737695,-1.2563962,4.690678
344,1778620358.7575042,4.758875,3.0590808,1.1758003,0.16737695,-1.2563962,4.690678
345,1778620358.7675073,4.758875,3.0590808,1.1758003,0.16737695,-1.2563962,4.690678
346,1778620358.777508,4.758875,3.0590808,1.1758003,0.16737695,-1.2563962,4.690678
347,1778620358.7878697,4.758875,3.0590808,1.1758003,0.16737695,-1.2563962,4.690678
348,1778620358.7978714,4.758875,3.0590808,1.1758003,0.16737695,-1.2563962,4.690678
349,1778620358.807872,4.758875,3.0590808,1.1758003,0.16737695,-1.2563962,4.690678
350,1778620358.817873,4.758875,3.0590808,1.1758003,0.16737695,-1.2563962,4.690678
351,1778620358.8278737,4.758875,3.0590808,1.1758003,0.16737695,-1.2563962,4.690678
352,1778620358.8378744,3.2478116,1.0282307,0.83480483,-0.5852085,1.6733114,-6.712946
353,1778620358.8478832,3.2478116,1.0282307,0.83480483,-0.5852085,1.6733114,-6.712946
354,1778620358.8578904,3.2478116,1.0282307,0.83480483,-0.5852085,1.6733114,-6.712946
355,1778620358.8678913,3.2478116,1.0282307,0.83480483,-0.5852085,1.6733114,-6.712946
356,1778620358.877892,3.2478116,1.0282307,0.83480483,-0.5852085,1.6733114,-6.712946
357,1778620358.8878932,3.2478116,1.0282307,0.83480483,-0.5852085,1.6733114,-6.712946
358,1778620358.8978941,3.1478057,1.0784776,0.86675787,-0.5852085,1.6733114,-6.712946
359,1778620358.9078948,3.1478057,1.0784776,0.86675787,-0.5852085,1.6733114,-6.712946
360,1778620358.9178958,3.1090229,0.88090503,0.8740754,-0.2272417,1.9066617,-7.385508
361,1778620358.927899,3.0438972,0.6984554,0.9448112,-0.11423171,2.320828,-7.854041
362,1778620358.9379005,3.0438972,0.6984554,0.9448112,-0.11423171,2.320828,-7.854041
363,1778620358.9479017,3.0221884,0.098420374,0.6982115,0.29749113,3.1729844,-8.283479
364,1778620358.957903,3.0221884,0.098420374,0.6982115,0.29749113,3.1729844,-8.283479
365,1778620358.9679039,3.0221884,0.098420374,0.6982115,0.29749113,3.1729844,-8.283479
366,1778620358.977905,3.1024373,-0.18818171,0.5791801,1.0464114,3.2585053,-8.237054
367,1778620358.987906,3.1024373,-0.18818171,0.5791801,1.0464114,3.2585053,-8.237054
368,1778620358.9979067,3.1024373,-0.18818171,0.5791801,1.0464114,3.2585053,-8.237054
369,1778620359.0079074,3.664421,-0.37721714,0.25745404,1.3432916,3.165043,-8.41848
370,1778620359.0179083,3.664421,-0.37721714,0.25745404,1.3432916,3.165043,-8.41848
371,1778620359.0279093,3.8015025,-0.48307696,0.26062497,1.6401719,3.066083,-8.820429
372,1778620359.0380425,3.8015025,-0.48307696,0.26062497,1.6401719,3.066083,-8.820429
373,1778620359.048043,3.8015025,-0.48307696,0.26062497,1.6401719,3.066083,-8.820429
374,1778620359.058044,3.8015025,-0.48307696,0.26062497,1.6401719,3.066083,-8.820429
375,1778620359.068047,3.892971,-0.6816251,0.25769794,1.6401719,3.066083,-8.820429
376,1778620359.078049,3.892971,-0.6816251,0.25769794,1.6401719,3.066083,-8.820429
377,1778620359.08805,3.892971,-0.6816251,0.25769794,1.6401719,3.066083,-8.820429
378,1778620359.0980551,3.892971,-0.6816251,0.25769794,2.0109668,3.0318747,-9.254754
379,1778620359.1080577,3.892971,-0.6816251,0.25769794,2.0109668,3.0318747,-9.254754
380,1778620359.1180587,3.892971,-0.6816251,0.25769794,2.0109668,3.0318747,-9.254754
381,1778620359.1284087,3.892971,-0.6816251,0.25769794,2.0109668,3.0318747,-9.254754
382,1778620359.1384091,3.8605301,-0.87895375,0.20232888,2.2760823,3.0129378,-9.528421
383,1778620359.14841,3.8605301,-0.87895375,0.20232888,2.2760823,3.0129378,-9.528421
384,1778620359.1584105,3.8605301,-0.87895375,0.20232888,2.2760823,3.0129378,-9.528421
385,1778620359.168412,3.8605301,-0.87895375,0.20232888,2.2760823,3.0129378,-9.528421
386,1778620359.1784134,3.8605301,-0.87895375,0.20232888,2.5766277,2.6855142,-9.6689205
387,1778620359.1884148,3.8605301,-0.87895375,0.20232888,2.5766277,2.6855142,-9.6689205
388,1778620359.1984158,3.8605301,-0.87895375,0.20232888,2.5766277,2.6855142,-9.6689205
389,1778620359.2090926,3.732962,-1.1548235,-0.007683375,2.5766277,2.6855142,-9.6689205
390,1778620359.219094,3.732962,-1.1548235,-0.007683375,2.5766277,2.6855142,-9.6689205
391,1778620359.229095,3.732962,-1.1548235,-0.007683375,2.5766277,2.6855142,-9.6689205
392,1778620359.2390962,3.732962,-1.1548235,-0.007683375,2.5766277,2.6855142,-9.6689205
393,1778620359.249097,3.732962,-1.1548235,-0.007683375,2.5766277,2.6855142,-9.6689205
394,1778620359.2590985,3.732962,-1.1548235,-0.007683375,2.5766277,2.6855142,-9.6689205
395,1778620359.269099,3.732962,-1.1548235,-0.007683375,2.5766277,2.6855142,-9.6689205
396,1778620359.2791002,3.615638,-1.1709219,-0.04329521,2.3848162,2.1736095,-9.33661
397,1778620359.2891011,3.615638,-1.1709219,-0.04329521,2.3848162,2.1736095,-9.33661
398,1778620359.2991016,3.615638,-1.1709219,-0.04329521,2.3848162,2.1736095,-9.33661
399,1778620359.3091028,3.615638,-1.1709219,-0.04329521,2.3848162,2.1736095,-9.33661
400,1778620359.3191042,3.615638,-1.1709219,-0.04329521,2.3848162,2.1736095,-9.33661
401,1778620359.329123,3.615638,-1.1709219,-0.04329521,2.3848162,2.1736095,-9.33661
402,1778620359.339133,3.615638,-1.1709219,-0.04329521,2.105651,2.1571162,-9.215659
403,1778620359.3491344,3.615638,-1.1709219,-0.04329521,2.105651,2.1571162,-9.215659
404,1778620359.3591352,3.615638,-1.1709219,-0.04329521,2.105651,2.1571162,-9.215659
405,1778620359.369136,3.615638,-1.1709219,-0.04329521,2.105651,2.1571162,-9.215659
406,1778620359.379137,3.615638,-1.1709219,-0.04329521,2.105651,2.1571162,-9.215659
407,1778620359.389138,3.536121,-1.1726295,-0.032318957,2.105651,2.1571162,-9.215659
408,1778620359.3993058,3.536121,-1.1726295,-0.032318957,2.105651,2.1571162,-9.215659
409,1778620359.4093072,3.536121,-1.1726295,-0.032318957,2.105651,2.1571162,-9.215659
410,1778620359.4193094,3.1600013,-1.1482377,-0.063540295,1.8704679,2.203542,-9.126472
411,1778620359.429311,3.1600013,-1.1482377,-0.063540295,1.8704679,2.203542,-9.126472
412,1778620359.4393115,3.1600013,-1.1482377,-0.063540295,1.8704679,2.203542,-9.126472
413,1778620359.4493124,1.8313873,-1.1555552,-0.3738023,2.2876885,0.9659299,-5.982962
414,1778620359.4593134,1.8313873,-1.1555552,-0.3738023,2.2876885,0.9659299,-5.982962
415,1778620359.4693143,1.8313873,-1.1555552,-0.3738023,2.2876885,0.9659299,-5.982962
416,1778620359.479315,1.8313873,-1.1555552,-0.3738023,2.2876885,0.9659299,-5.982962
417,1778620359.4893236,1.8313873,-1.1555552,-0.3738023,2.2876885,0.9659299,-5.982962
418,1778620359.4993265,1.8313873,-1.1555552,-0.3738023,2.2876885,0.9659299,-5.982962
419,1778620359.5093277,-0.30654228,-1.9824327,-0.53576297,2.3231187,-0.23930627,-2.659858
420,1778620359.519329,-0.30654228,-1.9824327,-0.53576297,2.3231187,-0.23930627,-2.659858
421,1778620359.5293336,-0.30654228,-1.9824327,-0.53576297,2.3231187,-0.23930627,-2.659858
422,1778620359.5393362,-0.30654228,-1.9824327,-0.53576297,2.3231187,-0.23930627,-2.659858
423,1778620359.5493376,-0.30654228,-1.9824327,-0.53576297,2.3231187,-0.23930627,-2.659858
424,1778620359.5593393,-0.63802505,-2.022191,-0.4686859,2.2742496,-0.8532254,-2.1253512
425,1778620359.5693405,-0.63802505,-2.022191,-0.4686859,2.2742496,-0.8532254,-2.1253512
426,1778620359.5793414,-0.63802505,-2.022191,-0.4686859,2.2742496,-0.8532254,-2.1253512
427,1778620359.5893428,-0.63802505,-2.022191,-0.4686859,2.2742496,-0.8532254,-2.1253512
428,1778620359.5993524,-0.63802505,-2.022191,-0.4686859,2.2742496,-0.8532254,-2.1253512
429,1778620359.6093557,-0.63802505,-2.022191,-0.4686859,2.2742496,-0.8532254,-2.1253512
430,1778620359.619356,-0.63802505,-2.022191,-0.4686859,2.2742496,-0.8532254,-2.1253512
431,1778620359.629357,-0.63802505,-2.022191,-0.4686859,2.2742496,-0.8532254,-2.1253512
432,1778620359.6393583,-2.2266543,-4.465504,-0.30111513,-0.320704,0.48517936,3.787209
433,1778620359.6493597,-2.2266543,-4.465504,-0.30111513,-0.320704,0.48517936,3.787209
434,1778620359.6593604,-2.2266543,-4.465504,-0.30111513,-0.320704,0.48517936,3.787209
435,1778620359.6693609,-1.2370844,-3.9427912,-0.23476979,0.80511975,0.23900084,5.084075
436,1778620359.679362,0.6154627,-3.1305485,-0.53820217,1.0592395,0.25671592,8.935577
437,1778620359.6893625,0.6154627,-3.1305485,-0.53820217,1.0592395,0.25671592,8.935577
438,1778620359.6993642,1.6696706,-2.9624898,-0.40112096,0.8655954,0.229227,10.18052
439,1778620359.7093651,4.946691,-2.1500034,0.07549221,-0.0073303776,0.47174034,12.936131
440,1778620359.719366,4.946691,-2.1500034,0.07549221,-0.0073303776,0.47174034,12.936131
441,1778620359.7293673,4.946691,-2.1500034,0.07549221,-0.0073303776,0.47174034,12.936131
442,1778620359.739612,4.946691,-2.1500034,0.07549221,-0.0073303776,0.47174034,12.936131
443,1778620359.7496142,4.946691,-2.1500034,0.07549221,-0.0073303776,0.47174034,12.936131
444,1778620359.7596152,4.1081057,-0.59430295,0.25769794,2.841743,0.05818487,8.627702
445,1778620359.769616,4.1081057,-0.59430295,0.25769794,2.841743,0.05818487,8.627702
446,1778620359.7796166,4.1081057,-0.59430295,0.25769794,2.841743,0.05818487,8.627702
447,1778620359.7896173,2.3621502,2.1348805,-0.40526757,-2.3677118,1.476002,1.686445
448,1778620359.7996178,2.3621502,2.1348805,-0.40526757,-2.3677118,1.476002,1.686445
449,1778620359.8096185,2.3621502,2.1348805,-0.40526757,-2.3677118,1.476002,1.686445
450,1778620359.8196194,2.3621502,2.1348805,-0.40526757,-2.3677118,1.476002,1.686445
451,1778620359.8299193,2.3621502,2.1348805,-0.40526757,-2.3677118,1.476002,1.686445
452,1778620359.8399208,3.4058692,3.1032298,-0.044758707,-2.9376488,0.9958623,2.5196645
453,1778620359.849922,3.4058692,3.1032298,-0.044758707,-2.9376488,0.9958623,2.5196645
454,1778620359.8599234,3.4058692,3.1032298,-0.044758707,-2.9376488,0.9958623,2.5196645
455,1778620359.8699248,3.4058692,3.1032298,-0.044758707,-2.6914701,0.49739665,2.865414
456,1778620359.8800328,3.4058692,3.1032298,-0.044758707,-2.6914701,0.49739665,2.865414
457,1778620359.8900387,3.4058692,3.1032298,-0.044758707,-2.6914701,0.49739665,2.865414
458,1778620359.900041,3.4058692,3.1032298,-0.044758707,-2.6914701,0.49739665,2.865414
459,1778620359.9100423,3.4058692,3.1032298,-0.044758707,-2.6914701,0.49739665,2.865414
460,1778620359.920043,3.4058692,3.1032298,-0.044758707,-1.9688172,0.42836893,2.8483098
461,1778620359.9300442,3.4058692,3.1032298,-0.044758707,-1.9688172,0.42836893,2.8483098
462,1778620359.9400446,3.4058692,3.1032298,-0.044758707,-1.9688172,0.42836893,2.8483098
463,1778620359.9500456,5.9967523,4.7986946,-0.18769388,-0.9957096,0.4827359,2.3706136
464,1778620359.9600465,5.9967523,4.7986946,-0.18769388,-0.086742796,0.33307403,1.3639083
465,1778620359.9700472,5.9967523,4.7986946,-0.18769388,-0.086742796,0.33307403,1.3639083
466,1778620359.980048,5.9967523,4.7986946,-0.18769388,-0.086742796,0.33307403,1.3639083
467,1778620359.9900491,5.9967523,4.7986946,-0.18769388,-0.086742796,0.33307403,1.3639083
468,1778620360.0000494,5.9967523,4.7986946,-0.18769388,-0.086742796,0.33307403,1.3639083
469,1778620360.0100505,5.9967523,4.7986946,-0.18769388,-0.086742796,0.33307403,1.3639083
470,1778620360.020346,6.563371,4.966753,-0.34648362,-0.086742796,0.33307403,1.3639083
471,1778620360.0303476,6.563371,4.966753,-0.34648362,-0.086742796,0.33307403,1.3639083
472,1778620360.0403488,6.563371,4.966753,-0.34648362,0.7703005,0.2695441,-0.16447534
473,1778620360.0503497,6.563371,4.966753,-0.34648362,0.7703005,0.2695441,-0.16447534
474,1778620360.0603502,6.563371,4.966753,-0.34648362,0.7703005,0.2695441,-0.16447534
475,1778620360.070351,5.5162363,2.216105,-0.983594,2.3170102,-1.319926,-4.576141
476,1778620360.0803518,5.5162363,2.216105,-0.983594,2.3170102,-1.319926,-4.576141
477,1778620360.090353,5.5162363,2.216105,-0.983594,2.3170102,-1.319926,-4.576141
478,1778620360.1003535,4.964497,1.8687676,-0.80333954,2.0347905,-1.9485059,-4.4478593
479,1778620360.110354,4.964497,1.8687676,-0.80333954,2.0347905,-1.9485059,-4.4478593
480,1778620360.1203547,4.964497,1.8687676,-0.80333954,2.0347905,-1.9485059,-4.4478593
481,1778620360.1317005,4.964497,1.8687676,-0.80333954,2.0347905,-1.9485059,-4.4478593
482,1778620360.1417034,4.964497,1.8687676,-0.80333954,2.0347905,-1.9485059,-4.4478593
483,1778620360.151705,4.964497,1.8687676,-0.80333954,2.0347905,-1.9485059,-4.4478593
484,1778620360.161713,4.738386,1.9312103,-0.49478498,1.5186099,-2.1940737,-4.2609344
485,1778620360.1717167,4.738386,1.9312103,-0.49478498,1.5186099,-2.1940737,-4.2609344
486,1778620360.1817183,4.738386,1.9312103,-0.49478498,1.5186099,-2.1940737,-4.2609344
487,1778620360.191719,4.738386,1.9312103,-0.49478498,1.5186099,-2.1940737,-4.2609344
488,1778620360.2017207,4.738386,1.9312103,-0.49478498,0.71226835,-1.9155192,-4.4374743
489,1778620360.2117229,4.738386,1.9312103,-0.49478498,0.71226835,-1.9155192,-4.4374743
490,1778620360.2217243,4.738386,1.9312103,-0.49478498,0.71226835,-1.9155192,-4.4374743
491,1778620360.2317274,4.6203303,2.081219,-0.17013188,0.71226835,-1.9155192,-4.4374743
492,1778620360.241729,4.6203303,2.081219,-0.17013188,0.71226835,-1.9155192,-4.4374743
493,1778620360.2517297,4.6203303,2.081219,-0.17013188,0.71226835,-1.9155192,-4.4374743
494,1778620360.2617311,4.6203303,2.081219,-0.17013188,0.71226835,-1.9155192,-4.4374743
495,1778620360.2717328,4.2137213,1.9585289,-0.25891754,-0.2669479,-1.3070979,-5.0379543
496,1778620360.2817345,4.2137213,1.9585289,-0.25891754,-0.2669479,-1.3070979,-5.0379543
497,1778620360.2917366,4.2137213,1.9585289,-0.25891754,-0.2669479,-1.3070979,-5.0379543
498,1778620360.3017375,4.2137213,1.9585289,-0.25891754,-0.2669479,-1.3070979,-5.0379543
499,1778620360.311739,4.2137213,1.9585289,-0.25891754,-0.2669479,-1.3070979,-5.0379543
500,1778620360.3217409,4.2137213,1.9585289,-0.25891754,-1.3762784,-0.41951138,-5.9872384
501,1778620360.331742,4.2137213,1.9585289,-0.25891754,-1.3762784,-0.41951138,-5.9872384
502,1778620360.341743,4.2137213,1.9585289,-0.25891754,-1.3762784,-0.41951138,-5.9872384
503,1778620360.3517444,4.2137213,1.9585289,-0.25891754,-1.3762784,-0.41951138,-5.9872384
504,1778620360.3617454,4.2137213,1.9585289,-0.25891754,-1.3762784,-0.41951138,-5.9872384
505,1778620360.3717468,3.4939234,1.5321625,-0.28233355,-2.9003859,0.66110843,-7.601754
506,1778620360.3817482,3.4939234,1.5321625,-0.28233355,-2.9003859,0.66110843,-7.601754
507,1778620360.3917487,3.4939234,1.5321625,-0.28233355,-2.9003859,0.66110843,-7.601754
508,1778620360.4017498,2.9441352,1.126773,0.022806209,-2.9003859,0.66110843,-7.601754
509,1778620360.4117515,2.9441352,1.126773,0.022806209,-2.9003859,0.66110843,-7.601754
510,1778620360.4217527,2.9441352,1.126773,0.022806209,-2.9003859,0.66110843,-7.601754
511,1778620360.4317536,2.9441352,1.126773,0.022806209,-2.9003859,0.66110843,-7.601754
512,1778620360.441754,2.9441352,1.126773,0.022806209,-2.9003859,0.66110843,-7.601754
513,1778620360.451755,2.9441352,1.126773,0.022806209,-2.9003859,0.66110843,-7.601754
514,1778620360.4617562,2.9441352,1.126773,0.022806209,-2.9003859,0.66110843,-7.601754
515,1778620360.4717567,2.9441352,1.126773,0.022806209,-2.9003859,0.66110843,-7.601754
516,1778620360.481758,2.9441352,1.126773,0.022806209,-2.7776022,0.7979421,-7.920625
517,1778620360.4917665,2.9441352,1.126773,0.022806209,-2.448957,0.84253526,-8.151532
518,1778620360.5017698,2.9441352,1.126773,0.022806209,-2.448957,0.84253526,-8.151532
519,1778620360.5117712,3.014383,0.046710044,0.36136255,-0.62735814,0.8162681,-8.634727
520,1778620360.5217721,3.014383,0.046710044,0.36136255,-0.62735814,0.8162681,-8.634727
521,1778620360.5317752,3.014383,0.046710044,0.36136255,-0.62735814,0.8162681,-8.634727
522,1778620360.5417857,3.014383,0.046710044,0.36136255,-0.62735814,0.8162681,-8.634727
523,1778620360.5517864,3.014383,0.046710044,0.36136255,-0.62735814,0.8162681,-8.634727
524,1778620360.5617874,3.295619,-0.30233473,0.35428897,0.13500112,0.80710506,-8.871742
525,1778620360.5717883,3.295619,-0.30233473,0.35428897,0.13500112,0.80710506,-8.871742
526,1778620360.5817888,3.295619,-0.30233473,0.35428897,0.13500112,0.80710506,-8.871742
527,1778620360.59179,3.295619,-0.30233473,0.35428897,0.13500112,0.80710506,-8.871742
528,1778620360.6017923,3.295619,-0.30233473,0.35428897,0.13500112,0.80710506,-8.871742
529,1778620360.611794,3.295619,-0.30233473,0.35428897,0.13500112,0.80710506,-8.871742
530,1778620360.6217947,3.295619,-0.30233473,0.35428897,0.13500112,0.80710506,-8.871742
531,1778620360.631876,3.295619,-0.30233473,0.35428897,0.13500112,0.80710506,-8.871742
532,1778620360.6418772,3.295619,-0.30233473,0.35428897,0.13500112,0.80710506,-8.871742
533,1778620360.6518786,3.295619,-0.30233473,0.35428897,0.13500112,0.80710506,-8.871742
534,1778620360.6618795,3.295619,-0.30233473,0.35428897,0.13500112,0.80710506,-8.871742
535,1778620360.6718807,2.8526664,-0.83260953,0.1864743,0.17409647,0.5761982,-7.447205
536,1778620360.6818817,2.8407145,-0.8009004,0.1764737,0.49663305,0.49739665,-6.9230833
537,1778620360.6918828,2.8407145,-0.8009004,0.1764737,0.49663305,0.49739665,-6.9230833
538,1778620360.7018843,2.7265615,-0.7052851,0.10134738,0.49663305,0.49739665,-6.9230833
539,1778620360.712011,2.7265615,-0.7052851,0.10134738,0.49663305,0.49739665,-6.9230833
540,1778620360.7220118,2.7265615,-0.7052851,0.10134738,0.49663305,0.49739665,-6.9230833
541,1778620360.7320125,2.7265615,-0.7052851,0.10134738,0.49663305,0.49739665,-6.9230833
542,1778620360.742013,2.7265615,-0.7052851,0.10134738,0.49663305,0.49739665,-6.9230833
543,1778620360.752014,2.7265615,-0.7052851,0.10134738,0.49663305,0.49739665,-6.9230833
544,1778620360.7620149,2.7265615,-0.7052851,0.10134738,0.49663305,0.49739665,-6.9230833
545,1778620360.7720163,2.7265615,-0.7052851,0.10134738,0.49663305,0.49739665,-6.9230833
546,1778620360.7820168,2.7265615,-0.7052851,0.10134738,0.49663305,0.49739665,-6.9230833
547,1778620360.7920177,2.7265615,-0.7052851,0.10134738,0.49663305,0.49739665,-6.9230833
548,1778620360.8024378,2.5519173,-0.75162923,0.06305246,0.49663305,0.49739665,-6.9230833
549,1778620360.81244,2.5519173,-0.75162923,0.06305246,0.49663305,0.49739665,-6.9230833
550,1778620360.822441,2.5519173,-0.75162923,0.06305246,0.49663305,0.49739665,-6.9230833
551,1778620360.8324413,2.5519173,-0.75162923,0.06305246,0.49663305,0.49739665,-6.9230833
552,1778620360.842442,2.403128,-0.81431586,0.054759294,0.43493572,0.41065386,-6.921251
553,1778620360.852443,2.403128,-0.81431586,0.054759294,0.43493572,0.41065386,-6.921251
554,1778620360.8624434,2.403128,-0.81431586,0.054759294,0.43493572,0.41065386,-6.921251
555,1778620360.8724444,2.403128,-0.81431586,0.054759294,0.31459537,0.38438666,-6.886431
556,1778620360.882445,2.403128,-0.81431586,0.054759294,0.31459537,0.38438666,-6.886431
557,1778620360.892446,2.403128,-0.81431586,0.054759294,0.31459537,0.38438666,-6.886431
558,1778620360.9024475,2.403128,-0.81431586,0.054759294,0.31459537,0.38438666,-6.886431
559,1778620360.9124553,2.0992079,-0.91627294,0.07110171,0.31459537,0.38438666,-6.886431
560,1778620360.922459,2.0992079,-0.91627294,0.07110171,0.31459537,0.38438666,-6.886431
561,1778620360.9324603,2.0992079,-0.91627294,0.07110171,0.04459313,0.37766716,-6.618262
562,1778620360.942461,2.0992079,-0.91627294,0.07110171,0.04459313,0.37766716,-6.618262
563,1778620360.9524615,-2.4698393,-2.7327204,-0.550398,2.109927,-0.59849477,-0.8126029
564,1778620360.9624634,-2.4698393,-2.7327204,-0.550398,1.3738348,-0.6485857,-0.71058846
565,1778620360.972465,-2.4698393,-2.7327204,-0.550398,1.3738348,-0.6485857,-0.71058846
566,1778620360.9824662,-2.4698393,-2.7327204,-0.550398,1.3738348,-0.6485857,-0.71058846
567,1778620360.9924674,-2.6837542,-3.3159254,-0.5286894,-0.78801554,-0.3602575,-1.616501
568,1778620361.002468,-2.6837542,-3.3159254,-0.5286894,-0.78801554,-0.3602575,-1.616501
569,1778620361.0124695,-2.6837542,-3.3159254,-0.5286894,-2.8985534,-0.240528,-2.2065964
570,1778620361.0224707,-2.6837542,-3.3159254,-0.5286894,-4.0225444,-0.059101168,-2.1931572
571,1778620361.0324717,-2.6837542,-3.3159254,-0.5286894,-4.0225444,-0.059101168,-2.1931572
572,1778620361.0424726,-2.6837542,-3.3159254,-0.5286894,-4.0225444,-0.059101168,-2.1931572
573,1778620361.0524735,-2.6837542,-3.3159254,-0.5286894,-4.0225444,-0.059101168,-2.1931572
574,1778620361.062474,-2.6837542,-3.3159254,-0.5286894,-4.0225444,-0.059101168,-2.1931572
575,1778620361.0724752,-2.6837542,-3.3159254,-0.5286894,-4.0225444,-0.059101168,-2.1931572
576,1778620361.0825233,-2.7186344,-4.2467113,0.023537958,-4.0225444,-0.059101168,-2.1931572
577,1778620361.0925276,-2.7186344,-4.2467113,0.023537958,-4.0225444,-0.059101168,-2.1931572
578,1778620361.1025288,-2.2559245,-4.144266,0.24477036,-4.865538,-0.075594515,0.3358229
579,1778620361.1125298,-2.2559245,-4.144266,0.24477036,-4.865538,-0.075594515,0.3358229
580,1778620361.1225305,-2.2559245,-4.144266,0.24477036,-4.865538,-0.075594515,0.3358229
581,1778620361.1325312,-2.2559245,-4.144266,0.24477036,-4.865538,-0.075594515,0.3358229
582,1778620361.1425319,-2.2559245,-4.144266,0.24477036,-4.865538,-0.075594515,0.3358229
583,1778620361.1525328,-1.3687993,-3.945962,0.573814,-4.3243117,-0.21609342,1.5050181
584,1778620361.162534,-1.3687993,-3.945962,0.573814,-4.3243117,-0.21609342,1.5050181
585,1778620361.1725345,-1.3687993,-3.945962,0.573814,-4.3243117,-0.21609342,1.5050181
586,1778620361.1825356,4.607159,-0.91529727,0.68382037,-1.7446299,-0.38774642,11.630102
587,1778620361.1925364,4.607159,-0.91529727,0.68382037,-1.7446299,-0.38774642,11.630102
588,1778620361.2025373,4.607159,-0.91529727,0.68382037,-1.7446299,-0.38774642,11.630102
589,1778620361.2125387,4.607159,-0.91529727,0.68382037,-1.3469568,-0.45371982,10.987473
590,1778620361.2225394,4.607159,-0.91529727,0.68382037,-1.3469568,-0.45371982,10.987473
591,1778620361.2325404,4.607159,-0.91529727,0.68382037,-1.3469568,-0.45371982,10.987473
592,1778620361.2425416,4.607159,-0.91529727,0.68382037,-1.3469568,-0.45371982,10.987473
593,1778620361.2525444,4.607159,-0.91529727,0.68382037,-1.3469568,-0.45371982,10.987473
594,1778620361.262548,3.8563836,-1.2599516,0.8118766,0.037262753,-0.21364996,11.058332
595,1778620361.2725515,3.8563836,-1.2599516,0.8118766,0.037262753,-0.21364996,11.058332
596,1778620361.2825525,3.8563836,-1.2599516,0.8118766,0.037262753,-0.21364996,11.058332
597,1778620361.2925534,3.8563836,-1.2599516,0.8118766,0.037262753,-0.21364996,11.058332
598,1778620361.3025548,3.8849218,-1.1479938,0.37453404,0.56077385,0.21090107,11.369873
599,1778620361.3125556,3.8849218,-1.1479938,0.37453404,0.56077385,0.21090107,11.369873
600,1778620361.3225563,3.8849218,-1.1479938,0.37453404,0.56077385,0.21090107,11.369873
601,1778620361.333053,3.8849218,-1.1479938,0.37453404,0.56077385,0.21090107,11.369873
602,1778620361.3430567,3.8849218,-1.1479938,0.37453404,0.56077385,0.21090107,11.369873
603,1778620361.3530576,3.8849218,-1.1479938,0.37453404,0.52839804,0.24877468,11.220212
604,1778620361.363058,3.8849218,-1.1479938,0.37453404,0.52839804,0.24877468,11.220212
605,1778620361.3730586,3.8849218,-1.1479938,0.37453404,0.52839804,0.24877468,11.220212
606,1778620361.3830593,4.1268873,-0.5830828,0.12647079,0.45937032,-0.11346813,10.44258
607,1778620361.3930604,4.1268873,-0.5830828,0.12647079,0.45937032,-0.11346813,10.44258
608,1778620361.4030612,4.1268873,-0.5830828,0.12647079,0.45937032,-0.11346813,10.44258
609,1778620361.4130619,4.1268873,-0.5830828,0.12647079,0.45937032,-0.11346813,10.44258
610,1778620361.4230626,4.1268873,-0.5830828,0.12647079,0.45937032,-0.11346813,10.44258
611,1778620361.433063,4.1268873,-0.5830828,0.12647079,0.45937032,-0.11346813,10.44258
612,1778620361.4430685,3.6061249,-0.83090216,0.3999014,1.1099414,-1.2246312,7.8231926
613,1778620361.4530706,3.6061249,-0.83090216,0.3999014,1.1099414,-1.2246312,7.8231926
614,1778620361.4630716,3.6061249,-0.83090216,0.3999014,1.1099414,-1.2246312,7.8231926
615,1778620361.4733536,3.1943936,-0.91188246,0.33526346,1.3555089,-0.606436,8.080366
616,1778620361.4833567,3.1943936,-0.91188246,0.33526346,1.3555089,-0.606436,8.080366
617,1778620361.493358,3.1943936,-0.91188246,0.33526346,1.3555089,-0.606436,8.080366
618,1778620361.503886,3.1943936,-0.91188246,0.33526346,1.3555089,-0.606436,8.080366
619,1778620361.513888,3.1943936,-0.91188246,0.33526346,1.3555089,-0.606436,8.080366
620,1778620361.5238886,3.1943936,-0.91188246,0.33526346,1.3555089,-0.606436,8.080366
621,1778620361.533889,3.1943936,-0.91188246,0.33526346,1.3555089,-0.606436,8.080366
622,1778620361.5438902,3.1943936,-0.91188246,0.33526346,1.3555089,-0.606436,8.080366
623,1778620361.553892,3.1943936,-0.91188246,0.33526346,1.3555089,-0.606436,8.080366
624,1778620361.5638933,3.1943936,-0.91188246,0.33526346,1.3555089,-0.606436,8.080366
625,1778620361.5738947,3.1943936,-0.91188246,0.33526346,1.3555089,-0.606436,8.080366
626,1778620361.5838966,3.3873317,-0.27379647,-0.18623038,0.40989026,0.6006328,8.798133
627,1778620361.594111,3.3873317,-0.27379647,-0.18623038,0.40989026,0.6006328,8.798133
628,1778620361.6041117,3.3873317,-0.27379647,-0.18623038,0.40989026,0.6006328,8.798133
629,1778620361.6141129,3.3873317,-0.27379647,-0.18623038,0.40989026,0.6006328,8.798133
630,1778620361.6241136,3.3873317,-0.27379647,-0.18623038,0.40989026,0.6006328,8.798133
631,1778620361.6341147,3.3873317,-0.27379647,-0.18623038,0.40989026,0.6006328,8.798133
632,1778620361.6441174,3.3873317,-0.27379647,-0.18623038,0.40989026,0.6006328,8.798133
633,1778620361.654119,3.3873317,-0.27379647,-0.18623038,0.40989026,0.6006328,8.798133
634,1778620361.6641204,3.0568247,-0.3545329,0.4672224,-1.5784746,-0.33093598,6.2386093
635,1778620361.674121,3.0568247,-0.3545329,0.4672224,-1.5784746,-0.33093598,6.2386093
636,1778620361.6841226,3.0568247,-0.3545329,0.4672224,-1.5784746,-0.33093598,6.2386093
637,1778620361.6941237,2.9675512,-0.5447879,0.5086882,-1.8942916,-0.21303909,5.6894417
638,1778620361.7041252,2.9675512,-0.5447879,0.5086882,-1.8942916,-0.21303909,5.6894417
639,1778620361.7141259,2.9675512,-0.5447879,0.5086882,-1.8942916,-0.21303909,5.6894417
640,1778620361.7241268,2.9675512,-0.5447879,0.5086882,-1.8942916,-0.21303909,5.6894417
641,1778620361.7341287,2.9675512,-0.5447879,0.5086882,-1.8942916,-0.21303909,5.6894417
642,1778620361.7441301,2.9675512,-0.5447879,0.5086882,-1.8942916,-0.21303909,5.6894417
643,1778620361.7541323,2.9675512,-0.5447879,0.5086882,-3.2656832,0.67393655,6.0028152
644,1778620361.7641342,2.9675512,-0.5447879,0.5086882,-3.2656832,0.67393655,6.0028152
645,1778620361.7741354,2.9629169,-0.69674796,0.65137947,-3.2656832,0.67393655,6.0028152
646,1778620361.7843277,2.9629169,-0.69674796,0.65137947,-3.2656832,0.67393655,6.0028152
647,1778620361.794329,2.9629169,-0.69674796,0.65137947,-3.2656832,0.67393655,6.0028152
648,1778620361.8043299,2.9629169,-0.69674796,0.65137947,-3.2656832,0.67393655,6.0028152
649,1778620361.8143303,2.9629169,-0.69674796,0.65137947,-3.2656832,0.67393655,6.0028152
650,1778620361.824331,2.9629169,-0.69674796,0.65137947,-3.2656832,0.67393655,6.0028152
651,1778620361.834332,3.8066244,2.0146298,0.60747445,-1.7989968,-0.80557793,4.0431614
652,1778620361.8443332,3.8066244,2.0146298,0.60747445,-1.7989968,-0.80557793,4.0431614
653,1778620361.854334,4.2817745,2.2629368,0.68016165,-2.0256276,-0.97173315,3.82325
654,1778620361.8643358,5.777471,3.2251883,1.0226207,-2.44407,-1.0596976,2.88374
655,1778620361.8743365,5.777471,3.2251883,1.0226207,-2.44407,-1.0596976,2.88374
656,1778620361.8843377,5.777471,3.2251883,1.0226207,-1.689652,-1.9558363,2.7414083
657,1778620361.8943403,5.777471,3.2251883,1.0226207,-1.689652,-1.9558363,2.7414083
658,1778620361.9043422,5.777471,3.2251883,1.0226207,-1.689652,-1.9558363,2.7414083
659,1778620361.9143429,5.777471,3.2251883,1.0226207,-1.689652,-1.9558363,2.7414083
660,1778620361.9243433,5.777471,3.2251883,1.0226207,-1.689652,-1.9558363,2.7414083
661,1778620361.9343443,5.777471,3.2251883,1.0226207,-1.689652,-1.9558363,2.7414083
662,1778620361.9443452,5.777471,3.2251883,1.0226207,-1.689652,-1.9558363,2.7414083
663,1778620361.954346,5.777471,3.2251883,1.0226207,-1.689652,-1.9558363,2.7414083
664,1778620361.9643474,5.777471,3.2251883,1.0226207,-1.689652,-1.9558363,2.7414083
665,1778620361.9743488,5.777471,3.2251883,1.0226207,-1.689652,-1.9558363,2.7414083
666,1778620361.9843493,5.777471,3.2251883,1.0226207,-1.689652,-1.9558363,2.7414083
667,1778620361.9943502,6.683378,3.892788,1.3911787,-1.689652,-1.9558363,2.7414083
668,1778620362.004351,6.683378,3.892788,1.3911787,-1.689652,-1.9558363,2.7414083
669,1778620362.0143514,6.683378,3.892788,1.3911787,-1.689652,-1.9558363,2.7414083
670,1778620362.0243528,6.683378,3.892788,1.3911787,-0.37934703,-2.8531966,2.344957
671,1778620362.0343537,6.683378,3.892788,1.3911787,-0.37934703,-2.8531966,2.344957
672,1778620362.0443542,6.683378,3.892788,1.3911787,-0.37934703,-2.8531966,2.344957
673,1778620362.0543575,6.683378,3.892788,1.3911787,0.7977894,-3.005302,1.247844
674,1778620362.064375,6.683378,3.892788,1.3911787,0.7977894,-3.005302,1.247844
675,1778620362.0743756,7.4422026,4.361596,1.5911903,0.7977894,-3.005302,1.247844
676,1778620362.0843766,7.4422026,4.361596,1.5911903,0.7977894,-3.005302,1.247844
677,1778620362.0943773,7.4422026,4.361596,1.5911903,0.7977894,-3.005302,1.247844
678,1778620362.1043787,7.4422026,4.361596,1.5911903,0.7977894,-3.005302,1.247844
679,1778620362.11438,7.53855,4.428429,1.7370527,1.048244,-2.088394,-0.5212204
680,1778620362.1243804,7.53855,4.428429,1.7370527,1.048244,-2.088394,-0.5212204
681,1778620362.134381,7.53855,4.428429,1.7370527,1.048244,-2.088394,-0.5212204
682,1778620362.144389,7.53855,4.428429,1.7370527,1.048244,-2.088394,-0.5212204
683,1778620362.1543918,7.53855,4.428429,1.7370527,1.048244,-2.088394,-0.5212204
684,1778620362.1643922,7.53855,4.428429,1.7370527,1.048244,-2.088394,-0.5212204
685,1778620362.1749678,2.7792475,1.2940999,1.1014057,-2.362825,2.95796,-5.309789
686,1778620362.1849718,2.7792475,1.2940999,1.1014057,-2.362825,2.95796,-5.309789
687,1778620362.1949744,2.564113,1.2372674,1.2309254,-1.4440843,2.5236351,-5.2621417
688,1778620362.204976,2.564113,1.2372674,1.2309254,-1.4440843,2.5236351,-5.2621417
689,1778620362.2149773,2.564113,1.2372674,1.2309254,-1.4440843,2.5236351,-5.2621417
690,1778620362.2249787,2.564113,1.2372674,1.2309254,-1.4440843,2.5236351,-5.2621417
691,1778620362.2349794,2.564113,1.2372674,1.2309254,-1.4440843,2.5236351,-5.2621417
692,1778620362.2449827,2.657533,0.6328418,1.3831295,2.3206754,1.6971351,-7.9340644
693,1778620362.254986,2.657533,0.6328418,1.3831295,2.3206754,1.6971351,-7.9340644
694,1778620362.2649877,2.657533,0.6328418,1.3831295,2.3206754,1.6971351,-7.9340644
695,1778620362.2749891,2.657533,0.6328418,1.3831295,2.3206754,1.6971351,-7.9340644
696,1778620362.284991,2.657533,0.6328418,1.3831295,2.3206754,1.6971351,-7.9340644
697,1778620362.2949924,2.657533,0.6328418,1.3831295,2.3206754,1.6971351,-7.9340644
698,1778620362.3049936,2.657533,0.6328418,1.3831295,2.3206754,1.6971351,-7.9340644
699,1778620362.314995,2.721683,0.24477036,1.4336202,2.3206754,1.6971351,-7.9340644
700,1778620362.3249962,2.721683,0.24477036,1.4336202,2.3206754,1.6971351,-7.9340644
701,1778620362.3349981,2.721683,0.24477036,1.4336202,2.3206754,1.6971351,-7.9340644
702,1778620362.344999,2.721683,0.24477036,1.4336202,2.3206754,1.6971351,-7.9340644
703,1778620362.355,2.721683,0.24477036,1.4336202,2.3206754,1.6971351,-7.9340644
704,1778620362.3650017,2.721683,0.24477036,1.4336202,2.3206754,1.6971351,-7.9340644
705,1778620362.3750029,2.721683,0.24477036,1.4336202,2.3206754,1.6971351,-7.9340644
706,1778620362.3850043,3.5734403,-0.61674327,0.94115245,1.8753549,2.681849,-8.152754
707,1778620362.3950086,3.5734403,-0.61674327,0.94115245,1.8753549,2.681849,-8.152754
708,1778620362.4050095,3.5734403,-0.61674327,0.94115245,1.8753549,2.681849,-8.152754
709,1778620362.4150105,3.5734403,-0.61674327,0.94115245,1.8753549,2.681849,-8.152754
710,1778620362.4250116,3.6575916,-0.73601854,0.92505395,1.8753549,2.681849,-8.152754
711,1778620362.4350126,3.6575916,-0.73601854,0.92505395,1.8753549,2.681849,-8.152754
712,1778620362.4450135,3.6575916,-0.73601854,0.92505395,1.8753549,2.681849,-8.152754
713,1778620362.4550226,3.6575916,-0.73601854,0.92505395,2.0042474,2.782642,-8.431309
714,1778620362.465026,3.6575916,-0.73601854,0.92505395,2.0042474,2.782642,-8.431309
715,1778620362.4750266,3.6575916,-0.73601854,0.92505395,2.0042474,2.782642,-8.431309
716,1778620362.4850268,3.6575916,-0.73601854,0.92505395,2.0042474,2.782642,-8.431309
717,1778620362.4950278,3.6329558,-0.91456556,0.84114665,2.0042474,2.782642,-8.431309
718,1778620362.5050306,3.1417077,-1.3384928,0.4072189,2.9810202,2.0667083,-8.320131
719,1778620362.5150323,3.1417077,-1.3384928,0.4072189,2.9810202,2.0667083,-8.320131
720,1778620362.525034,3.1417077,-1.3384928,0.4072189,2.9810202,2.0667083,-8.320131
721,1778620362.535035,3.1417077,-1.3384928,0.4072189,2.7397285,1.9475896,-8.105718
722,1778620362.5450356,3.1417077,-1.3384928,0.4072189,2.7397285,1.9475896,-8.105718
723,1778620362.5550368,3.1417077,-1.3384928,0.4072189,2.7397285,1.9475896,-8.105718
724,1778620362.5650375,3.1417077,-1.3384928,0.4072189,2.7397285,1.9475896,-8.105718
725,1778620362.5750382,3.1417077,-1.3384928,0.4072189,2.7397285,1.9475896,-8.105718
726,1778620362.5850387,3.1417077,-1.3384928,0.4072189,2.5460844,1.8443534,-7.8149457
727,1778620362.5950418,3.1417077,-1.3384928,0.4072189,2.5460844,1.8443534,-7.8149457
728,1778620362.6050432,3.1417077,-1.3384928,0.4072189,2.5460844,1.8443534,-7.8149457
729,1778620362.6150439,3.1417077,-1.3384928,0.4072189,2.5460844,1.8443534,-7.8149457
730,1778620362.6250448,3.1417077,-1.3384928,0.4072189,2.5460844,1.8443534,-7.8149457
731,1778620362.6350453,3.143903,-1.3277603,0.3723388,2.5460844,1.8443534,-7.8149457
732,1778620362.645046,3.143903,-1.3277603,0.3723388,2.5460844,1.8443534,-7.8149457
733,1778620362.6550467,3.143903,-1.3277603,0.3723388,2.5460844,1.8443534,-7.8149457
734,1778620362.6650474,3.143903,-1.3277603,0.3723388,2.5460844,1.8443534,-7.8149457
735,1778620362.6750484,3.143903,-1.3277603,0.3723388,2.5460844,1.8443534,-7.8149457
736,1778620362.685049,3.143903,-1.3277603,0.3723388,2.5460844,1.8443534,-7.8149457
737,1778620362.6950495,3.143903,-1.3277603,0.3723388,2.5460844,1.8443534,-7.8149457
738,1778620362.7050505,3.143903,-1.3277603,0.3723388,2.5460844,1.8443534,-7.8149457
739,1778620362.7150512,3.143903,-1.3277603,0.3723388,2.5460844,1.8443534,-7.8149457
740,1778620362.7250519,3.143903,-1.3277603,0.3723388,2.5460844,1.8443534,-7.8149457
741,1778620362.7350533,3.143903,-1.3277603,0.3723388,2.5460844,1.8443534,-7.8149457
742,1778620362.7450542,3.143903,-1.3277603,0.3723388,2.5460844,1.8443534,-7.8149457
743,1778620362.7550557,3.143903,-1.3277603,0.3723388,2.5460844,1.8443534,-7.8149457
744,1778620362.7650566,3.143903,-1.3277603,0.3723388,2.5460844,1.8443534,-7.8149457
745,1778620362.7750573,3.143903,-1.3277603,0.3723388,2.5460844,1.8443534,-7.8149457
746,1778620362.7850583,3.1095107,-1.290685,0.3579477,2.5460844,1.8443534,-7.8149457
747,1778620362.7950587,3.1095107,-1.290685,0.3579477,2.5460844,1.8443534,-7.8149457
748,1778620362.8050597,2.9246218,-1.2048264,0.3225798,2.4190245,1.7905974,-7.5376134
749,1778620362.8150625,2.9246218,-1.2048264,0.3225798,2.4190245,1.7905974,-7.5376134
750,1778620362.8250637,2.9246218,-1.2048264,0.3225798,2.4190245,1.7905974,-7.5376134
751,1778620362.8350646,2.7729056,-1.2897094,0.2874558,2.2211044,1.9439244,-7.2786064
752,1778620362.8450735,2.7729056,-1.2897094,0.2874558,2.014632,2.1363468,-7.096569
753,1778620362.8550763,2.7729056,-1.2897094,0.2874558,2.014632,2.1363468,-7.096569
754,1778620362.8650773,2.7729056,-1.2897094,0.2874558,1.8472551,2.2560763,-6.802743
755,1778620362.8750796,2.7729056,-1.2897094,0.2874558,1.8472551,2.2560763,-6.802743
756,1778620362.8850803,2.7729056,-1.2897094,0.2874558,1.8472551,2.2560763,-6.802743
757,1778620362.8950815,2.4099576,-1.5626522,0.19281614,1.7605124,2.3128867,-6.3843007
758,1778620362.9050827,2.4099576,-1.5626522,0.19281614,1.7605124,2.3128867,-6.3843007
759,1778620362.9150832,2.4099576,-1.5626522,0.19281614,1.7605124,2.3128867,-6.3843007
760,1778620362.9250839,2.1670167,-1.577775,0.098420374,1.8124357,2.1650574,-5.9243193
761,1778620362.9350865,2.1670167,-1.577775,0.098420374,1.8124357,2.1650574,-5.9243193
762,1778620362.945089,2.1670167,-1.577775,0.098420374,1.8124357,2.1650574,-5.9243193
763,1778620362.9550908,2.1670167,-1.577775,0.098420374,1.8124357,2.1650574,-5.9243193
764,1778620362.965092,2.1670167,-1.577775,0.098420374,1.8124357,2.1650574,-5.9243193
765,1778620362.9750934,1.8845611,-1.577775,0.031099375,2.0970988,1.9066617,-5.468614
766,1778620362.9850953,1.8845611,-1.577775,0.031099375,2.5192063,1.58046,-5.075828
767,1778620362.9950962,1.8845611,-1.577775,0.031099375,2.5192063,1.58046,-5.075828
768,1778620363.0050986,1.8845611,-1.577775,0.031099375,2.5192063,1.58046,-5.075828
769,1778620363.0154579,1.8845611,-1.577775,0.031099375,2.5192063,1.58046,-5.075828
770,1778620363.0254595,1.8845611,-1.577775,0.031099375,2.5192063,1.58046,-5.075828
771,1778620363.0354612,1.8845611,-1.577775,0.031099375,2.5192063,1.58046,-5.075828
772,1778620363.0457213,1.8845611,-1.577775,0.031099375,2.5192063,1.58046,-5.075828
773,1778620363.0557225,1.8845611,-1.577775,0.031099375,2.5192063,1.58046,-5.075828
774,1778620363.0657232,1.8845611,-1.577775,0.031099375,2.5192063,1.58046,-5.075828
775,1778620363.0757234,1.8845611,-1.577775,0.031099375,2.5192063,1.58046,-5.075828
776,1778620363.0857244,1.5757627,-1.5877756,-0.055003207,2.5192063,1.58046,-5.075828
777,1778620363.0957258,1.5757627,-1.5877756,-0.055003207,2.5192063,1.58046,-5.075828
778,1778620363.1057265,1.5757627,-1.5877756,-0.055003207,2.5192063,1.58046,-5.075828
779,1778620363.1157272,-2.5871632,-3.2759228,-0.13476396,-2.3011277,0.49617493,3.0566146
780,1778620363.1260245,-1.4700248,-2.9261465,-0.07646788,-2.3011277,0.49617493,3.0566146
781,1778620363.1360257,-1.4700248,-2.9261465,-0.07646788,-2.3011277,0.49617493,3.0566146
782,1778620363.1460266,-1.4700248,-2.9261465,-0.07646788,-2.3011277,0.49617493,3.0566146
783,1778620363.1560357,-0.8853565,-2.6629603,-0.08524887,-1.657887,0.2206749,5.118894
784,1778620363.1660385,-0.8853565,-2.6629603,-0.08524887,-1.657887,0.2206749,5.118894
785,1778620363.1760395,-0.30898145,-2.414897,-0.084029295,-1.657887,0.2206749,5.118894
786,1778620363.1860402,-0.30898145,-2.414897,-0.084029295,-1.657887,0.2206749,5.118894
787,1778620363.1960409,-0.30898145,-2.414897,-0.084029295,-1.657887,0.2206749,5.118894
788,1778620363.2060418,3.105852,-1.566067,0.2555027,-1.3286309,-0.28267768,10.355227
789,1778620363.2160425,3.105852,-1.566067,0.2555027,-1.3286309,-0.28267768,10.355227
790,1778620363.2260437,3.547585,-1.3175159,0.17891288,-1.3286309,-0.28267768,10.355227
791,1778620363.2360444,3.547585,-1.3175159,0.17891288,-1.3286309,-0.28267768,10.355227
792,1778620363.2460449,3.547585,-1.3175159,0.17891288,-1.3286309,-0.28267768,10.355227
793,1778620363.2560453,3.547585,-1.3175159,0.17891288,-1.3286309,-0.28267768,10.355227
794,1778620363.2660458,3.547585,-1.3175159,0.17891288,-1.3286309,-0.28267768,10.355227
795,1778620363.2760465,3.547585,-1.3175159,0.17891288,-1.3286309,-0.28267768,10.355227
796,1778620363.2860472,3.827845,-0.60405964,0.3150184,-0.6572905,-1.1293362,8.843337
797,1778620363.2960548,3.827845,-0.60405964,0.3150184,-0.6572905,-1.1293362,8.843337
798,1778620363.3060572,3.827845,-0.60405964,0.3150184,-0.6572905,-1.1293362,8.843337
799,1778620363.3160582,3.827845,-0.60405964,0.3150184,-0.6572905,-1.1293362,8.843337
800,1778620363.326059,3.827845,-0.60405964,0.3150184,-0.6572905,-1.1293362,8.843337
801,1778620363.3360598,3.6585672,-0.5799119,0.3213602,-0.6572905,-1.1293362,8.843337
802,1778620363.3460605,3.6585672,-0.5799119,0.3213602,-0.6572905,-1.1293362,8.843337
803,1778620363.3560612,3.6585672,-0.5799119,0.3213602,-0.6572905,-1.1293362,8.843337
804,1778620363.3660622,3.6585672,-0.5799119,0.3213602,-0.6572905,-1.1293362,8.843337
805,1778620363.3760626,3.6585672,-0.5799119,0.3213602,-0.6572905,-1.1293362,8.843337
806,1778620363.3860633,3.6585672,-0.5799119,0.3213602,-0.6572905,-1.1293362,8.843337
807,1778620363.3960645,3.6585672,-0.5799119,0.3213602,-0.44104436,-1.0676389,8.59838
808,1778620363.4060657,3.6585672,-0.5799119,0.3213602,-0.44104436,-1.0676389,8.59838
809,1778620363.4160664,3.6585672,-0.5799119,0.3213602,-0.44104436,-1.0676389,8.59838
810,1778620363.426067,3.6585672,-0.5799119,0.3213602,-0.44104436,-1.0676389,8.59838
811,1778620363.4360702,3.5022166,-0.61601156,0.30550563,-0.44104436,-1.0676389,8.59838
812,1778620363.4460716,3.5022166,-0.61601156,0.30550563,-0.44104436,-1.0676389,8.59838
813,1778620363.456073,3.5022166,-0.61601156,0.30550563,-0.44104436,-1.0676389,8.59838
814,1778620363.4660735,3.5022166,-0.61601156,0.30550563,-0.44104436,-1.0676389,8.59838
815,1778620363.4760742,3.1543913,-0.6786981,0.3918521,-0.3677406,-0.9674571,8.455438
816,1778620363.486075,3.1543913,-0.6786981,0.3918521,-0.3677406,-0.9674571,8.455438
817,1778620363.4960756,3.1543913,-0.6786981,0.3918521,-0.3677406,-0.9674571,8.455438
818,1778620363.5060763,2.9804788,-0.71016335,0.45331916,-0.69455326,-0.5545125,8.41512
819,1778620363.5160778,2.9804788,-0.71016335,0.45331916,-0.69455326,-0.5545125,8.41512
820,1778620363.5260792,2.9804788,-0.71016335,0.45331916,-0.69455326,-0.5545125,8.41512
821,1778620363.536081,2.8065662,-0.3416053,0.670405,-0.8533781,0.31352636,6.3772755
822,1778620363.5460823,2.8065662,-0.3416053,0.670405,-0.8533781,0.31352636,6.3772755
823,1778620363.5560827,2.8065662,-0.3416053,0.670405,-0.8533781,0.31352636,6.3772755
824,1778620363.5660837,2.8065662,-0.3416053,0.670405,-0.8533781,0.31352636,6.3772755
825,1778620363.576087,2.8897417,-0.048661377,0.66845363,-0.8845322,0.721584,6.123156
826,1778620363.586089,2.8897417,-0.048661377,0.66845363,-0.8845322,0.721584,6.123156
827,1778620363.59609,2.8897417,-0.048661377,0.66845363,-0.8845322,0.721584,6.123156
828,1778620363.6060908,2.8897417,-0.048661377,0.66845363,-0.8845322,0.721584,6.123156
829,1778620363.616092,2.8897417,-0.048661377,0.66845363,-0.8845322,0.721584,6.123156
830,1778620363.626093,2.7272933,0.33648303,0.6435742,-0.9468404,1.0074687,5.315593
831,1778620363.6360936,2.7272933,0.33648303,0.6435742,-0.9468404,1.0074687,5.315593
832,1778620363.646095,2.7272933,0.33648303,0.6435742,-0.9468404,1.0074687,5.315593
833,1778620363.6561031,2.7272933,0.33648303,0.6435742,-0.9468404,1.0074687,5.315593
834,1778620363.6661065,2.7272933,0.33648303,0.6435742,-0.9468404,1.0074687,5.315593
835,1778620363.6761074,2.7272933,0.33648303,0.6435742,-0.9468404,1.0074687,5.315593
836,1778620363.6861079,2.7272933,0.33648303,0.6435742,-0.9468404,1.0074687,5.315593
837,1778620363.6961083,2.8812048,1.5382605,0.11451888,-2.196059,2.2291982,3.9704683
838,1778620363.7061098,2.8812048,1.5382605,0.11451888,-2.196059,2.2291982,3.9704683
839,1778620363.7161102,2.8812048,1.5382605,0.11451888,-2.196059,2.2291982,3.9704683
840,1778620363.726111,2.8812048,1.5382605,0.11451888,-2.196059,2.2291982,3.9704683
841,1778620363.7361116,2.8812048,1.5382605,0.11451888,-2.196059,2.2291982,3.9704683
842,1778620363.746112,2.8812048,1.5382605,0.11451888,-2.196059,2.2291982,3.9704683
843,1778620363.7561128,2.8812048,1.5382605,0.11451888,-2.196059,2.2291982,3.9704683
844,1778620363.7661138,2.8812048,1.5382605,0.11451888,-2.196059,2.2291982,3.9704683
845,1778620363.776114,2.8812048,1.5382605,0.11451888,-2.196059,2.2291982,3.9704683
846,1778620363.786115,2.8812048,1.5382605,0.11451888,-2.8264713,2.023337,3.4958265
847,1778620363.7961173,2.9580383,1.7482728,0.33379996,-2.8264713,2.023337,3.4958265
848,1778620363.8061185,2.9580383,1.7482728,0.33379996,-2.8264713,2.023337,3.4958265
849,1778620363.8161197,2.9580383,1.7482728,0.33379996,-2.8264713,2.023337,3.4958265
850,1778620363.826665,2.9580383,1.7482728,0.33379996,-2.8264713,2.023337,3.4958265
851,1778620363.8366656,2.9580383,1.7482728,0.33379996,-2.8264713,2.023337,3.4958265
852,1778620363.8466663,2.9580383,1.7482728,0.33379996,-2.8264713,2.023337,3.4958265
853,1778620363.8566668,2.9580383,1.7482728,0.33379996,-2.8264713,2.023337,3.4958265
854,1778620363.8666675,2.9580383,1.7482728,0.33379996,-2.8264713,2.023337,3.4958265
855,1778620363.8766685,2.9580383,1.7482728,0.33379996,-2.8264713,2.023337,3.4958265
856,1778620363.8866694,2.9580383,1.7482728,0.33379996,-2.8264713,2.023337,3.4958265
857,1778620363.8966699,2.9580383,1.7482728,0.33379996,-3.2589636,0.63117605,3.0260713
858,1778620363.9066706,2.9580383,1.7482728,0.33379996,-3.2589636,0.63117605,3.0260713
859,1778620363.916671,2.9580383,1.7482728,0.33379996,-3.2589636,0.63117605,3.0260713
860,1778620363.926672,2.9580383,1.7482728,0.33379996,-3.2589636,0.63117605,3.0260713
861,1778620363.9366772,2.9580383,1.7482728,0.33379996,-3.2589636,0.63117605,3.0260713
862,1778620363.9466913,2.9580383,1.7482728,0.33379996,-3.2589636,0.63117605,3.0260713
863,1778620363.9566922,2.9580383,1.7482728,0.33379996,-3.2589636,0.63117605,3.0260713
864,1778620363.9673226,3.7036917,1.8202282,1.1316514,-2.6102252,-0.41645706,3.1824527
865,1778620363.9773238,3.7036917,1.8202282,1.1316514,-2.6102252,-0.41645706,3.1824527
866,1778620363.987325,3.7036917,1.8202282,1.1316514,-2.6102252,-0.41645706,3.1824527
867,1778620363.9973257,3.7036917,1.8202282,1.1316514,-2.6102252,-0.41645706,3.1824527
868,1778620364.0073266,7.092182,3.9015691,-0.36404565,3.3267696,-3.7896523,3.412138
869,1778620364.0173275,7.092182,3.9015691,-0.36404565,3.3267696,-3.7896523,3.412138
870,1778620364.027328,7.092182,3.9015691,-0.36404565,3.3267696,-3.7896523,3.412138
871,1778620364.0373285,7.092182,3.9015691,-0.36404565,4.0408707,-4.9087567,2.1354306
872,1778620364.0475473,7.3195124,3.8864465,-0.2464778,4.0683594,-5.2538953,1.1018473
873,1778620364.0575502,7.3195124,3.8864465,-0.2464778,4.0683594,-5.2538953,1.1018473
874,1778620364.067551,7.3195124,3.8864465,-0.2464778,4.0683594,-5.2538953,1.1018473
875,1778620364.0777218,7.3195124,3.8864465,-0.2464778,4.0683594,-5.2538953,1.1018473
876,1778620364.0877247,7.3195124,3.8864465,-0.2464778,4.0683594,-5.2538953,1.1018473
877,1778620364.0977263,7.3195124,3.8864465,-0.2464778,4.0683594,-5.2538953,1.1018473
878,1778620364.1077273,7.3195124,3.8864465,-0.2464778,4.0683594,-5.2538953,1.1018473
879,1778620364.1177278,7.3195124,3.8864465,-0.2464778,4.0683594,-5.2538953,1.1018473
880,1778620364.127729,7.3195124,3.8864465,-0.2464778,4.0683594,-5.2538953,1.1018473
881,1778620364.13773,7.3195124,3.8864465,-0.2464778,4.0683594,-5.2538953,1.1018473
882,1778620364.1477308,7.3195124,3.8864465,-0.2464778,4.0683594,-5.2538953,1.1018473
883,1778620364.1577327,3.0687766,1.4350837,0.48819923,-0.44959646,1.6720896,-6.5516777
884,1778620364.1677344,3.0687766,1.4350837,0.48819923,-0.44959646,1.6720896,-6.5516777
885,1778620364.1777353,3.6585672,-1.2699522,0.29452938,1.5277728,1.449124,-9.745278
886,1778620364.187745,3.5602689,-1.3165402,0.3125792,2.173457,0.9268346,-9.402583
887,1778620364.1977484,3.5602689,-1.3165402,0.3125792,2.173457,0.9268346,-9.402583
888,1778620364.2077494,3.5602689,-1.3165402,0.3125792,2.173457,0.9268346,-9.402583
889,1778620364.2177498,3.5602689,-1.3165402,0.3125792,2.173457,0.9268346,-9.402583
890,1778620364.227751,3.4224555,-1.3045883,0.2579419,2.173457,0.9268346,-9.402583
891,1778620364.2377527,3.4224555,-1.3045883,0.2579419,2.173457,0.9268346,-9.402583
892,1778620364.2477531,3.4224555,-1.3045883,0.2579419,2.173457,0.9268346,-9.402583
893,1778620364.2577536,3.4407494,-1.1772639,0.26306412,2.2846344,0.61285007,-9.163124
894,1778620364.2677567,3.4407494,-1.1772639,0.26306412,2.2846344,0.61285007,-9.163124
895,1778620364.277759,3.4407494,-1.1772639,0.26306412,2.2846344,0.61285007,-9.163124
896,1778620364.2877598,3.4407494,-1.1772639,0.26306412,2.2846344,0.61285007,-9.163124
897,1778620364.2977612,3.4407494,-1.1772639,0.26306412,2.2846344,0.61285007,-9.163124
898,1778620364.3077621,3.4407494,-1.1772639,0.26306412,2.2846344,0.61285007,-9.163124
899,1778620364.317763,3.4407494,-1.1772639,0.26306412,2.2846344,0.61285007,-9.163124
900,1778620364.3277645,3.4285538,-1.0962834,0.2698938,2.2846344,0.61285007,-9.163124
901,1778620364.3377655,3.4285538,-1.0962834,0.2698938,2.2846344,0.61285007,-9.163124
902,1778620364.3477662,3.4285538,-1.0962834,0.2698938,2.2846344,0.61285007,-9.163124
903,1778620364.3579502,3.4285538,-1.0962834,0.2698938,2.2846344,0.61285007,-9.163124
904,1778620364.3679507,3.4285538,-1.0962834,0.2698938,2.2846344,0.61285007,-9.163124
905,1778620364.3779519,3.4285538,-1.0962834,0.2698938,2.2846344,0.61285007,-9.163124
906,1778620364.3879523,3.4285538,-1.0962834,0.2698938,2.2846344,0.61285007,-9.163124
907,1778620364.397953,3.4285538,-1.0962834,0.2698938,2.2162175,0.47845984,-8.940159
908,1778620364.4079535,3.4285538,-1.0962834,0.2698938,2.2162175,0.47845984,-8.940159
909,1778620364.417954,3.4285538,-1.0962834,0.2698938,2.2162175,0.47845984,-8.940159
910,1778620364.4279547,3.4285538,-1.0962834,0.2698938,2.2162175,0.47845984,-8.940159
911,1778620364.4379554,3.4285538,-1.0962834,0.2698938,2.2162175,0.47845984,-8.940159
912,1778620364.4479563,3.4285538,-1.0962834,0.2698938,2.2162175,0.47845984,-8.940159
913,1778620364.4579573,3.4285538,-1.0962834,0.2698938,2.2162175,0.47845984,-8.940159
914,1778620364.4679587,3.4285538,-1.0962834,0.2698938,2.2162175,0.47845984,-8.940159
915,1778620364.4779592,3.4285538,-1.0962834,0.2698938,2.2162175,0.47845984,-8.940159
916,1778620364.4879632,3.4285538,-1.0962834,0.2698938,2.2162175,0.47845984,-8.940159
917,1778620364.4979644,3.4285538,-1.0962834,0.2698938,2.2162175,0.47845984,-8.940159
918,1778620364.507965,3.4285538,-1.0962834,0.2698938,2.2162175,0.47845984,-8.940159
919,1778620364.5179665,3.3651352,-0.99017966,0.2686742,1.5968006,0.64400417,-8.535767
920,1778620364.5279675,3.3651352,-0.99017966,0.2686742,1.5968006,0.64400417,-8.535767
921,1778620364.5379677,3.3651352,-0.99017966,0.2686742,1.5968006,0.64400417,-8.535767
922,1778620364.5479689,3.3651352,-0.99017966,0.2686742,1.5968006,0.64400417,-8.535767
923,1778620364.5579693,3.3651352,-0.99017966,0.2686742,1.5968006,0.64400417,-8.535767
924,1778620364.5679708,3.1165843,-0.9223709,0.3647774,1.3726132,0.85841775,-8.223003
925,1778620364.5779722,3.1165843,-0.9223709,0.3647774,1.3726132,0.85841775,-8.223003
926,1778620364.5879726,3.1165843,-0.9223709,0.3647774,1.3726132,0.85841775,-8.223003
927,1778620364.5979733,3.1165843,-0.9223709,0.3647774,1.3726132,0.85841775,-8.223003
928,1778620364.607974,3.1165843,-0.9223709,0.3647774,1.3726132,0.85841775,-8.223003
929,1778620364.6179748,3.1165843,-0.9223709,0.3647774,1.3726132,0.85841775,-8.223003
930,1778620364.6279757,3.1165843,-0.9223709,0.3647774,1.3726132,0.85841775,-8.223003
931,1778620364.6379764,3.1165843,-0.9223709,0.3647774,1.3726132,0.85841775,-8.223003
932,1778620364.6479778,2.9246218,-0.9196878,0.35989904,1.4453061,0.8633047,-7.8931365
933,1778620364.6579788,2.9246218,-0.9196878,0.35989904,1.6682717,0.66355187,-7.4997396
934,1778620364.6679795,2.9246218,-0.9196878,0.35989904,1.6682717,0.66355187,-7.4997396
935,1778620364.6779804,2.9246218,-0.9196878,0.35989904,1.6682717,0.66355187,-7.4997396
936,1778620364.6879818,2.9246218,-0.9196878,0.35989904,1.6682717,0.66355187,-7.4997396
937,1778620364.697983,2.9246218,-0.9196878,0.35989904,1.6682717,0.66355187,-7.4997396
938,1778620364.707984,2.5245984,-0.9884723,0.35599637,1.9138393,0.38927358,-7.0000525
939,1778620364.717985,2.5245984,-0.9884723,0.35599637,1.9138393,0.38927358,-7.0000525
940,1778620364.7279859,2.5245984,-0.9884723,0.35599637,1.9138393,0.38927358,-7.0000525
941,1778620364.7379868,2.5245984,-0.9884723,0.35599637,1.9138393,0.38927358,-7.0000525
942,1778620364.7479901,2.5245984,-0.9884723,0.35599637,1.9138393,0.38927358,-7.0000525
943,1778620364.7579913,2.5245984,-0.9884723,0.35599637,1.9138393,0.38927358,-7.0000525
944,1778620364.7681506,2.5245984,-0.9884723,0.35599637,1.9138393,0.38927358,-7.0000525
945,1778620364.7781515,2.5245984,-0.9884723,0.35599637,1.9138393,0.38927358,-7.0000525
946,1778620364.788152,2.5245984,-0.9884723,0.35599637,1.9138393,0.38927358,-7.0000525
947,1778620364.798159,2.5245984,-0.9884723,0.35599637,1.9138393,0.38927358,-7.0000525
948,1778620364.8081625,2.5245984,-0.9884723,0.35599637,1.9138393,0.38927358,-7.0000525
949,1778620364.8181639,2.5245984,-0.9884723,0.35599637,1.9138393,0.38927358,-7.0000525
950,1778620364.828165,2.5245984,-0.9884723,0.35599637,2.1172574,0.20784675,-6.234028
951,1778620364.8381655,2.5245984,-0.9884723,0.35599637,2.1172574,0.20784675,-6.234028
952,1778620364.8481667,2.5245984,-0.9884723,0.35599637,2.1172574,0.20784675,-6.234028
953,1778620364.8584557,2.5245984,-0.9884723,0.35599637,2.1172574,0.20784675,-6.234028
954,1778620364.8684564,2.5245984,-0.9884723,0.35599637,2.1172574,0.20784675,-6.234028
955,1778620364.8784573,2.5245984,-0.9884723,0.35599637,2.1172574,0.20784675,-6.234028
956,1778620364.8884583,2.5245984,-0.9884723,0.35599637,2.1172574,0.20784675,-6.234028
957,1778620364.8984587,2.5245984,-0.9884723,0.35599637,2.1172574,0.20784675,-6.234028
958,1778620364.9084592,2.2233615,-1.0504271,0.43014705,2.1172574,0.20784675,-6.234028
959,1778620364.91846,2.2233615,-1.0504271,0.43014705,2.1172574,0.20784675,-6.234028
960,1778620364.9284604,-4.1492057,-4.514044,-1.0021316,-1.0873393,3.2884378,-1.4784455
961,1778620364.938461,-4.1492057,-4.514044,-1.0021316,-1.0873393,3.2884378,-1.4784455
962,1778620364.9488087,-4.1492057,-4.514044,-1.0021316,-1.0873393,3.2884378,-1.4784455
963,1778620364.9588096,-4.1492057,-4.514044,-1.0021316,-1.0873393,3.2884378,-1.4784455
964,1778620364.9688106,-4.1492057,-4.514044,-1.0021316,-1.0873393,3.2884378,-1.4784455
965,1778620364.978811,-4.1492057,-4.514044,-1.0021316,-1.0873393,3.2884378,-1.4784455
966,1778620364.9888122,-4.1492057,-4.514044,-1.0021316,-0.993877,3.2566729,-0.29275694
967,1778620364.9988139,-4.1492057,-4.514044,-1.0021316,-0.993877,3.2566729,-0.29275694
968,1778620365.0088153,-4.1492057,-4.514044,-1.0021316,-0.993877,3.2566729,-0.29275694
969,1778620365.0188165,-3.709424,-4.2184167,-1.1494573,-0.993877,3.2566729,-0.29275694
970,1778620365.0288172,-3.709424,-4.2184167,-1.1494573,-0.993877,3.2566729,-0.29275694
971,1778620365.0390232,-3.709424,-4.2184167,-1.1494573,-0.993877,3.2566729,-0.29275694
972,1778620365.0490246,-3.0432873,-4.015722,-1.0575007,-0.10140356,1.9207116,1.2258528
973,1778620365.0590441,-3.0432873,-4.015722,-1.0575007,-0.10140356,1.9207116,1.2258528
974,1778620365.0690482,-3.0432873,-4.015722,-1.0575007,-0.10140356,1.9207116,1.2258528
975,1778620365.0790498,-1.6180823,-3.7015574,-0.845781,0.64385146,1.2970186,1.7927355
976,1778620365.0890508,-1.6180823,-3.7015574,-0.845781,0.64385146,1.2970186,1.7927355
977,1778620365.0990522,-1.6180823,-3.7015574,-0.845781,0.64385146,1.2970186,1.7927355
978,1778620365.1090531,-1.6180823,-3.7015574,-0.845781,0.64385146,1.2970186,1.7927355
979,1778620365.1190538,-1.6180823,-3.7015574,-0.845781,0.64385146,1.2970186,1.7927355
980,1778620365.1294034,2.6731439,-1.0596961,0.8574891,-4.912575,1.1369721,8.091362
981,1778620365.1394043,2.4170313,-1.2338525,0.85651344,-3.8637197,-0.012675445,7.829912
982,1778620365.1494048,2.4170313,-1.2338525,0.85651344,-3.8637197,-0.012675445,7.829912
983,1778620365.1594055,2.4170313,-1.2338525,0.85651344,-3.8637197,-0.012675445,7.829912
984,1778620365.1694148,2.4170313,-1.2338525,0.85651344,-3.8637197,-0.012675445,7.829912
985,1778620365.1794178,2.4170313,-1.2338525,0.85651344,-3.8637197,-0.012675445,7.829912
986,1778620365.1894188,2.4170313,-1.2338525,0.85651344,-3.8637197,-0.012675445,7.829912
987,1778620365.199466,2.4170313,-1.2338525,0.85651344,-3.8637197,-0.012675445,7.829912
988,1778620365.2094698,2.4170313,-1.2338525,0.85651344,-3.8637197,-0.012675445,7.829912
989,1778620365.219608,2.4170313,-1.2338525,0.85651344,-3.8637197,-0.012675445,7.829912
990,1778620365.2296088,2.4170313,-1.2338525,0.85651344,-3.8637197,-0.012675445,7.829912
991,1778620365.2396092,2.227508,-1.3128815,0.7530927,-3.8637197,-0.012675445,7.829912
992,1778620365.2496102,2.227508,-1.3128815,0.7530927,-3.8637197,-0.012675445,7.829912
993,1778620365.2596107,2.227508,-1.3128815,0.7530927,-3.8637197,-0.012675445,7.829912
994,1778620365.2696116,2.3911762,-1.3367853,0.61088926,-0.9431752,-2.1494803,8.365029
995,1778620365.2796123,2.3911762,-1.3367853,0.61088926,-0.9431752,-2.1494803,8.365029
996,1778620365.2896132,2.3911762,-1.3367853,0.61088926,-0.9431752,-2.1494803,8.365029
997,1778620365.2996137,2.660216,-1.2831236,0.59088814,-0.4092794,-2.4237587,8.401071
998,1778620365.3099315,2.660216,-1.2831236,0.59088814,-0.4092794,-2.4237587,8.401071
