id,timestamp,acc_x,acc_y,acc_z,gyro_x,gyro_y,gyro_z
1,1778621610.9720006,0.072016396,0.30574957,-0.36721656,-1.6236786,-0.2432769,0.71333736
2,1778621610.9820027,0.072016396,0.30574957,-0.36721656,-1.6236786,-0.2432769,0.71333736
3,1778621610.9920037,0.072016396,0.30574957,-0.36721656,-1.6236786,-0.2432769,0.71333736
4,1778621611.002005,0.079333894,0.24037987,-0.3501424,-2.1832306,-0.44547313,0.8061888
5,1778621611.01201,0.079333894,0.24037987,-0.3501424,-2.1832306,-0.44547313,0.8061888
6,1778621611.022062,0.079333894,0.24037987,-0.3501424,-2.1832306,-0.44547313,0.8061888
7,1778621611.032063,0.079333894,0.24037987,-0.3501424,-2.1832306,-0.44547313,0.8061888
8,1778621611.0424774,0.079333894,0.24037987,-0.3501424,-2.1832306,-0.44547313,0.8061888
9,1778621611.052479,0.079333894,0.24037987,-0.3501424,-2.1832306,-0.44547313,0.8061888
10,1778621611.0624807,0.10372557,0.19647488,-0.27257687,-2.2101088,-0.636063,0.7835868
11,1778621611.0724814,0.10372557,0.19647488,-0.27257687,-2.2101088,-0.636063,0.7835868
12,1778621611.0824823,0.10372557,0.19647488,-0.27257687,-2.2101088,-0.636063,0.7835868
13,1778621611.0924873,0.104701236,0.17574196,-0.24867305,-2.2101088,-0.636063,0.7835868
14,1778621611.1024892,0.104701236,0.17574196,-0.24867305,-2.2101088,-0.636063,0.7835868
15,1778621611.1124902,0.104701236,0.17574196,-0.24867305,-2.2101088,-0.636063,0.7835868
16,1778621611.1224914,0.104701236,0.17574196,-0.24867305,-2.2101088,-0.636063,0.7835868
17,1778621611.1324925,0.104701236,0.17574196,-0.24867305,-2.2101088,-0.636063,0.7835868
18,1778621611.1424942,0.104701236,0.17574196,-0.24867305,-2.2101088,-0.636063,0.7835868
19,1778621611.1530135,0.104701236,0.17574196,-0.24867305,-2.2101088,-0.636063,0.7835868
20,1778621611.1630173,0.104701236,0.17574196,-0.24867305,-2.2101088,-0.636063,0.7835868
21,1778621611.1730182,0.104701236,0.17574196,-0.24867305,-2.2101088,-0.636063,0.7835868
22,1778621611.1834774,0.0939689,0.1323248,-0.19574313,-2.2101088,-0.636063,0.7835868
23,1778621611.1934803,0.0939689,0.1323248,-0.19574313,-2.2101088,-0.636063,0.7835868
24,1778621611.2034812,0.0939689,0.1323248,-0.19574313,-2.2101088,-0.636063,0.7835868
25,1778621611.2134821,0.0939689,0.1323248,-0.19574313,-2.2101088,-0.636063,0.7835868
26,1778621611.2234828,0.0939689,0.1323248,-0.19574313,-2.2101088,-0.636063,0.7835868
27,1778621611.2334838,0.0661624,0.07646788,-0.16696097,-1.8448117,-1.0178534,0.77625644
28,1778621611.2434845,0.0661624,0.07646788,-0.16696097,-1.8448117,-1.0178534,0.77625644
29,1778621611.2534847,0.0661624,0.07646788,-0.16696097,-1.8448117,-1.0178534,0.77625644
30,1778621611.2634935,0.07396773,-0.053783625,-0.08037054,-1.9401065,-0.9506583,0.7670934
31,1778621611.2734966,0.07396773,-0.053783625,-0.08037054,-1.9401065,-0.9506583,0.7670934
32,1778621611.2834976,0.07396773,-0.053783625,-0.08037054,-1.9401065,-0.9506583,0.7670934
33,1778621611.2934983,0.07396773,-0.053783625,-0.08037054,-1.9401065,-0.9506583,0.7670934
34,1778621611.3034992,0.05055173,0.018903542,-0.13720313,-1.4477495,-1.2658645,0.8672753
35,1778621611.3137653,0.05055173,0.018903542,-0.13720313,-1.4477495,-1.2658645,0.8672753
36,1778621611.323766,0.05055173,0.018903542,-0.13720313,-1.4477495,-1.2658645,0.8672753
37,1778621611.333767,0.05055173,0.018903542,-0.13720313,-1.1465932,-1.4253002,0.9784527
38,1778621611.3437681,0.05055173,0.018903542,-0.13720313,-1.1465932,-1.4253002,0.9784527
39,1778621611.3537686,0.05055173,0.018903542,-0.13720313,-1.1465932,-1.4253002,0.9784527
40,1778621611.36377,0.08835881,-0.10939662,-0.059881546,-0.82405657,-1.5938989,1.2093595
41,1778621611.3737793,0.2037314,-0.22794013,-0.021098793,-0.67378384,-1.6989677,1.4970769
42,1778621611.3837812,0.2037314,-0.22794013,-0.021098793,-0.67378384,-1.6989677,1.4970769
43,1778621611.393782,0.2037314,-0.22794013,-0.021098793,-0.67378384,-1.6989677,1.4970769
44,1778621611.4037914,0.2037314,-0.22794013,-0.021098793,-0.67378384,-1.6989677,1.4970769
45,1778621611.4137948,0.2037314,-0.22794013,-0.021098793,-0.67378384,-1.6989677,1.4970769
46,1778621611.4237964,0.22983049,-0.22940363,-0.019391375,-0.67500556,-1.7270675,1.5630503
47,1778621611.4337971,0.22983049,-0.22940363,-0.019391375,-0.67500556,-1.7270675,1.5630503
48,1778621611.4437976,0.22983049,-0.22940363,-0.019391375,-0.67500556,-1.7270675,1.5630503
49,1778621611.453799,0.30812773,-0.2503805,0.000121958336,-0.67500556,-1.7270675,1.5630503
50,1778621611.4638,0.30812773,-0.2503805,0.000121958336,-0.67500556,-1.7270675,1.5630503
51,1778621611.4738004,0.30812773,-0.2503805,0.000121958336,-0.7562506,-1.7887648,1.7597487
52,1778621611.4838011,0.30812773,-0.2503805,0.000121958336,-0.7562506,-1.7887648,1.7597487
53,1778621611.4938025,0.30812773,-0.2503805,0.000121958336,-0.7562506,-1.7887648,1.7597487
54,1778621611.5038037,0.30812773,-0.2503805,0.000121958336,-0.7562506,-1.7887648,1.7597487
55,1778621611.513814,0.4059383,-0.25721014,0.0059759584,-0.72204214,-1.9885175,1.7188208
56,1778621611.5238173,0.4059383,-0.25721014,0.0059759584,-0.72204214,-1.9885175,1.7188208
57,1778621611.5338185,0.4059383,-0.25721014,0.0059759584,-0.72204214,-1.9885175,1.7188208
58,1778621611.543904,0.43398872,-0.19940189,0.029635875,-0.60964304,-2.090532,1.6088651
59,1778621611.5539076,0.43398872,-0.19940189,0.029635875,-0.60964304,-2.090532,1.6088651
60,1778621611.5639088,0.43398872,-0.19940189,0.029635875,-0.60964304,-2.090532,1.6088651
61,1778621611.5739098,0.43398872,-0.19940189,0.029635875,-0.60964304,-2.090532,1.6088651
62,1778621611.583911,0.43398872,-0.19940189,0.029635875,-0.60964304,-2.090532,1.6088651
63,1778621611.593912,0.43398872,-0.19940189,0.029635875,-0.60964304,-2.090532,1.6088651
64,1778621611.603912,0.43398872,-0.19940189,0.029635875,-0.60964304,-2.090532,1.6088651
65,1778621611.6139152,0.45228252,-0.14939895,0.04451479,-0.46792242,-2.19499,1.4537054
66,1778621611.6239266,-0.025306353,0.059149794,-0.038172957,0.10384701,-2.18094,0.08964441
67,1778621611.6339273,-0.025306353,0.059149794,-0.038172957,0.10384701,-2.18094,0.08964441
68,1778621611.6439278,-0.025306353,0.059149794,-0.038172957,0.10384701,-2.18094,0.08964441
69,1778621611.6539342,-0.011647021,0.07207738,-0.046466127,-0.239459,-2.3764167,0.06704241
70,1778621611.663936,-0.011647021,0.07207738,-0.046466127,-0.239459,-2.3764167,0.06704241
71,1778621611.6739373,-0.011647021,0.07207738,-0.046466127,-0.36712974,-2.3898556,0.061544627
72,1778621611.6839428,-0.011647021,0.07207738,-0.046466127,-0.36712974,-2.3898556,0.061544627
73,1778621611.6939461,-0.011647021,0.07207738,-0.046466127,-0.36712974,-2.3898556,0.061544627
74,1778621611.7039475,-0.032136023,-0.2511122,-0.18183987,-1.5503749,-1.9604177,0.0481056
75,1778621611.7139485,-0.032136023,-0.2511122,-0.18183987,-1.5503749,-1.9604177,0.0481056
76,1778621611.7239497,-1.1029302,-1.9019403,-0.7562637,-5.729301,0.5031999,0.9436334
77,1778621611.73399,-1.188301,-1.99658,-0.38307112,-5.729301,0.5031999,0.9436334
78,1778621611.7439985,-1.188301,-1.99658,-0.38307112,-5.729301,0.5031999,0.9436334
79,1778621611.7539997,-1.188301,-1.99658,-0.38307112,-5.729301,0.5031999,0.9436334
80,1778621611.7640026,-1.188301,-1.99658,-0.38307112,-5.729301,0.5031999,0.9436334
81,1778621611.7740042,-1.188301,-1.99658,-0.38307112,-5.729301,0.5031999,0.9436334
82,1778621611.7840052,-2.119819,-2.9012668,-0.66162395,-1.5558726,-4.2878127,2.7072
83,1778621611.7940068,-1.1348833,-2.5149028,1.8402293,-2.837467,-0.96776253,5.7932887
84,1778621611.8040085,-1.1348833,-2.5149028,1.8402293,-2.837467,-0.96776253,5.7932887
85,1778621611.81401,-1.1348833,-2.5149028,1.8402293,-2.837467,-0.96776253,5.7932887
86,1778621611.8243363,-0.9087725,-2.2195196,2.194884,-2.837467,-0.96776253,5.7932887
87,1778621611.8346055,-0.9087725,-2.2195196,2.194884,-2.837467,-0.96776253,5.7932887
88,1778621611.8446069,-0.9087725,-2.2195196,2.194884,-2.837467,-0.96776253,5.7932887
89,1778621611.8546078,-0.9087725,-2.2195196,2.194884,-2.837467,-0.96776253,5.7932887
90,1778621611.8646092,-0.9087725,-2.2195196,2.194884,-2.837467,-0.96776253,5.7932887
91,1778621611.8746104,-0.9087725,-2.2195196,2.194884,-2.837467,-0.96776253,5.7932887
92,1778621611.8846118,-0.9087725,-2.2195196,2.194884,-2.837467,-0.96776253,5.7932887
93,1778621611.8946173,-0.46923468,-1.5209423,0.5411291,-2.837467,-0.96776253,5.7932887
94,1778621611.9046206,-0.46923468,-1.5209423,0.5411291,-2.837467,-0.96776253,5.7932887
95,1778621611.914621,-0.46923468,-1.5209423,0.5411291,-2.837467,-0.96776253,5.7932887
96,1778621611.9249926,-0.46923468,-1.5209423,0.5411291,-2.837467,-0.96776253,5.7932887
97,1778621611.9349935,-0.46923468,-1.5209423,0.5411291,-2.837467,-0.96776253,5.7932887
98,1778621611.944994,-0.46923468,-1.5209423,0.5411291,-2.837467,-0.96776253,5.7932887
99,1778621611.9549952,-0.46923468,-1.5209423,0.5411291,-2.837467,-0.96776253,5.7932887
100,1778621611.9649963,-0.46923468,-1.5209423,0.5411291,-1.2809834,5.8708687,4.3858566
101,1778621611.974997,-0.46923468,-1.5209423,0.5411291,-1.2809834,5.8708687,4.3858566
102,1778621611.9849977,-0.46923468,-1.5209423,0.5411291,-1.2809834,5.8708687,4.3858566
103,1778621611.9951358,-0.46923468,-1.5209423,0.5411291,-1.2809834,5.8708687,4.3858566
104,1778621612.0051382,-0.46923468,-1.5209423,0.5411291,-1.2809834,5.8708687,4.3858566
105,1778621612.0151396,-0.46923468,-1.5209423,0.5411291,-1.2809834,5.8708687,4.3858566
106,1778621612.0251403,-0.46923468,-1.5209423,0.5411291,-1.2809834,5.8708687,4.3858566
107,1778621612.0351412,-0.46923468,-1.5209423,0.5411291,-1.2809834,5.8708687,4.3858566
108,1778621612.045143,-0.51509106,-1.504356,-0.8382196,-0.2376264,6.3998775,1.6510148
109,1778621612.0551524,-0.51509106,-1.504356,-0.8382196,-0.2376264,6.3998775,1.6510148
110,1778621612.0651543,-0.51509106,-1.504356,-0.8382196,-0.2376264,6.3998775,1.6510148
111,1778621612.0751555,-1.4273394,-2.1939085,-0.46600276,2.330449,-0.9757038,-0.07284562
112,1778621612.0851562,-1.4273394,-2.1939085,-0.46600276,2.330449,-0.9757038,-0.07284562
113,1778621612.0951571,-1.4273394,-2.1939085,-0.46600276,2.330449,-0.9757038,-0.07284562
114,1778621612.1051579,-1.23806,-2.1985428,-0.4674663,2.330449,-0.9757038,-0.07284562
115,1778621612.1151586,-1.23806,-2.1985428,-0.4674663,2.330449,-0.9757038,-0.07284562
116,1778621612.1251595,-1.23806,-2.1985428,-0.4674663,2.330449,-0.9757038,-0.07284562
117,1778621612.1352,-1.23806,-2.1985428,-0.4674663,2.330449,-0.9757038,-0.07284562
118,1778621612.1452038,-1.23806,-2.1985428,-0.4674663,2.330449,-0.9757038,-0.07284562
119,1778621612.1552045,-1.0900027,-1.9858475,-0.40624323,2.330449,-0.9757038,-0.07284562
120,1778621612.1652057,-1.0900027,-1.9858475,-0.40624323,2.330449,-0.9757038,-0.07284562
121,1778621612.1752071,-1.0900027,-1.9858475,-0.40624323,2.330449,-0.9757038,-0.07284562
122,1778621612.1852078,-1.0900027,-1.9858475,-0.40624323,2.330449,-0.9757038,-0.07284562
123,1778621612.1952085,-1.0900027,-1.9858475,-0.40624323,2.330449,-0.9757038,-0.07284562
124,1778621612.2052093,-1.0900027,-1.9858475,-0.40624323,2.330449,-0.9757038,-0.07284562
125,1778621612.2152104,-0.12799528,-0.17281497,-0.047197875,1.3066398,0.9625702,-2.0477715
126,1778621612.225211,-0.12799528,-0.17281497,-0.047197875,1.3066398,0.9625702,-2.0477715
127,1778621612.2352116,-0.12799528,-0.17281497,-0.047197875,1.3066398,0.9625702,-2.0477715
128,1778621612.2452126,-0.17068069,0.045734376,-0.24916087,1.3066398,0.9625702,-2.0477715
129,1778621612.2552168,-0.17068069,0.045734376,-0.24916087,1.3066398,0.9625702,-2.0477715
130,1778621612.2652342,-0.17068069,0.045734376,-0.24916087,1.3066398,0.9625702,-2.0477715
131,1778621612.2752402,-0.09994486,0.20525588,-0.4279518,0.682336,1.0957386,-2.0825908
132,1778621612.2852428,-0.09994486,0.20525588,-0.4279518,0.682336,1.0957386,-2.0825908
133,1778621612.2952447,-0.09994486,0.20525588,-0.4279518,0.682336,1.0957386,-2.0825908
134,1778621612.3053842,-0.15946053,0.14915505,-0.32209197,0.682336,1.0957386,-2.0825908
135,1778621612.315385,-0.15946053,0.14915505,-0.32209197,0.682336,1.0957386,-2.0825908
136,1778621612.325386,-0.15946053,0.14915505,-0.32209197,0.682336,1.0957386,-2.0825908
137,1778621612.335387,-0.15946053,0.14915505,-0.32209197,0.682336,1.0957386,-2.0825908
138,1778621612.3453877,-0.15946053,0.14915505,-0.32209197,0.682336,1.0957386,-2.0825908
139,1778621612.3553884,-0.15946053,0.14915505,-0.32209197,0.682336,1.0957386,-2.0825908
140,1778621612.3653889,-0.15946053,0.14915505,-0.32209197,0.682336,1.0957386,-2.0825908
141,1778621612.37539,-0.115555525,0.2013532,-0.4179512,-0.46059203,0.8513928,-2.3141086
142,1778621612.3853908,-0.115555525,0.2013532,-0.4179512,-0.46059203,0.8513928,-2.3141086
143,1778621612.3953915,-0.115555525,0.2013532,-0.4179512,-0.46059203,0.8513928,-2.3141086
144,1778621612.4053922,-0.04189269,0.13695921,-0.35282546,-0.46059203,0.8513928,-2.3141086
145,1778621612.415602,-0.03945352,0.12110463,-0.32233587,-0.7800743,0.6217076,-2.347706
146,1778621612.4256053,-0.03945352,0.12110463,-0.32233587,-0.7800743,0.6217076,-2.347706
147,1778621612.4356062,-0.03945352,0.12110463,-0.32233587,-0.7800743,0.6217076,-2.347706
148,1778621612.445607,-0.03945352,0.12110463,-0.32233587,-0.7800743,0.6217076,-2.347706
149,1778621612.4556105,-0.004085604,0.13354437,0.22281788,1.3298526,1.2472332,-2.3086107
150,1778621612.4656203,-0.004085604,0.13354437,0.22281788,1.3298526,1.2472332,-2.3086107
151,1778621612.4756207,-0.004085604,0.13354437,0.22281788,1.3298526,1.2472332,-2.3086107
152,1778621612.4856217,-0.00042685418,-0.009634708,-0.45087993,0.06291907,0.012064579,-0.9628756
153,1778621612.4956253,-0.05799119,-0.07329696,0.102810875,-0.4300488,-0.9732603,-0.6714931
154,1778621612.505627,-0.05799119,-0.07329696,0.102810875,-0.4300488,-0.9732603,-0.6714931
155,1778621612.5156276,-0.05799119,-0.07329696,0.102810875,-0.4300488,-0.9732603,-0.6714931
156,1778621612.5256286,-0.05799119,-0.07329696,0.102810875,-0.4300488,-0.9732603,-0.6714931
157,1778621612.535629,-0.05799119,-0.07329696,0.102810875,-0.4300488,-0.9732603,-0.6714931
158,1778621612.5456297,-0.12945877,-0.12110463,0.25721014,-0.4300488,-0.9732603,-0.6714931
159,1778621612.5556304,-0.12945877,-0.12110463,0.25721014,-0.4300488,-0.9732603,-0.6714931
160,1778621612.5656314,-0.12945877,-0.12110463,0.25721014,-0.4300488,-0.9732603,-0.6714931
161,1778621612.5756328,-0.07408969,-0.078663126,0.14720371,-0.4300488,-0.9732603,-0.6714931
162,1778621612.5856338,-0.07408969,-0.078663126,0.14720371,-0.4300488,-0.9732603,-0.6714931
163,1778621612.5956345,-0.07408969,-0.078663126,0.14720371,-0.4300488,-0.9732603,-0.6714931
164,1778621612.605636,-0.07408969,-0.078663126,0.14720371,-0.4300488,-0.9732603,-0.6714931
165,1778621612.615637,-0.07408969,-0.078663126,0.14720371,-0.4300488,-0.9732603,-0.6714931
166,1778621612.6256373,-0.07408969,-0.078663126,0.14720371,-0.4300488,-0.9732603,-0.6714931
167,1778621612.6356382,-0.07408969,-0.078663126,0.14720371,-0.4300488,-0.9732603,-0.6714931
168,1778621612.645639,-0.07408969,-0.078663126,0.14720371,-0.4300488,-0.9732603,-0.6714931
169,1778621612.6556396,-0.07408969,-0.078663126,0.14720371,-0.4300488,-0.9732603,-0.6714931
170,1778621612.6656487,-0.1621436,-0.12964171,0.32648247,-0.6041453,-0.8339831,-0.6030763
171,1778621612.6756513,-0.1621436,-0.12964171,0.32648247,-0.6041453,-0.8339831,-0.6030763
172,1778621612.6856518,-0.1621436,-0.12964171,0.32648247,-0.6041453,-0.8339831,-0.6030763
173,1778621612.6956544,-0.1621436,-0.12964171,0.32648247,-0.6041453,-0.8339831,-0.6030763
174,1778621612.705656,-0.1621436,-0.12964171,0.32648247,-0.6041453,-0.8339831,-0.6030763
175,1778621612.715657,-0.1621436,-0.12964171,0.32648247,-0.6041453,-0.8339831,-0.6030763
176,1778621612.7256577,-0.1621436,-0.12964171,0.32648247,-0.6041453,-0.8339831,-0.6030763
177,1778621612.7356584,-0.1621436,-0.12964171,0.32648247,-0.6041453,-0.8339831,-0.6030763
178,1778621612.7456598,-0.1621436,-0.12964171,0.32648247,-0.7330377,-0.7527381,-0.56214833
179,1778621612.7556608,-0.1621436,-0.12964171,0.32648247,-0.7330377,-0.7527381,-0.56214833
180,1778621612.7656617,-0.17311986,-0.12256813,0.3579477,-0.7330377,-0.7527381,-0.56214833
181,1778621612.7756627,-0.17311986,-0.12256813,0.3579477,-0.7330377,-0.7527381,-0.56214833
182,1778621612.785664,-0.17311986,-0.12256813,0.3579477,-0.7330377,-0.7527381,-0.56214833
183,1778621612.7956648,-0.1662902,-0.113299295,0.39673045,-0.8863648,-0.6366738,-0.52671814
184,1778621612.8057632,-0.1662902,-0.113299295,0.39673045,-0.8863648,-0.6366738,-0.52671814
185,1778621612.8157666,-0.1662902,-0.113299295,0.39673045,-0.8863648,-0.6366738,-0.52671814
186,1778621612.825768,-0.1662902,-0.113299295,0.39673045,-0.8863648,-0.6366738,-0.52671814
187,1778621612.8357685,-0.1662902,-0.113299295,0.39673045,-0.8863648,-0.6366738,-0.52671814
188,1778621612.8457694,-0.1662902,-0.113299295,0.39673045,-0.8863648,-0.6366738,-0.52671814
189,1778621612.85577,-0.11799469,-0.19354787,0.17696154,-0.8863648,-0.6366738,-0.52671814
190,1778621612.8657706,-0.11799469,-0.19354787,0.17696154,-0.8863648,-0.6366738,-0.52671814
191,1778621612.875771,-0.11799469,-0.19354787,0.17696154,-0.8863648,-0.6366738,-0.52671814
192,1778621612.885772,-0.11799469,-0.19354787,0.17696154,-1.2370012,-0.42226028,-0.5016727
193,1778621612.8957727,-0.11799469,-0.19354787,0.17696154,-1.2370012,-0.42226028,-0.5016727
194,1778621612.9057736,-0.09653002,-0.23891638,0.024025792,-2.376264,-0.064904384,-0.58108515
195,1778621612.9157743,-0.09653002,-0.23891638,0.024025792,-2.376264,-0.064904384,-0.58108515
196,1778621612.9257746,-0.09653002,-0.23891638,0.024025792,-2.376264,-0.064904384,-0.58108515
197,1778621612.9357755,-0.09653002,-0.23891638,0.024025792,-2.376264,-0.064904384,-0.58108515
198,1778621612.9457762,-0.09653002,-0.23891638,0.024025792,-2.376264,-0.064904384,-0.58108515
199,1778621612.9557767,-0.07360186,-0.3706314,-0.35965514,-2.376264,-0.064904384,-0.58108515
200,1778621612.9657776,-0.07360186,-0.3706314,-0.35965514,-2.376264,-0.064904384,-0.58108515
201,1778621612.9757895,-0.07360186,-0.3706314,-0.35965514,-2.376264,-0.064904384,-0.58108515
202,1778621612.9857912,-0.16555844,-0.55576414,-0.5801558,-3.18566,0.045662142,-0.59818935
203,1778621612.995792,-0.16555844,-0.55576414,-0.5801558,-3.18566,0.045662142,-0.59818935
204,1778621613.0057929,-0.16555844,-0.55576414,-0.5801558,-3.18566,0.045662142,-0.59818935
205,1778621613.015794,-0.16555844,-0.55576414,-0.5801558,-3.18566,0.045662142,-0.59818935
206,1778621613.025795,-0.3670336,-0.81602323,-0.50185853,-4.0989027,-0.11194097,-0.29947644
207,1778621613.035796,-0.3670336,-0.81602323,-0.50185853,-4.0989027,-0.11194097,-0.29947644
208,1778621613.0457966,-0.3670336,-0.81602323,-0.50185853,-4.0989027,-0.11194097,-0.29947644
209,1778621613.055802,-0.43313503,-0.9077358,-0.48819923,-4.0989027,-0.11194097,-0.29947644
210,1778621613.0658038,-0.43313503,-0.9077358,-0.48819923,-4.0989027,-0.11194097,-0.29947644
211,1778621613.0758045,-0.43313503,-0.9077358,-0.48819923,-4.0989027,-0.11194097,-0.29947644
212,1778621613.085805,-0.43313503,-0.9077358,-0.48819923,-4.0989027,-0.11194097,-0.29947644
213,1778621613.095806,-0.43313503,-0.9077358,-0.48819923,-4.0989027,-0.11194097,-0.29947644
214,1778621613.1058064,-0.5987544,-1.1972649,-0.7630933,-3.8240135,-0.93844104,0.30894485
215,1778621613.1158068,-0.5987544,-1.1972649,-0.7630933,-3.8240135,-0.93844104,0.30894485
216,1778621613.1258073,-0.5987544,-1.1972649,-0.7630933,-3.8240135,-0.93844104,0.30894485
217,1778621613.135808,-0.5987544,-1.1972649,-0.7630933,-3.8240135,-0.93844104,0.30894485
218,1778621613.1458085,-0.5987544,-1.1972649,-0.7630933,-3.8240135,-0.93844104,0.30894485
219,1778621613.1558099,-1.1224436,-3.5591102,1.1684829,-0.90957767,0.64186615,1.3510802
220,1778621613.1658194,-1.1219556,-4.1749997,1.2933682,-0.90957767,0.64186615,1.3510802
221,1778621613.1758227,-1.1219556,-4.1749997,1.2933682,-0.90957767,0.64186615,1.3510802
222,1778621613.185824,-0.25629544,-4.8257694,-0.59991306,0.8142828,1.9680536,-0.9463823
223,1778621613.1958244,-0.25629544,-4.8257694,-0.59991306,0.8142828,1.9680536,-0.9463823
224,1778621613.2058249,-0.25629544,-4.8257694,-0.59991306,0.8142828,1.9680536,-0.9463823
225,1778621613.2158263,-0.24141651,-4.852356,-0.5901564,0.8142828,1.9680536,-0.9463823
226,1778621613.2258272,-0.24141651,-4.852356,-0.5901564,0.8142828,1.9680536,-0.9463823
227,1778621613.2358282,-0.10653061,-4.8021092,-0.3942913,0.82283485,1.5862631,-0.7948878
228,1778621613.245829,-0.10653061,-4.8021092,-0.3942913,0.82283485,1.5862631,-0.7948878
229,1778621613.2558296,-0.10653061,-4.8021092,-0.3942913,0.82283485,1.5862631,-0.7948878
230,1778621613.26583,-0.10653061,-4.8021092,-0.3942913,0.82283485,1.5862631,-0.7948878
231,1778621613.275831,-0.10653061,-4.8021092,-0.3942913,0.82283485,1.5862631,-0.7948878
232,1778621613.2858315,-0.10653061,-4.8021092,-0.3942913,0.82283485,1.5862631,-0.7948878
233,1778621613.2958348,-0.011890938,-4.6699066,-0.34087354,0.97005326,1.3547454,-0.45158178
234,1778621613.3058379,0.20739016,-4.0840187,-0.19867012,0.97005326,1.3547454,-0.45158178
235,1778621613.3158388,0.20739016,-4.0840187,-0.19867012,0.97005326,1.3547454,-0.45158178
236,1778621613.3258393,0.20739016,-4.0840187,-0.19867012,0.97005326,1.3547454,-0.45158178
237,1778621613.3358428,0.20739016,-4.0840187,-0.19867012,1.3652828,1.1232276,-0.017867794
238,1778621613.3458443,0.20739016,-4.0840187,-0.19867012,1.3652828,1.1232276,-0.017867794
239,1778621613.355845,0.20739016,-4.0840187,-0.19867012,1.3652828,1.1232276,-0.017867794
240,1778621613.3658454,0.20739016,-4.0840187,-0.19867012,1.3652828,1.1232276,-0.017867794
241,1778621613.3758461,-0.32410428,-2.5170982,-0.47380814,1.1404846,-1.1504111,1.4164428
242,1778621613.3858469,-0.32410428,-2.5170982,-0.47380814,1.1404846,-1.1504111,1.4164428
243,1778621613.395847,-0.32410428,-2.5170982,-0.47380814,1.1404846,-1.1504111,1.4164428
244,1778621613.405848,-0.20653644,-1.2594638,-0.32160413,1.0684025,-0.32268932,1.0089959
245,1778621613.415849,-0.07750452,-0.8991988,-0.21818347,1.1252129,0.25518876,0.9833396
246,1778621613.4258492,-0.07750452,-0.8991988,-0.21818347,1.1252129,0.25518876,0.9833396
247,1778621613.43585,-0.07750452,-0.8991988,-0.21818347,1.1252129,0.25518876,0.9833396
248,1778621613.4460542,-0.07750452,-0.8991988,-0.21818347,1.1252129,0.25518876,0.9833396
249,1778621613.4560554,-0.07750452,-0.8991988,-0.21818347,1.1252129,0.25518876,0.9833396
250,1778621613.466056,-0.07750452,-0.8991988,-0.21818347,1.1362085,0.44394597,0.99922204
251,1778621613.476057,-0.07750452,-0.8991988,-0.21818347,1.1362085,0.44394597,0.99922204
252,1778621613.4860575,-0.045063604,-0.83065826,-0.1981823,1.1362085,0.44394597,0.99922204
253,1778621613.496059,-0.045063604,-0.83065826,-0.1981823,1.1447606,0.56367546,1.0395391
254,1778621613.50606,-0.045063604,-0.83065826,-0.1981823,1.1447606,0.56367546,1.0395391
255,1778621613.5160606,-0.045063604,-0.83065826,-0.1981823,1.1447606,0.56367546,1.0395391
256,1778621613.5260618,0.14836231,0.2289158,-0.2215983,0.52656543,-0.32696536,1.4225514
257,1778621613.5360622,0.14836231,0.2289158,-0.2215983,0.52656543,-0.32696536,1.4225514
258,1778621613.5460632,0.14836231,0.2289158,-0.2215983,0.52656543,-0.32696536,1.4225514
259,1778621613.5560725,0.14836231,0.2289158,-0.2215983,0.52656543,-0.32696536,1.4225514
260,1778621613.5660758,0.14836231,0.2289158,-0.2215983,0.52656543,-0.32696536,1.4225514
261,1778621613.5760767,0.12079973,0.50161463,-0.08573671,0.24678937,-0.21273366,1.3437498
262,1778621613.5860772,0.12079973,0.50161463,-0.08573671,0.24678937,-0.21273366,1.3437498
263,1778621613.596078,0.12079973,0.50161463,-0.08573671,0.24678937,-0.21273366,1.3437498
264,1778621613.6060786,0.11762882,0.53405553,-0.058905877,0.11484258,-0.057574004,1.2728895
265,1778621613.6160793,0.11762882,0.53405553,-0.058905877,0.11484258,-0.057574004,1.2728895
266,1778621613.6260798,0.11762882,0.53405553,-0.058905877,0.11484258,-0.057574004,1.2728895
267,1778621613.636081,0.024696562,0.3506302,-0.5379582,-1.472795,-0.30436337,1.455538
268,1778621613.6460817,0.024696562,0.3506302,-0.5379582,-1.472795,-0.30436337,1.455538
269,1778621613.6560855,0.024696562,0.3506302,-0.5379582,-1.472795,-0.30436337,1.455538
270,1778621613.6660986,0.024696562,0.3506302,-0.5379582,-2.1178682,-0.32268932,1.6711733
271,1778621613.676099,0.024696562,0.3506302,-0.5379582,-2.1178682,-0.32268932,1.6711733
272,1778621613.6861002,0.024696562,0.3506302,-0.5379582,-2.1178682,-0.32268932,1.6711733
273,1778621613.6961017,0.024696562,0.3506302,-0.5379582,-2.294408,-0.3281871,1.7389793
274,1778621613.7061026,0.024696562,0.3506302,-0.5379582,-2.294408,-0.3281871,1.7389793
275,1778621613.7161038,0.024696562,0.3506302,-0.5379582,-2.294408,-0.3281871,1.7389793
276,1778621613.7261045,0.024696562,0.3506302,-0.5379582,-2.294408,-0.3281871,1.7389793
277,1778621613.736106,0.024696562,0.3506302,-0.5379582,-2.294408,-0.3281871,1.7389793
278,1778621613.7461073,0.02494048,0.23623328,-0.43600106,-2.7067418,-0.3715585,1.9552255
279,1778621613.756109,0.02494048,0.23623328,-0.43600106,-2.7067418,-0.3715585,1.9552255
280,1778621613.7661102,0.02494048,0.23623328,-0.43600106,-2.7067418,-0.3715585,1.9552255
281,1778621613.7761118,0.032014064,0.05719846,-0.34721538,-2.086714,-0.72586006,2.0095923
282,1778621613.7861135,0.032014064,0.05719846,-0.34721538,-2.086714,-0.72586006,2.0095923
283,1778621613.796115,0.032014064,0.05719846,-0.34721538,-2.086714,-0.72586006,2.0095923
284,1778621613.806116,0.06860156,-0.027440626,-0.12817821,-1.3182462,-0.88896096,1.9845469
285,1778621613.81612,0.06860156,-0.027440626,-0.12817821,-1.3182462,-0.88896096,1.9845469
286,1778621613.8261235,0.06860156,-0.027440626,-0.12817821,-1.3182462,-0.88896096,1.9845469
287,1778621613.836127,0.11689706,-0.13134913,-0.028660208,-0.28038692,-1.0239621,1.6223041
288,1778621613.8461292,0.11689706,-0.13134913,-0.028660208,-0.28038692,-1.0239621,1.6223041
289,1778621613.8561313,0.11689706,-0.13134913,-0.028660208,-0.28038692,-1.0239621,1.6223041
290,1778621613.866133,0.11689706,-0.13134913,-0.028660208,-0.28038692,-1.0239621,1.6223041
291,1778621613.8761344,0.11689706,-0.13134913,-0.028660208,-0.28221953,-0.57741994,1.7310381
292,1778621613.8861363,0.11689706,-0.13134913,-0.028660208,-0.28221953,-0.57741994,1.7310381
293,1778621613.8961372,0.11689706,-0.13134913,-0.028660208,-0.28221953,-0.57741994,1.7310381
294,1778621613.9061387,0.11689706,-0.13134913,-0.028660208,-0.34391686,-0.7447969,1.6742276
295,1778621613.9161403,0.11689706,-0.13134913,-0.028660208,-0.34391686,-0.7447969,1.6742276
296,1778621613.9261417,0.11689706,-0.13134913,-0.028660208,-0.34391686,-0.7447969,1.6742276
297,1778621613.9361432,0.22178122,-0.23574546,-0.28355312,-0.19547673,-1.2896882,1.6045891
298,1778621613.9461446,0.6727832,-0.036953375,0.11817763,0.48136145,-1.9756894,1.2392919
299,1778621613.9561462,0.6727832,-0.036953375,0.11817763,0.48136145,-1.9756894,1.2392919
300,1778621613.9661481,0.6727832,-0.036953375,0.11817763,0.6383537,-1.8748968,1.0780237
301,1778621613.9762454,0.6727832,-0.036953375,0.11817763,0.6383537,-1.8748968,1.0780237
302,1778621613.9862466,0.6727832,-0.036953375,0.11817763,0.6383537,-1.8748968,1.0780237
303,1778621613.9962482,0.6727832,-0.036953375,0.11817763,0.6383537,-1.8748968,1.0780237
304,1778621614.0062675,0.6727832,-0.036953375,0.11817763,0.6383537,-1.8748968,1.0780237
305,1778621614.016269,0.6727832,-0.036953375,0.11817763,0.6383537,-1.8748968,1.0780237
306,1778621614.0262713,0.6727832,-0.036953375,0.11817763,0.6383537,-1.8748968,1.0780237
307,1778621614.0362735,0.6727832,-0.036953375,0.11817763,0.6383537,-1.8748968,1.0780237
308,1778621614.0462756,0.6727832,-0.036953375,0.11817763,0.6383537,-1.8748968,1.0780237
309,1778621614.056281,0.6727832,-0.036953375,0.11817763,0.6383537,-1.8748968,1.0780237
310,1778621614.066296,0.6727832,-0.036953375,0.11817763,0.6383537,-1.8748968,1.0780237
311,1778621614.076298,0.6727832,-0.036953375,0.11817763,0.6383537,-1.8748968,1.0780237
312,1778621614.0862994,0.6727832,-0.036953375,0.11817763,0.6383537,-1.8748968,1.0780237
313,1778621614.0963001,0.6727832,-0.036953375,0.11817763,0.6383537,-1.8748968,1.0780237
314,1778621614.1063015,0.6727832,-0.036953375,0.11817763,0.6383537,-1.8748968,1.0780237
315,1778621614.116304,0.6727832,-0.036953375,0.11817763,0.6383537,-1.8748968,1.0780237
316,1778621614.1263995,0.6727832,-0.036953375,0.11817763,0.6383537,-1.8748968,1.0780237
317,1778621614.1364012,0.6727832,-0.036953375,0.11817763,0.76419187,-1.7588325,0.88987726
318,1778621614.1464028,0.6727832,-0.036953375,0.11817763,0.76419187,-1.7588325,0.88987726
319,1778621614.1564045,0.6727832,-0.036953375,0.11817763,0.76419187,-1.7588325,0.88987726
320,1778621614.1664064,0.6727832,-0.036953375,0.11817763,0.76419187,-1.7588325,0.88987726
321,1778621614.1764078,0.6727832,-0.036953375,0.11817763,0.76419187,-1.7588325,0.88987726
322,1778621614.1864092,0.48545516,0.1574482,0.08939546,0.6658426,-1.5431972,-0.35567603
323,1778621614.1964107,0.48545516,0.1574482,0.08939546,0.6658426,-1.5431972,-0.35567603
324,1778621614.2064118,0.48545516,0.1574482,0.08939546,0.6658426,-1.5431972,-0.35567603
325,1778621614.2164142,-0.64143986,-0.30550563,-0.5121031,-0.64324063,0.23136504,-0.79183346
326,1778621614.2264156,-0.64143986,-0.30550563,-0.5121031,-0.64324063,0.23136504,-0.79183346
327,1778621614.236417,-0.64143986,-0.30550563,-0.5121031,-0.64324063,0.23136504,-0.79183346
328,1778621614.2464192,-0.64143986,-0.30550563,-0.5121031,-0.64324063,0.23136504,-0.79183346
329,1778621614.2564206,-0.9224319,-1.1001861,-1.445816,-2.128253,-0.69348425,-0.29092434
330,1778621614.2664218,-0.9224319,-1.1001861,-1.445816,-2.128253,-0.69348425,-0.29092434
331,1778621614.2764232,-1.270501,-1.7346133,3.3766606,-5.155088,-2.8119633,1.5294527
332,1778621614.2870529,-2.926939,-2.1922011,-1.8860856,-1.9034547,2.412763,1.8764238
333,1778621614.2970548,-2.926939,-2.1922011,-1.8860856,-1.9034547,2.412763,1.8764238
334,1778621614.3070564,-1.2331817,-1.4241076,-1.3899592,-1.9034547,2.412763,1.8764238
335,1778621614.3170574,-1.2331817,-1.4241076,-1.3899592,-1.9034547,2.412763,1.8764238
336,1778621614.327058,-1.2331817,-1.4241076,-1.3899592,-4.5674357,-2.2542439,0.66446817
337,1778621614.3370595,-1.2331817,-1.4241076,-1.3899592,-4.5674357,-2.2542439,0.66446817
338,1778621614.3470607,-1.2331817,-1.4241076,-1.3899592,-4.5674357,-2.2542439,0.66446817
339,1778621614.3570623,-1.2714766,-1.4799644,-0.9884723,-4.5674357,-2.2542439,0.66446817
340,1778621614.3670642,-1.2714766,-1.4799644,-0.9884723,-4.5674357,-2.2542439,0.66446817
341,1778621614.3770652,-1.2714766,-1.4799644,-0.9884723,-4.5674357,-2.2542439,0.66446817
342,1778621614.3870664,-0.78144807,-3.430566,-2.8793144,-1.2822052,5.3662944,0.5367974
343,1778621614.3970675,-0.78144807,-3.430566,-2.8793144,-1.2822052,5.3662944,0.5367974
344,1778621614.4070683,-0.78144807,-3.430566,-2.8793144,-1.2822052,5.3662944,0.5367974
345,1778621614.4170687,-0.03433127,-2.6100304,0.23111105,0.30665413,-1.5095996,-0.23167047
346,1778621614.4270694,-0.03433127,-2.6100304,0.23111105,0.30665413,-1.5095996,-0.23167047
347,1778621614.4370706,-0.26214942,-2.5031948,-0.085004956,0.57482374,-2.243859,-0.56092656
348,1778621614.447073,-0.26214942,-2.5031948,-0.085004956,0.57482374,-2.243859,-0.56092656
349,1778621614.4570746,-0.26214942,-2.5031948,-0.085004956,0.57482374,-2.243859,-0.56092656
350,1778621614.4670756,-0.26214942,-2.5031948,-0.085004956,1.0598503,-4.263989,-1.353829
351,1778621614.477084,-1.3166012,-2.368309,-0.70357764,1.0598503,-4.263989,-1.353829
352,1778621614.487087,-1.3166012,-2.368309,-0.70357764,1.0598503,-4.263989,-1.353829
353,1778621614.4970908,-2.0778651,-2.2604978,-0.6462572,1.1374302,-4.70992,-1.4955497
354,1778621614.5073936,-2.0778651,-2.2604978,-0.6462572,1.1374302,-4.70992,-1.4955497
355,1778621614.517394,-2.0778651,-2.2604978,-0.6462572,1.1374302,-4.70992,-1.4955497
356,1778621614.527395,-2.0778651,-2.2604978,-0.6462572,1.1374302,-4.70992,-1.4955497
357,1778621614.537396,-2.0778651,-2.2604978,-0.6462572,1.1374302,-4.70992,-1.4955497
358,1778621614.5473971,-2.0778651,-2.2604978,-0.6462572,1.1374302,-4.70992,-1.4955497
359,1778621614.5573986,-2.0778651,-2.2604978,-0.6462572,1.2913681,-4.9011207,-1.5517492
360,1778621614.567399,-2.0778651,-2.2604978,-0.6462572,1.2913681,-4.9011207,-1.5517492
361,1778621614.5774,-1.9459062,-2.1609797,-0.45063603,1.3726132,-4.560869,-1.5267038
362,1778621614.5874016,-1.9459062,-2.1609797,-0.45063603,1.3726132,-4.560869,-1.5267038
363,1778621614.597402,-1.9459062,-2.1609797,-0.45063603,1.3726132,-4.560869,-1.5267038
364,1778621614.607403,-1.9298077,-2.125856,-0.030367626,1.3726132,-4.560869,-1.5267038
365,1778621614.617404,-1.9298077,-2.125856,-0.030367626,1.3726132,-4.560869,-1.5267038
366,1778621614.6274042,-1.9298077,-2.125856,-0.030367626,1.3726132,-4.560869,-1.5267038
367,1778621614.6374068,-0.19360885,-0.4042919,0.030123709,2.268141,-0.011148282,-2.0483823
368,1778621614.6476648,-0.19360885,-0.4042919,0.030123709,2.268141,-0.011148282,-2.0483823
369,1778621614.657665,-0.19360885,-0.4042919,0.030123709,2.268141,-0.011148282,-2.0483823
370,1778621614.667666,-0.19360885,-0.4042919,0.030123709,2.268141,-0.011148282,-2.0483823
371,1778621614.677667,-0.19360885,-0.4042919,0.030123709,2.268141,-0.011148282,-2.0483823
372,1778621614.6876674,-0.19360885,-0.4042919,0.030123709,2.268141,-0.011148282,-2.0483823
373,1778621614.6976683,-0.22287886,-0.20110929,-0.05353971,2.268141,-0.011148282,-2.0483823
374,1778621614.7076693,-0.22287886,-0.20110929,-0.05353971,2.268141,-0.011148282,-2.0483823
375,1778621614.7176704,-0.22287886,-0.20110929,-0.05353971,2.268141,-0.011148282,-2.0483823
376,1778621614.7276714,-0.22287886,-0.20110929,-0.05353971,2.268141,-0.011148282,-2.0483823
377,1778621614.7376719,-0.22287886,-0.20110929,-0.05353971,2.268141,-0.011148282,-2.0483823
378,1778621614.7476726,-0.22287886,-0.20110929,-0.05353971,2.1661265,-0.16386448,-2.1461208
379,1778621614.7576733,-0.22287886,-0.20110929,-0.05353971,2.1661265,-0.16386448,-2.1461208
380,1778621614.7676742,-0.22287886,-0.20110929,-0.05353971,2.1661265,-0.16386448,-2.1461208
381,1778621614.777675,-0.34191018,0.27989438,-0.6667462,0.6572905,-0.28848088,-2.7698135
382,1778621614.7876756,-0.34191018,0.27989438,-0.6667462,0.6572905,-0.28848088,-2.7698135
383,1778621614.7976763,-0.34191018,0.27989438,-0.6667462,0.6572905,-0.28848088,-2.7698135
384,1778621614.8076773,-0.34191018,0.27989438,-0.6667462,0.6572905,-0.28848088,-2.7698135
385,1778621614.8176777,-0.34191018,0.27989438,-0.6667462,0.6572905,-0.28848088,-2.7698135
386,1778621614.8276787,-0.34191018,0.27989438,-0.6667462,0.6572905,-0.28848088,-2.7698135
387,1778621614.8376796,-0.34191018,0.27989438,-0.6667462,0.43737918,-0.35506517,-2.7850852
388,1778621614.84768,-0.34191018,0.27989438,-0.6667462,0.43737918,-0.35506517,-2.7850852
389,1778621614.8576818,-0.36166742,0.2374529,-0.94359165,-0.28038692,-0.698982,-2.7698135
390,1778621614.8676834,-0.36166742,0.2374529,-0.94359165,-0.50885034,-0.8474222,-2.7447681
391,1778621614.877684,-0.36166742,0.2374529,-0.94359165,-0.50885034,-0.8474222,-2.7447681
392,1778621614.8876848,-0.36166742,0.2374529,-0.94359165,-0.50885034,-0.8474222,-2.7447681
393,1778621614.8980224,-0.37508285,0.16842447,-0.8909056,-0.50885034,-0.8474222,-2.7447681
394,1778621614.9080238,-0.37508285,0.16842447,-0.8909056,-0.50885034,-0.8474222,-2.7447681
395,1778621614.9180245,-0.37508285,0.16842447,-0.8909056,-0.50885034,-0.8474222,-2.7447681
396,1778621614.9280274,-0.37508285,0.16842447,-0.8909056,-0.50885034,-0.8474222,-2.7447681
397,1778621614.938029,-0.37508285,0.16842447,-0.8909056,-0.50885034,-0.8474222,-2.7447681
398,1778621614.94803,-0.37508285,0.16842447,-0.8909056,-0.50885034,-0.8474222,-2.7447681
399,1778621614.9580307,-0.37508285,0.16842447,-0.8909056,-0.50885034,-0.8474222,-2.7447681
400,1778621614.9680314,-0.37508285,0.16842447,-0.8909056,-0.50885034,-0.8474222,-2.7447681
401,1778621614.978035,-0.37239978,0.058418043,-0.6596726,-0.50885034,-0.8474222,-2.7447681
402,1778621614.9880507,-0.37239978,0.058418043,-0.6596726,-0.50885034,-0.8474222,-2.7447681
403,1778621614.9980514,-0.37239978,0.058418043,-0.6596726,-0.50885034,-0.8474222,-2.7447681
404,1778621615.008052,-0.37239978,0.058418043,-0.6596726,-1.1844668,-1.2921318,-2.5297437
405,1778621615.018053,-0.37239978,0.058418043,-0.6596726,-1.1844668,-1.2921318,-2.5297437
406,1778621615.0280542,-0.37239978,0.058418043,-0.6596726,-1.1844668,-1.2921318,-2.5297437
407,1778621615.0385036,-0.37239978,0.058418043,-0.6596726,-1.1844668,-1.2921318,-2.5297437
408,1778621615.0485046,-0.37239978,0.058418043,-0.6596726,-1.1844668,-1.2921318,-2.5297437
409,1778621615.0585055,-0.37239978,0.058418043,-0.6596726,-1.1844668,-1.2921318,-2.5297437
410,1778621615.0685065,-0.37239978,0.058418043,-0.6596726,-1.1844668,-1.2921318,-2.5297437
411,1778621615.0785081,-0.38532734,-0.12817821,-0.24013597,-1.3225223,-0.7838922,-1.8095342
412,1778621615.0885088,-0.38532734,-0.12817821,-0.24013597,-1.3225223,-0.7838922,-1.8095342
413,1778621615.0985093,-0.38532734,-0.12817821,-0.24013597,-1.3225223,-0.7838922,-1.8095342
414,1778621615.10851,-0.38532734,-0.12817821,-0.24013597,-1.3225223,-0.7838922,-1.8095342
415,1778621615.1185112,-0.38532734,-0.12817821,-0.24013597,-1.3225223,-0.7838922,-1.8095342
416,1778621615.1285117,-0.38532734,-0.12817821,-0.24013597,-1.3225223,-0.7838922,-1.8095342
417,1778621615.1385124,0.19690172,0.18720604,0.14525238,-0.021991132,0.84100807,-1.7588325
418,1778621615.1485133,0.21178065,0.20793895,0.2598932,0.15210533,1.1775945,-1.783267
419,1778621615.1585143,0.21178065,0.20793895,0.2598932,0.15210533,1.1775945,-1.783267
420,1778621615.168515,0.21178065,0.20793895,0.2598932,0.42943794,1.8678718,-1.814421
421,1778621615.178526,0.21178065,0.20793895,0.2598932,0.42943794,1.8678718,-1.814421
422,1778621615.1885295,0.21178065,0.20793895,0.2598932,0.42943794,1.8678718,-1.814421
423,1778621615.1985307,0.21178065,0.20793895,0.2598932,0.42943794,1.8678718,-1.814421
424,1778621615.2085314,0.21178065,0.20793895,0.2598932,0.42943794,1.8678718,-1.814421
425,1778621615.2185326,0.21178065,0.20793895,0.2598932,0.42943794,1.8678718,-1.814421
426,1778621615.2285333,0.18934031,0.15330163,0.4047797,0.42943794,1.8678718,-1.814421
427,1778621615.238534,0.18934031,0.15330163,0.4047797,0.42943794,1.8678718,-1.814421
428,1778621615.2485359,0.18934031,0.15330163,0.4047797,0.42943794,1.8678718,-1.814421
429,1778621615.2585375,0.18934031,0.15330163,0.4047797,0.42943794,1.8678718,-1.814421
430,1778621615.268538,0.18934031,0.15330163,0.4047797,0.42943794,1.8678718,-1.814421
431,1778621615.2785385,0.18934031,0.15330163,0.4047797,0.42943794,1.8678718,-1.814421
432,1778621615.2885394,0.18934031,0.15330163,0.4047797,0.42943794,1.8678718,-1.814421
433,1778621615.2985399,0.18934031,0.15330163,0.4047797,0.42943794,1.8678718,-1.814421
434,1778621615.3085406,0.18934031,0.15330163,0.4047797,0.42943794,1.8678718,-1.814421
435,1778621615.3185418,0.025428312,0.018903542,-0.036221627,0.867428,1.8580979,-1.0911572
436,1778621615.3285425,0.025428312,0.018903542,-0.036221627,0.867428,1.8580979,-1.0911572
437,1778621615.3385432,0.025428312,0.018903542,-0.036221627,0.867428,1.8580979,-1.0911572
438,1778621615.3485434,0.025428312,0.018903542,-0.036221627,0.867428,1.8580979,-1.0911572
439,1778621615.3585443,0.025428312,0.018903542,-0.036221627,0.95111644,1.3675735,-0.9421062
440,1778621615.368545,0.025428312,0.018903542,-0.036221627,0.95111644,1.3675735,-0.9421062
441,1778621615.3785458,0.025428312,0.018903542,-0.036221627,0.95111644,1.3675735,-0.9421062
442,1778621615.3885465,-0.037746105,0.0032928751,-0.769923,0.6994402,0.65774864,-0.82543105
443,1778621615.3985474,-0.037746105,0.0032928751,-0.769923,0.6994402,0.65774864,-0.82543105
444,1778621615.4085479,-0.037746105,0.0032928751,-0.769923,0.6994402,0.65774864,-0.82543105
445,1778621615.418549,-0.037746105,0.0032928751,-0.769923,0.34697118,-0.23716825,-0.78939
446,1778621615.42855,-0.037746105,0.0032928751,-0.769923,0.34697118,-0.23716825,-0.78939
447,1778621615.4385505,-0.037746105,0.0032928751,-0.769923,0.34697118,-0.23716825,-0.78939
448,1778621615.4485514,0.031282313,-0.20598765,-0.048173543,0.56504995,1.0120503,-0.9347758
449,1778621615.4588451,0.031282313,-0.20598765,-0.048173543,0.56504995,1.0120503,-0.9347758
450,1778621615.4688458,0.031282313,-0.20598765,-0.048173543,0.56504995,1.0120503,-0.9347758
451,1778621615.4788468,0.031282313,-0.20598765,-0.048173543,0.4581486,0.6583595,-0.925002
452,1778621615.489926,-0.005793021,-0.2423312,-0.061101127,0.26816964,0.21059564,-0.89262617
453,1778621615.4999292,-0.005793021,-0.2423312,-0.061101127,0.26816964,0.21059564,-0.89262617
454,1778621615.5099306,-0.005793021,-0.2423312,-0.061101127,0.26816964,0.21059564,-0.89262617
455,1778621615.5202932,-0.005793021,-0.2423312,-0.061101127,0.26816964,0.21059564,-0.89262617
456,1778621615.530294,-0.005793021,-0.2423312,-0.061101127,0.26816964,0.21059564,-0.89262617
457,1778621615.5403085,-0.005793021,-0.2423312,-0.061101127,0.26816964,0.21059564,-0.89262617
458,1778621615.5504813,-0.005793021,-0.2423312,-0.061101127,0.26816964,0.21059564,-0.89262617
459,1778621615.5604823,-0.78535074,-2.0924392,-0.5955225,-2.2070544,-2.6891794,1.1586578
460,1778621615.5704837,-0.3448372,-2.602225,1.3089788,0.40683594,5.3864527,0.30589053
461,1778621615.5804842,-0.3448372,-2.602225,1.3089788,0.40683594,5.3864527,0.30589053
462,1778621615.590485,-0.3448372,-2.602225,1.3089788,0.40683594,5.3864527,0.30589053
463,1778621615.600486,0.68985736,-3.4295905,-0.6540625,2.7079635,5.1005683,0.04444041
464,1778621615.610487,0.68985736,-3.4295905,-0.6540625,2.7079635,5.1005683,0.04444041
465,1778621615.6204877,0.5539957,-4.35623,-0.8118766,1.6334524,1.1415535,-0.4424188
466,1778621615.6304884,0.5539957,-4.35623,-0.8118766,1.6334524,1.1415535,-0.4424188
467,1778621615.6404886,0.5539957,-4.35623,-0.8118766,1.6334524,1.1415535,-0.4424188
468,1778621615.6504893,0.36520424,-4.8689427,-0.04256346,1.500284,-0.12782346,-0.27565274
469,1778621615.6604898,0.36520424,-4.8689427,-0.04256346,1.500284,-0.12782346,-0.27565274
470,1778621615.6704915,0.36520424,-4.8689427,-0.04256346,1.500284,-0.12782346,-0.27565274
471,1778621615.680493,0.36520424,-4.8689427,-0.04256346,1.500284,-0.12782346,-0.27565274
472,1778621615.6904943,0.36520424,-4.8689427,-0.04256346,1.500284,-0.12782346,-0.27565274
473,1778621615.7004957,-0.9275541,-1.8575473,-0.42551264,1.6615522,0.53496486,0.35964665
474,1778621615.7105396,-0.9275541,-1.8575473,-0.42551264,1.6615522,0.53496486,0.35964665
475,1778621615.7205412,-0.9275541,-1.8575473,-0.42551264,1.6615522,0.53496486,0.35964665
476,1778621615.730543,-0.9275541,-1.8575473,-0.42551264,1.6615522,0.53496486,0.35964665
477,1778621615.740544,-0.9275541,-1.8575473,-0.42551264,1.6615522,0.53496486,0.35964665
478,1778621615.7505453,-0.9275541,-1.8575473,-0.42551264,1.6615522,0.53496486,0.35964665
479,1778621615.760547,-0.9275541,-1.8575473,-0.42551264,1.27854,0.52763444,0.6430879
480,1778621615.7705476,-0.9275541,-1.8575473,-0.42551264,1.27854,0.52763444,0.6430879
481,1778621615.7805486,-0.95267755,-1.5133809,-0.45258737,1.0103704,0.39935285,0.93508124
482,1778621615.790549,-0.95267755,-1.5133809,-0.45258737,1.0103704,0.39935285,0.93508124
483,1778621615.8005497,-0.95267755,-1.5133809,-0.45258737,1.0103704,0.39935285,0.93508124
484,1778621615.8105507,-0.95267755,-1.5133809,-0.45258737,0.82100224,0.33093598,1.1360558
485,1778621615.8205514,0.4110606,0.058174126,-0.002561125,0.01282816,0.16416991,2.2350016
486,1778621615.8305519,0.4110606,0.058174126,-0.002561125,0.01282816,0.16416991,2.2350016
487,1778621615.8405528,0.4110606,0.058174126,-0.002561125,0.01282816,0.16416991,2.2350016
488,1778621615.8505626,0.4100849,0.18891345,0.025245376,-0.10506874,0.583834,2.0089815
489,1778621615.8605654,0.4100849,0.18891345,0.025245376,-0.10506874,0.583834,2.0089815
490,1778621615.8705664,0.4100849,0.18891345,0.025245376,-0.10506874,0.583834,2.0089815
491,1778621615.8807812,0.37593657,0.3286777,0.019879209,-0.10506874,0.583834,2.0089815
492,1778621615.890784,0.37593657,0.3286777,0.019879209,-0.10506874,0.583834,2.0089815
493,1778621615.900785,0.37593657,0.3286777,0.019879209,-0.17409647,0.8269582,1.8697044
494,1778621615.9107857,0.37593657,0.3286777,0.019879209,-0.17409647,0.8269582,1.8697044
495,1778621615.9207861,0.1539724,0.4369767,-0.34258097,-0.962112,0.8330668,1.5746567
496,1778621615.9307868,0.1539724,0.4369767,-0.34258097,-0.962112,0.8330668,1.5746567
497,1778621615.9407876,0.1539724,0.4369767,-0.34258097,-0.962112,0.8330668,1.5746567
498,1778621615.9507883,0.1539724,0.4369767,-0.34258097,-0.962112,0.8330668,1.5746567
499,1778621615.960789,0.1539724,0.4369767,-0.34258097,-0.962112,0.8330668,1.5746567
500,1778621615.9707897,0.1539724,0.4369767,-0.34258097,-0.962112,0.8330668,1.5746567
501,1778621615.9807904,0.1539724,0.4369767,-0.34258097,-0.962112,0.8330668,1.5746567
502,1778621615.9907918,0.1539724,0.4369767,-0.34258097,-1.2980876,0.6149881,1.6559017
503,1778621616.0007925,0.1539724,0.4369767,-0.34258097,-1.2980876,0.6149881,1.6559017
504,1778621616.0107932,0.1539724,0.4369767,-0.34258097,-1.2980876,0.6149881,1.6559017
505,1778621616.0208027,0.12811723,0.41258505,-0.37575364,-1.4196497,0.54840386,1.6937753
506,1778621616.030806,0.12811723,0.41258505,-0.37575364,-1.4196497,0.54840386,1.6937753
507,1778621616.0408072,0.12933682,0.4028284,-0.35989904,-1.4196497,0.54840386,1.6937753
508,1778621616.0508084,0.12933682,0.4028284,-0.35989904,-1.4196497,0.54840386,1.6937753
509,1778621616.0608094,0.16763173,-0.093054205,0.12451946,-0.33841908,-0.80832684,2.0236423
510,1778621616.0708103,0.16763173,-0.093054205,0.12451946,-0.33841908,-0.80832684,2.0236423
511,1778621616.080811,0.16763173,-0.093054205,0.12451946,-0.33841908,-0.80832684,2.0236423
512,1778621616.090812,0.038599815,-0.22233005,-0.48917487,-0.2858847,-0.35384342,1.7328707
513,1778621616.10113,0.038599815,-0.22233005,-0.48917487,-0.31459537,-0.47479466,1.6778928
514,1778621616.111132,0.038599815,-0.22233005,-0.48917487,-0.31459537,-0.47479466,1.6778928
515,1778621616.1211329,0.038599815,-0.22233005,-0.48917487,-0.31459537,-0.47479466,1.6778928
516,1778621616.1311421,0.6503428,0.061345045,0.0035367915,0.09834923,-2.0410519,0.17088942
517,1778621616.1411452,0.6503428,0.061345045,0.0035367915,0.09834923,-2.0410519,0.17088942
518,1778621616.1511464,0.6503428,0.061345045,0.0035367915,0.09834923,-2.0410519,0.17088942
519,1778621616.1611488,0.6503428,0.061345045,0.0035367915,0.09834923,-2.0410519,0.17088942
520,1778621616.1711504,0.6503428,0.061345045,0.0035367915,0.09834923,-2.0410519,0.17088942
521,1778621616.1811554,0.6503428,0.061345045,0.0035367915,0.09834923,-2.0410519,0.17088942
522,1778621616.191175,0.6503428,0.061345045,0.0035367915,0.09834923,-2.0410519,0.17088942
523,1778621616.2011766,0.6503428,0.061345045,0.0035367915,0.09834923,-2.0410519,0.17088942
524,1778621616.2111783,0.6503428,0.061345045,0.0035367915,0.09834923,-2.0410519,0.17088942
525,1778621616.2211792,0.6503428,0.061345045,0.0035367915,0.09834923,-2.0410519,0.17088942
526,1778621616.231181,0.6503428,0.061345045,0.0035367915,0.09834923,-2.0410519,0.17088942
527,1778621616.2411828,0.6503428,0.061345045,0.0035367915,0.09834923,-2.0410519,0.17088942
528,1778621616.2511835,0.6503428,0.061345045,0.0035367915,0.09834923,-2.0410519,0.17088942
529,1778621616.2611852,0.50594413,0.08744413,0.005000292,-0.61452997,-1.9598069,-0.40026915
530,1778621616.2711873,0.50594413,0.08744413,0.005000292,-0.61452997,-1.9598069,-0.40026915
531,1778621616.2811892,0.50594413,0.08744413,0.005000292,-0.61452997,-1.9598069,-0.40026915
532,1778621616.2911909,0.50594413,0.08744413,0.005000292,-0.61452997,-1.9598069,-0.40026915
533,1778621616.3011923,0.50594413,0.08744413,0.005000292,-0.61452997,-1.9598069,-0.40026915
534,1778621616.3111942,0.50594413,0.08744413,0.005000292,-0.61452997,-1.9598069,-0.40026915
535,1778621616.321196,0.50594413,0.08744413,0.005000292,-0.80695236,-1.6574289,-0.46196648
536,1778621616.3311975,0.50594413,0.08744413,0.005000292,-0.80695236,-1.6574289,-0.46196648
537,1778621616.3411992,0.50594413,0.08744413,0.005000292,-0.80695236,-1.6574289,-0.46196648
538,1778621616.3512008,0.50594413,0.08744413,0.005000292,-0.23151775,-2.2401938,-0.1565341
539,1778621616.3612025,0.50594413,0.08744413,0.005000292,-0.23151775,-2.2401938,-0.1565341
540,1778621616.3712041,0.50594413,0.08744413,0.005000292,-0.23151775,-2.2401938,-0.1565341
541,1778621616.3812065,0.50594413,0.08744413,0.005000292,-0.23151775,-2.2401938,-0.1565341
542,1778621616.3912082,0.50594413,0.08744413,0.005000292,-0.23151775,-2.2401938,-0.1565341
543,1778621616.4012098,0.50594413,0.08744413,0.005000292,-0.23151775,-2.2401938,-0.1565341
544,1778621616.4112115,0.50594413,0.08744413,0.005000292,-0.23151775,-2.2401938,-0.1565341
545,1778621616.4212127,0.31154257,0.028660208,-0.010610376,-0.23151775,-2.2401938,-0.1565341
546,1778621616.4312143,0.31154257,0.028660208,-0.010610376,-0.23151775,-2.2401938,-0.1565341
547,1778621616.441216,0.31154257,0.028660208,-0.010610376,-0.23151775,-2.2401938,-0.1565341
548,1778621616.4512174,0.2591005,0.005000292,-0.03744121,-0.23151775,-2.2401938,-0.1565341
549,1778621616.4612184,0.2591005,0.005000292,-0.03744121,-0.23151775,-2.2401938,-0.1565341
550,1778621616.4712193,0.2591005,0.005000292,-0.03744121,-0.23151775,-2.2401938,-0.1565341
551,1778621616.481221,0.2591005,0.005000292,-0.03744121,-0.23151775,-2.2401938,-0.1565341
552,1778621616.4912233,0.2591005,0.005000292,-0.03744121,-0.23151775,-2.2401938,-0.1565341
553,1778621616.501225,0.2591005,0.005000292,-0.03744121,-0.23151775,-2.2401938,-0.1565341
554,1778621616.5112264,0.2591005,0.005000292,-0.03744121,-0.23151775,-2.2401938,-0.1565341
555,1778621616.5212278,0.2591005,0.005000292,-0.03744121,-0.23151775,-2.2401938,-0.1565341
556,1778621616.5312295,0.2591005,0.005000292,-0.03744121,-0.23151775,-2.2401938,-0.1565341
557,1778621616.5412312,0.2591005,0.005000292,-0.03744121,-0.9175189,-1.4869976,-0.48334676
558,1778621616.5512326,0.2591005,0.005000292,-0.03744121,-0.9175189,-1.4869976,-0.48334676
559,1778621616.5612345,0.2591005,0.005000292,-0.03744121,-0.9175189,-1.4869976,-0.48334676
560,1778621616.5712364,0.15958248,-0.04841746,-0.17061971,-0.9175189,-1.4869976,-0.48334676
561,1778621616.581238,0.15958248,-0.04841746,-0.17061971,-0.9175189,-1.4869976,-0.48334676
562,1778621616.59124,0.15958248,-0.04841746,-0.17061971,-0.9175189,-1.4869976,-0.48334676
563,1778621616.6012414,0.15958248,-0.04841746,-0.17061971,-0.9175189,-1.4869976,-0.48334676
564,1778621616.6112442,0.15958248,-0.04841746,-0.17061971,-0.9175189,-1.4869976,-0.48334676
565,1778621616.621247,0.06640632,-0.13208087,-0.39599872,-0.9175189,-1.4869976,-0.48334676
566,1778621616.6312485,0.06640632,-0.13208087,-0.39599872,-0.9175189,-1.4869976,-0.48334676
567,1778621616.64125,0.06640632,-0.13208087,-0.39599872,-0.9175189,-1.4869976,-0.48334676
568,1778621616.6512518,0.06640632,-0.13208087,-0.39599872,-1.3408482,-1.0227404,-0.5041162
569,1778621616.6612532,0.06640632,-0.13208087,-0.39599872,-1.3408482,-1.0227404,-0.5041162
570,1778621616.6712542,0.06640632,-0.13208087,-0.39599872,-1.3408482,-1.0227404,-0.5041162
571,1778621616.6812553,0.06640632,-0.13208087,-0.39599872,-1.3408482,-1.0227404,-0.5041162
572,1778621616.6912558,0.06640632,-0.13208087,-0.39599872,-1.3408482,-1.0227404,-0.5041162
573,1778621616.7012568,0.06640632,-0.13208087,-0.39599872,-1.7354668,-0.8034399,-0.49739665
574,1778621616.7112598,-3.4064794,-1.9004767,1.0787215,-3.1520622,-6.6879005,1.6931645
575,1778621616.7212615,-3.4064794,-1.9004767,1.0787215,-3.1520622,-6.6879005,1.6931645
576,1778621616.7312624,-3.4064794,-1.9004767,1.0787215,-3.1520622,-6.6879005,1.6931645
577,1778621616.7412665,-3.4064794,-1.9004767,1.0787215,-3.1520622,-6.6879005,1.6931645
578,1778621616.7512686,-3.4064794,-1.9004767,1.0787215,-3.1520622,-6.6879005,1.6931645
579,1778621616.7612698,-0.9868259,-2.274401,-0.000121958336,3.0286677,2.7133086,-1.8223623
580,1778621616.7712715,-0.9868259,-2.274401,-0.000121958336,3.0286677,2.7133086,-1.8223623
581,1778621616.7812726,-0.9868259,-2.274401,-0.000121958336,3.0286677,2.7133086,-1.8223623
582,1778621616.791274,-0.9868259,-2.274401,-0.000121958336,3.0286677,2.7133086,-1.8223623
583,1778621616.8012753,-0.9868259,-2.274401,-0.000121958336,3.0286677,2.7133086,-1.8223623
584,1778621616.811276,-0.9868259,-2.274401,-0.000121958336,3.0286677,2.7133086,-1.8223623
585,1778621616.821277,-0.82754827,-2.0878048,-0.33916613,2.3432772,2.2136211,-1.8248059
586,1778621616.8312776,-0.82754827,-2.0878048,-0.33916613,2.3432772,2.2136211,-1.8248059
587,1778621616.8412783,-0.82754827,-2.0878048,-0.33916613,2.3432772,2.2136211,-1.8248059
588,1778621616.85128,-0.16726585,-0.96432453,0.040612124,1.3041964,0.12568542,-1.4772238
589,1778621616.8612814,-0.16726585,-0.96432453,0.040612124,1.3041964,0.12568542,-1.4772238
590,1778621616.8712833,-0.16726585,-0.96432453,0.040612124,1.3041964,0.12568542,-1.4772238
591,1778621616.8812852,-0.16726585,-0.96432453,0.040612124,1.3041964,0.12568542,-1.4772238
592,1778621616.8912866,-0.27995536,-0.21940304,-0.06378421,0.66706437,0.85566884,-1.8834488
593,1778621616.9013045,-0.27995536,-0.21940304,-0.06378421,0.66706437,0.85566884,-1.8834488
594,1778621616.9113119,-0.27995536,-0.21940304,-0.06378421,0.66706437,0.85566884,-1.8834488
595,1778621616.921313,-0.27995536,-0.21940304,-0.06378421,0.66706437,0.85566884,-1.8834488
596,1778621616.931317,-0.27995536,-0.21940304,-0.06378421,0.66706437,0.85566884,-1.8834488
597,1778621616.9413192,-0.27995536,-0.21940304,-0.06378421,0.66706437,0.85566884,-1.8834488
598,1778621616.9513204,-0.27995536,-0.21940304,-0.06378421,0.66706437,0.85566884,-1.8834488
599,1778621616.961321,-0.43679374,0.26428372,-0.38770556,0.66706437,0.85566884,-1.8834488
600,1778621616.9713218,-0.43679374,0.26428372,-0.38770556,0.66706437,0.85566884,-1.8834488
601,1778621616.9813223,-0.43679374,0.26428372,-0.38770556,0.66706437,0.85566884,-1.8834488
602,1778621616.9913232,-0.43679374,0.26428372,-0.38770556,0.66706437,0.85566884,-1.8834488
603,1778621617.0013242,-0.43679374,0.26428372,-0.38770556,0.66706437,0.85566884,-1.8834488
604,1778621617.0113251,-0.43679374,0.26428372,-0.38770556,0.66706437,0.85566884,-1.8834488
605,1778621617.0213253,-0.43679374,0.26428372,-0.38770556,0.66706437,0.85566884,-1.8834488
606,1778621617.0313263,0.23324533,0.039148625,-0.45697787,-0.67867076,0.47815442,-1.1162027
607,1778621617.0413375,0.23324533,0.039148625,-0.45697787,-0.67867076,0.47815442,-1.1162027
608,1778621617.0513408,0.23324533,0.039148625,-0.45697787,-0.67867076,0.47815442,-1.1162027
609,1778621617.061342,0.23324533,0.039148625,-0.45697787,-0.67867076,0.47815442,-1.1162027
610,1778621617.0713434,0.3732535,0.017683959,-0.51673746,-0.67867076,0.47815442,-1.1162027
611,1778621617.081345,0.3732535,0.017683959,-0.51673746,-0.67867076,0.47815442,-1.1162027
612,1778621617.091346,0.3732535,0.017683959,-0.51673746,-0.67867076,0.47815442,-1.1162027
613,1778621617.1013467,0.3732535,0.017683959,-0.51673746,-0.67867076,0.47815442,-1.1162027
614,1778621617.1113477,0.3732535,0.017683959,-0.51673746,-0.67867076,0.47815442,-1.1162027
615,1778621617.12135,0.3732535,0.017683959,-0.51673746,-0.67867076,0.47815442,-1.1162027
616,1778621617.1313512,0.3732535,0.017683959,-0.51673746,-0.67867076,0.47815442,-1.1162027
617,1778621617.1413522,0.3732535,0.017683959,-0.51673746,-0.75502884,0.43600473,-1.1852304
618,1778621617.1513531,0.3732535,0.017683959,-0.51673746,-0.75502884,0.43600473,-1.1852304
619,1778621617.161354,0.3732535,0.017683959,-0.51673746,-0.75502884,0.43600473,-1.1852304
620,1778621617.1713548,0.48911393,0.0064637917,-0.46990547,-0.75502884,0.43600473,-1.1852304
621,1778621617.181356,0.48911393,0.0064637917,-0.46990547,-0.6017018,1.1873684,-1.7588325
622,1778621617.1913567,0.48911393,0.0064637917,-0.46990547,-0.6017018,1.1873684,-1.7588325
623,1778621617.2013574,0.48911393,0.0064637917,-0.46990547,-0.6017018,1.1873684,-1.7588325
624,1778621617.2113676,0.35398406,-0.106957465,0.14769155,0.2944368,2.878242,-2.2145376
625,1778621617.2213714,0.35398406,-0.106957465,0.14769155,0.2944368,2.878242,-2.2145376
626,1778621617.2313728,0.3295924,-0.102810875,0.17110755,0.2944368,2.878242,-2.2145376
627,1778621617.2413733,0.3295924,-0.102810875,0.17110755,0.2944368,2.878242,-2.2145376
628,1778621617.2513742,0.06347931,0.09671296,-0.25403923,-0.605367,-2.0734277,-1.4155264
629,1778621617.2613754,0.06347931,0.09671296,-0.25403923,-0.605367,-2.0734277,-1.4155264
630,1778621617.2713764,0.06347931,0.09671296,-0.25403923,-0.605367,-2.0734277,-1.4155264
631,1778621617.2813773,0.08909056,0.044758707,-0.20379238,-0.86987144,-2.8980951,-1.2090541
632,1778621617.291378,0.08909056,0.044758707,-0.20379238,-0.86987144,-2.8980951,-1.2090541
633,1778621617.3013785,0.08909056,0.044758707,-0.20379238,-0.86987144,-2.8980951,-1.2090541
634,1778621617.31138,0.08909056,0.044758707,-0.20379238,-0.86987144,-2.8980951,-1.2090541
635,1778621617.321381,-0.25629544,-0.23696505,0.072565205,-0.81122845,-2.8987062,-1.1699587
636,1778621617.3313823,-0.25629544,-0.23696505,0.072565205,-0.81122845,-2.8987062,-1.1699587
637,1778621617.341383,-0.25629544,-0.23696505,0.072565205,-2.2937973,-3.8247771,1.0713041
638,1778621617.3513834,-0.25629544,-0.23696505,0.072565205,-2.2937973,-3.8247771,1.0713041
639,1778621617.3613837,-0.25629544,-0.23696505,0.072565205,-2.2937973,-3.8247771,1.0713041
640,1778621617.3713849,-0.82754827,-2.6129572,-0.2054998,-1.9401065,-2.8113525,1.3193152
641,1778621617.381387,-0.82754827,-2.6129572,-0.2054998,-1.9401065,-2.8113525,1.3193152
642,1778621617.3913884,-0.82754827,-2.6129572,-0.2054998,-1.9401065,-2.8113525,1.3193152
643,1778621617.4013894,-0.04896627,-3.3176327,0.5723505,1.1734712,5.213578,1.324813
644,1778621617.41139,-0.04896627,-3.3176327,0.5723505,1.1734712,5.213578,1.324813
645,1778621617.421391,0.2973954,-3.5344744,-0.2935537,1.1734712,5.213578,1.324813
646,1778621617.4313922,0.2973954,-3.5344744,-0.2935537,1.1734712,5.213578,1.324813
647,1778621617.441393,0.2973954,-3.5344744,-0.2935537,1.1734712,5.213578,1.324813
648,1778621617.451394,0.25227082,-3.3986127,-0.12086072,1.1734712,5.213578,1.324813
649,1778621617.461395,0.25227082,-3.3986127,-0.12086072,1.1734712,5.213578,1.324813
650,1778621617.4713955,0.25227082,-3.3986127,-0.12086072,1.1734712,5.213578,1.324813
651,1778621617.4813964,0.25227082,-3.3986127,-0.12086072,1.7091997,5.372403,1.0603086
652,1778621617.4914002,0.25227082,-3.3986127,-0.12086072,2.0299037,4.938689,0.82390386
653,1778621617.501402,0.25227082,-3.3986127,-0.12086072,2.0299037,4.938689,0.82390386
654,1778621617.5114028,0.25227082,-3.3986127,-0.12086072,2.0299037,4.938689,0.82390386
655,1778621617.5214036,0.25227082,-3.3986127,-0.12086072,2.0299037,4.938689,0.82390386
656,1778621617.5314043,0.25227082,-3.3986127,-0.12086072,2.0299037,4.938689,0.82390386
657,1778621617.5414054,0.9586535,-4.4457474,-0.40551147,2.0299037,4.938689,0.82390386
658,1778621617.5514061,0.9586535,-4.4457474,-0.40551147,2.0299037,4.938689,0.82390386
659,1778621617.561407,-0.061162103,-2.7293055,-0.058174126,2.0299037,4.938689,0.82390386
660,1778621617.5714083,-0.061162103,-2.7293055,-0.058174126,2.0299037,4.938689,0.82390386
661,1778621617.581409,-0.061162103,-2.7293055,-0.058174126,2.0299037,4.938689,0.82390386
662,1778621617.5914102,-0.30922535,-2.1814687,0.0037807084,0.8136719,-0.8468113,0.6430879
663,1778621617.601419,-0.30922535,-2.1814687,0.0037807084,0.8136719,-0.8468113,0.6430879
664,1778621617.6114223,-0.30922535,-2.1814687,0.0037807084,0.8136719,-0.8468113,0.6430879
665,1778621617.6214232,-0.30922535,-2.1814687,0.0037807084,0.7874047,-1.3703225,0.64492047
666,1778621617.6314242,-0.30922535,-2.1814687,0.0037807084,0.7874047,-1.3703225,0.64492047
667,1778621617.6414247,-0.30922535,-2.1814687,0.0037807084,0.7874047,-1.3703225,0.64492047
668,1778621617.6514254,-0.30922535,-2.1814687,0.0037807084,0.9749402,-2.2273657,0.62903804
669,1778621617.661426,-0.30922535,-2.1814687,0.0037807084,0.9749402,-2.2273657,0.62903804
670,1778621617.6714268,0.36203334,-3.3356824,-0.24842913,0.9749402,-2.2273657,0.62903804
671,1778621617.6814275,0.36203334,-3.3356824,-0.24842913,0.9749402,-2.2273657,0.62903804
672,1778621617.6914282,0.36203334,-3.3356824,-0.24842913,0.9749402,-2.2273657,0.62903804
673,1778621617.7014477,0.36203334,-3.3356824,-0.24842913,0.9749402,-2.2273657,0.62903804
674,1778621617.7114542,0.36203334,-3.3356824,-0.24842913,0.9749402,-2.2273657,0.62903804
675,1778621617.7214553,0.36203334,-3.3356824,-0.24842913,0.9749402,-2.2273657,0.62903804
676,1778621617.7314568,0.025184397,-2.8690698,-0.096469045,1.2589923,-1.8993313,0.6027708
677,1778621617.7415767,-0.12945877,-2.5971026,-0.033538543,1.5876375,-1.1998911,0.45494154
678,1778621617.7515788,-0.12945877,-2.5971026,-0.033538543,1.5876375,-1.1998911,0.45494154
679,1778621617.7615798,-0.12945877,-2.5971026,-0.033538543,1.5876375,-1.1998911,0.45494154
680,1778621617.7715805,-0.12945877,-2.5971026,-0.033538543,1.5876375,-1.1998911,0.45494154
681,1778621617.7815819,-0.12945877,-2.5971026,-0.033538543,1.5876375,-1.1998911,0.45494154
682,1778621617.791583,-0.12945877,-2.5971026,-0.033538543,1.5876375,-1.1998911,0.45494154
683,1778621617.8015838,-0.12945877,-2.5971026,-0.033538543,1.5876375,-1.1998911,0.45494154
684,1778621617.8115845,-0.12945877,-2.5971026,-0.033538543,1.5876375,-1.1998911,0.45494154
685,1778621617.8216863,-0.12945877,-2.5971026,-0.033538543,1.5876375,-1.1998911,0.45494154
686,1778621617.8316865,-0.12945877,-2.5971026,-0.033538543,1.5876375,-1.1998911,0.45494154
687,1778621617.8416874,-0.12945877,-2.5971026,-0.033538543,1.8264856,-0.36850417,0.114689864
688,1778621617.8516915,-0.12945877,-2.5971026,-0.033538543,1.8264856,-0.36850417,0.114689864
689,1778621617.8616939,-0.12945877,-2.5971026,-0.033538543,1.8264856,-0.36850417,0.114689864
690,1778621617.871695,-0.12945877,-2.5971026,-0.033538543,1.8264856,-0.36850417,0.114689864
691,1778621617.8816998,-0.12945877,-2.5971026,-0.033538543,1.8264856,-0.36850417,0.114689864
692,1778621617.8917015,-0.12945877,-2.5971026,-0.033538543,1.8264856,-0.36850417,0.114689864
693,1778621617.9017024,-0.46581987,-1.747785,-0.06158896,1.8264856,-0.36850417,0.114689864
694,1778621617.9123223,-0.46581987,-1.747785,-0.06158896,1.8264856,-0.36850417,0.114689864
695,1778621617.9223228,-0.46581987,-1.747785,-0.06158896,1.8264856,-0.36850417,0.114689864
696,1778621617.9323256,-0.46581987,-1.747785,-0.06158896,1.8264856,-0.36850417,0.114689864
697,1778621617.9423268,-0.46581987,-1.747785,-0.06158896,1.8264856,-0.36850417,0.114689864
698,1778621617.952328,-0.46581987,-1.747785,-0.06158896,1.8264856,-0.36850417,0.114689864
699,1778621617.9623291,-0.46581987,-1.747785,-0.06158896,1.8264856,-0.36850417,0.114689864
700,1778621617.9723303,-0.46581987,-1.747785,-0.06158896,1.8264856,-0.36850417,0.114689864
701,1778621617.9823313,-0.46581987,-1.747785,-0.06158896,1.8264856,-0.36850417,0.114689864
702,1778621617.9923327,0.12811723,0.4411233,-0.18964522,0.77396566,-2.4546075,2.1250458
703,1778621618.0023339,0.12811723,0.4411233,-0.18964522,0.77396566,-2.4546075,2.1250458
704,1778621618.0123346,0.12811723,0.4411233,-0.18964522,0.77396566,-2.4546075,2.1250458
705,1778621618.0223358,0.12811723,0.4411233,-0.18964522,0.77396566,-2.4546075,2.1250458
706,1778621618.0323367,0.12811723,0.4411233,-0.18964522,0.77396566,-2.4546075,2.1250458
707,1778621618.0423374,0.12811723,0.4411233,-0.18964522,0.77396566,-2.4546075,2.1250458
708,1778621618.052338,0.12811723,0.4411233,-0.18964522,0.77396566,-2.4546075,2.1250458
709,1778621618.0623388,0.12811723,0.4411233,-0.18964522,0.77396566,-2.4546075,2.1250458
710,1778621618.0723398,0.21202457,0.5128348,0.01695221,0.62552553,-1.6788092,2.0040946
711,1778621618.0823412,0.21202457,0.5128348,0.01695221,0.62552553,-1.6788092,2.0040946
712,1778621618.0926518,0.21202457,0.5128348,0.01695221,0.62552553,-1.6788092,2.0040946
713,1778621618.1026533,0.23763582,0.5145422,0.14939895,0.5357284,-0.62201303,1.8672609
714,1778621618.112654,0.23763582,0.5145422,0.14939895,0.5357284,-0.62201303,1.8672609
715,1778621618.1226544,0.23763582,0.5145422,0.14939895,0.5357284,-0.62201303,1.8672609
716,1778621618.1326551,0.23763582,0.5145422,0.14939895,0.5357284,-0.62201303,1.8672609
717,1778621618.142656,0.23763582,0.5145422,0.14939895,0.5357284,-0.62201303,1.8672609
718,1778621618.1526568,0.23763582,0.5145422,0.14939895,0.5357284,-0.62201303,1.8672609
719,1778621618.1626606,0.23763582,0.5145422,0.14939895,0.5357284,-0.62201303,1.8672609
720,1778621618.1726618,0.23763582,0.5145422,0.14939895,0.5357284,-0.62201303,1.8672609
721,1778621618.1829262,0.13323948,0.4091702,-0.2906267,-1.6829325,-0.64400417,1.4091123
722,1778621618.192934,0.13323948,0.4091702,-0.2906267,-1.6829325,-0.64400417,1.4091123
723,1778621618.2029376,0.13323948,0.4091702,-0.2906267,-1.6829325,-0.64400417,1.4091123
724,1778621618.2129388,0.13323948,0.4091702,-0.2906267,-1.6829325,-0.64400417,1.4091123
725,1778621618.2229395,0.13323948,0.4091702,-0.2906267,-1.6829325,-0.64400417,1.4091123
726,1778621618.23294,0.13323948,0.4091702,-0.2906267,-1.6829325,-0.64400417,1.4091123
727,1778621618.242941,0.13323948,0.4091702,-0.2906267,0.27977607,-0.39721483,0.9479094
728,1778621618.2529416,0.13323948,0.4091702,-0.2906267,0.27977607,-0.39721483,0.9479094
729,1778621618.2629426,0.13323948,0.4091702,-0.2906267,0.27977607,-0.39721483,0.9479094
730,1778621618.2729516,0.13323948,0.4091702,-0.2906267,0.27977607,-0.39721483,0.9479094
731,1778621618.2829545,0.13323948,0.4091702,-0.2906267,0.27977607,-0.39721483,0.9479094
732,1778621618.2929564,0.13323948,0.4091702,-0.2906267,0.27977607,-0.39721483,0.9479094
733,1778621618.303436,0.47838157,-0.11573846,-0.084029295,0.056199558,-2.369697,0.52824533
734,1778621618.3134441,0.47838157,-0.11573846,-0.084029295,0.056199558,-2.369697,0.52824533
735,1778621618.323445,0.47838157,-0.11573846,-0.084029295,0.056199558,-2.369697,0.52824533
736,1778621618.3334455,0.47838157,-0.11573846,-0.084029295,0.056199558,-2.369697,0.52824533
737,1778621618.3434463,0.47838157,-0.11573846,-0.084029295,-0.24617851,-2.1681118,0.38591382
738,1778621618.3534472,0.44057447,-0.12061679,-0.09963996,-0.24617851,-2.1681118,0.38591382
739,1778621618.3635314,0.44057447,-0.12061679,-0.09963996,-0.24617851,-2.1681118,0.38591382
740,1778621618.3735325,0.44057447,-0.12061679,-0.09963996,-0.24617851,-2.1681118,0.38591382
741,1778621618.3835337,0.44057447,-0.12061679,-0.09963996,-0.24617851,-2.1681118,0.38591382
742,1778621618.3935342,0.44057447,-0.12061679,-0.09963996,-0.24617851,-2.1681118,0.38591382
743,1778621618.4035347,0.44057447,-0.12061679,-0.09963996,-0.24617851,-2.1681118,0.38591382
744,1778621618.4135408,0.44057447,-0.12061679,-0.09963996,-0.24617851,-2.1681118,0.38591382
745,1778621618.4235432,0.44057447,-0.12061679,-0.09963996,-0.24617851,-2.1681118,0.38591382
746,1778621618.433544,0.44057447,-0.12061679,-0.09963996,-0.24617851,-2.1681118,0.38591382
747,1778621618.4435449,0.36496034,-0.12183637,-0.10890879,-0.40561423,-1.9598069,0.34926194
748,1778621618.4537406,0.36496034,-0.12183637,-0.10890879,-0.40561423,-1.9598069,0.34926194
749,1778621618.463742,1.091832,-1.9107213,-0.62869525,-1.0213659,6.826872,1.15316
750,1778621618.4739006,1.091832,-1.9107213,-0.62869525,-1.0213659,6.826872,1.15316
751,1778621618.483904,1.091832,-1.9107213,-0.62869525,-1.0213659,6.826872,1.15316
752,1778621618.4939044,1.091832,-1.9107213,-0.62869525,-0.47769627,8.369306,-0.052687086
753,1778621618.5039852,1.091832,-1.9107213,-0.62869525,-0.47769627,8.369306,-0.052687086
754,1778621618.5139866,1.091832,-1.9107213,-0.62869525,-0.47769627,8.369306,-0.052687086
755,1778621618.5239875,1.091832,-1.9107213,-0.62869525,-0.47769627,8.369306,-0.052687086
756,1778621618.5339882,1.091832,-1.9107213,-0.62869525,-0.47769627,8.369306,-0.052687086
757,1778621618.5441096,1.091832,-1.9107213,-0.62869525,-0.47769627,8.369306,-0.052687086
758,1778621618.554116,1.091832,-1.9107213,-0.62869525,-0.47769627,8.369306,-0.052687086
759,1778621618.5641189,1.091832,-1.9107213,-0.62869525,-0.47769627,8.369306,-0.052687086
760,1778621618.57412,1.091832,-1.9107213,-0.62869525,-0.47769627,8.369306,-0.052687086
761,1778621618.5841362,1.091832,-1.9107213,-0.62869525,-0.47769627,8.369306,-0.052687086
762,1778621618.5941384,1.091832,-1.9107213,-0.62869525,-0.47769627,8.369306,-0.052687086
763,1778621618.6041396,1.091832,-1.9107213,-0.62869525,-0.47769627,8.369306,-0.052687086
764,1778621618.614145,0.44033056,-2.376846,-1.4933798,-0.47769627,8.369306,-0.052687086
765,1778621618.6241472,0.44033056,-2.376846,-1.4933798,-0.47769627,8.369306,-0.052687086
766,1778621618.634332,-0.11945819,-0.36453345,0.22184221,1.6823215,3.6741989,-1.6769766
767,1778621618.6444275,-0.12945877,-0.40258446,0.24159946,1.6823215,3.6741989,-1.6769766
768,1778621618.6544313,-0.12945877,-0.40258446,0.24159946,1.6823215,3.6741989,-1.6769766
769,1778621618.6644325,-0.12945877,-0.40258446,0.24159946,1.6823215,3.6741989,-1.6769766
770,1778621618.6744335,-0.12945877,-0.40258446,0.24159946,1.6823215,3.6741989,-1.6769766
771,1778621618.6844344,-0.12945877,-0.40258446,0.24159946,1.7287474,2.8544185,-1.6818634
772,1778621618.6944354,-0.12945877,-0.40258446,0.24159946,1.7287474,2.8544185,-1.6818634
773,1778621618.704436,-0.12945877,-0.40258446,0.24159946,1.7287474,2.8544185,-1.6818634
774,1778621618.714437,0.043722063,0.013293459,-0.06695513,1.1997384,-0.10338886,-1.168737
775,1778621618.724442,0.043722063,0.013293459,-0.06695513,1.1997384,-0.10338886,-1.168737
776,1778621618.734446,0.043722063,0.013293459,-0.06695513,1.1997384,-0.10338886,-1.168737
777,1778621618.7444475,0.043722063,0.013293459,-0.06695513,1.1997384,-0.10338886,-1.168737
778,1778621618.7544482,0.043722063,0.013293459,-0.06695513,1.1997384,-0.10338886,-1.168737
779,1778621618.7644494,0.043722063,0.013293459,-0.06695513,1.1997384,-0.10338886,-1.168737
780,1778621618.7744508,0.043722063,0.013293459,-0.06695513,1.1997384,-0.10338886,-1.168737
781,1778621618.7849967,0.08030956,0.06744295,-0.105493955,1.1404846,-0.35445428,-1.1052071
782,1778621618.7949977,0.08030956,0.06744295,-0.105493955,1.1404846,-0.35445428,-1.1052071
783,1778621618.8049989,0.08030956,0.06744295,-0.105493955,1.1404846,-0.35445428,-1.1052071
784,1778621618.8149993,0.08030956,0.06744295,-0.105493955,1.1404846,-0.35445428,-1.1052071
785,1778621618.8250008,0.08030956,0.06744295,-0.105493955,1.0268637,-0.56275916,-1.0624466
786,1778621618.835002,0.08030956,0.06744295,-0.105493955,0.6243038,-0.93721926,-1.0490075
787,1778621618.8450027,0.08030956,0.06744295,-0.105493955,0.6243038,-0.93721926,-1.0490075
788,1778621618.8550038,0.08030956,0.06744295,-0.105493955,0.6243038,-0.93721926,-1.0490075
789,1778621618.8650076,0.08030956,0.06744295,-0.105493955,0.6243038,-0.93721926,-1.0490075
790,1778621618.875009,0.08030956,0.06744295,-0.105493955,0.6243038,-0.93721926,-1.0490075
791,1778621618.88501,0.08030956,0.06744295,-0.105493955,0.6243038,-0.93721926,-1.0490075
792,1778621618.895021,0.34691048,0.34282488,-0.69626015,-0.69821846,-2.0715952,-1.1766783
793,1778621618.9052043,0.34691048,0.34282488,-0.69626015,-0.69821846,-2.0715952,-1.1766783
794,1778621618.9152057,0.34691048,0.34282488,-0.69626015,-0.69821846,-2.0715952,-1.1766783
795,1778621618.9252076,0.34691048,0.34282488,-0.69626015,-0.69821846,-2.0715952,-1.1766783
796,1778621618.9352095,0.34691048,0.34282488,-0.69626015,-0.69821846,-2.0715952,-1.1766783
797,1778621618.9452107,0.34691048,0.34282488,-0.69626015,0.6004801,3.0737188,-2.519359
798,1778621618.9552114,0.34691048,0.34282488,-0.69626015,0.6004801,3.0737188,-2.519359
799,1778621618.9652143,0.34691048,0.34282488,-0.69626015,0.6004801,3.0737188,-2.519359
800,1778621618.9752157,0.34691048,0.34282488,-0.69626015,0.6004801,3.0737188,-2.519359
801,1778621618.9852166,0.34691048,0.34282488,-0.69626015,0.6004801,3.0737188,-2.519359
802,1778621618.9955783,0.34691048,0.34282488,-0.69626015,0.6004801,3.0737188,-2.519359
803,1778621619.0055819,0.34691048,0.34282488,-0.69626015,0.6004801,3.0737188,-2.519359
804,1778621619.0155833,0.34691048,0.34282488,-0.69626015,0.6004801,3.0737188,-2.519359
805,1778621619.0255845,0.34691048,0.34282488,-0.69626015,0.8845322,3.3901467,-2.0941973
806,1778621619.0355852,0.34691048,0.34282488,-0.69626015,0.8845322,3.3901467,-2.0941973
807,1778621619.045586,0.34691048,0.34282488,-0.69626015,0.8845322,3.3901467,-2.0941973
808,1778621619.0555866,0.34691048,0.34282488,-0.69626015,0.8845322,3.3901467,-2.0941973
809,1778621619.065587,0.34691048,0.34282488,-0.69626015,0.8845322,3.3901467,-2.0941973
810,1778621619.0755885,0.34691048,0.34282488,-0.69626015,0.8845322,3.3901467,-2.0941973
811,1778621619.0857916,0.34691048,0.34282488,-0.69626015,0.15760311,1.3889538,-1.6849178
812,1778621619.095793,0.34691048,0.34282488,-0.69626015,0.15760311,1.3889538,-1.6849178
813,1778621619.1057947,0.34691048,0.34282488,-0.69626015,0.15760311,1.3889538,-1.6849178
814,1778621619.1157963,0.34691048,0.34282488,-0.69626015,-0.7061597,-1.936594,-1.3727659
815,1778621619.125797,0.34691048,0.34282488,-0.69626015,-0.7061597,-1.936594,-1.3727659
816,1778621619.1357982,-0.019208437,-0.049637042,-0.3357513,-0.7061597,-1.936594,-1.3727659
817,1778621619.145806,0.017135147,-0.16915621,0.035733793,-1.4453061,-2.6977315,-1.0031927
818,1778621619.1558087,0.017135147,-0.16915621,0.035733793,-1.4453061,-2.6977315,-1.0031927
819,1778621619.1658096,0.017135147,-0.16915621,0.035733793,-1.4453061,-2.6977315,-1.0031927
820,1778621619.1758177,0.017135147,-0.16915621,0.035733793,-1.4453061,-2.6977315,-1.0031927
821,1778621619.1858208,0.017135147,-0.16915621,0.035733793,-1.4453061,-2.6977315,-1.0031927
822,1778621619.195822,0.017135147,-0.16915621,0.035733793,-1.4453061,-2.6977315,-1.0031927
823,1778621619.2058227,0.017135147,-0.16915621,0.035733793,-1.4453061,-2.6977315,-1.0031927
824,1778621619.2158234,0.017135147,-0.16915621,0.035733793,-1.4453061,-2.6977315,-1.0031927
825,1778621619.2258246,0.017135147,-0.16915621,0.035733793,-1.4453061,-2.6977315,-1.0031927
826,1778621619.235825,0.017135147,-0.16915621,0.035733793,-1.4453061,-2.6977315,-1.0031927
827,1778621619.245826,0.011281146,-0.20208496,0.08915155,-1.4721841,-2.2230897,-0.85414165
828,1778621619.255827,-0.60143757,-2.0836582,-0.6843082,-4.5961466,-5.497936,0.7451023
829,1778621619.2658277,-0.60143757,-2.0836582,-0.6843082,-4.5961466,-5.497936,0.7451023
830,1778621619.2758284,-0.60143757,-2.0836582,-0.6843082,-4.5961466,-5.497936,0.7451023
831,1778621619.2858298,-0.9897529,-3.3959296,0.68406427,1.5729768,7.2807446,0.60216
832,1778621619.2958307,-0.9897529,-3.3959296,0.68406427,1.5729768,7.2807446,0.60216
833,1778621619.3058314,-0.9897529,-3.3959296,0.68406427,1.5729768,7.2807446,0.60216
834,1778621619.3158321,-0.9897529,-3.3959296,0.68406427,1.5729768,7.2807446,0.60216
835,1778621619.3258333,-0.9897529,-3.3959296,0.68406427,1.5729768,7.2807446,0.60216
836,1778621619.335835,-0.9897529,-3.3959296,0.68406427,2.1563528,7.374207,-0.22556181
837,1778621619.3458354,-0.9897529,-3.3959296,0.68406427,2.1563528,7.374207,-0.22556181
838,1778621619.3558362,-0.64802563,-3.6803365,-0.5594229,2.7769914,6.701034,-0.73990995
839,1778621619.365841,-0.64802563,-3.6803365,-0.5594229,2.7769914,6.701034,-0.73990995
840,1778621619.3758433,-0.64802563,-3.6803365,-0.5594229,2.7769914,6.701034,-0.73990995
841,1778621619.3858445,0.046892982,-2.4105065,-0.45941702,2.7769914,6.701034,-0.73990995
842,1778621619.395846,0.234221,-0.14866722,-0.16354613,-0.098960094,-1.5230386,1.2264638
843,1778621619.405847,0.234221,-0.14866722,-0.16354613,-0.098960094,-1.5230386,1.2264638
844,1778621619.4158478,0.234221,-0.14866722,-0.16354613,-0.098960094,-1.5230386,1.2264638
845,1778621619.4259264,-1.2378161,-1.4143509,-1.6868058,-4.7048807,-2.0282238,0.9430225
846,1778621619.435929,-1.2378161,-1.4143509,-1.6868058,-4.7048807,-2.0282238,0.9430225
847,1778621619.4459295,-0.008963938,-3.337146,0.19623096,2.4385722,-7.5956454,-2.601215
848,1778621619.4559305,-0.008963938,-3.337146,0.19623096,2.4385722,-7.5956454,-2.601215
849,1778621619.465931,-0.008963938,-3.337146,0.19623096,2.4385722,-7.5956454,-2.601215
850,1778621619.475932,-1.9534677,-2.625397,-0.21354906,2.4385722,-7.5956454,-2.601215
851,1778621619.4859324,-1.9534677,-2.625397,-0.21354906,2.4385722,-7.5956454,-2.601215
852,1778621619.495934,0.080065645,0.27501604,-0.33184862,0.8307761,0.44089165,-1.2701406
853,1778621619.5059354,0.080065645,0.27501604,-0.33184862,0.8307761,0.44089165,-1.2701406
854,1778621619.5159364,0.080065645,0.27501604,-0.33184862,0.8307761,0.44089165,-1.2701406
855,1778621619.5259373,0.080065645,0.27501604,-0.33184862,0.8307761,0.44089165,-1.2701406
856,1778621619.535938,0.080065645,0.27501604,-0.33184862,0.537561,-0.011759147,-1.4289654
857,1778621619.5459387,0.080065645,0.27501604,-0.33184862,0.537561,-0.011759147,-1.4289654
858,1778621619.5559397,0.080065645,0.27501604,-0.33184862,0.537561,-0.011759147,-1.4289654
859,1778621619.5660212,0.080065645,0.27501604,-0.33184862,0.537561,-0.011759147,-1.4289654
860,1778621619.576022,0.080065645,0.27501604,-0.33184862,0.537561,-0.011759147,-1.4289654
861,1778621619.586025,0.080065645,0.27501604,-0.33184862,0.537561,-0.011759147,-1.4289654
862,1778621619.5964057,0.2093415,0.21086596,-0.4555144,0.17898338,-0.32940882,-1.4998257
863,1778621619.606717,0.2093415,0.21086596,-0.4555144,0.17898338,-0.32940882,-1.4998257
864,1778621619.616718,0.2093415,0.21086596,-0.4555144,0.17898338,-0.32940882,-1.4998257
865,1778621619.626719,0.2093415,0.21086596,-0.4555144,0.17898338,-0.32940882,-1.4998257
866,1778621619.6367202,0.2093415,0.21086596,-0.4555144,-0.12095123,-0.49312058,-1.5413646
867,1778621619.6467214,0.22251299,0.19647488,-0.44722122,-0.21624613,-0.5224421,-1.5511384
868,1778621619.6567218,0.22251299,0.19647488,-0.44722122,-0.21624613,-0.5224421,-1.5511384
869,1778621619.6667225,0.22251299,0.19647488,-0.44722122,-0.21624613,-0.5224421,-1.5511384
870,1778621619.6767235,0.25227082,0.14988679,-0.42941532,-0.21624613,-0.5224421,-1.5511384
871,1778621619.6867242,0.25227082,0.14988679,-0.42941532,-0.21624613,-0.5224421,-1.5511384
872,1778621619.6970823,0.25227082,0.14988679,-0.42941532,-0.21624613,-0.5224421,-1.5511384
873,1778621619.7070918,0.26178357,0.13159303,-0.42892745,0.15577053,2.964374,-2.4094033
874,1778621619.7170951,0.26178357,0.13159303,-0.42892745,0.15577053,2.964374,-2.4094033
875,1778621619.7270963,0.26178357,0.13159303,-0.42892745,0.15577053,2.964374,-2.4094033
876,1778621619.7376523,0.26178357,0.13159303,-0.42892745,0.15577053,2.964374,-2.4094033
877,1778621619.7476552,0.26178357,0.13159303,-0.42892745,0.15577053,2.964374,-2.4094033
878,1778621619.7576563,0.26178357,0.13159303,-0.42892745,0.15577053,2.964374,-2.4094033
879,1778621619.7676568,0.26178357,0.13159303,-0.42892745,0.15577053,2.964374,-2.4094033
880,1778621619.7776575,0.36252114,0.03524596,-0.26184455,0.15577053,2.964374,-2.4094033
881,1778621619.787658,0.36252114,0.03524596,-0.26184455,0.15577053,2.964374,-2.4094033
882,1778621619.7976587,0.36252114,0.03524596,-0.26184455,0.15577053,2.964374,-2.4094033
883,1778621619.8076596,0.36252114,0.03524596,-0.26184455,0.15577053,2.964374,-2.4094033
884,1778621619.8176606,0.36252114,0.03524596,-0.26184455,0.15577053,2.964374,-2.4094033
885,1778621619.8276615,0.36252114,0.03524596,-0.26184455,0.15577053,2.964374,-2.4094033
886,1778621619.8376627,0.3354464,0.12281204,-0.05768629,-0.032986697,2.7243042,-2.329991
887,1778621619.848046,0.3354464,0.12281204,-0.05768629,-0.032986697,2.7243042,-2.329991
888,1778621619.8580477,0.3354464,0.12281204,-0.05768629,-0.032986697,2.7243042,-2.329991
889,1778621619.8680487,0.3354464,0.12281204,-0.05768629,-0.032986697,2.7243042,-2.329991
890,1778621619.8780494,0.3354464,0.12281204,-0.05768629,-0.032986697,2.7243042,-2.329991
891,1778621619.88805,0.3354464,0.12281204,-0.05768629,-0.032986697,2.7243042,-2.329991
892,1778621619.898051,0.2978832,0.08232188,0.029879792,-0.032986697,2.7243042,-2.329991
893,1778621619.9080517,0.2978832,0.08232188,0.029879792,-0.032986697,2.7243042,-2.329991
894,1778621619.9180527,0.2978832,0.08232188,0.029879792,-0.032986697,2.7243042,-2.329991
895,1778621619.9280536,0.2978832,0.08232188,0.029879792,0.35674503,3.153742,-2.428951
896,1778621619.9380546,0.2978832,0.08232188,0.029879792,0.35674503,3.153742,-2.428951
897,1778621619.9480553,0.2978832,0.08232188,0.029879792,1.1734712,3.0407321,-2.158338
898,1778621619.9580562,0.2978832,0.08232188,0.029879792,0.7812961,3.2972953,-2.3342671
899,1778621619.968057,0.2978832,0.08232188,0.029879792,0.7812961,3.2972953,-2.3342671
900,1778621619.978058,0.22519606,0.031831127,0.102566965,0.7812961,3.2972953,-2.3342671
901,1778621619.988068,0.22519606,0.031831127,0.102566965,0.7812961,3.2972953,-2.3342671
902,1778621619.9980712,0.22519606,0.031831127,0.102566965,0.7812961,3.2972953,-2.3342671
903,1778621620.0080724,0.22519606,0.031831127,0.102566965,0.7812961,3.2972953,-2.3342671
904,1778621620.0180736,0.22519606,0.031831127,0.102566965,0.7812961,3.2972953,-2.3342671
905,1778621620.028074,0.22519606,0.031831127,0.102566965,0.7812961,3.2972953,-2.3342671
906,1778621620.0380754,0.22519606,0.031831127,0.102566965,0.7812961,3.2972953,-2.3342671
907,1778621620.0480764,0.22519606,0.031831127,0.102566965,0.7812961,3.2972953,-2.3342671
908,1778621620.05825,0.22519606,0.031831127,0.102566965,0.7812961,3.2972953,-2.3342671
909,1778621620.068251,0.12665373,-0.03158721,0.20623155,0.67622733,3.2966845,-2.366643
910,1778621620.0782518,0.12665373,-0.03158721,0.20623155,0.67622733,3.2966845,-2.366643
911,1778621620.0882533,0.03225798,-0.098420374,0.3006273,1.0879502,3.136638,-2.2065964
912,1778621620.0982544,0.03225798,-0.098420374,0.3006273,1.0879502,3.136638,-2.2065964
913,1778621620.108255,0.03225798,-0.098420374,0.3006273,1.0879502,3.136638,-2.2065964
914,1778621620.1182559,-0.079211935,-0.14061797,0.30892047,1.3561198,2.625344,-2.009898
915,1778621620.128257,-0.079211935,-0.14061797,0.30892047,1.3561198,2.625344,-2.009898
916,1778621620.1382577,-0.079211935,-0.14061797,0.30892047,1.3561198,2.625344,-2.009898
917,1778621620.148472,-0.079211935,-0.14061797,0.30892047,1.3561198,2.625344,-2.009898
918,1778621620.1584828,-0.079211935,-0.14061797,0.30892047,1.3860521,2.459189,-1.9598069
919,1778621620.1684859,-0.079211935,-0.14061797,0.30892047,1.3860521,2.459189,-1.9598069
920,1778621620.1784868,-0.079211935,-0.14061797,0.30892047,1.3860521,2.459189,-1.9598069
921,1778621620.1884875,-0.079211935,-0.14061797,0.30892047,1.3860521,2.459189,-1.9598069
922,1778621620.1984885,-0.110189356,-0.14086188,0.1574482,1.3860521,2.459189,-1.9598069
923,1778621620.2084897,-0.13531277,-0.14866722,-0.22964753,0.83505213,0.9747875,-1.58046
924,1778621620.2184901,-0.13531277,-0.14866722,-0.22964753,0.83505213,0.9747875,-1.58046
925,1778621620.228491,-0.13531277,-0.14866722,-0.22964753,0.83505213,0.9747875,-1.58046
926,1778621620.2387671,-0.13531277,-0.14866722,-0.22964753,0.83505213,0.9747875,-1.58046
927,1778621620.248768,-0.13531277,-0.14866722,-0.22964753,0.83505213,0.9747875,-1.58046
928,1778621620.2587688,-0.13531277,-0.14866722,-0.22964753,0.83505213,0.9747875,-1.58046
929,1778621620.2687726,-0.13531277,-0.14866722,-0.22964753,0.83505213,0.9747875,-1.58046
930,1778621620.278774,-0.13531277,-0.14866722,-0.22964753,0.83505213,0.9747875,-1.58046
931,1778621620.288775,-0.13531277,-0.14866722,-0.22964753,0.83505213,0.9747875,-1.58046
932,1778621620.298777,-0.14531335,-0.123055965,-0.36331388,0.83505213,0.9747875,-1.58046
933,1778621620.308778,-0.14531335,-0.123055965,-0.36331388,0.83505213,0.9747875,-1.58046
934,1778621620.3187792,-0.14531335,-0.123055965,-0.36331388,0.83505213,0.9747875,-1.58046
935,1778621620.3291268,-0.14531335,-0.123055965,-0.36331388,0.83505213,0.9747875,-1.58046
936,1778621620.339128,-0.14531335,-0.123055965,-0.36331388,0.83505213,0.9747875,-1.58046
937,1778621620.3491292,-0.26483253,-1.0177423,-0.53039676,-2.6401575,-1.4839432,-0.31291547
938,1778621620.3591297,-0.26483253,-1.0177423,-0.53039676,-2.6401575,-1.4839432,-0.31291547
939,1778621620.3691308,-0.26483253,-1.0177423,-0.53039676,-2.6401575,-1.4839432,-0.31291547
940,1778621620.3791404,-0.26483253,-1.0177423,-0.53039676,-2.6401575,-1.4839432,-0.31291547
941,1778621620.3891437,-0.26483253,-1.0177423,-0.53039676,-2.6401575,-1.4839432,-0.31291547
942,1778621620.3991446,-0.31068885,-1.4306931,-0.11110405,-2.760498,-1.7930409,-0.28420484
943,1778621620.409154,-0.31068885,-1.4306931,-0.11110405,-2.760498,-1.7930409,-0.28420484
944,1778621620.4194047,-0.31068885,-1.4306931,-0.11110405,-2.760498,-1.7930409,-0.28420484
945,1778621620.429406,-0.31068885,-1.4306931,-0.11110405,-2.7256787,-1.8584033,-0.25060728
946,1778621620.4394066,-0.31068885,-1.4306931,-0.11110405,-2.7256787,-1.8584033,-0.25060728
947,1778621620.4494076,-0.31068885,-1.4306931,-0.11110405,-2.7256787,-1.8584033,-0.25060728
948,1778621620.4594083,-0.34849593,-2.1312218,-1.3180037,-2.7256787,-1.8584033,-0.25060728
949,1778621620.469409,-0.34849593,-2.1312218,-1.3180037,-2.7256787,-1.8584033,-0.25060728
950,1778621620.47941,-0.34849593,-2.1312218,-1.3180037,-2.7256787,-1.8584033,-0.25060728
951,1778621620.489411,-0.34849593,-2.1312218,-1.3180037,-2.760498,-1.9989023,-0.080176
952,1778621620.499412,-0.34849593,-2.1312218,-1.3180037,-2.760498,-1.9989023,-0.080176
953,1778621620.5094128,-0.34849593,-2.1312218,-1.3180037,-2.760498,-1.9989023,-0.080176
954,1778621620.5200508,-0.34849593,-2.1312218,-1.3180037,-2.760498,-1.9989023,-0.080176
955,1778621620.530053,-0.34849593,-2.1312218,-1.3180037,-2.760498,-1.9989023,-0.080176
956,1778621620.540054,-0.34849593,-2.1312218,-1.3180037,-2.760498,-1.9989023,-0.080176
957,1778621620.5500553,-0.34849593,-2.1312218,-1.3180037,-2.760498,-1.9989023,-0.080176
958,1778621620.5600562,0.44618458,-5.2416472,-0.90554065,1.892459,2.6314528,0.37858346
959,1778621620.5700574,0.44618458,-5.2416472,-0.90554065,1.892459,2.6314528,0.37858346
960,1778621620.5800579,0.44618458,-5.2416472,-0.90554065,1.892459,2.6314528,0.37858346
961,1778621620.5900588,0.44618458,-5.2416472,-0.90554065,1.2406664,-2.2951717,0.2441932
962,1778621620.600068,0.042014647,-2.883461,0.0898833,1.6725478,-1.06489,0.14401138
963,1778621620.6100717,0.042014647,-2.883461,0.0898833,1.6725478,-1.06489,0.14401138
964,1778621620.6200736,0.042014647,-2.883461,0.0898833,1.6725478,-1.06489,0.14401138
965,1778621620.6301482,0.042014647,-2.883461,0.0898833,1.6725478,-1.06489,0.14401138
966,1778621620.6401494,0.042014647,-2.883461,0.0898833,1.6725478,-1.06489,0.14401138
967,1778621620.6501503,0.042014647,-2.883461,0.0898833,1.6725478,-1.06489,0.14401138
968,1778621620.6601508,0.042014647,-2.883461,0.0898833,1.6725478,-1.06489,0.14401138
969,1778621620.6701517,-0.33947104,-2.58198,0.08524887,1.6725478,-1.06489,0.14401138
970,1778621620.6801527,-0.33947104,-2.58198,0.08524887,1.7281364,-0.10827578,-0.33796093
971,1778621620.6902378,-0.33947104,-2.58198,0.08524887,1.7281364,-0.10827578,-0.33796093
972,1778621620.700239,-0.33947104,-2.58198,0.08524887,1.7281364,-0.10827578,-0.33796093
973,1778621620.7103388,-0.79461956,-1.1087233,-0.43136662,1.7794491,0.45677415,-0.4876228
974,1778621620.720455,-0.79461956,-1.1087233,-0.43136662,1.7794491,0.45677415,-0.4876228
975,1778621620.730456,-0.77632576,-1.0165228,-0.43380582,1.7794491,0.45677415,-0.4876228
976,1778621620.740457,-0.77632576,-1.0165228,-0.43380582,1.7794491,0.45677415,-0.4876228
977,1778621620.7504575,-0.77632576,-1.0165228,-0.43380582,1.7794491,0.45677415,-0.4876228
978,1778621620.7604585,-0.77632576,-1.0165228,-0.43380582,1.5247185,0.031001387,0.021227552
979,1778621620.7704604,-0.77632576,-1.0165228,-0.43380582,1.5247185,0.031001387,0.021227552
980,1778621620.7804613,-0.77632576,-1.0165228,-0.43380582,1.5247185,0.031001387,0.021227552
981,1778621620.7904625,-0.6753443,-0.6723563,-0.41136545,1.3713914,-0.2310596,0.28023422
982,1778621620.8004632,-0.6753443,-0.6723563,-0.41136545,1.3713914,-0.2310596,0.28023422
983,1778621620.8104641,-0.6753443,-0.6723563,-0.41136545,1.3713914,-0.2310596,0.28023422
984,1778621620.8204646,-0.6753443,-0.6723563,-0.41136545,1.3713914,-0.2310596,0.28023422
985,1778621620.8304653,-0.6753443,-0.6723563,-0.41136545,1.3713914,-0.2310596,0.28023422
986,1778621620.8404663,-0.6753443,-0.6723563,-0.41136545,1.3713914,-0.2310596,0.28023422
987,1778621620.8504686,-0.6753443,-0.6723563,-0.41136545,1.3713914,-0.2310596,0.28023422
988,1778621620.8604693,-0.6753443,-0.6723563,-0.41136545,1.3713914,-0.2310596,0.28023422
989,1778621620.8704708,-0.5846073,-0.42892745,-0.36380172,1.1545345,-0.5994111,0.6412553
990,1778621620.880472,-0.5846073,-0.42892745,-0.36380172,1.1545345,-0.5994111,0.6412553
991,1778621620.890473,-0.5846073,-0.42892745,-0.36380172,1.1545345,-0.5994111,0.6412553
992,1778621620.900474,-0.5846073,-0.42892745,-0.36380172,1.1545345,-0.5994111,0.6412553
993,1778621620.9104745,-0.5846073,-0.42892745,-0.36380172,1.1545345,-0.5994111,0.6412553
994,1778621620.9204755,-0.5846073,-0.42892745,-0.36380172,1.1545345,-0.5994111,0.6412553
995,1778621620.9304762,0.06543065,-0.08280971,0.084761046,-0.78862643,-1.5297581,1.7701334
996,1778621620.9404774,0.06543065,-0.08280971,0.084761046,-0.78862643,-1.5297581,1.7701334
997,1778621620.9504786,0.06543065,-0.08280971,0.084761046,-0.78862643,-1.5297581,1.7701334
998,1778621620.96048,0.06543065,-0.08280971,0.084761046,-0.78862643,-1.5297581,1.7701334
