id,timestamp,acc_x,acc_y,acc_z,gyro_x,gyro_y,gyro_z
1,1778619426.3403082,0.5020415,0.12866604,0.072565205,0.79351336,-0.6084213,1.191339
2,1778619426.3503153,0.5020415,0.12866604,0.072565205,0.79351336,-0.6084213,1.191339
3,1778619426.3603234,0.5349702,0.07280912,0.06305246,0.79351336,-0.6084213,1.191339
4,1778619426.3705254,0.5349702,0.07280912,0.06305246,0.79351336,-0.6084213,1.191339
5,1778619426.380527,0.5349702,0.07280912,0.06305246,0.79351336,-0.6084213,1.191339
6,1778619426.3905284,0.5349702,0.07280912,0.06305246,0.79351336,-0.6084213,1.191339
7,1778619426.400529,0.5349702,0.07280912,0.06305246,0.79351336,-0.6084213,1.191339
8,1778619426.41053,0.5349702,0.07280912,0.06305246,0.79351336,-0.6084213,1.191339
9,1778619426.4205315,0.5349702,0.07280912,0.06305246,0.79351336,-0.6084213,1.191339
10,1778619426.4305334,0.54423904,-0.07622396,0.04744179,0.4251619,-0.5064069,1.3880374
11,1778619426.4405346,0.54423904,-0.07622396,0.04744179,0.4251619,-0.5064069,1.3880374
12,1778619426.450535,0.54423904,-0.07622396,0.04744179,0.4251619,-0.5064069,1.3880374
13,1778619426.4605358,0.54423904,-0.07622396,0.04744179,0.4251619,-0.5064069,1.3880374
14,1778619426.4705396,0.54423904,-0.07622396,0.04744179,0.4251619,-0.5064069,1.3880374
15,1778619426.4805412,0.54423904,-0.07622396,0.04744179,0.4251619,-0.5064069,1.3880374
16,1778619426.4905424,0.5198474,-0.123299874,0.030855458,0.32253662,-0.51434815,1.5004367
17,1778619426.5007277,0.5198474,-0.123299874,0.030855458,0.15882485,-0.5809324,1.6714787
18,1778619426.5107334,0.5198474,-0.123299874,0.030855458,0.15882485,-0.5809324,1.6714787
19,1778619426.5207348,0.5198474,-0.123299874,0.030855458,0.15882485,-0.5809324,1.6714787
20,1778619426.5307357,0.5198474,-0.123299874,0.030855458,0.15882485,-0.5809324,1.6714787
21,1778619426.5407374,0.5198474,-0.123299874,0.030855458,0.15882485,-0.5809324,1.6714787
22,1778619426.5507383,0.5198474,-0.123299874,0.030855458,0.15882485,-0.5809324,1.6714787
23,1778619426.5607388,0.5198474,-0.123299874,0.030855458,0.15882485,-0.5809324,1.6714787
24,1778619426.5707395,0.5198474,-0.123299874,0.030855458,0.15882485,-0.5809324,1.6714787
25,1778619426.5807433,0.50570023,-0.16110696,-0.0052442085,0.15882485,-0.5809324,1.6714787
26,1778619426.590745,0.50570023,-0.16110696,-0.0052442085,0.15882485,-0.5809324,1.6714787
27,1778619426.6007464,0.5127738,-0.23794071,-0.023537958,0.15882485,-0.5809324,1.6714787
28,1778619426.6107478,0.5127738,-0.23794071,-0.023537958,-0.018325943,-0.6261364,1.8303035
29,1778619426.6207483,0.5127738,-0.23794071,-0.023537958,-0.018325943,-0.6261364,1.8303035
30,1778619426.6307487,0.5957055,-0.3374587,-0.028904125,-0.30421066,-0.69455326,2.126573
31,1778619426.64075,0.5957055,-0.3374587,-0.028904125,-0.30421066,-0.69455326,2.126573
32,1778619426.6507509,0.5957055,-0.3374587,-0.028904125,-0.30421066,-0.69455326,2.126573
33,1778619426.660752,0.6222924,-0.3825833,-0.03305071,-0.30421066,-0.69455326,2.126573
34,1778619426.6711178,0.6222924,-0.3825833,-0.03305071,-0.30421066,-0.69455326,2.126573
35,1778619426.6811213,0.6222924,-0.3825833,-0.03305071,-0.30421066,-0.69455326,2.126573
36,1778619426.6911242,0.68888164,-0.5179571,-0.008902958,-0.4251619,-0.8142828,2.447888
37,1778619426.7011259,0.68888164,-0.5179571,-0.008902958,-0.4251619,-0.8142828,2.447888
38,1778619426.7111268,0.68888164,-0.5179571,-0.008902958,-0.4251619,-0.8142828,2.447888
39,1778619426.7211282,0.68888164,-0.5179571,-0.008902958,-0.4251619,-0.8142828,2.447888
40,1778619426.7311292,0.68888164,-0.5179571,-0.008902958,-0.4251619,-0.8142828,2.447888
41,1778619426.7411308,0.68888164,-0.5179571,-0.008902958,-0.4251619,-0.8142828,2.447888
42,1778619426.7511322,0.68888164,-0.5179571,-0.008902958,-0.4251619,-0.8142828,2.447888
43,1778619426.7611327,0.68888164,-0.5179571,-0.008902958,-0.4251619,-0.8142828,2.447888
44,1778619426.7711334,0.70400447,-0.5713748,-0.0052442085,-0.5656608,-0.8503238,2.822959
45,1778619426.7811341,0.70400447,-0.5713748,-0.0052442085,-0.5656608,-0.8503238,2.822959
46,1778619426.791135,0.70400447,-0.5713748,-0.0052442085,-0.5656608,-0.8503238,2.822959
47,1778619426.8011355,0.70400447,-0.5713748,-0.0052442085,-0.5656608,-0.8503238,2.822959
48,1778619426.811136,0.70400447,-0.5713748,-0.0052442085,-0.5656608,-0.8503238,2.822959
49,1778619426.8211367,0.79108274,-0.6111332,-0.04183171,-0.8142828,-0.8637628,3.1534367
50,1778619426.831138,0.92865175,-0.5543006,-0.041099958,-0.95539254,-1.0060943,3.205971
51,1778619426.8411381,0.92865175,-0.5543006,-0.041099958,-0.95539254,-1.0060943,3.205971
52,1778619426.8511388,1.2796478,-0.573814,0.09134679,-1.4831797,-0.75563973,3.2206318
53,1778619426.8611507,1.2796478,-0.573814,0.09134679,-2.0127995,-0.48319405,3.3990045
54,1778619426.871155,1.2796478,-0.573814,0.09134679,-2.0127995,-0.48319405,3.3990045
55,1778619426.8811564,1.2796478,-0.573814,0.09134679,-2.0127995,-0.48319405,3.3990045
56,1778619426.8911865,1.6167407,-0.6035718,0.051832296,-2.6132796,-0.31276277,3.5706573
57,1778619426.90119,1.6167407,-0.6035718,0.051832296,-2.6132796,-0.31276277,3.5706573
58,1778619426.9111912,1.6167407,-0.6035718,0.051832296,-2.6132796,-0.31276277,3.5706573
59,1778619426.921192,1.6167407,-0.6035718,0.051832296,-2.6132796,-0.31276277,3.5706573
60,1778619426.931193,1.873585,-0.49551672,0.15037462,-3.0970845,-0.3188714,3.6702282
61,1778619426.9411955,2.0257888,-0.3867299,0.25208786,-3.0970845,-0.3188714,3.6702282
62,1778619426.9511971,2.0257888,-0.3867299,0.25208786,-3.0970845,-0.3188714,3.6702282
63,1778619426.9611979,2.0257888,-0.3867299,0.25208786,-3.2907286,-0.4092794,3.6586218
64,1778619426.9712002,2.5131345,0.1074453,0.5791801,-2.8991642,-0.9950987,3.0966263
65,1778619426.9812129,2.5131345,0.1074453,0.5791801,-2.8991642,-0.9950987,3.0966263
66,1778619426.9912162,2.5131345,0.1074453,0.5791801,-2.8991642,-0.9950987,3.0966263
67,1778619427.0012167,2.5131345,0.1074453,0.5791801,-2.8991642,-0.9950987,3.0966263
68,1778619427.0112176,2.5131345,0.1074453,0.5791801,-2.8991642,-0.9950987,3.0966263
69,1778619427.0212185,2.5131345,0.1074453,0.5791801,-2.8991642,-0.9950987,3.0966263
70,1778619427.0312192,2.5131345,0.1074453,0.5791801,-2.8991642,-0.9950987,3.0966263
71,1778619427.0412202,2.5131345,0.1074453,0.5791801,-2.8991642,-0.9950987,3.0966263
72,1778619427.051221,2.5131345,0.1074453,0.5791801,-2.8991642,-0.9950987,3.0966263
73,1778619427.0612216,2.5131345,0.1074453,0.5791801,-2.8991642,-0.9950987,3.0966263
74,1778619427.0712223,2.5131345,0.1074453,0.5791801,-2.8991642,-0.9950987,3.0966263
75,1778619427.0812306,2.5885048,0.28062615,0.6794299,-2.4043639,-0.9786054,2.257909
76,1778619427.0912333,2.5885048,0.28062615,0.6794299,-2.4043639,-0.9786054,2.257909
77,1778619427.1012366,2.5885048,0.28062615,0.6794299,-2.4043639,-0.9786054,2.257909
78,1778619427.1112394,2.5421605,0.37502187,0.7182126,-2.4043639,-0.9786054,2.257909
79,1778619427.1212404,2.5421605,0.37502187,0.7182126,-2.4043639,-0.9786054,2.257909
80,1778619427.1312418,2.5421605,0.37502187,0.7182126,-2.4043639,-0.9786054,2.257909
81,1778619427.1415505,2.5421605,0.37502187,0.7182126,-2.4043639,-0.9786054,2.257909
82,1778619427.1515512,2.4480088,0.39282778,0.7123586,-2.4043639,-0.9786054,2.257909
83,1778619427.161552,1.2586709,1.0843315,0.53283596,0.12583815,-0.24251331,0.2603811
84,1778619427.1715531,1.2586709,1.0843315,0.53283596,0.12583815,-0.24251331,0.2603811
85,1778619427.1815543,0.43862313,0.68308866,0.5508858,-0.51618075,1.3994912,-2.1916301
86,1778619427.191556,0.55302006,0.65089166,0.6218656,-0.023823727,1.6102395,-2.48118
87,1778619427.201558,0.55302006,0.65089166,0.6218656,-0.023823727,1.6102395,-2.48118
88,1778619427.2115595,0.55302006,0.65089166,0.6218656,-0.023823727,1.6102395,-2.48118
89,1778619427.2215612,0.65253806,0.5567398,0.6474768,0.69333154,1.6456697,-2.779893
90,1778619427.2315626,0.65253806,0.5567398,0.6474768,0.69333154,1.6456697,-2.779893
91,1778619427.2415645,0.65253806,0.5567398,0.6474768,0.69333154,1.6456697,-2.779893
92,1778619427.2515655,0.65253806,0.5567398,0.6474768,0.69333154,1.6456697,-2.779893
93,1778619427.2615683,0.69010127,0.5313725,0.6694293,0.9957096,1.635285,-2.838536
94,1778619427.27157,1.9257832,0.585522,0.9257858,3.4214537,2.7611089,-3.3339472
95,1778619427.281571,1.9257832,0.585522,0.9257858,3.4214537,2.7611089,-3.3339472
96,1778619427.2915714,1.9257832,0.585522,0.9257858,3.4214537,2.7611089,-3.3339472
97,1778619427.3015723,2.283365,0.49063838,0.8582208,4.0127707,2.375653,-4.131126
98,1778619427.311573,2.283365,0.49063838,0.8582208,4.0127707,2.375653,-4.131126
99,1778619427.3215742,2.283365,0.49063838,0.8582208,4.0127707,2.375653,-4.131126
100,1778619427.3315768,2.403372,0.36136255,0.9950581,4.0127707,2.375653,-4.131126
101,1778619427.341578,2.403372,0.36136255,0.9950581,4.0127707,2.375653,-4.131126
102,1778619427.3515785,2.403372,0.36136255,0.9950581,4.0127707,2.375653,-4.131126
103,1778619427.3615792,2.403372,0.36136255,0.9950581,4.0127707,2.375653,-4.131126
104,1778619427.3715804,2.4633756,0.23598938,1.1218947,4.007884,2.3927574,-3.9570293
105,1778619427.3815815,2.4633756,0.23598938,1.1218947,4.007884,2.3927574,-3.9570293
106,1778619427.3916414,2.4633756,0.23598938,1.1218947,4.007884,2.3927574,-3.9570293
107,1778619427.4016426,2.4633756,0.23598938,1.1218947,4.007884,2.3927574,-3.9570293
108,1778619427.4116442,2.4633756,0.23598938,1.1218947,4.007884,2.3927574,-3.9570293
109,1778619427.421647,2.4633756,0.23598938,1.1218947,4.007884,2.3927574,-3.9570293
110,1778619427.4316566,1.328675,-0.5721066,0.24818522,3.7055058,1.7550145,-1.4475968
111,1778619427.4420426,1.328675,-0.5721066,0.24818522,3.600437,1.2950333,-1.1146755
112,1778619427.452044,1.328675,-0.5721066,0.24818522,3.600437,1.2950333,-1.1146755
113,1778619427.4620447,1.328675,-0.5721066,0.24818522,3.600437,1.2950333,-1.1146755
114,1778619427.4720454,1.328675,-0.5721066,0.24818522,3.600437,1.2950333,-1.1146755
115,1778619427.4820461,0.60692567,-0.68333256,0.0035367915,3.07265,0.66156656,-0.4298961
116,1778619427.492047,0.60692567,-0.68333256,0.0035367915,3.07265,0.66156656,-0.4298961
117,1778619427.5020478,0.60692567,-0.68333256,0.0035367915,3.07265,0.66156656,-0.4298961
118,1778619427.5120492,0.60692567,-0.68333256,0.0035367915,3.07265,0.66156656,-0.4298961
119,1778619427.5222335,-0.16750978,-1.0848193,-0.11012838,-0.08735366,-0.58154327,1.6665919
120,1778619427.5322356,-0.16750978,-1.0848193,-0.11012838,-0.08735366,-0.58154327,1.6665919
121,1778619427.542237,-0.16750978,-1.0848193,-0.11012838,-0.08735366,-0.58154327,1.6665919
122,1778619427.5522377,-0.16750978,-1.0848193,-0.11012838,-0.08735366,-0.58154327,1.6665919
123,1778619427.5622387,-0.16750978,-1.0848193,-0.11012838,-0.08735366,-0.58154327,1.6665919
124,1778619427.5722399,-0.16750978,-1.0848193,-0.11012838,-0.08735366,-0.58154327,1.6665919
125,1778619427.5822406,-0.16750978,-1.0848193,-0.11012838,-0.08735366,-0.58154327,1.6665919
126,1778619427.592241,-0.0582351,-1.036036,-0.053783625,-0.42821622,-0.5082395,2.4307837
127,1778619427.602242,-0.0582351,-1.036036,-0.053783625,-0.42821622,-0.5082395,2.4307837
128,1778619427.6122427,-0.0582351,-1.036036,-0.053783625,-0.42821622,-0.5082395,2.4307837
129,1778619427.6222541,0.8501106,-0.86383086,-0.35672814,-1.4379756,-0.8155045,2.7331617
130,1778619427.6322594,0.8501106,-0.86383086,-0.35672814,-2.299295,-0.42027497,2.560287
131,1778619427.6422603,0.8501106,-0.86383086,-0.35672814,-2.299295,-0.42027497,2.560287
132,1778619427.6522617,0.8501106,-0.86383086,-0.35672814,-2.299295,-0.42027497,2.560287
133,1778619427.6625295,0.8501106,-0.86383086,-0.35672814,-2.299295,-0.42027497,2.560287
134,1778619427.672531,0.8501106,-0.86383086,-0.35672814,-2.299295,-0.42027497,2.560287
135,1778619427.6825318,2.605335,1.0082296,0.85651344,-2.059225,-0.18081598,2.1436772
136,1778619427.6925333,2.605335,1.0082296,0.85651344,-2.059225,-0.18081598,2.1436772
137,1778619427.702535,2.605335,1.0082296,0.85651344,-2.059225,-0.18081598,2.1436772
138,1778619427.7125359,2.605335,1.0082296,0.85651344,-2.059225,-0.18081598,2.1436772
139,1778619427.722537,2.605335,1.0082296,0.85651344,-2.059225,-0.18081598,2.1436772
140,1778619427.7325382,2.605335,1.0082296,0.85651344,-2.059225,-0.18081598,2.1436772
141,1778619427.742539,2.605335,1.0082296,0.85651344,-2.059225,-0.18081598,2.1436772
142,1778619427.7525394,2.605335,1.0082296,0.85651344,-2.059225,-0.18081598,2.1436772
143,1778619427.7625399,2.2943413,1.0365238,0.7394334,-1.7195843,-0.07696896,1.9946262
144,1778619427.772671,2.113355,1.0621351,0.68406427,-1.5644248,-0.06597339,1.9536983
145,1778619427.7826724,2.113355,1.0621351,0.68406427,-1.5644248,-0.06597339,1.9536983
146,1778619427.792673,2.113355,1.0621351,0.68406427,-1.5644248,-0.06597339,1.9536983
147,1778619427.8026738,2.113355,1.0621351,0.68406427,-1.5644248,-0.06597339,1.9536983
148,1778619427.812675,2.113355,1.0621351,0.68406427,-1.5644248,-0.06597339,1.9536983
149,1778619427.822677,2.113355,1.0621351,0.68406427,-1.5644248,-0.06597339,1.9536983
150,1778619427.8326783,2.113355,1.0621351,0.68406427,-1.5644248,-0.06597339,1.9536983
151,1778619427.843053,1.8904152,1.1121382,0.611865,-1.5644248,-0.06597339,1.9536983
152,1778619427.8530543,1.8904152,1.1121382,0.611865,-1.5644248,-0.06597339,1.9536983
153,1778619427.8630557,1.8904152,1.1121382,0.611865,-1.5644248,-0.06597339,1.9536983
154,1778619427.8730564,1.8904152,1.1121382,0.611865,-1.3115267,-0.012217295,1.8358014
155,1778619427.8830569,1.8904152,1.1121382,0.611865,-1.3115267,-0.012217295,1.8358014
156,1778619427.8930573,1.8904152,1.1121382,0.611865,-1.3115267,-0.012217295,1.8358014
157,1778619427.9030588,1.8904152,1.1121382,0.611865,-1.3115267,-0.012217295,1.8358014
158,1778619427.9130685,1.8904152,1.1121382,0.611865,-1.3115267,-0.012217295,1.8358014
159,1778619427.9230714,1.8904152,1.1121382,0.611865,-1.3115267,-0.012217295,1.8358014
160,1778619427.9332807,0.56887466,1.1648241,0.31721362,0.033597562,-0.5338958,-0.29367325
161,1778619427.9432817,0.56887466,1.1648241,0.31721362,0.033597562,-0.5338958,-0.29367325
162,1778619427.9532824,0.424476,1.1582383,0.32623854,0.033597562,-0.5338958,-0.29367325
163,1778619427.9632838,0.21470766,0.80894965,0.33550736,0.59192795,0.27000225,-2.20568
164,1778619427.9732847,0.21470766,0.80894965,0.33550736,0.59192795,0.27000225,-2.20568
165,1778619427.9832854,2.8655941,0.8082179,0.4864918,1.5070034,1.4391974,-3.2655303
166,1778619427.9932864,2.8655941,0.8082179,0.4864918,1.499673,1.1875211,-3.3492188
167,1778619428.0032868,2.8655941,0.8082179,0.4864918,1.499673,1.1875211,-3.3492188
168,1778619428.0132878,2.8655941,0.8082179,0.4864918,1.499673,1.1875211,-3.3492188
169,1778619428.0232885,2.8655941,0.8082179,0.4864918,1.499673,1.1875211,-3.3492188
170,1778619428.0332887,2.8655941,0.8082179,0.4864918,1.499673,1.1875211,-3.3492188
171,1778619428.0432892,2.8655941,0.8082179,0.4864918,1.499673,1.1875211,-3.3492188
172,1778619428.0532947,0.57643604,-0.76528853,-0.16452178,1.3775,1.3982695,-1.5887066
173,1778619428.063298,0.57643604,-0.76528853,-0.16452178,1.3775,1.3982695,-1.5887066
174,1778619428.0733,-0.13970327,-0.96725154,-0.29160237,1.0555743,-0.34025168,-0.14401138
175,1778619428.0833,-0.13970327,-0.96725154,-0.29160237,1.0555743,-0.34025168,-0.14401138
176,1778619428.0933008,-0.13970327,-0.96725154,-0.29160237,1.0555743,-0.34025168,-0.14401138
177,1778619428.1033013,-0.19385278,-0.9848135,-0.29916382,0.90285814,-0.42699447,0.19440772
178,1778619428.1133018,-0.19385278,-0.9848135,-0.29916382,0.90285814,-0.42699447,0.19440772
179,1778619428.1233025,-0.19385278,-0.9848135,-0.29916382,0.90285814,-0.42699447,0.19440772
180,1778619428.1333034,-0.19385278,-0.9848135,-0.29916382,0.90285814,-0.42699447,0.19440772
181,1778619428.143304,-0.19385278,-0.9848135,-0.29916382,0.90285814,-0.42699447,0.19440772
182,1778619428.1533048,-0.13945936,-1.0060343,-0.28501663,0.45937032,-0.6212495,0.9353867
183,1778619428.1633098,-0.13945936,-1.0060343,-0.28501663,0.45937032,-0.6212495,0.9353867
184,1778619428.1733115,-0.13945936,-1.0060343,-0.28501663,0.45937032,-0.6212495,0.9353867
185,1778619428.1833122,-0.13945936,-1.0060343,-0.28501663,0.45937032,-0.6212495,0.9353867
186,1778619428.1933124,-0.13945936,-1.0060343,-0.28501663,0.45937032,-0.6212495,0.9353867
187,1778619428.2033136,-0.13945936,-1.0060343,-0.28501663,0.45937032,-0.6212495,0.9353867
188,1778619428.2133148,-0.13945936,-1.0060343,-0.28501663,0.45937032,-0.6212495,0.9353867
189,1778619428.2233152,-0.13945936,-1.0060343,-0.28501663,0.45937032,-0.6212495,0.9353867
190,1778619428.2333167,-0.13945936,-1.0060343,-0.28501663,0.45937032,-0.6212495,0.9353867
191,1778619428.243318,-0.13945936,-1.0060343,-0.28501663,0.45937032,-0.6212495,0.9353867
192,1778619428.2533185,-0.13945936,-1.0060343,-0.28501663,0.45937032,-0.6212495,0.9353867
193,1778619428.2633202,-0.13945936,-1.0060343,-0.28501663,0.45937032,-0.6212495,0.9353867
194,1778619428.2733219,-0.13945936,-1.0060343,-0.28501663,0.45937032,-0.6212495,0.9353867
195,1778619428.283323,-0.13945936,-1.0060343,-0.28501663,0.45937032,-0.6212495,0.9353867
196,1778619428.2933242,-0.13945936,-1.0060343,-0.28501663,0.45937032,-0.6212495,0.9353867
197,1778619428.3033273,-0.13945936,-1.0060343,-0.28501663,0.27244568,-0.6218603,1.132696
198,1778619428.3133295,-0.13945936,-1.0060343,-0.28501663,0.27244568,-0.6218603,1.132696
199,1778619428.3233306,-0.13945936,-1.0060343,-0.28501663,0.27244568,-0.6218603,1.132696
200,1778619428.333331,-0.13945936,-1.0060343,-0.28501663,0.27244568,-0.6218603,1.132696
201,1778619428.343345,-0.13945936,-1.0060343,-0.28501663,0.27244568,-0.6218603,1.132696
202,1778619428.353349,-0.13945936,-1.0060343,-0.28501663,0.27244568,-0.6218603,1.132696
203,1778619428.3633497,-0.13945936,-1.0060343,-0.28501663,0.27244568,-0.6218603,1.132696
204,1778619428.3733504,-0.095066525,-0.97774,-0.2511122,0.07696896,-0.5717694,1.2371539
205,1778619428.383352,-0.095066525,-0.97774,-0.2511122,0.07696896,-0.5717694,1.2371539
206,1778619428.3933532,-0.095066525,-0.97774,-0.2511122,0.07696896,-0.5717694,1.2371539
207,1778619428.403355,-0.095066525,-0.97774,-0.2511122,0.07696896,-0.5717694,1.2371539
208,1778619428.4133565,-0.019208437,-0.98896015,-0.35380113,-1.1184934,-0.8466586,1.6665919
209,1778619428.4233577,-0.019208437,-0.98896015,-0.35380113,-1.1184934,-0.8466586,1.6665919
210,1778619428.4333587,-0.019208437,-0.98896015,-0.35380113,-1.1184934,-0.8466586,1.6665919
211,1778619428.4433606,-0.019208437,-0.98896015,-0.35380113,-1.1184934,-0.8466586,1.6665919
212,1778619428.4533617,-0.019208437,-0.98896015,-0.35380113,-1.1184934,-0.8466586,1.6665919
213,1778619428.463363,-0.019208437,-0.98896015,-0.35380113,-1.1184934,-0.8466586,1.6665919
214,1778619428.473364,-0.019208437,-0.98896015,-0.35380113,-1.1184934,-0.8466586,1.6665919
215,1778619428.4833653,0.009085896,-0.9860331,-0.3647774,-1.1184934,-0.8466586,1.6665919
216,1778619428.493367,0.57594824,-0.933591,-0.13647138,-2.2754712,-0.75869405,2.0557127
217,1778619428.5033696,0.57594824,-0.933591,-0.13647138,-2.2754712,-0.75869405,2.0557127
218,1778619428.5133715,0.8323047,-0.88066113,-0.24696562,-2.6138904,-0.59559315,1.9836307
219,1778619428.5233727,0.8323047,-0.88066113,-0.24696562,-2.6138904,-0.59559315,1.9836307
220,1778619428.5333729,0.8323047,-0.88066113,-0.24696562,-2.6138904,-0.59559315,1.9836307
221,1778619428.5433736,0.8323047,-0.88066113,-0.24696562,-2.6138904,-0.59559315,1.9836307
222,1778619428.5533743,0.8323047,-0.88066113,-0.24696562,-2.6138904,-0.59559315,1.9836307
223,1778619428.563375,0.8323047,-0.88066113,-0.24696562,-2.6138904,-0.59559315,1.9836307
224,1778619428.573376,3.6514933,0.7718743,0.98920405,-3.2876742,-2.2638648,3.8644834
225,1778619428.5833766,3.6514933,0.7718743,0.98920405,-3.2876742,-2.2638648,3.8644834
226,1778619428.5933774,3.6514933,0.7718743,0.98920405,-3.2876742,-2.2638648,3.8644834
227,1778619428.6033788,3.6514933,0.7718743,0.98920405,-3.2876742,-2.2638648,3.8644834
228,1778619428.61338,3.6514933,0.7718743,0.98920405,-3.2876742,-2.2638648,3.8644834
229,1778619428.6233816,3.6514933,0.7718743,0.98920405,-3.2876742,-2.2638648,3.8644834
230,1778619428.6333828,3.4505062,1.2082412,0.9531044,-2.8173084,-1.3860521,2.5773911
231,1778619428.6433842,3.4505062,1.2082412,0.9531044,-2.8173084,-1.3860521,2.5773911
232,1778619428.653385,2.257022,1.6263144,0.790412,-1.9565998,-0.7538071,1.579849
233,1778619428.663387,2.257022,1.6263144,0.790412,-1.9565998,-0.7538071,1.579849
234,1778619428.6733887,2.257022,1.6263144,0.790412,-1.9565998,-0.7538071,1.579849
235,1778619428.683399,0.58911973,1.3765438,0.37599754,-0.015882485,-0.26328272,0.04780017
236,1778619428.6934016,0.58911973,1.3765438,0.37599754,-0.015882485,-0.26328272,0.04780017
237,1778619428.7034037,0.58911973,1.3765438,0.37599754,-0.015882485,-0.26328272,0.04780017
238,1778619428.7134056,0.30495682,1.2865385,0.29965162,-0.11362085,-0.040317077,-0.043218683
239,1778619428.723406,0.30495682,1.2865385,0.29965162,-0.11362085,-0.040317077,-0.043218683
240,1778619428.7334082,0.30495682,1.2865385,0.29965162,-0.11362085,-0.040317077,-0.043218683
241,1778619428.7434099,0.30495682,1.2865385,0.29965162,-0.11362085,-0.040317077,-0.043218683
242,1778619428.7534103,0.30495682,1.2865385,0.29965162,-0.11362085,-0.040317077,-0.043218683
243,1778619428.7634113,0.30495682,1.2865385,0.29965162,-0.11362085,-0.040317077,-0.043218683
244,1778619428.7734199,0.15128931,1.203119,0.25891754,-0.42943794,0.4392118,-0.30894485
245,1778619428.7834227,0.15128931,1.203119,0.25891754,-0.42943794,0.4392118,-0.30894485
246,1778619428.7934237,0.15128931,1.203119,0.25891754,-0.42943794,0.4392118,-0.30894485
247,1778619428.8034244,0.15128931,1.203119,0.25891754,-0.42943794,0.4392118,-0.30894485
248,1778619428.813425,0.15128931,1.203119,0.25891754,-0.42943794,0.4392118,-0.30894485
249,1778619428.8234255,0.02274523,1.1275048,0.17135146,-0.51495904,0.5430588,-0.47632182
250,1778619428.833426,0.02274523,1.1275048,0.17135146,-0.51495904,0.5430588,-0.47632182
251,1778619428.8434274,0.02274523,1.1275048,0.17135146,-0.54916745,0.62735814,-0.7359393
252,1778619428.8534284,0.02274523,1.1275048,0.17135146,-0.54916745,0.62735814,-0.7359393
253,1778619428.863429,0.02274523,1.1275048,0.17135146,-0.54916745,0.62735814,-0.7359393
254,1778619428.87343,0.02274523,1.1275048,0.17135146,-0.54916745,0.62735814,-0.7359393
255,1778619428.8834314,-0.07506536,1.0672574,0.110616215,-0.54916745,0.62735814,-0.7359393
256,1778619428.8934326,-0.07506536,1.0672574,0.110616215,-0.54916745,0.62735814,-0.7359393
257,1778619428.9034333,-0.07506536,1.0672574,0.110616215,-0.54916745,0.62735814,-0.7359393
258,1778619428.913434,-0.07506536,1.0672574,0.110616215,-0.54916745,0.62735814,-0.7359393
259,1778619428.9234345,-0.07506536,1.0672574,0.110616215,-0.54916745,0.62735814,-0.7359393
260,1778619428.9334354,-0.07506536,1.0672574,0.110616215,-0.54916745,0.62735814,-0.7359393
261,1778619428.9434364,-0.07506536,1.0672574,0.110616215,-0.54916745,0.62735814,-0.7359393
262,1778619428.9534369,-0.07506536,1.0672574,0.110616215,-0.54916745,0.62735814,-0.7359393
263,1778619428.963438,-0.07506536,1.0672574,0.110616215,-0.54916745,0.64079714,-0.832456
264,1778619428.973439,-0.07506536,1.0672574,0.110616215,-0.54916745,0.64079714,-0.832456
265,1778619428.98344,-0.07506536,1.0672574,0.110616215,-0.54916745,0.64079714,-0.832456
266,1778619428.9934409,-0.07506536,1.0672574,0.110616215,-0.54916745,0.64079714,-0.832456
267,1778619429.0034416,-0.07506536,1.0672574,0.110616215,-0.54916745,0.64079714,-0.832456
268,1778619429.0134425,-0.07506536,1.0672574,0.110616215,-0.54916745,0.64079714,-0.832456
269,1778619429.023813,-0.07506536,1.0672574,0.110616215,-0.54916745,0.64079714,-0.832456
270,1778619429.0338147,-0.07506536,1.0672574,0.110616215,-0.54916745,0.64079714,-0.832456
271,1778619429.0438159,-0.20824386,0.9089555,0.045002624,-0.5204568,0.61330825,-1.0438151
272,1778619429.0538197,-0.23970911,0.82602376,0.036465544,-0.5204568,0.61330825,-1.0438151
273,1778619429.0638213,-0.23970911,0.82602376,0.036465544,-0.5204568,0.61330825,-1.0438151
274,1778619429.0738218,-0.23970911,0.82602376,0.036465544,-0.5204568,0.61330825,-1.0438151
275,1778619429.083823,-0.23970911,0.82602376,0.036465544,-0.5204568,0.61330825,-1.0438151
276,1778619429.093824,-0.23970911,0.82602376,0.036465544,-0.5204568,0.61330825,-1.0438151
277,1778619429.1038244,-0.23970911,0.82602376,0.036465544,-0.5204568,0.61330825,-1.0438151
278,1778619429.1138248,-0.23970911,0.82602376,0.036465544,-0.47464192,0.582765,-1.1165081
279,1778619429.1238256,-0.23970911,0.82602376,0.036465544,-0.47464192,0.582765,-1.1165081
280,1778619429.1338267,-0.23970911,0.82602376,0.036465544,-0.47464192,0.582765,-1.1165081
281,1778619429.1438277,-0.2294646,0.7765087,0.017196124,-0.40866855,0.51312643,-1.1611012
282,1778619429.1538281,-0.2294646,0.7765087,0.017196124,-0.40866855,0.51312643,-1.1611012
283,1778619429.163829,-0.2294646,0.7765087,0.017196124,-0.40866855,0.51312643,-1.1611012
284,1778619429.1738296,-0.2294646,0.7765087,0.017196124,-0.40866855,0.51312643,-1.1611012
285,1778619429.1838305,-0.2294646,0.7765087,0.017196124,-0.29688028,0.3970621,-1.211803
286,1778619429.1938317,0.32471406,0.8394393,0.21671996,0.33108872,0.5717694,-1.7444772
287,1778619429.2038324,0.32471406,0.8394393,0.21671996,0.33108872,0.5717694,-1.7444772
288,1778619429.2138336,0.32471406,0.8394393,0.21671996,0.33108872,0.5717694,-1.7444772
289,1778619429.2238345,0.32471406,0.8394393,0.21671996,0.33108872,0.5717694,-1.7444772
290,1778619429.233836,0.32471406,0.8394393,0.21671996,0.33108872,0.5717694,-1.7444772
291,1778619429.2438369,0.5232622,0.8533425,0.21062206,0.33108872,0.5717694,-1.7444772
292,1778619429.2538376,0.5232622,0.8533425,0.21062206,0.33108872,0.5717694,-1.7444772
293,1778619429.2638385,0.5232622,0.8533425,0.21062206,0.33108872,0.5717694,-1.7444772
294,1778619429.27384,0.5232622,0.8533425,0.21062206,0.33108872,0.5717694,-1.7444772
295,1778619429.2838411,0.5232622,0.8533425,0.21062206,0.33108872,0.5717694,-1.7444772
296,1778619429.2938418,0.5232622,0.8533425,0.21062206,0.3744601,0.74464417,-1.9356778
297,1778619429.3038423,0.5232622,0.8533425,0.21062206,0.3744601,0.74464417,-1.9356778
298,1778619429.313843,0.5232622,0.8533425,0.21062206,0.3744601,0.74464417,-1.9356778
299,1778619429.3238444,3.052922,0.70991945,0.16842447,1.1148282,0.33719736,-3.6858053
300,1778619429.3338459,2.9512088,0.38477856,0.13378829,1.1148282,0.33719736,-3.6858053
301,1778619429.3438468,2.9512088,0.38477856,0.13378829,1.1148282,0.33719736,-3.6858053
302,1778619429.3538477,2.9512088,0.38477856,0.13378829,1.1148282,0.33719736,-3.6858053
303,1778619429.363851,2.9512088,0.38477856,0.13378829,1.1148282,0.33719736,-3.6858053
304,1778619429.373853,2.9512088,0.38477856,0.13378829,1.1148282,0.33719736,-3.6858053
305,1778619429.3838544,2.9512088,0.38477856,0.13378829,1.1148282,0.33719736,-3.6858053
306,1778619429.3938553,2.9512088,0.38477856,0.13378829,1.1148282,0.33719736,-3.6858053
307,1778619429.4038563,2.9512088,0.38477856,0.13378829,1.1148282,0.33719736,-3.6858053
308,1778619429.413857,2.8124201,0.18940128,0.029391957,0.9279036,0.5051852,-3.5312567
309,1778619429.4238596,2.8124201,0.18940128,0.029391957,0.9279036,0.5051852,-3.5312567
310,1778619429.433876,2.8124201,0.18940128,0.029391957,0.9279036,0.5051852,-3.5312567
311,1778619429.4438791,2.8124201,0.18940128,0.029391957,0.9279036,0.5051852,-3.5312567
312,1778619429.4538805,2.8124201,0.18940128,0.029391957,0.9279036,0.5051852,-3.5312567
313,1778619429.4638815,2.8124201,0.18940128,0.029391957,0.9279036,0.5051852,-3.5312567
314,1778619429.4738824,2.8124201,0.18940128,0.029391957,0.9279036,0.5051852,-3.5312567
315,1778619429.4838834,2.8124201,0.18940128,0.029391957,0.9279036,0.5051852,-3.5312567
316,1778619429.4938843,2.8124201,0.18940128,0.029391957,0.7819069,0.5216785,-3.3644905
317,1778619429.5038848,2.8124201,0.18940128,0.029391957,0.7819069,0.5216785,-3.3644905
318,1778619429.5138857,2.8124201,0.18940128,0.029391957,0.7819069,0.5216785,-3.3644905
319,1778619429.523887,2.2487288,-0.085004956,-0.12769037,0.7819069,0.5216785,-3.3644905
320,1778619429.5338874,2.2487288,-0.085004956,-0.12769037,0.7819069,0.5216785,-3.3644905
321,1778619429.5438888,2.2487288,-0.085004956,-0.12769037,0.7819069,0.5216785,-3.3644905
322,1778619429.5538898,2.2487288,-0.085004956,-0.12769037,0.7819069,0.5216785,-3.3644905
323,1778619429.56389,2.2487288,-0.085004956,-0.12769037,0.7819069,0.5216785,-3.3644905
324,1778619429.5738912,0.13055639,-0.7852897,-0.1630583,-0.505796,-2.1300855,0.9952514
325,1778619429.5838926,0.13055639,-0.7852897,-0.1630583,-0.505796,-2.1300855,0.9952514
326,1778619429.5938933,0.13055639,-0.7852897,-0.1630583,-0.505796,-2.1300855,0.9952514
327,1778619429.6038942,0.13055639,-0.7852897,-0.1630583,-0.102014415,-2.8814492,0.77411836
328,1778619429.613895,0.13055639,-0.7852897,-0.1630583,-0.102014415,-2.8814492,0.77411836
329,1778619429.623896,0.13055639,-0.7852897,-0.1630583,-0.102014415,-2.8814492,0.77411836
330,1778619429.6338966,0.1817789,-0.8404149,-0.115250625,-0.102014415,-2.8814492,0.77411836
331,1778619429.6438973,0.1817789,-0.8404149,-0.115250625,-0.102014415,-2.8814492,0.77411836
332,1778619429.6538978,0.1817789,-0.8404149,-0.115250625,-0.102014415,-2.8814492,0.77411836
333,1778619429.6639044,0.1817789,-0.8404149,-0.115250625,-0.102014415,-2.8814492,0.77411836
334,1778619429.6739075,0.1817789,-0.8404149,-0.115250625,-0.102014415,-2.8814492,0.77411836
335,1778619429.683909,0.1817789,-0.8404149,-0.115250625,0.17409647,-3.2546875,0.6232348
336,1778619429.6939106,0.1817789,-0.8404149,-0.115250625,0.17409647,-3.2546875,0.6232348
337,1778619429.7039115,0.1817789,-0.8404149,-0.115250625,0.17409647,-3.2546875,0.6232348
338,1778619429.7139125,0.1817789,-0.8404149,-0.115250625,0.17409647,-3.2546875,0.6232348
339,1778619429.7239237,0.1817789,-0.8404149,-0.115250625,0.17409647,-3.2546875,0.6232348
340,1778619429.7339275,0.1817789,-0.8404149,-0.115250625,0.17409647,-3.2546875,0.6232348
341,1778619429.7439287,0.1817789,-0.8404149,-0.115250625,0.17409647,-3.2546875,0.6232348
342,1778619429.7539294,0.1817789,-0.8404149,-0.115250625,0.17409647,-3.2546875,0.6232348
343,1778619429.76393,0.1817789,-0.8404149,-0.115250625,0.17409647,-3.2546875,0.6232348
344,1778619429.773935,0.08274873,-0.9943263,-0.1676927,-0.22296564,-3.139845,0.8352049
345,1778619429.7839355,0.08274873,-0.9943263,-0.1676927,-0.22296564,-3.139845,0.8352049
346,1778619429.793936,0.08274873,-0.9943263,-0.1676927,-0.22296564,-3.139845,0.8352049
347,1778619429.8039372,0.08274873,-0.9943263,-0.1676927,-0.7348703,-2.8838925,1.0936006
348,1778619429.813938,0.08274873,-0.9943263,-0.1676927,-0.7348703,-2.8838925,1.0936006
349,1778619429.8239386,0.08274873,-0.9943263,-0.1676927,-0.7348703,-2.8838925,1.0936006
350,1778619429.8339405,0.08274873,-0.9943263,-0.1676927,-0.7348703,-2.8838925,1.0936006
351,1778619429.8439417,0.08274873,-0.9943263,-0.1676927,-0.7348703,-2.8838925,1.0936006
352,1778619429.8539426,2.1092083,0.15281379,1.0411583,-5.452579,-0.95661426,3.8003426
353,1778619429.8639665,2.1092083,0.15281379,1.0411583,-5.452579,-0.95661426,3.8003426
354,1778619429.8739703,2.1092083,0.15281379,1.0411583,-5.452579,-0.95661426,3.8003426
355,1778619429.883971,2.1092083,0.15281379,1.0411583,-5.452579,-0.95661426,3.8003426
356,1778619429.8939717,2.1092083,0.15281379,1.0411583,-5.452579,-0.95661426,3.8003426
357,1778619429.9039726,2.1092083,0.15281379,1.0411583,-5.0066476,-0.9242384,4.183355
358,1778619429.913973,2.1092083,0.15281379,1.0411583,-5.0066476,-0.9242384,4.183355
359,1778619429.9239738,2.1092083,0.15281379,1.0411583,-5.0066476,-0.9242384,4.183355
360,1778619429.9339743,2.0706697,0.21501255,1.053842,-4.6016445,-0.8863648,4.308582
361,1778619429.9439752,2.019935,0.28013828,1.0757945,-4.2119126,-0.8142828,4.2774277
362,1778619429.9539762,2.019935,0.28013828,1.0757945,-4.2119126,-0.8142828,4.2774277
363,1778619429.9639769,2.019935,0.28013828,1.0757945,-4.2119126,-0.8142828,4.2774277
364,1778619429.973978,2.019935,0.28013828,1.0757945,-4.2119126,-0.8142828,4.2774277
365,1778619429.9839785,2.019935,0.28013828,1.0757945,-4.2119126,-0.8142828,4.2774277
366,1778619429.9939792,2.019935,0.28013828,1.0757945,-4.2119126,-0.8142828,4.2774277
367,1778619430.0039814,1.937491,0.3579477,1.0679891,-4.2119126,-0.8142828,4.2774277
368,1778619430.0139825,1.937491,0.3579477,1.0679891,-4.2119126,-0.8142828,4.2774277
369,1778619430.023984,1.937491,0.3579477,1.0679891,-3.8838782,-0.6627883,4.100277
370,1778619430.0339844,1.937491,0.3579477,1.0679891,-3.8838782,-0.6627883,4.100277
371,1778619430.0439854,1.937491,0.3579477,1.0679891,-3.8838782,-0.6627883,4.100277
372,1778619430.0539858,1.937491,0.3579477,1.0679891,-3.7079492,-0.51251554,3.8925831
373,1778619430.0639865,1.937491,0.3579477,1.0679891,-3.7079492,-0.51251554,3.8925831
374,1778619430.0739875,1.937491,0.3579477,1.0679891,-3.7079492,-0.51251554,3.8925831
375,1778619430.0839882,1.4689271,0.38282722,0.9267614,-3.6096,-0.042760536,3.4099998
376,1778619430.093989,1.4689271,0.38282722,0.9267614,-3.6096,-0.042760536,3.4099998
377,1778619430.1039898,1.4689271,0.38282722,0.9267614,-3.6096,-0.042760536,3.4099998
378,1778619430.1141915,1.3923373,0.37721714,0.92944443,-3.6150978,0.03970621,3.5608835
379,1778619430.1241922,1.3923373,0.37721714,0.92944443,-3.6150978,0.03970621,3.5608835
380,1778619430.1341932,1.3725802,0.42819571,0.957251,-3.5112507,0.10140356,3.6873326
381,1778619430.1445951,1.3725802,0.42819571,0.957251,-3.5112507,0.10140356,3.6873326
382,1778619430.154596,1.3725802,0.42819571,0.957251,-3.5112507,0.10140356,3.6873326
383,1778619430.164597,1.3725802,0.42819571,0.957251,-3.5112507,0.10140356,3.6873326
384,1778619430.174598,1.3725802,0.42819571,0.957251,-3.5112507,0.10140356,3.6873326
385,1778619430.1845987,1.3059908,0.5130787,0.9928628,-3.351815,0.19669846,3.6781695
386,1778619430.1945994,1.3059908,0.5130787,0.9928628,-3.351815,0.19669846,3.6781695
387,1778619430.2045999,1.3059908,0.5130787,0.9928628,-3.351815,0.19669846,3.6781695
388,1778619430.214601,0.5330189,0.9833501,0.39063254,-1.5259402,1.4373648,1.6659809
389,1778619430.2246017,0.5330189,0.9833501,0.39063254,-1.5259402,1.4373648,1.6659809
390,1778619430.2346027,0.5330189,0.9833501,0.39063254,-1.5259402,1.4373648,1.6659809
391,1778619430.2446034,0.5330189,0.9833501,0.39063254,-1.5259402,1.4373648,1.6659809
392,1778619430.2546072,0.51813996,1.0428658,0.2652594,-1.5259402,1.4373648,1.6659809
393,1778619430.264609,0.51813996,1.0428658,0.2652594,-1.5259402,1.4373648,1.6659809
394,1778619430.2746098,0.51813996,1.0428658,0.2652594,-1.5259402,1.4373648,1.6659809
395,1778619430.2846107,0.51813996,1.0428658,0.2652594,-1.5259402,1.4373648,1.6659809
396,1778619430.2947679,0.6013156,1.135798,0.17696154,-1.2009602,1.1081088,1.2328779
397,1778619430.3047688,0.6013156,1.135798,0.17696154,-1.2009602,1.1081088,1.2328779
398,1778619430.3147695,0.6013156,1.135798,0.17696154,-1.2009602,1.1081088,1.2328779
399,1778619430.324771,0.73986024,1.0735992,0.1806203,-1.2388338,0.9920444,0.46135563
400,1778619430.334772,0.73986024,1.0735992,0.1806203,-1.2388338,0.9920444,0.46135563
401,1778619430.3447864,0.73986024,1.0735992,0.1806203,-1.2388338,0.9920444,0.46135563
402,1778619430.3547945,1.0620742,0.94139636,0.03719729,-1.3213005,1.1300999,-0.060322896
403,1778619430.3647957,1.0620742,0.94139636,0.03719729,-1.3213005,1.1300999,-0.060322896
404,1778619430.3747969,1.0620742,0.94139636,0.03719729,-1.3213005,1.1300999,-0.060322896
405,1778619430.384798,1.0620742,0.94139636,0.03719729,-1.3213005,1.1300999,-0.060322896
406,1778619430.3947985,1.0620742,0.94139636,0.03719729,-1.3213005,1.1300999,-0.060322896
407,1778619430.404799,1.0620742,0.94139636,0.03719729,-1.3213005,1.1300999,-0.060322896
408,1778619430.4148,1.5879585,0.910419,-0.20501198,-1.4263693,1.16553,-0.2997819
409,1778619430.4248009,1.5879585,0.910419,-0.20501198,-1.4263693,1.16553,-0.2997819
410,1778619430.4348016,1.5879585,0.910419,-0.20501198,-1.4263693,1.16553,-0.2997819
411,1778619430.444802,1.5879585,0.910419,-0.20501198,-1.4263693,1.16553,-0.2997819
412,1778619430.4548028,1.5879585,0.910419,-0.20501198,-1.4263693,1.16553,-0.2997819
413,1778619430.4648037,2.546551,0.6979676,-0.23501371,-1.5283837,0.24862197,-1.7799072
414,1778619430.4748046,2.546551,0.6979676,-0.23501371,-1.5283837,0.24862197,-1.7799072
415,1778619430.484805,2.546551,0.6979676,-0.23501371,-1.5283837,0.24862197,-1.7799072
416,1778619430.494806,2.546551,0.6979676,-0.23501371,-1.5283837,0.24862197,-1.7799072
417,1778619430.5048156,2.1814077,0.8199259,-0.24696562,-1.5283837,0.24862197,-1.7799072
418,1778619430.5148194,2.1814077,0.8199259,-0.24696562,-1.5283837,0.24862197,-1.7799072
419,1778619430.524821,2.1814077,0.8199259,-0.24696562,-1.5283837,0.24862197,-1.7799072
420,1778619430.534822,2.1814077,0.8199259,-0.24696562,-1.5283837,0.24862197,-1.7799072
421,1778619430.5448236,2.1814077,0.8199259,-0.24696562,-1.5283837,0.24862197,-1.7799072
422,1778619430.5548246,1.0986617,-0.4423429,-0.26403978,-1.2858703,1.0867285,-3.6167777
423,1778619430.564825,1.0986617,-0.4423429,-0.26403978,-1.2858703,1.0867285,-3.6167777
424,1778619430.5748258,1.0986617,-0.4423429,-0.26403978,-0.7470876,0.69821846,-3.367545
425,1778619430.584827,0.72327393,-0.34892282,-0.25184396,0.41050112,-0.24678937,-2.7352998
426,1778619430.5948281,0.72327393,-0.34892282,-0.25184396,0.41050112,-0.24678937,-2.7352998
427,1778619430.604829,0.72327393,-0.34892282,-0.25184396,0.41050112,-0.24678937,-2.7352998
428,1778619430.614837,0.72327393,-0.34892282,-0.25184396,0.41050112,-0.24678937,-2.7352998
429,1778619430.6248407,0.72327393,-0.34892282,-0.25184396,0.41050112,-0.24678937,-2.7352998
430,1778619430.634842,0.72327393,-0.34892282,-0.25184396,0.41050112,-0.24678937,-2.7352998
431,1778619430.6451995,0.72327393,-0.34892282,-0.25184396,0.41050112,-0.24678937,-2.7352998
432,1778619430.6552007,0.72327393,-0.34892282,-0.25184396,0.41050112,-0.24678937,-2.7352998
433,1778619430.6652026,0.72327393,-0.34892282,-0.25184396,0.41050112,-0.24678937,-2.7352998
434,1778619430.6752033,0.72327393,-0.34892282,-0.25184396,0.41050112,-0.24678937,-2.7352998
435,1778619430.6852043,0.72327393,-0.34892282,-0.25184396,0.41050112,-0.24678937,-2.7352998
436,1778619430.6952069,0.5676551,-0.32453114,-0.2550149,0.41050112,-0.24678937,-2.7352998
437,1778619430.7052083,0.5676551,-0.32453114,-0.2550149,0.41050112,-0.24678937,-2.7352998
438,1778619430.7152092,0.5676551,-0.32453114,-0.2550149,0.41050112,-0.24678937,-2.7352998
439,1778619430.7254808,0.5676551,-0.32453114,-0.2550149,0.41050112,-0.24678937,-2.7352998
440,1778619430.7354815,0.5676551,-0.32453114,-0.2550149,0.41050112,-0.24678937,-2.7352998
441,1778619430.745482,0.5676551,-0.32453114,-0.2550149,0.41050112,-0.24678937,-2.7352998
442,1778619430.7554832,0.5676551,-0.32453114,-0.2550149,0.41050112,-0.24678937,-2.7352998
443,1778619430.7654839,0.5676551,-0.32453114,-0.2550149,0.41050112,-0.24678937,-2.7352998
444,1778619430.7754855,0.5676551,-0.32453114,-0.2550149,0.41050112,-0.24678937,-2.7352998
445,1778619430.785828,-0.04189269,-0.708212,-0.31867713,-0.9608903,-0.5858193,-1.2545636
446,1778619430.7958295,-0.04189269,-0.708212,-0.31867713,-0.9608903,-0.5858193,-1.2545636
447,1778619430.8058307,-0.04189269,-0.708212,-0.31867713,-0.9608903,-0.5858193,-1.2545636
448,1778619430.8158317,-0.04189269,-0.708212,-0.31867713,-0.9608903,-0.5858193,-1.2545636
449,1778619430.8258324,-0.08140719,-0.7562637,-0.5099078,-2.018908,-0.98776835,-0.6663008
450,1778619430.8358335,2.7936387,0.30599347,1.2028751,-4.4916887,-1.0305289,3.5114036
451,1778619430.845835,2.7936387,0.30599347,1.2028751,-4.4916887,-1.0305289,3.5114036
452,1778619430.8558385,2.7936387,0.30599347,1.2028751,-4.4916887,-1.0305289,3.5114036
453,1778619430.865841,2.7936387,0.30599347,1.2028751,-4.4916887,-1.0305289,3.5114036
454,1778619430.875842,2.7936387,0.30599347,1.2028751,-4.4916887,-1.0305289,3.5114036
455,1778619430.8858438,2.224337,0.5084443,0.97676426,-3.1337364,-1.0824524,3.7276497
456,1778619430.8958447,0.4688688,1.0306699,0.38453463,-0.5986475,-0.17287473,2.1558945
457,1778619430.9060574,0.4688688,1.0306699,0.38453463,-0.5986475,-0.17287473,2.1558945
458,1778619430.91606,0.4688688,1.0306699,0.38453463,-0.5986475,-0.17287473,2.1558945
459,1778619430.926061,0.4688688,1.0306699,0.38453463,-0.5986475,-0.17287473,2.1558945
460,1778619430.936062,0.4688688,1.0306699,0.38453463,-0.13194679,-0.48502663,1.9213225
461,1778619430.9460635,0.4688688,1.0306699,0.38453463,-0.13194679,-0.48502663,1.9213225
462,1778619430.956064,0.4688688,1.0306699,0.38453463,-0.13194679,-0.48502663,1.9213225
463,1778619430.966065,0.4688688,1.0306699,0.38453463,-0.13194679,-0.48502663,1.9213225
464,1778619430.9760666,0.4688688,1.0306699,0.38453463,-0.13194679,-0.48502663,1.9213225
465,1778619430.9860675,0.4688688,1.0306699,0.38453463,-0.13194679,-0.48502663,1.9213225
466,1778619430.9960687,0.4688688,1.0306699,0.38453463,-0.13194679,-0.48502663,1.9213225
467,1778619431.0060716,0.4688688,1.0306699,0.38453463,-0.13194679,-0.48502663,1.9213225
468,1778619431.0160735,0.4688688,1.0306699,0.38453463,-0.13194679,-0.48502663,1.9213225
469,1778619431.026075,0.5013097,1.0765262,0.33501956,0.25595233,-0.88697565,1.6055053
470,1778619431.0360758,0.5013097,1.0765262,0.33501956,0.25595233,-0.88697565,1.6055053
471,1778619431.0460768,0.5013097,1.0765262,0.33501956,0.25595233,-0.88697565,1.6055053
472,1778619431.0560775,0.5013097,1.0765262,0.33501956,0.25595233,-0.88697565,1.6055053
473,1778619431.0663838,0.5013097,1.0765262,0.33501956,0.25595233,-0.88697565,1.6055053
474,1778619431.076386,0.5013097,1.0765262,0.33501956,0.25595233,-0.88697565,1.6055053
475,1778619431.0865765,0.5013097,1.0765262,0.33501956,0.25595233,-0.88697565,1.6055053
476,1778619431.0965772,0.5013097,1.0765262,0.33501956,0.25595233,-0.88697565,1.6055053
477,1778619431.1065779,0.6340004,1.1782395,0.3755097,0.40866855,-1.0293071,1.3281728
478,1778619431.1165807,0.6340004,1.1782395,0.3755097,0.40866855,-1.0293071,1.3281728
479,1778619431.126582,0.6340004,1.1782395,0.3755097,0.40866855,-1.0293071,1.3281728
480,1778619431.1365829,0.6340004,1.1782395,0.3755097,0.44959646,-0.99143356,1.0819943
481,1778619431.1465838,0.6864425,1.2379991,0.40380403,0.4007273,-0.66339916,0.59757847
482,1778619431.1565847,0.6864425,1.2379991,0.40380403,0.4007273,-0.66339916,0.59757847
483,1778619431.1665854,0.6864425,1.2379991,0.40380403,0.4007273,-0.66339916,0.59757847
484,1778619431.1769493,2.5621617,0.6847961,0.48990667,0.08491021,1.1123848,-3.647321
485,1778619431.18695,2.5621617,0.6847961,0.48990667,0.08491021,1.1123848,-3.647321
486,1778619431.1969507,2.5621617,0.6847961,0.48990667,0.08491021,1.1123848,-3.647321
487,1778619431.2069519,2.5621617,0.6847961,0.48990667,0.08491021,1.1123848,-3.647321
488,1778619431.2169526,2.5621617,0.6847961,0.48990667,0.08491021,1.1123848,-3.647321
489,1778619431.226954,2.704609,0.4552705,0.5408852,0.08491021,1.1123848,-3.647321
490,1778619431.2369547,2.704609,0.4552705,0.5408852,0.08491021,1.1123848,-3.647321
491,1778619431.2469556,2.704609,0.4552705,0.5408852,0.08491021,1.1123848,-3.647321
492,1778619431.2569575,2.704609,0.4552705,0.5408852,0.08491021,1.1123848,-3.647321
493,1778619431.2669585,2.704609,0.4552705,0.5408852,0.08491021,1.1123848,-3.647321
494,1778619431.2769592,2.704609,0.4552705,0.5408852,0.08491021,1.1123848,-3.647321
495,1778619431.2869601,2.704609,0.4552705,0.5408852,0.08491021,1.1123848,-3.647321
496,1778619431.2969608,2.704609,0.4552705,0.5408852,0.08491021,1.1123848,-3.647321
497,1778619431.3069613,2.8077857,0.25184396,0.6121089,0.30970845,1.1899645,-3.7444484
498,1778619431.3169622,2.8077857,0.25184396,0.6121089,0.30970845,1.1899645,-3.7444484
499,1778619431.326963,2.8077857,0.25184396,0.6121089,0.30970845,1.1899645,-3.7444484
500,1778619431.336964,2.8858392,-0.4001453,0.29672462,2.706131,1.3066398,-3.5960083
501,1778619431.346966,2.8858392,-0.4001453,0.29672462,2.706131,1.3066398,-3.5960083
502,1778619431.356967,2.8858392,-0.4001453,0.29672462,2.706131,1.3066398,-3.5960083
503,1778619431.3669682,2.8858392,-0.4001453,0.29672462,2.706131,1.3066398,-3.5960083
504,1778619431.3769772,2.6565573,-0.45161173,0.18915738,2.706131,1.3066398,-3.5960083
505,1778619431.3869798,2.6565573,-0.45161173,0.18915738,2.706131,1.3066398,-3.5960083
506,1778619431.3969805,2.6565573,-0.45161173,0.18915738,2.706131,1.3066398,-3.5960083
507,1778619431.4069815,2.6565573,-0.45161173,0.18915738,2.706131,1.3066398,-3.5960083
508,1778619431.4169822,2.6565573,-0.45161173,0.18915738,2.9895723,0.9657772,-3.687027
509,1778619431.4269834,2.1384783,-0.59064424,0.12134854,3.2540767,0.61330825,-3.6803076
510,1778619431.436984,2.1384783,-0.59064424,0.12134854,3.2540767,0.61330825,-3.6803076
511,1778619431.446985,2.1384783,-0.59064424,0.12134854,3.2540767,0.61330825,-3.6803076
512,1778619431.4569862,2.1384783,-0.59064424,0.12134854,3.2308638,0.7037162,-3.5532477
513,1778619431.466987,2.1384783,-0.59064424,0.12134854,3.2308638,0.7037162,-3.5532477
514,1778619431.4769876,2.1384783,-0.59064424,0.12134854,3.2308638,0.7037162,-3.5532477
515,1778619431.4869883,1.8806585,-0.66455096,0.14817938,3.2308638,0.7037162,-3.5532477
516,1778619431.496989,1.8806585,-0.66455096,0.14817938,3.2308638,0.7037162,-3.5532477
517,1778619431.5069897,1.8806585,-0.66455096,0.14817938,3.2308638,0.7037162,-3.5532477
518,1778619431.517197,1.8806585,-0.66455096,0.14817938,3.2308638,0.7037162,-3.5532477
519,1778619431.5271976,1.5874707,-0.67747855,0.13427612,3.2308638,0.7037162,-3.5532477
520,1778619431.537198,1.5874707,-0.67747855,0.13427612,3.2308638,0.7037162,-3.5532477
521,1778619431.547201,1.5874707,-0.67747855,0.13427612,3.2308638,0.7037162,-3.5532477
522,1778619431.557211,1.5874707,-0.67747855,0.13427612,2.8771732,1.2669336,-2.9020658
523,1778619431.5672193,1.2803795,-0.6628436,0.015732625,2.8771732,1.2669336,-2.9020658
524,1778619431.5772226,1.2803795,-0.6628436,0.015732625,2.8771732,1.2669336,-2.9020658
525,1778619431.5872235,1.2803795,-0.6628436,0.015732625,2.8771732,1.2669336,-2.9020658
526,1778619431.5972307,0.86450166,-0.76431286,-0.22062263,2.1789546,1.1844668,-2.120159
527,1778619431.6075606,0.86450166,-0.76431286,-0.22062263,2.1789546,1.1844668,-2.120159
528,1778619431.6175613,0.86450166,-0.76431286,-0.22062263,2.1789546,1.1844668,-2.120159
529,1778619431.6275702,0.45130682,-0.78333837,-0.24428254,1.689652,0.93584484,-1.5209006
530,1778619431.637574,0.45130682,-0.78333837,-0.24428254,1.689652,0.93584484,-1.5209006
531,1778619431.6475751,0.33642206,-0.8535864,-0.21135378,1.689652,0.93584484,-1.5209006
532,1778619431.657576,0.33642206,-0.8535864,-0.21135378,1.689652,0.93584484,-1.5209006
533,1778619431.6675768,0.33642206,-0.8535864,-0.21135378,1.689652,0.93584484,-1.5209006
534,1778619431.677585,0.33642206,-0.8535864,-0.21135378,1.689652,0.93584484,-1.5209006
535,1778619431.6875885,0.33642206,-0.8535864,-0.21135378,1.689652,0.93584484,-1.5209006
536,1778619431.6975899,0.33642206,-0.8535864,-0.21135378,1.689652,0.93584484,-1.5209006
537,1778619431.7075908,0.22885482,-0.9909115,-0.14793546,1.5509857,0.90774506,-1.261283
538,1778619431.7175913,0.22885482,-0.9909115,-0.14793546,1.5509857,0.90774506,-1.261283
539,1778619431.7275925,-0.06360127,-1.0487198,-0.39624262,0.6878337,0.35979936,-0.5874992
540,1778619431.737754,-0.23263553,-1.0404266,-0.49356538,0.6878337,0.35979936,-0.5874992
541,1778619431.747755,-0.23263553,-1.0404266,-0.49356538,0.6878337,0.35979936,-0.5874992
542,1778619431.7577558,-0.23263553,-1.0404266,-0.49356538,0.6878337,0.35979936,-0.5874992
543,1778619431.7677562,-0.23263553,-1.0404266,-0.49356538,0.6878337,0.35979936,-0.5874992
544,1778619431.7777572,-0.30361527,-1.0438414,-0.43770844,0.6878337,0.35979936,-0.5874992
545,1778619431.7877579,-0.30361527,-1.0438414,-0.43770844,0.6878337,0.35979936,-0.5874992
546,1778619431.7977586,-0.30361527,-1.0438414,-0.43770844,0.6878337,0.35979936,-0.5874992
547,1778619431.8077595,-0.30361527,-1.0438414,-0.43770844,0.3836231,0.03970621,-0.5844449
548,1778619431.8177602,-0.30361527,-1.0438414,-0.43770844,0.3836231,0.03970621,-0.5844449
549,1778619431.8277605,-0.30361527,-1.0438414,-0.43770844,0.3836231,0.03970621,-0.5844449
550,1778619431.8377612,-0.30361527,-1.0438414,-0.43770844,0.3836231,0.03970621,-0.5844449
551,1778619431.8477626,-0.30361527,-1.0438414,-0.43770844,0.3836231,0.03970621,-0.5844449
552,1778619431.857764,-0.30361527,-1.0438414,-0.43770844,0.3836231,0.03970621,-0.5844449
553,1778619431.867765,-0.30361527,-1.0438414,-0.43770844,0.16920954,-0.080634154,-0.5459604
554,1778619431.877766,-0.30361527,-1.0438414,-0.43770844,0.16920954,-0.080634154,-0.5459604
555,1778619431.8877664,-0.30361527,-1.0438414,-0.43770844,0.16920954,-0.080634154,-0.5459604
556,1778619431.897767,-0.36313096,-1.1065279,-0.3694118,-0.216857,-0.1753182,-0.34620762
557,1778619431.907775,-0.52826256,-1.2492192,-0.39843786,-0.86131936,-0.5540544,0.342237
558,1778619431.9177783,-0.52826256,-1.2492192,-0.39843786,-0.86131936,-0.5540544,0.342237
559,1778619431.927779,-0.45752668,-1.2306815,-0.30843264,-1.079398,-0.93767744,0.88957185
560,1778619431.9377801,-0.45752668,-1.2306815,-0.30843264,-1.079398,-0.93767744,0.88957185
561,1778619431.9478126,-0.45752668,-1.2306815,-0.30843264,-1.079398,-0.93767744,0.88957185
562,1778619431.957813,-0.45752668,-1.2306815,-0.30843264,-1.079398,-0.93767744,0.88957185
563,1778619431.9678137,-0.45752668,-1.2306815,-0.30843264,-1.079398,-0.93767744,0.88957185
564,1778619431.9778147,-0.32947046,-1.2199492,-0.18964522,-1.1020001,-1.2205079,1.6684245
565,1778619431.9878151,-0.32947046,-1.2199492,-0.18964522,-1.1020001,-1.2205079,1.6684245
566,1778619431.9978158,-0.32947046,-1.2199492,-0.18964522,-1.1020001,-1.2205079,1.6684245
567,1778619432.0078168,-0.32947046,-1.2199492,-0.18964522,-1.1020001,-1.2205079,1.6684245
568,1778619432.0178208,-0.32947046,-1.2199492,-0.18964522,-1.1020001,-1.2205079,1.6684245
569,1778619432.0278225,-0.32947046,-1.2199492,-0.18964522,-1.1020001,-1.2205079,1.6684245
570,1778619432.0381906,-0.32947046,-1.2199492,-0.18964522,-1.1020001,-1.2205079,1.6684245
571,1778619432.0481915,-0.19190145,-1.1704341,-0.1220803,-1.1020001,-1.2205079,1.6684245
572,1778619432.0581925,-0.19190145,-1.1704341,-0.1220803,-1.1020001,-1.2205079,1.6684245
573,1778619432.0681932,-0.19190145,-1.1704341,-0.1220803,-1.1020001,-1.2205079,1.6684245
574,1778619432.0782044,-0.19190145,-1.1704341,-0.1220803,-1.1020001,-1.2205079,1.6684245
575,1778619432.0882077,-0.19190145,-1.1704341,-0.1220803,-1.1020001,-1.2205079,1.6684245
576,1778619432.0982091,-0.19190145,-1.1704341,-0.1220803,-1.1020001,-1.2205079,1.6684245
577,1778619432.10821,-0.19190145,-1.1704341,-0.1220803,-1.1020001,-1.2205079,1.6684245
578,1778619432.1182106,-0.19190145,-1.1704341,-0.1220803,-1.1020001,-1.2205079,1.6684245
579,1778619432.1284027,-0.19190145,-1.1704341,-0.1220803,-1.1020001,-1.2205079,1.6684245
580,1778619432.1384034,-0.19190145,-1.1704341,-0.1220803,-1.1020001,-1.2205079,1.6684245
581,1778619432.148404,0.5518005,-0.8935887,-0.28940713,-0.8167262,-1.3628393,1.9029965
582,1778619432.1584074,0.79791236,-0.81431586,-0.39575478,-0.9779945,-1.3976586,1.8364122
583,1778619432.1684086,0.79791236,-0.81431586,-0.39575478,-0.9779945,-1.3976586,1.8364122
584,1778619432.17841,0.79791236,-0.81431586,-0.39575478,-0.9779945,-1.3976586,1.8364122
585,1778619432.1884115,0.79791236,-0.81431586,-0.39575478,-0.9779945,-1.3976586,1.8364122
586,1778619432.198412,0.79791236,-0.81431586,-0.39575478,-0.9779945,-1.3976586,1.8364122
587,1778619432.2084131,1.1052474,-0.81748676,-0.5391778,-1.3665045,-1.4605777,1.896277
588,1778619432.2184138,1.1052474,-0.81748676,-0.5391778,-1.3665045,-1.4605777,1.896277
589,1778619432.2284145,1.1052474,-0.81748676,-0.5391778,-1.3665045,-1.4605777,1.896277
590,1778619432.2384157,1.1052474,-0.81748676,-0.5391778,-1.3665045,-1.4605777,1.896277
591,1778619432.2484162,1.1052474,-0.81748676,-0.5391778,-1.3665045,-1.4605777,1.896277
592,1778619432.2584167,1.2633054,-0.8757828,-0.5682039,-1.9614868,-1.6303982,2.2224789
593,1778619432.2684193,1.2633054,-0.8757828,-0.5682039,-1.9614868,-1.6303982,2.2224789
594,1778619432.278422,1.2633054,-0.8757828,-0.5682039,-1.9614868,-1.6303982,2.2224789
595,1778619432.2884226,1.7011358,-0.8272434,-0.3811198,-2.5992296,-1.8619158,2.9066474
596,1778619432.2984233,2.0443265,-0.7079681,-0.18671821,-2.5992296,-1.8619158,2.9066474
597,1778619432.3084242,2.0443265,-0.7079681,-0.18671821,-2.5992296,-1.8619158,2.9066474
598,1778619432.3184252,2.0443265,-0.7079681,-0.18671821,-2.9712462,-2.0207407,3.5779877
599,1778619432.3284256,1.6677192,0.61991423,0.37502187,-1.1410954,-0.14966187,2.4906485
600,1778619432.3384264,1.6677192,0.61991423,0.37502187,-1.1410954,-0.14966187,2.4906485
601,1778619432.3484268,1.6677192,0.61991423,0.37502187,-1.0916153,-0.06658426,2.248746
602,1778619432.3584273,1.6677192,0.61991423,0.37502187,-1.0916153,-0.06658426,2.248746
603,1778619432.3684285,1.6677192,0.61991423,0.37502187,-1.0916153,-0.06658426,2.248746
604,1778619432.378449,1.4789277,0.71260256,0.35526463,-1.0916153,-0.06658426,2.248746
605,1778619432.38845,1.4789277,0.71260256,0.35526463,-1.0916153,-0.06658426,2.248746
606,1778619432.3984504,1.3367243,0.7760209,0.3167258,-1.0916153,-0.06658426,2.248746
607,1778619432.4084516,1.3367243,0.7760209,0.3167258,-1.0916153,-0.06658426,2.248746
608,1778619432.4184525,1.3367243,0.7760209,0.3167258,-1.0916153,-0.06658426,2.248746
609,1778619432.4284534,1.3367243,0.7760209,0.3167258,-1.0702351,-0.051923506,1.9029965
610,1778619432.438454,1.3367243,0.7760209,0.3167258,-1.0702351,-0.051923506,1.9029965
611,1778619432.4484544,1.3367243,0.7760209,0.3167258,-1.0702351,-0.051923506,1.9029965
612,1778619432.458455,1.3367243,0.7760209,0.3167258,-1.0592395,-0.060475614,1.5150974
613,1778619432.468753,1.3367243,0.7760209,0.3167258,-1.0592395,-0.060475614,1.5150974
614,1778619432.4787533,1.3367243,0.7760209,0.3167258,-1.0592395,-0.060475614,1.5150974
615,1778619432.4887545,1.3367243,0.7760209,0.3167258,-1.0500766,-0.09407318,1.127809
616,1778619432.4987552,1.3367243,0.7760209,0.3167258,-1.0500766,-0.09407318,1.127809
617,1778619432.5087557,1.3367243,0.7760209,0.3167258,-1.0500766,-0.09407318,1.127809
618,1778619432.5187569,1.3367243,0.7760209,0.3167258,-1.0500766,-0.09407318,1.127809
619,1778619432.5287576,1.3367243,0.7760209,0.3167258,-1.0500766,-0.09407318,1.127809
620,1778619432.538759,1.3367243,0.7760209,0.3167258,-1.0500766,-0.09407318,1.127809
621,1778619432.5487604,0.95304346,0.7648007,0.32940948,-1.0500766,-0.09407318,1.127809
622,1778619432.5591109,0.95304346,0.7648007,0.32940948,-1.0500766,-0.09407318,1.127809
623,1778619432.5691116,0.95304346,0.7648007,0.32940948,-1.0500766,-0.09407318,1.127809
624,1778619432.5791206,0.7683985,0.7272375,0.38160762,-1.0500766,-0.09407318,1.127809
625,1778619432.5891237,0.7683985,0.7272375,0.38160762,-1.0500766,-0.09407318,1.127809
626,1778619432.599125,0.7683985,0.7272375,0.38160762,-0.99815303,-0.10384701,0.9787581
627,1778619432.6093504,0.7683985,0.7272375,0.38160762,-0.99815303,-0.10384701,0.9787581
628,1778619432.6193514,0.7683985,0.7272375,0.38160762,-0.99815303,-0.10384701,0.9787581
629,1778619432.629352,0.7683985,0.7272375,0.38160762,-0.99815303,-0.10384701,0.9787581
630,1778619432.6393528,0.7683985,0.7272375,0.38160762,-0.99815303,-0.10384701,0.9787581
631,1778619432.6493537,0.7683985,0.7272375,0.38160762,-0.99815303,-0.10384701,0.9787581
632,1778619432.6593547,0.7683985,0.7272375,0.38160762,-0.99815303,-0.10384701,0.9787581
633,1778619432.6693552,0.7683985,0.7272375,0.38160762,-0.99815303,-0.10384701,0.9787581
634,1778619432.6793559,0.7683985,0.7272375,0.38160762,-0.85398895,-0.100181825,0.997084
635,1778619432.6894066,0.49984625,0.8845638,0.46819806,-0.6071996,-0.034819294,1.0575596
636,1778619432.6994083,0.49984625,0.8845638,0.46819806,-0.6071996,-0.034819294,1.0575596
637,1778619432.709409,0.36935082,1.2070217,0.3050178,0.19975278,0.17653993,0.38438666
638,1778619432.71941,0.36935082,1.2070217,0.3050178,0.19975278,0.17653993,0.38438666
639,1778619432.7294104,0.36935082,1.2070217,0.3050178,0.19975278,0.17653993,0.38438666
640,1778619432.739695,0.30788383,1.2284863,0.25647837,0.3262018,0.12400555,-0.2924515
641,1778619432.75013,0.22885482,1.1806786,0.25647837,0.3262018,0.12400555,-0.2924515
642,1778619432.7601318,0.22885482,1.1806786,0.25647837,0.3262018,0.12400555,-0.2924515
643,1778619432.7701325,0.22885482,1.1806786,0.25647837,0.3262018,0.12400555,-0.2924515
644,1778619432.780133,0.22885482,1.1806786,0.25647837,0.3262018,0.12400555,-0.2924515
645,1778619432.7901347,0.22885482,1.1806786,0.25647837,0.36651886,0.09224058,-0.8196278
646,1778619432.800136,0.22885482,1.1806786,0.25647837,0.36651886,0.09224058,-0.8196278
647,1778619432.8101366,0.22885482,1.1806786,0.25647837,0.36651886,0.09224058,-0.8196278
648,1778619432.8201375,0.22885482,1.1806786,0.25647837,0.36651886,0.09224058,-0.8196278
649,1778619432.8301382,0.22885482,1.1806786,0.25647837,0.36651886,0.09224058,-0.8196278
650,1778619432.8401384,0.22885482,1.1806786,0.25647837,0.36651886,0.09224058,-0.8196278
651,1778619432.8501391,0.22885482,1.1806786,0.25647837,0.36651886,0.09224058,-0.8196278
652,1778619432.860142,0.22885482,1.1806786,0.25647837,0.36651886,0.09224058,-0.8196278
653,1778619432.8701434,0.22885482,1.1806786,0.25647837,0.36651886,0.09224058,-0.8196278
654,1778619432.8801441,0.22885482,1.1806786,0.25647837,0.36651886,0.09224058,-0.8196278
655,1778619432.8901455,0.22885482,1.1806786,0.25647837,0.36651886,0.09224058,-0.8196278
656,1778619432.9001462,0.22885482,1.1806786,0.25647837,0.36651886,0.09224058,-0.8196278
657,1778619432.9101472,0.22885482,1.1806786,0.25647837,0.36651886,0.09224058,-0.8196278
658,1778619432.9202054,0.22885482,1.1806786,0.25647837,0.36651886,0.09224058,-0.8196278
659,1778619432.9302068,0.22885482,1.1806786,0.25647837,0.38851,0.11178826,-1.1128429
660,1778619432.9402077,0.22885482,1.1806786,0.25647837,0.38851,0.11178826,-1.1128429
661,1778619432.950208,0.22885482,1.1806786,0.25647837,0.38851,0.11178826,-1.1128429
662,1778619432.9602094,0.22885482,1.1806786,0.25647837,0.38851,0.11178826,-1.1128429
663,1778619432.9702108,0.22885482,1.1806786,0.25647837,0.38851,0.11178826,-1.1128429
664,1778619432.9802115,0.22885482,1.1806786,0.25647837,0.38851,0.11178826,-1.1128429
665,1778619432.9902143,0.22885482,1.1806786,0.25647837,0.38851,0.11178826,-1.1128429
666,1778619433.0002162,0.14787449,1.0584763,0.27769914,0.38851,0.11178826,-1.1128429
667,1778619433.0105858,0.14787449,1.0584763,0.27769914,0.38851,0.11178826,-1.1128429
668,1778619433.0205877,0.14787449,1.0584763,0.27769914,0.38851,0.11178826,-1.1128429
669,1778619433.030596,0.13323948,0.86383086,0.37307054,0.573602,0.23640467,-1.3413063
670,1778619433.0406003,0.13323948,0.86383086,0.37307054,0.573602,0.23640467,-1.3413063
671,1778619433.050601,0.13323948,0.86383086,0.37307054,0.573602,0.23640467,-1.3413063
672,1778619433.0606022,0.13323948,0.86383086,0.37307054,0.573602,0.23640467,-1.3413063
673,1778619433.0706077,0.36642382,0.8935887,0.39502305,0.98410314,0.60109097,-1.3975059
674,1778619433.0806284,0.83206075,0.9877406,0.34843495,1.2583815,0.7666353,-2.1940737
675,1778619433.0906298,0.83206075,0.9877406,0.34843495,1.2583815,0.7666353,-2.1940737
676,1778619433.1007972,0.83206075,0.9877406,0.34843495,1.2583815,0.7666353,-2.1940737
677,1778619433.110798,1.1145163,1.0016438,0.3137988,1.2583815,0.7666353,-2.1940737
678,1778619433.120798,1.1145163,1.0016438,0.3137988,1.2583815,0.7666353,-2.1940737
679,1778619433.130799,1.1145163,1.0016438,0.3137988,1.2583815,0.7666353,-2.1940737
680,1778619433.1408,3.627102,0.11207971,0.70699245,2.3365579,0.99815303,-3.1690137
681,1778619433.1508007,3.627102,0.11207971,0.70699245,2.3365579,0.99815303,-3.1690137
682,1778619433.1608286,3.627102,0.11207971,0.70699245,2.3970335,1.0445788,-3.4665048
683,1778619433.1710389,3.627102,0.11207971,0.70699245,2.3970335,1.0445788,-3.4665048
684,1778619433.1810403,3.627102,0.11207971,0.70699245,2.3970335,1.0445788,-3.4665048
685,1778619433.1911805,3.627102,0.11207971,0.70699245,2.4196353,1.2614357,-3.6668684
686,1778619433.2011814,3.627102,0.11207971,0.70699245,2.4196353,1.2614357,-3.6668684
687,1778619433.2111828,3.627102,0.11207971,0.70699245,2.4196353,1.2614357,-3.6668684
688,1778619433.2211845,3.5761235,-0.13891055,0.7057729,2.4135268,1.5693116,-3.7444484
689,1778619433.2311854,3.5761235,-0.13891055,0.7057729,2.4135268,1.5693116,-3.7444484
690,1778619433.2411861,3.4346519,-0.39477912,0.63528097,2.4135268,1.5693116,-3.7444484
691,1778619433.2511876,3.4346519,-0.39477912,0.63528097,2.4135268,1.5693116,-3.7444484
692,1778619433.261188,3.4346519,-0.39477912,0.63528097,2.4135268,1.5693116,-3.7444484
693,1778619433.2711895,3.4346519,-0.39477912,0.63528097,2.4135268,1.5693116,-3.7444484
694,1778619433.2813714,3.1831737,-0.5930834,0.51088345,2.2760823,2.0396774,-3.565465
695,1778619433.2913725,3.1831737,-0.5930834,0.51088345,2.2760823,2.0396774,-3.565465
696,1778619433.3013737,3.1831737,-0.5930834,0.51088345,2.2760823,2.0396774,-3.565465
697,1778619433.311375,2.7614415,-0.7047972,0.3342878,2.2760823,2.0396774,-3.565465
698,1778619433.3213758,2.7614415,-0.7047972,0.3342878,2.2760823,2.0396774,-3.565465
699,1778619433.3313785,2.7614415,-0.7047972,0.3342878,2.2760823,2.0396774,-3.565465
700,1778619433.3413806,2.4136164,-0.7484583,0.24501431,2.2760823,2.0396774,-3.565465
701,1778619433.3513823,2.4136164,-0.7484583,0.24501431,2.2760823,2.0396774,-3.565465
702,1778619433.3613834,2.4136164,-0.7484583,0.24501431,2.059225,2.1105378,-3.4017532
703,1778619433.3721633,2.4136164,-0.7484583,0.24501431,2.059225,2.1105378,-3.4017532
704,1778619433.3821683,2.4136164,-0.7484583,0.24501431,2.059225,2.1105378,-3.4017532
705,1778619433.3921695,2.4136164,-0.7484583,0.24501431,2.059225,2.1105378,-3.4017532
706,1778619433.4021702,2.4136164,-0.7484583,0.24501431,2.059225,2.1105378,-3.4017532
707,1778619433.4121711,2.4136164,-0.7484583,0.24501431,2.059225,2.1105378,-3.4017532
708,1778619433.4221807,2.4136164,-0.7484583,0.24501431,2.059225,2.1105378,-3.4017532
709,1778619433.4321852,2.4136164,-0.7484583,0.24501431,2.059225,2.1105378,-3.4017532
710,1778619433.4421875,1.5289307,-0.9128582,0.17793721,1.2602141,2.4165812,-2.5734205
711,1778619433.4521952,1.5289307,-0.9128582,0.17793721,1.2602141,2.4165812,-2.5734205
712,1778619433.4621983,1.5289307,-0.9128582,0.17793721,1.2602141,2.4165812,-2.5734205
713,1778619433.4723108,1.5289307,-0.9128582,0.17793721,1.2602141,2.4165812,-2.5734205
714,1778619433.482318,0.24641682,-1.2214128,-0.36111864,1.1105522,1.8509203,-2.0535746
715,1778619433.492321,0.24641682,-1.2214128,-0.36111864,1.1105522,1.8509203,-2.0535746
716,1778619433.5023227,0.24641682,-1.2214128,-0.36111864,1.1105522,1.8509203,-2.0535746
717,1778619433.512324,0.24641682,-1.2214128,-0.36111864,1.1105522,1.8509203,-2.0535746
718,1778619433.522326,0.24641682,-1.2214128,-0.36111864,1.048244,1.5076143,-1.9356778
719,1778619433.5323274,0.24641682,-1.2214128,-0.36111864,1.048244,1.5076143,-1.9356778
720,1778619433.5423288,0.24641682,-1.2214128,-0.36111864,1.048244,1.5076143,-1.9356778
721,1778619433.5523307,0.24641682,-1.2214128,-0.36111864,1.048244,1.5076143,-1.9356778
722,1778619433.562333,0.24641682,-1.2214128,-0.36111864,1.048244,1.5076143,-1.9356778
723,1778619433.5723345,0.24641682,-1.2214128,-0.36111864,1.048244,1.5076143,-1.9356778
724,1778619433.5823355,0.026403978,-1.2845871,-0.34623972,0.9450078,0.92546016,-1.7017165
725,1778619433.5923374,0.026403978,-1.2845871,-0.34623972,0.9450078,0.92546016,-1.7017165
726,1778619433.6023395,0.026403978,-1.2845871,-0.34623972,0.9450078,0.92546016,-1.7017165
727,1778619433.612341,0.026403978,-1.2845871,-0.34623972,0.9450078,0.92546016,-1.7017165
728,1778619433.622342,0.026403978,-1.2845871,-0.34623972,0.9450078,0.92546016,-1.7017165
729,1778619433.6323428,0.026403978,-1.2845871,-0.34623972,0.9450078,0.92546016,-1.7017165
730,1778619433.6423442,0.026403978,-1.2845871,-0.34623972,0.9450078,0.92546016,-1.7017165
731,1778619433.652346,0.026403978,-1.2845871,-0.34623972,0.9450078,0.92546016,-1.7017165
732,1778619433.662348,0.026403978,-1.2845871,-0.34623972,0.9450078,0.92546016,-1.7017165
733,1778619433.6723495,-0.17799819,-1.3145889,-0.29891986,0.9474513,0.66401,-1.4860812
734,1778619433.6823502,-0.17799819,-1.3145889,-0.29891986,0.9474513,0.66401,-1.4860812
735,1778619433.6923509,-0.17799819,-1.3145889,-0.29891986,0.9474513,0.66401,-1.4860812
736,1778619433.702352,-0.3331292,-1.3338584,-0.3503863,1.0005965,0.51068294,-1.2197442
737,1778619433.7123535,-0.3331292,-1.3338584,-0.3503863,1.0005965,0.51068294,-1.2197442
738,1778619433.7223542,-0.3331292,-1.3338584,-0.3503863,1.0005965,0.51068294,-1.2197442
739,1778619433.7326972,-0.3331292,-1.3338584,-0.3503863,1.0005965,0.51068294,-1.2197442
740,1778619433.7426987,-0.3331292,-1.3338584,-0.3503863,1.0005965,0.51068294,-1.2197442
741,1778619433.7527003,-0.3331292,-1.3338584,-0.3503863,1.0005965,0.51068294,-1.2197442
742,1778619433.7627015,-0.3331292,-1.3338584,-0.3503863,1.0005965,0.51068294,-1.2197442
743,1778619433.7727025,-0.3331292,-1.3338584,-0.3503863,1.0005965,0.51068294,-1.2197442
744,1778619433.7827032,-0.3331292,-1.3338584,-0.3503863,1.0005965,0.51068294,-1.2197442
745,1778619433.792704,-0.3331292,-1.3338584,-0.3503863,1.0005965,0.51068294,-1.2197442
746,1778619433.8027048,-0.3331292,-1.3338584,-0.3503863,1.0005965,0.51068294,-1.2197442
747,1778619433.8127055,-0.3331292,-1.3338584,-0.3503863,1.0262529,0.2809978,-0.90453804
748,1778619433.822706,-0.3331292,-1.3338584,-0.3503863,1.0262529,0.2809978,-0.90453804
749,1778619433.8327065,-0.4475261,-1.3499569,-0.45941702,1.0262529,0.2809978,-0.90453804
750,1778619433.842716,-0.5533859,-1.3784951,-0.57430184,0.9902118,0.037873615,-0.66019213
751,1778619433.8527188,-0.5533859,-1.3784951,-0.57430184,0.9902118,0.037873615,-0.66019213
752,1778619433.8627198,-0.5533859,-1.3784951,-0.57430184,0.80878496,-0.48685923,-0.15012002
753,1778619433.8729973,-0.5533859,-1.3784951,-0.57430184,0.80878496,-0.48685923,-0.15012002
754,1778619433.882998,-0.5533859,-1.3784951,-0.57430184,0.80878496,-0.48685923,-0.15012002
755,1778619433.8929987,-0.5409462,-1.399228,-0.5730822,0.6206386,-0.7825178,0.21639885
756,1778619433.9029994,-0.5409462,-1.399228,-0.5730822,0.6206386,-0.7825178,0.21639885
757,1778619433.913,-0.5128958,-1.4033746,-0.55698377,0.6206386,-0.7825178,0.21639885
758,1778619433.923001,-0.5128958,-1.4033746,-0.55698377,0.6206386,-0.7825178,0.21639885
759,1778619433.9330018,-0.5128958,-1.4033746,-0.55698377,0.6206386,-0.7825178,0.21639885
760,1778619433.9430025,-0.5128958,-1.4033746,-0.55698377,0.375071,-1.0140356,0.61346096
761,1778619433.9530163,-0.5128958,-1.4033746,-0.55698377,0.375071,-1.0140356,0.61346096
762,1778619433.9630194,-0.5128958,-1.4033746,-0.55698377,0.375071,-1.0140356,0.61346096
763,1778619433.9730203,-0.5128958,-1.4033746,-0.55698377,0.375071,-1.0140356,0.61346096
764,1778619433.9831378,-0.34093451,-1.3560548,-0.4423429,0.09468404,-1.1979058,1.024573
765,1778619433.9931395,-0.34093451,-1.3560548,-0.4423429,0.09468404,-1.1979058,1.024573
766,1778619434.0031407,-0.34093451,-1.3560548,-0.4423429,-0.12705988,-1.2877029,1.3104577
767,1778619434.0137599,-0.34093451,-1.3560548,-0.4423429,-0.12705988,-1.2877029,1.3104577
768,1778619434.0237617,-0.34093451,-1.3560548,-0.4423429,-0.12705988,-1.2877029,1.3104577
769,1778619434.033763,-0.34093451,-1.3560548,-0.4423429,-0.12705988,-1.2877029,1.3104577
770,1778619434.0437639,-0.34093451,-1.3560548,-0.4423429,-0.12705988,-1.2877029,1.3104577
771,1778619434.0537646,-0.34093451,-1.3560548,-0.4423429,-0.12705988,-1.2877029,1.3104577
772,1778619434.0637655,-0.20409729,-1.3194673,-0.30111513,-0.5619956,-1.2840377,1.8229733
773,1778619434.0737662,-0.20409729,-1.3194673,-0.30111513,-0.5619956,-1.2840377,1.8229733
774,1778619434.083767,-0.20409729,-1.3194673,-0.30111513,-0.5619956,-1.2840377,1.8229733
775,1778619434.0937722,-0.20409729,-1.3194673,-0.30111513,-0.8081741,-1.1233803,2.13146
776,1778619434.1037745,-0.20409729,-1.3194673,-0.30111513,-0.8081741,-1.1233803,2.13146
777,1778619434.1137757,-0.20409729,-1.3194673,-0.30111513,-0.8081741,-1.1233803,2.13146
778,1778619434.1237857,-0.20409729,-1.3194673,-0.30111513,-0.8081741,-1.1233803,2.13146
779,1778619434.1337895,-0.20409729,-1.3194673,-0.30111513,-0.8081741,-1.1233803,2.13146
780,1778619434.1437905,-0.20409729,-1.3194673,-0.30111513,-0.8081741,-1.1233803,2.13146
781,1778619434.1537914,-0.20409729,-1.3194673,-0.30111513,-0.8081741,-1.1233803,2.13146
782,1778619434.163792,-0.20409729,-1.3194673,-0.30111513,-0.8081741,-1.1233803,2.13146
783,1778619434.1737926,-0.20409729,-1.3194673,-0.30111513,-0.8081741,-1.1233803,2.13146
784,1778619434.1837933,-0.20409729,-1.3194673,-0.30111513,-0.8081741,-1.1233803,2.13146
785,1778619434.1937938,-0.20409729,-1.3194673,-0.30111513,-0.8081741,-1.1233803,2.13146
786,1778619434.2037945,-0.08335852,-1.2855629,-0.21086596,-0.8081741,-1.1233803,2.13146
787,1778619434.2137957,-0.08335852,-1.2855629,-0.21086596,-0.8081741,-1.1233803,2.13146
788,1778619434.2237964,0.040551145,-1.2226323,-0.19452354,-1.007927,-0.93767744,2.3849688
789,1778619434.233803,0.040551145,-1.2226323,-0.19452354,-1.007927,-0.93767744,2.3849688
790,1778619434.2438052,0.040551145,-1.2226323,-0.19452354,-1.007927,-0.93767744,2.3849688
791,1778619434.2538064,0.19836523,-1.1672632,-0.2245253,-1.007927,-0.93767744,2.3849688
792,1778619434.263807,0.19836523,-1.1672632,-0.2245253,-1.007927,-0.93767744,2.3849688
793,1778619434.2738075,0.19836523,-1.1672632,-0.2245253,-1.007927,-0.93767744,2.3849688
794,1778619434.2838087,0.33788556,-1.1748246,-0.29989552,-1.2596031,-0.7061597,2.6225953
795,1778619434.2938097,0.33788556,-1.1748246,-0.29989552,-1.2596031,-0.7061597,2.6225953
796,1778619434.30381,0.33788556,-1.1748246,-0.29989552,-1.2596031,-0.7061597,2.6225953
797,1778619434.3138108,0.5776557,-1.1916549,-0.41941473,-1.4617994,-0.8826996,2.7973025
798,1778619434.3238127,0.5776557,-1.1916549,-0.41941473,-1.4617994,-0.8826996,2.7973025
799,1778619434.3338134,0.5776557,-1.1916549,-0.41941473,-1.4617994,-0.8826996,2.7973025
800,1778619434.3441272,0.5776557,-1.1916549,-0.41941473,-1.4617994,-0.8826996,2.7973025
801,1778619434.354128,0.5776557,-1.1916549,-0.41941473,-1.4617994,-0.8826996,2.7973025
802,1778619434.3641288,0.5776557,-1.1916549,-0.41941473,-1.4617994,-0.8826996,2.7973025
803,1778619434.3741324,0.5776557,-1.1916549,-0.41941473,-1.4617994,-0.8826996,2.7973025
804,1778619434.3841343,0.5776557,-1.1916549,-0.41941473,-1.4617994,-0.8826996,2.7973025
805,1778619434.3941355,0.5776557,-1.1916549,-0.41941473,-1.4617994,-0.8826996,2.7973025
806,1778619434.4041367,0.5776557,-1.1916549,-0.41941473,-1.4617994,-0.8826996,2.7973025
807,1778619434.4141374,0.5776557,-1.1916549,-0.41941473,-1.4617994,-0.8826996,2.7973025
808,1778619434.4241385,0.5776557,-1.1916549,-0.41941473,-1.4617994,-0.8826996,2.7973025
809,1778619434.4341397,0.5776557,-1.1916549,-0.41941473,-1.4617994,-0.8826996,2.7973025
810,1778619434.4441411,0.5776557,-1.1916549,-0.41941473,-1.4617994,-0.8826996,2.7973025
811,1778619434.454142,0.5776557,-1.1916549,-0.41941473,-1.4617994,-0.8826996,2.7973025
812,1778619434.4641426,0.5776557,-1.1916549,-0.41941473,-1.4617994,-0.8826996,2.7973025
813,1778619434.4741433,1.404777,-1.1548235,-0.5186888,-1.5851941,-0.96516633,2.8791585
814,1778619434.484144,1.404777,-1.1548235,-0.5186888,-1.5851941,-0.96516633,2.8791585
815,1778619434.4941444,1.404777,-1.1548235,-0.5186888,-1.5851941,-0.96516633,2.8791585
816,1778619434.5041451,1.0945151,-1.1114062,-0.46453932,-1.833816,-1.047633,2.9567382
817,1778619434.5141463,1.0945151,-1.1114062,-0.46453932,-1.833816,-1.047633,2.9567382
818,1778619434.524147,1.0945151,-1.1114062,-0.46453932,-1.833816,-1.047633,2.9567382
819,1778619434.5341544,1.0945151,-1.1114062,-0.46453932,-1.833816,-1.047633,2.9567382
820,1778619434.5441573,1.0945151,-1.1114062,-0.46453932,-1.833816,-1.047633,2.9567382
821,1778619434.5541592,1.0945151,-1.1114062,-0.46453932,-1.833816,-1.047633,2.9567382
822,1778619434.5641606,1.0945151,-1.1114062,-0.46453932,-1.833816,-1.047633,2.9567382
823,1778619434.574161,1.0945151,-1.1114062,-0.46453932,-1.833816,-1.047633,2.9567382
824,1778619434.584162,1.0945151,-1.1114062,-0.46453932,-2.1044292,-1.1985167,3.1271696
825,1778619434.5941706,1.0945151,-1.1114062,-0.46453932,-2.1044292,-1.1985167,3.1271696
826,1778619434.604171,1.0945151,-1.1114062,-0.46453932,-2.1044292,-1.1985167,3.1271696
827,1778619434.6141717,1.0945151,-1.1114062,-0.46453932,-2.1044292,-1.1985167,3.1271696
828,1778619434.624174,1.0945151,-1.1114062,-0.46453932,-2.1044292,-1.1985167,3.1271696
829,1778619434.6341755,1.0945151,-1.1114062,-0.46453932,-2.1044292,-1.1985167,3.1271696
830,1778619434.6441767,1.0945151,-1.1114062,-0.46453932,-2.1044292,-1.1985167,3.1271696
831,1778619434.6541772,1.0945151,-1.1114062,-0.46453932,-2.1044292,-1.1985167,3.1271696
832,1778619434.6641784,1.0945151,-1.1114062,-0.46453932,-2.1044292,-1.1985167,3.1271696
833,1778619434.6741793,2.2372646,-1.2128756,-0.33355603,-2.850295,-1.9285,4.246274
834,1778619434.6841798,2.2372646,-1.2128756,-0.33355603,-2.850295,-1.9285,4.246274
835,1778619434.6941812,3.986879,0.37990022,1.0206692,-3.5271332,-1.3982695,5.3727083
836,1778619434.704188,1.5967394,0.9596901,0.4496604,-1.6389502,0.38851,1.1888956
837,1778619434.7141914,1.5967394,0.9596901,0.4496604,-1.6389502,0.38851,1.1888956
838,1778619434.7241926,1.5967394,0.9596901,0.4496604,-1.6389502,0.38851,1.1888956
839,1778619434.7341933,1.5967394,0.9596901,0.4496604,-1.6389502,0.38851,1.1888956
840,1778619434.7441938,1.5967394,0.9596901,0.4496604,-1.6389502,0.38851,1.1888956
841,1778619434.754196,1.1640313,1.0616473,0.43039095,-1.7678427,0.560163,0.47112945
842,1778619434.7641976,1.1640313,1.0616473,0.43039095,-1.7678427,0.560163,0.47112945
843,1778619434.7741988,0.9820695,1.0460366,0.45649004,-1.7727296,0.63407767,0.056963142
844,1778619434.7841997,0.9820695,1.0460366,0.45649004,-1.7727296,0.63407767,0.056963142
845,1778619434.7942004,0.9820695,1.0460366,0.45649004,-1.7727296,0.63407767,0.056963142
846,1778619434.8042011,0.9820695,1.0460366,0.45649004,-1.7727296,0.63407767,0.056963142
847,1778619434.8142018,0.9820695,1.0460366,0.45649004,-1.7727296,0.63407767,0.056963142
848,1778619434.824202,0.9820695,1.0460366,0.45649004,-1.7727296,0.63407767,0.056963142
849,1778619434.8342032,0.9820695,1.0460366,0.45649004,-1.7727296,0.63407767,0.056963142
850,1778619434.8442037,0.7862044,1.0231085,0.4723446,-1.6920954,0.700051,-0.20876303
851,1778619434.8542042,0.7862044,1.0231085,0.4723446,-1.6920954,0.700051,-0.20876303
852,1778619434.864205,0.7862044,1.0231085,0.4723446,-1.6920954,0.700051,-0.20876303
853,1778619434.8744216,0.30129808,0.9813987,0.4367328,-1.2748748,0.7977894,-0.5196932
854,1778619434.8844247,0.30129808,0.9813987,0.4367328,-1.2748748,0.7977894,-0.5196932
855,1778619434.8944252,0.30129808,0.9813987,0.4367328,-1.2748748,0.7977894,-0.5196932
856,1778619434.904426,0.30129808,0.9813987,0.4367328,-1.2748748,0.7977894,-0.5196932
857,1778619434.9144268,0.30129808,0.9813987,0.4367328,-1.2748748,0.7977894,-0.5196932
858,1778619434.9244277,0.30129808,0.9813987,0.4367328,-1.2748748,0.7977894,-0.5196932
859,1778619434.9344287,0.30129808,0.9813987,0.4367328,-1.2748748,0.7977894,-0.5196932
860,1778619434.9444299,0.30129808,0.9813987,0.4367328,-1.2748748,0.7977894,-0.5196932
861,1778619434.954531,0.2008044,0.98017913,0.39770615,-0.993877,0.7806852,-0.6210968
862,1778619434.9645462,0.2008044,0.98017913,0.39770615,-0.993877,0.7806852,-0.6210968
863,1778619434.974547,0.2008044,0.98017913,0.39770615,-0.993877,0.7806852,-0.6210968
864,1778619434.98455,0.2008044,0.98017913,0.39770615,-0.6835577,0.72753996,-0.7573196
865,1778619434.994552,0.2008044,0.98017913,0.39770615,-0.6835577,0.72753996,-0.7573196
866,1778619435.0045528,0.2008044,0.98017913,0.39770615,-0.6835577,0.72753996,-0.7573196
867,1778619435.0145535,0.2008044,0.98017913,0.39770615,-0.6835577,0.72753996,-0.7573196
868,1778619435.024793,0.2008044,0.98017913,0.39770615,-0.36224282,0.61514086,-0.93691385
869,1778619435.0347946,0.2008044,0.98017913,0.39770615,-0.36224282,0.61514086,-0.93691385
870,1778619435.0447953,0.2008044,0.98017913,0.39770615,-0.36224282,0.61514086,-0.93691385
871,1778619435.0547967,0.2008044,0.98017913,0.39770615,-0.36224282,0.61514086,-0.93691385
872,1778619435.0647976,0.2008044,0.98017913,0.39770615,-0.36224282,0.61514086,-0.93691385
873,1778619435.0747979,0.2008044,0.98017913,0.39770615,-0.36224282,0.61514086,-0.93691385
874,1778619435.0847986,0.2008044,0.98017913,0.39770615,-0.36224282,0.61514086,-0.93691385
875,1778619435.0947995,0.2008044,0.98017913,0.39770615,-0.36224282,0.61514086,-0.93691385
876,1778619435.1048,0.2008044,0.98017913,0.39770615,-0.36224282,0.61514086,-0.93691385
877,1778619435.1150138,0.2008044,0.98017913,0.39770615,-0.36224282,0.61514086,-0.93691385
878,1778619435.1250145,0.2008044,0.98017913,0.39770615,-0.36224282,0.61514086,-0.93691385
879,1778619435.1350155,0.2008044,0.98017913,0.39770615,-0.36224282,0.61514086,-0.93691385
880,1778619435.145017,-0.011403104,0.8845638,0.38185155,-0.029932374,0.4807506,-1.1244494
881,1778619435.1550176,-0.011403104,0.8845638,0.38185155,-0.029932374,0.4807506,-1.1244494
882,1778619435.165019,-0.011403104,0.8845638,0.38185155,0.41722065,0.31093016,-1.3168718
883,1778619435.17502,-0.011403104,0.8845638,0.38185155,0.41722065,0.31093016,-1.3168718
884,1778619435.1850204,-0.011403104,0.8845638,0.38185155,0.41722065,0.31093016,-1.3168718
885,1778619435.1950212,-0.011403104,0.8845638,0.38185155,0.41722065,0.31093016,-1.3168718
886,1778619435.205031,-0.03506302,0.810901,0.3694118,0.81122845,0.19181155,-1.4488186
887,1778619435.215034,-0.03506302,0.810901,0.3694118,0.81122845,0.19181155,-1.4488186
888,1778619435.225035,-0.03506302,0.810901,0.3694118,0.81122845,0.19181155,-1.4488186
889,1778619435.2352245,-0.03506302,0.810901,0.3694118,1.210734,0.037262753,-1.545946
890,1778619435.2452278,-0.03506302,0.810901,0.3694118,1.210734,0.037262753,-1.545946
891,1778619435.2552288,-0.03506302,0.810901,0.3694118,1.210734,0.037262753,-1.545946
892,1778619435.2652292,-0.03506302,0.810901,0.3694118,1.210734,0.037262753,-1.545946
893,1778619435.2752304,-0.03506302,0.810901,0.3694118,1.210734,0.037262753,-1.545946
894,1778619435.2852318,-0.03506302,0.810901,0.3694118,1.210734,0.037262753,-1.545946
895,1778619435.2952325,-0.03506302,0.810901,0.3694118,1.210734,0.037262753,-1.545946
896,1778619435.3052335,3.2600074,-0.25306356,0.769923,4.048812,0.3243692,-3.298517
897,1778619435.315234,3.2600074,-0.25306356,0.769923,4.048812,0.3243692,-3.298517
898,1778619435.325235,3.2600074,-0.25306356,0.769923,4.048812,0.3243692,-3.298517
899,1778619435.3352358,3.2600074,-0.25306356,0.769923,4.048812,0.3243692,-3.298517
900,1778619435.345241,3.0890217,-0.40526757,0.6862595,4.048812,0.3243692,-3.298517
901,1778619435.3552454,3.0890217,-0.40526757,0.6862595,4.048812,0.3243692,-3.298517
902,1778619435.365247,3.0890217,-0.40526757,0.6862595,4.048812,0.3243692,-3.298517
903,1778619435.3752477,3.0890217,-0.40526757,0.6862595,4.048812,0.3243692,-3.298517
904,1778619435.3852494,3.0890217,-0.40526757,0.6862595,4.048812,0.3243692,-3.298517
905,1778619435.395251,3.0890217,-0.40526757,0.6862595,4.048812,0.3243692,-3.298517
906,1778619435.4052517,3.0890217,-0.40526757,0.6862595,4.048812,0.3243692,-3.298517
907,1778619435.4152527,3.0890217,-0.40526757,0.6862595,4.05492,0.41050112,-3.5135415
908,1778619435.4252534,3.0890217,-0.40526757,0.6862595,4.05492,0.41050112,-3.5135415
909,1778619435.435254,3.0890217,-0.40526757,0.6862595,4.05492,0.41050112,-3.5135415
910,1778619435.4452548,3.0890217,-0.40526757,0.6862595,4.05492,0.41050112,-3.5135415
911,1778619435.4556422,3.0890217,-0.40526757,0.6862595,4.05492,0.41050112,-3.5135415
912,1778619435.465644,3.0890217,-0.40526757,0.6862595,4.05492,0.41050112,-3.5135415
913,1778619435.4756448,3.0890217,-0.40526757,0.6862595,4.05492,0.41050112,-3.5135415
914,1778619435.4856453,3.0890217,-0.40526757,0.6862595,4.05492,0.41050112,-3.5135415
915,1778619435.4956462,3.0890217,-0.40526757,0.6862595,4.05492,0.41050112,-3.5135415
916,1778619435.5056477,1.9306613,-0.80212,0.29818815,2.8215845,1.0128138,-3.1293075
917,1778619435.5156486,1.9306613,-0.80212,0.29818815,2.8215845,1.0128138,-3.1293075
918,1778619435.52565,1.9306613,-0.80212,0.29818815,2.8215845,1.0128138,-3.1293075
919,1778619435.535651,1.9306613,-0.80212,0.29818815,2.8215845,1.0128138,-3.1293075
920,1778619435.545652,1.9306613,-0.80212,0.29818815,2.8215845,1.0128138,-3.1293075
921,1778619435.5556529,1.3011125,-0.7860215,0.25135612,1.8307618,1.6047418,-2.3559527
922,1778619435.5656543,0.85401326,-0.81797457,0.10232304,1.7318016,1.6823215,-2.206291
923,1778619435.5756552,0.85401326,-0.81797457,0.10232304,1.7318016,1.6823215,-2.206291
924,1778619435.585657,0.85401326,-0.81797457,0.10232304,1.7318016,1.6823215,-2.206291
925,1778619435.595659,0.85401326,-0.81797457,0.10232304,1.7318016,1.6823215,-2.206291
926,1778619435.6056607,0.85401326,-0.81797457,0.10232304,1.7318016,1.6823215,-2.206291
927,1778619435.6156626,0.85401326,-0.81797457,0.10232304,1.7318016,1.6823215,-2.206291
928,1778619435.6260254,-0.2643447,-0.910419,-0.3740462,0.82527834,-0.13927718,-0.007788526
929,1778619435.6360261,-0.2643447,-0.910419,-0.3740462,0.82527834,-0.13927718,-0.007788526
930,1778619435.646027,-0.21848835,-0.87919766,-0.3620943,0.6713404,-0.31154105,0.0716239
931,1778619435.6560278,-0.21848835,-0.87919766,-0.3620943,0.6713404,-0.31154105,0.0716239
932,1778619435.666029,-0.21848835,-0.87919766,-0.3620943,0.6713404,-0.31154105,0.0716239
933,1778619435.67603,-0.21848835,-0.87919766,-0.3620943,0.47830713,-0.4147772,0.14492767
934,1778619435.6860306,-0.21848835,-0.87919766,-0.3620943,0.47830713,-0.4147772,0.14492767
935,1778619435.6960316,-0.21848835,-0.87919766,-0.3620943,0.47830713,-0.4147772,0.14492767
936,1778619435.706033,-0.22336671,-0.8862712,-0.34526405,0.25595233,-0.42027497,0.2707658
937,1778619435.716035,-0.22336671,-0.8862712,-0.34526405,0.25595233,-0.42027497,0.2707658
938,1778619435.7260363,-0.22336671,-0.8862712,-0.34526405,0.25595233,-0.42027497,0.2707658
939,1778619435.7360451,-0.22336671,-0.8862712,-0.34526405,0.25595233,-0.42027497,0.2707658
940,1778619435.7460487,-0.22336671,-0.8862712,-0.34526405,0.25595233,-0.42027497,0.2707658
941,1778619435.7560496,-0.22336671,-0.8862712,-0.34526405,0.25595233,-0.42027497,0.2707658
942,1778619435.7660513,-0.22336671,-0.8862712,-0.34526405,0.25595233,-0.42027497,0.2707658
943,1778619435.7760525,-0.22336671,-0.8862712,-0.34526405,0.25595233,-0.42027497,0.2707658
944,1778619435.7860541,-0.21751268,-0.8862712,-0.34965453,0.0012217296,-0.39522952,0.48151416
945,1778619435.7960558,-0.21751268,-0.8862712,-0.34965453,0.0012217296,-0.39522952,0.48151416
946,1778619435.8060572,-0.21751268,-0.8862712,-0.34965453,0.0012217296,-0.39522952,0.48151416
947,1778619435.8160582,2.3287334,-0.39233997,0.3918521,-2.02746,-1.8032728,3.8406596
948,1778619435.8260589,2.3287334,-0.39233997,0.3918521,-2.02746,-1.8032728,3.8406596
949,1778619435.8360593,2.3287334,-0.39233997,0.3918521,-2.02746,-1.8032728,3.8406596
950,1778619435.8460598,3.0519462,0.26745462,0.8931009,-2.02746,-1.8032728,3.8406596
951,1778619435.8560605,3.0519462,0.26745462,0.8931009,-2.02746,-1.8032728,3.8406596
952,1778619435.8660607,3.0519462,0.26745462,0.8931009,-2.02746,-1.8032728,3.8406596
953,1778619435.8761125,3.0519462,0.26745462,0.8931009,-1.495397,-1.5937462,3.910298
954,1778619435.8861127,3.0519462,0.26745462,0.8931009,-1.495397,-1.5937462,3.910298
955,1778619435.8961134,3.0519462,0.26745462,0.8931009,-1.495397,-1.5937462,3.910298
956,1778619435.9061139,3.0519462,0.26745462,0.8931009,-1.495397,-1.5937462,3.910298
957,1778619435.9161153,3.0519462,0.26745462,0.8931009,-1.495397,-1.5937462,3.910298
958,1778619435.9261167,3.0519462,0.26745462,0.8931009,-1.495397,-1.5937462,3.910298
959,1778619435.9361174,3.0519462,0.26745462,0.8931009,-1.495397,-1.5937462,3.910298
960,1778619435.946118,2.8031514,0.70113844,0.70943165,-0.16737695,-0.29688028,3.0636396
961,1778619435.9561188,2.8031514,0.70113844,0.70943165,-0.16737695,-0.29688028,3.0636396
962,1778619435.9661195,2.8031514,0.70113844,0.70943165,-0.16737695,-0.29688028,3.0636396
963,1778619435.9761202,2.8031514,0.70113844,0.70943165,-0.16737695,-0.29688028,3.0636396
964,1778619435.986121,2.8031514,0.70113844,0.70943165,-0.16737695,-0.29688028,3.0636396
965,1778619435.9961214,2.8031514,0.70113844,0.70943165,-0.16737695,-0.29688028,3.0636396
966,1778619436.0061224,2.8031514,0.70113844,0.70943165,0.10873393,-0.09040799,2.8205154
967,1778619436.016123,2.8031514,0.70113844,0.70943165,0.10873393,-0.09040799,2.8205154
968,1778619436.0261235,2.8031514,0.70113844,0.70943165,0.10873393,-0.09040799,2.8205154
969,1778619436.0361245,2.8031514,0.70113844,0.70943165,0.10873393,-0.09040799,2.8205154
970,1778619436.0461254,2.8031514,0.70113844,0.70943165,0.10873393,-0.09040799,2.8205154
971,1778619436.056126,2.8031514,0.70113844,0.70943165,0.10873393,-0.09040799,2.8205154
972,1778619436.0661268,2.8031514,0.70113844,0.70943165,0.10873393,-0.09040799,2.8205154
973,1778619436.0761473,2.8031514,0.70113844,0.70943165,0.10873393,-0.09040799,2.8205154
974,1778619436.0861595,2.8031514,0.70113844,0.70943165,0.10873393,-0.09040799,2.8205154
975,1778619436.0961602,2.8031514,0.70113844,0.70943165,0.10873393,-0.09040799,2.8205154
976,1778619436.1061606,2.8031514,0.70113844,0.70943165,0.10873393,-0.09040799,2.8205154
977,1778619436.116161,2.8031514,0.70113844,0.70943165,0.10873393,-0.09040799,2.8205154
978,1778619436.1261623,2.4916697,0.69674796,0.49356538,0.10873393,-0.09040799,2.8205154
979,1778619436.136163,2.4916697,0.69674796,0.49356538,0.10873393,-0.09040799,2.8205154
980,1778619436.146164,2.4916697,0.69674796,0.49356538,0.10873393,-0.09040799,2.8205154
981,1778619436.1561646,2.4916697,0.69674796,0.49356538,0.10873393,-0.09040799,2.8205154
982,1778619436.1661656,2.2616563,0.66455096,0.34648362,0.10873393,-0.09040799,2.8205154
983,1778619436.1761672,2.2616563,0.66455096,0.34648362,0.10873393,-0.09040799,2.8205154
984,1778619436.1861684,2.2616563,0.66455096,0.34648362,0.10873393,-0.09040799,2.8205154
985,1778619436.1961696,2.2616563,0.66455096,0.34648362,0.36346453,-0.03604102,2.6769621
986,1778619436.2061708,2.2616563,0.66455096,0.34648362,0.36346453,-0.03604102,2.6769621
987,1778619436.2161715,2.2616563,0.66455096,0.34648362,0.36346453,-0.03604102,2.6769621
988,1778619436.226172,2.2616563,0.66455096,0.34648362,0.36346453,-0.03604102,2.6769621
989,1778619436.2361736,2.2616563,0.66455096,0.34648362,0.36346453,-0.03604102,2.6769621
990,1778619436.2461748,2.2616563,0.66455096,0.34648362,0.36346453,-0.03604102,2.6769621
991,1778619436.2561758,2.2616563,0.66455096,0.34648362,0.36346453,-0.03604102,2.6769621
992,1778619436.2661767,2.2616563,0.66455096,0.34648362,0.36346453,-0.03604102,2.6769621
993,1778619436.2761774,2.2616563,0.66455096,0.34648362,0.36346453,-0.03604102,2.6769621
994,1778619436.2861779,2.1092083,0.6594287,0.25403923,0.6200278,-0.10384701,2.6177082
995,1778619436.2961867,2.1092083,0.6594287,0.25403923,0.6200278,-0.10384701,2.6177082
996,1778619436.3061893,2.1092083,0.6594287,0.25403923,0.6200278,-0.10384701,2.6177082
997,1778619436.31619,2.1092083,0.6594287,0.25403923,0.6200278,-0.10384701,2.6177082
998,1778619436.3261912,2.1092083,0.6594287,0.25403923,0.6200278,-0.10384701,2.6177082
999,1778619436.3361917,2.1092083,0.6594287,0.25403923,0.6200278,-0.10384701,2.6177082
