id,timestamp,acc_x,acc_y,acc_z,gyro_x,gyro_y,gyro_z
1,1778621581.8766377,-0.54777586,-1.1411641,0.6313783,-0.42210758,-0.31291547,0.33215773
2,1778621581.8869255,-0.54777586,-1.1411641,0.6313783,-0.42210758,-0.31291547,0.33215773
3,1778621581.8969288,-0.54777586,-1.1411641,0.6313783,-0.42210758,-0.31291547,0.33215773
4,1778621581.906931,-0.54777586,-1.1411641,0.6313783,-0.42210758,-0.31291547,0.33215773
5,1778621581.9169328,-0.54777586,-1.1411641,0.6313783,-0.42210758,-0.31291547,0.33215773
6,1778621581.926934,-0.4667955,-1.1801908,0.9362742,-0.42210758,-0.31291547,0.33215773
7,1778621581.936935,-0.4667955,-1.1801908,0.9362742,-0.42210758,-0.31291547,0.33215773
8,1778621581.946936,-0.4667955,-1.1801908,0.9362742,-0.42210758,-0.31291547,0.33215773
9,1778621581.9569373,-0.4667955,-1.1801908,0.9362742,-0.42210758,-0.31291547,0.33215773
10,1778621581.966939,-0.4667955,-1.1801908,0.9362742,-0.42210758,-0.31291547,0.33215773
11,1778621581.9769397,-0.4667955,-1.1801908,0.9362742,-0.42210758,-0.31291547,0.33215773
12,1778621581.9869409,-0.42801276,-1.2562928,0.8838321,-0.456316,0.36636615,0.5893318
13,1778621581.9969423,-0.42801276,-1.2562928,0.8838321,-0.456316,0.36636615,0.5893318
14,1778621582.006943,-0.42801276,-1.2562928,0.8838321,-0.46975502,0.506865,0.7041744
15,1778621582.017189,-0.42801276,-1.2562928,0.8838321,-0.46975502,0.506865,0.7041744
16,1778621582.0271897,-0.42801276,-1.2562928,0.8838321,-0.46975502,0.506865,0.7041744
17,1778621582.0371904,-0.42801276,-1.2562928,0.8838321,-0.46975502,0.506865,0.7041744
18,1778621582.0471916,-0.42801276,-1.2562928,0.8838321,-0.46975502,0.506865,0.7041744
19,1778621582.0571926,-0.42801276,-1.2562928,0.8838321,-0.46975502,0.506865,0.7041744
20,1778621582.0671933,-0.42801276,-1.2562928,0.8838321,-0.46975502,0.506865,0.7041744
21,1778621582.0771954,-0.42801276,-1.2562928,0.8838321,-0.46975502,0.506865,0.7041744
22,1778621582.0871964,-0.42801276,-1.2562928,0.8838321,-0.46975502,0.506865,0.7041744
23,1778621582.0971975,-0.3333731,-1.4321568,0.52088404,-0.44837475,0.5361866,1.1653773
24,1778621582.1074998,-0.3333731,-1.4321568,0.52088404,-0.44837475,0.5361866,1.1653773
25,1778621582.117501,-0.3333731,-1.4321568,0.52088404,-0.44837475,0.5361866,1.1653773
26,1778621582.1275017,-0.3172746,-1.5516759,0.31477445,-0.11484258,-0.18341215,1.3706279
27,1778621582.1375098,-0.3172746,-1.5516759,0.31477445,-0.11484258,-0.18341215,1.3706279
28,1778621582.1475124,-0.3172746,-1.5516759,0.31477445,-0.11484258,-0.18341215,1.3706279
29,1778621582.1575131,-0.5163106,-3.9627922,-0.75089747,1.7770057,-0.12293654,-0.12599087
30,1778621582.1675136,-0.5163106,-3.9627922,-0.75089747,1.7770057,-0.12293654,-0.12599087
31,1778621582.177514,-0.5163106,-3.9627922,-0.75089747,1.7770057,-0.12293654,-0.12599087
32,1778621582.1875148,-0.28995594,-2.9946868,-0.5962543,2.1722353,1.6253585,-0.17486005
33,1778621582.1978457,-0.28995594,-2.9946868,-0.5962543,2.1722353,1.6253585,-0.17486005
34,1778621582.2078466,-0.28995594,-2.9946868,-0.5962543,2.1722353,1.6253585,-0.17486005
35,1778621582.2178476,-0.5760702,-0.8391954,-0.23379412,0.2046397,-0.53038335,0.8000801
36,1778621582.2278483,-0.5760702,-0.8391954,-0.23379412,0.2046397,-0.53038335,0.8000801
37,1778621582.237849,-0.5760702,-0.8391954,-0.23379412,0.2046397,-0.53038335,0.8000801
38,1778621582.24792,-0.39215705,-0.4355132,-0.2918463,0.2046397,-0.53038335,0.8000801
39,1778621582.257922,-0.39215705,-0.4355132,-0.2918463,0.2046397,-0.53038335,0.8000801
40,1778621582.2679224,-0.39215705,-0.4355132,-0.2918463,0.2046397,-0.53038335,0.8000801
41,1778621582.2779233,-0.39215705,-0.4355132,-0.2918463,0.2046397,-0.53038335,0.8000801
42,1778621582.2880628,-0.35605735,-0.34794715,-0.35697204,0.013439025,-0.5761982,0.9082032
43,1778621582.2980647,-0.35605735,-0.34794715,-0.35697204,0.013439025,-0.5761982,0.9082032
44,1778621582.3080666,-0.35605735,-0.34794715,-0.35697204,0.013439025,-0.5761982,0.9082032
45,1778621582.318068,-0.25044146,-0.22550097,-0.38038805,-0.09834923,-0.708145,1.0169371
46,1778621582.3280692,-0.20848778,-0.18744996,-0.37307054,-0.09834923,-0.708145,1.0169371
47,1778621582.33807,-0.20848778,-0.18744996,-0.37307054,-0.09834923,-0.708145,1.0169371
48,1778621582.3480706,-0.20848778,-0.18744996,-0.37307054,-0.09834923,-0.708145,1.0169371
49,1778621582.35808,0.14177656,0.18305947,-0.00060979166,-0.59253883,-1.001971,1.3101523
50,1778621582.3680837,0.14177656,0.18305947,-0.00060979166,-0.59253883,-1.001971,1.3101523
51,1778621582.378085,0.14177656,0.18305947,-0.00060979166,-0.59253883,-1.001971,1.3101523
52,1778621582.3884904,0.14177656,0.18305947,-0.00060979166,-0.61086476,-1.0190752,1.2173008
53,1778621582.3984923,0.14177656,0.18305947,-0.00060979166,-0.61086476,-1.0190752,1.2173008
54,1778621582.4084935,0.14177656,0.18305947,-0.00060979166,-0.61086476,-1.0190752,1.2173008
55,1778621582.4184945,0.14177656,0.18305947,-0.00060979166,-0.61086476,-1.0190752,1.2173008
56,1778621582.4284956,0.16543648,0.25769794,0.06768687,-0.61086476,-1.0190752,1.2173008
57,1778621582.4384966,0.16543648,0.25769794,0.06768687,-0.61086476,-1.0190752,1.2173008
58,1778621582.4484973,0.16543648,0.25769794,0.06768687,-0.61086476,-1.0190752,1.2173008
59,1778621582.4584987,0.17665665,0.3257507,0.12183637,-0.6023127,-1.0239621,1.1763729
60,1778621582.4684994,0.17665665,0.3257507,0.12183637,-0.6023127,-1.0239621,1.1763729
61,1778621582.4785001,0.17665665,0.3257507,0.12183637,-0.6023127,-1.0239621,1.1763729
62,1778621582.4885013,0.17104656,0.39770615,0.13622746,-0.6023127,-1.0239621,1.1763729
63,1778621582.4985025,0.17104656,0.39770615,0.13622746,-0.6023127,-1.0239621,1.1763729
64,1778621582.508503,0.17104656,0.39770615,0.13622746,-0.6023127,-1.0239621,1.1763729
65,1778621582.5185163,0.17104656,0.39770615,0.13622746,-0.55955213,-1.0526727,1.0523673
66,1778621582.528519,0.17104656,0.39770615,0.13622746,-0.55955213,-1.0526727,1.0523673
67,1778621582.5385194,0.17104656,0.39770615,0.13622746,-0.55955213,-1.0526727,1.0523673
68,1778621582.548523,0.17104656,0.39770615,0.13622746,-0.55955213,-1.0526727,1.0523673
69,1778621582.5585246,0.17104656,0.39770615,0.13622746,-0.55955213,-1.0526727,1.0523673
70,1778621582.5685256,0.12104365,-0.31916496,-0.07207738,-1.2602141,-1.4534,1.158047
71,1778621582.5785263,0.12104365,-0.31916496,-0.07207738,-1.2602141,-1.4534,1.158047
72,1778621582.5885272,0.12104365,-0.31916496,-0.07207738,-1.2602141,-1.4534,1.158047
73,1778621582.5985281,0.13372731,-0.3150184,-0.045734376,-1.0610721,-1.2939643,1.117119
74,1778621582.6085386,0.0910419,-0.030367626,-0.08622454,-0.28344125,-1.4100286,0.34254244
75,1778621582.6185424,0.0910419,-0.030367626,-0.08622454,-0.28344125,-1.4100286,0.34254244
76,1778621582.6285443,0.0910419,-0.030367626,-0.08622454,-0.28344125,-1.4100286,0.34254244
77,1778621582.6385474,0.13445906,-0.03280679,-0.11207971,-0.2046397,-1.5175408,0.26435173
78,1778621582.6485488,0.13445906,-0.03280679,-0.11207971,-0.2046397,-1.5175408,0.26435173
79,1778621582.6585498,0.1920234,-0.032562874,-0.10646963,-0.13072506,-1.6549854,0.20448698
80,1778621582.6685505,0.1920234,-0.032562874,-0.10646963,-0.13072506,-1.6549854,0.20448698
81,1778621582.678552,0.22104947,-0.033538543,-0.092078544,-0.089797124,-1.7918191,0.15806127
82,1778621582.6885526,0.38691282,-0.00085370836,0.010366458,-0.1386663,-1.9231551,0.047494736
83,1778621582.6985536,0.38691282,-0.00085370836,0.010366458,-0.1386663,-1.9231551,0.047494736
84,1778621582.7085552,0.38691282,-0.00085370836,0.010366458,-0.1386663,-1.9231551,0.047494736
85,1778621582.7187018,0.38691282,-0.00085370836,0.010366458,-0.1386663,-1.9231551,0.047494736
86,1778621582.7287028,0.38691282,-0.00085370836,0.010366458,-0.1386663,-1.9231551,0.047494736
87,1778621582.738704,0.47716197,-0.008902958,0.10378654,-0.31642795,-1.7386739,-0.12965605
88,1778621582.7487054,0.47716197,-0.008902958,0.10378654,-0.31642795,-1.7386739,-0.12965605
89,1778621582.7587059,0.47716197,-0.008902958,0.10378654,-0.31642795,-1.7386739,-0.12965605
90,1778621582.7687066,0.36447248,-0.09256637,0.23428197,-0.5540544,-1.2512038,-0.27382013
91,1778621582.7787166,0.36447248,-0.09256637,0.23428197,-0.5540544,-1.2512038,-0.27382013
92,1778621582.78872,0.36447248,-0.09256637,0.23428197,-0.5540544,-1.2512038,-0.27382013
93,1778621582.798723,0.36447248,-0.09256637,0.23428197,-0.77213305,-0.7460186,-0.3092503
94,1778621582.809091,0.36447248,-0.09256637,0.23428197,-0.77213305,-0.7460186,-0.3092503
95,1778621582.819092,0.36447248,-0.09256637,0.23428197,-0.77213305,-0.7460186,-0.3092503
96,1778621582.829093,0.36447248,-0.09256637,0.23428197,-0.77213305,-0.7460186,-0.3092503
97,1778621582.8390937,0.36447248,-0.09256637,0.23428197,-0.77213305,-0.7460186,-0.3092503
98,1778621582.8490946,0.102262065,-0.28233355,-0.058418043,-1.2596031,-0.009926553,-0.29642212
99,1778621582.8590963,-0.25629544,-0.63625664,-0.7979734,-2.940092,1.0963496,-0.18707734
100,1778621582.8690968,-0.25629544,-0.63625664,-0.7979734,-2.940092,1.0963496,-0.18707734
101,1778621582.8790982,-0.25629544,-0.63625664,-0.7979734,-2.940092,1.0963496,-0.18707734
102,1778621582.8890994,-0.25629544,-0.63625664,-0.7979734,-2.940092,1.0963496,-0.18707734
103,1778621582.8992808,-0.25629544,-0.63625664,-0.7979734,-2.940092,1.0963496,-0.18707734
104,1778621582.909282,-0.6843692,-3.5410604,-2.5917366,0.21868959,3.931984,0.41523534
105,1778621582.9192917,0.094212815,-3.4022715,-0.5960104,-0.375071,4.2832313,0.36819875
106,1778621582.9292946,0.094212815,-3.4022715,-0.5960104,-0.375071,4.2832313,0.36819875
107,1778621582.9392953,0.6422936,-2.7902846,0.71016335,0.8772018,2.1885757,0.23808455
108,1778621582.9492965,0.6422936,-2.7902846,0.71016335,0.8772018,2.1885757,0.23808455
109,1778621582.9592986,0.3561793,-3.2486043,0.036953375,0.8772018,2.1885757,0.23808455
110,1778621582.969311,0.3561793,-3.2486043,0.036953375,0.8772018,2.1885757,0.23808455
111,1778621582.979312,0.3561793,-3.2486043,0.036953375,0.8772018,2.1885757,0.23808455
112,1778621582.9893131,0.22836697,-2.350503,-0.24159946,1.0555743,-1.5566362,-0.5193878
113,1778621582.9993198,0.22836697,-2.350503,-0.24159946,1.0555743,-1.5566362,-0.5193878
114,1778621583.0093231,0.22836697,-2.350503,-0.24159946,1.0555743,-1.5566362,-0.5193878
115,1778621583.019325,-0.030184686,-2.397579,-0.46917373,1.1282673,-2.5401285,-0.77839446
116,1778621583.0293343,-0.030184686,-2.397579,-0.46917373,1.1282673,-2.5401285,-0.77839446
117,1778621583.0393379,-0.030184686,-2.397579,-0.46917373,1.1282673,-2.5401285,-0.77839446
118,1778621583.0493393,-0.030184686,-2.397579,-0.46917373,1.1282673,-2.5401285,-0.77839446
119,1778621583.0593398,-0.030184686,-2.397579,-0.46917373,1.1282673,-2.5401285,-0.77839446
120,1778621583.0693407,-0.030184686,-2.397579,-0.46917373,1.337183,-4.6231775,-1.4240785
121,1778621583.0793417,-0.53606784,-2.5988102,-0.18915738,1.337183,-4.6231775,-1.4240785
122,1778621583.089342,-0.53606784,-2.5988102,-0.18915738,1.337183,-4.6231775,-1.4240785
123,1778621583.099344,-0.45728278,-0.7565076,0.02646496,1.7440189,2.1696389,-0.9769255
124,1778621583.1093798,-0.45728278,-0.7565076,0.02646496,1.7440189,2.1696389,-0.9769255
125,1778621583.1193826,-0.45728278,-0.7565076,0.02646496,1.7440189,2.1696389,-0.9769255
126,1778621583.1293843,-0.41947567,-0.70211416,0.025977125,1.7195843,1.9326234,-0.7948878
127,1778621583.1393857,-0.41947567,-0.70211416,0.025977125,1.7195843,1.9326234,-0.7948878
128,1778621583.1493871,-0.41947567,-0.70211416,0.025977125,1.7195843,1.9326234,-0.7948878
129,1778621583.1593907,-0.11092111,0.32672638,-0.5086882,1.3579524,0.7884737,-0.9958623
130,1778621583.1694062,-0.11092111,0.32672638,-0.5086882,1.3579524,0.7884737,-0.9958623
131,1778621583.1794076,-0.11092111,0.32672638,-0.5086882,1.3579524,0.7884737,-0.9958623
132,1778621583.1894085,-0.04847844,0.34258097,-0.54844666,1.106887,0.5532908,-0.992808
133,1778621583.1994092,-0.04847844,0.34258097,-0.54844666,1.106887,0.5532908,-0.992808
134,1778621583.2094102,-0.04847844,0.34258097,-0.54844666,1.106887,0.5532908,-0.992808
135,1778621583.2194107,-0.04847844,0.34258097,-0.54844666,1.106887,0.5532908,-0.992808
136,1778621583.2294114,-0.04847844,0.34258097,-0.54844666,1.106887,0.5532908,-0.992808
137,1778621583.2394125,-0.05921077,0.02792846,0.123055965,0.8985821,1.4854704,-1.6372703
138,1778621583.2494142,-0.16702195,0.055003207,0.022318374,0.8985821,1.4854704,-1.6372703
139,1778621583.2594154,-0.16702195,0.055003207,0.022318374,0.8985821,1.4854704,-1.6372703
140,1778621583.2694168,-0.16702195,0.055003207,0.022318374,0.8985821,1.4854704,-1.6372703
141,1778621583.2794175,-0.16702195,0.055003207,0.022318374,0.8985821,1.4854704,-1.6372703
142,1778621583.289418,-0.16702195,0.055003207,0.022318374,0.8985821,1.4854704,-1.6372703
143,1778621583.2994192,-0.16702195,0.055003207,0.022318374,0.8985821,1.4854704,-1.6372703
144,1778621583.3094203,-0.16702195,0.055003207,0.022318374,0.8985821,1.4854704,-1.6372703
145,1778621583.3194222,-0.16702195,0.055003207,0.022318374,0.8985821,1.4854704,-1.6372703
146,1778621583.329424,-0.16702195,0.055003207,0.022318374,0.8985821,1.4854704,-1.6372703
147,1778621583.3394256,-0.16702195,0.055003207,0.022318374,0.8985821,1.4854704,-1.6372703
148,1778621583.3494277,-0.16702195,0.055003207,0.022318374,0.21868959,1.2289072,-1.3935353
149,1778621583.3594306,-0.16702195,0.055003207,0.022318374,0.21868959,1.2289072,-1.3935353
150,1778621583.3694322,-0.16702195,0.055003207,0.022318374,0.21868959,1.2289072,-1.3935353
151,1778621583.3794332,-0.16702195,0.055003207,0.022318374,0.21868959,1.2289072,-1.3935353
152,1778621583.3894336,-0.16702195,0.055003207,0.022318374,0.21868959,1.2289072,-1.3935353
153,1778621583.3994346,-0.31020102,0.07841921,-0.08037054,-0.08185588,0.96990055,-1.2347105
154,1778621583.409435,-0.31020102,0.07841921,-0.08037054,-0.08185588,0.96990055,-1.2347105
155,1778621583.419436,-0.31020102,0.07841921,-0.08037054,-0.08185588,0.96990055,-1.2347105
156,1778621583.429437,-0.31020102,0.07841921,-0.08037054,-0.08185588,0.96990055,-1.2347105
157,1778621583.4394376,-0.31020102,0.07841921,-0.08037054,-0.08185588,0.96990055,-1.2347105
158,1778621583.4494467,-0.31020102,0.07841921,-0.08037054,-0.08185588,0.96990055,-1.2347105
159,1778621583.4594507,-0.31020102,0.07841921,-0.08037054,-0.08185588,0.96990055,-1.2347105
160,1778621583.469461,-0.31020102,0.07841921,-0.08037054,-0.08185588,0.96990055,-1.2347105
161,1778621583.4794645,-0.31020102,0.07841921,-0.08037054,-0.08185588,0.96990055,-1.2347105
162,1778621583.489466,-0.40581635,0.07915096,-0.16257046,-0.1631009,0.8770491,-1.1907282
163,1778621583.499659,-0.40581635,0.07915096,-0.16257046,-0.29382595,0.6711877,-1.1113157
164,1778621583.5096607,-0.40581635,0.07915096,-0.16257046,-0.29382595,0.6711877,-1.1113157
165,1778621583.519662,-0.40581635,0.07915096,-0.16257046,-0.29382595,0.6711877,-1.1113157
166,1778621583.5296621,-0.40581635,0.07915096,-0.16257046,-0.29382595,0.6711877,-1.1113157
167,1778621583.539663,-0.40581635,0.07915096,-0.16257046,-0.29382595,0.6711877,-1.1113157
168,1778621583.549669,-0.40581635,0.07915096,-0.16257046,-0.29382595,0.6711877,-1.1113157
169,1778621583.5596716,-0.40581635,0.07915096,-0.16257046,-0.29382595,0.6711877,-1.1113157
170,1778621583.5696723,-0.40581635,0.07915096,-0.16257046,-0.29382595,0.6711877,-1.1113157
171,1778621583.5796826,-0.40581635,0.07915096,-0.16257046,-0.4007273,0.40485063,-1.0490075
172,1778621583.589685,-0.40581635,0.07915096,-0.16257046,-0.4007273,0.40485063,-1.0490075
173,1778621583.5996876,-0.55216634,-0.26233238,-0.6462572,-0.650571,-0.27992877,-0.9329432
174,1778621583.6096892,-0.55216634,-0.26233238,-0.6462572,-0.650571,-0.27992877,-0.9329432
175,1778621583.6196897,-0.55216634,-0.26233238,-0.6462572,-0.650571,-0.27992877,-0.9329432
176,1778621583.6296902,-0.08287069,-0.59698606,-0.60747445,-2.2333217,-0.090560704,-0.67576915
177,1778621583.639691,-0.08287069,-0.59698606,-0.60747445,-2.2333217,-0.090560704,-0.67576915
178,1778621583.6496923,-0.08287069,-0.59698606,-0.60747445,-2.2333217,-0.090560704,-0.67576915
179,1778621583.6596937,-0.08287069,-0.59698606,-0.60747445,-2.2333217,-0.090560704,-0.67576915
180,1778621583.669695,-0.08287069,-0.59698606,-0.60747445,-2.2333217,-0.090560704,-0.67576915
181,1778621583.6796956,-0.08287069,-0.59698606,-0.60747445,-2.2333217,-0.090560704,-0.67576915
182,1778621583.6896963,-0.7207128,-3.4964235,0.12061679,-0.56443906,0.37675086,0.61437726
183,1778621583.6996968,-0.7207128,-3.4964235,0.12061679,-0.56443906,0.37675086,0.61437726
184,1778621583.7096977,-0.7207128,-3.4964235,0.12061679,-0.56443906,0.37675086,0.61437726
185,1778621583.7197034,-0.7207128,-3.4964235,0.12061679,-0.56443906,0.37675086,0.61437726
186,1778621583.7297056,-0.7207128,-3.4964235,0.12061679,-0.56443906,0.37675086,0.61437726
187,1778621583.7397063,-0.7207128,-3.4964235,0.12061679,-0.56443906,0.37675086,0.61437726
188,1778621583.749707,-0.7443727,-3.6693602,0.029148044,-0.56443906,0.37675086,0.61437726
189,1778621583.759708,-0.7443727,-3.6693602,0.029148044,-0.56443906,0.37675086,0.61437726
190,1778621583.7697086,-0.7443727,-3.6693602,0.029148044,-0.56443906,0.37675086,0.61437726
191,1778621583.7797093,-0.7443727,-3.6693602,0.029148044,-0.56443906,0.37675086,0.61437726
192,1778621583.7897103,-0.7482754,-4.6323433,-0.45966098,-0.07269291,0.56062114,1.0352631
193,1778621583.799712,-0.7482754,-4.6323433,-0.45966098,0.5326741,-0.1913534,0.84528416
194,1778621583.8097122,-0.7482754,-4.6323433,-0.45966098,0.5326741,-0.1913534,0.84528416
195,1778621583.819713,-0.7482754,-4.6323433,-0.45966098,0.5326741,-0.1913534,0.84528416
196,1778621583.8297217,-0.122629106,-2.7439406,-0.20989029,1.2864813,0.37858346,0.56245375
197,1778621583.839725,-0.122629106,-2.7439406,-0.20989029,1.2864813,0.37858346,0.56245375
198,1778621583.8497262,-0.122629106,-2.7439406,-0.20989029,1.2864813,0.37858346,0.56245375
199,1778621583.859727,-0.122629106,-2.7439406,-0.20989029,1.2864813,0.37858346,0.56245375
200,1778621583.8697283,-0.122629106,-2.7439406,-0.20989029,1.2168427,0.25641048,0.6827941
201,1778621583.8797307,-0.122629106,-2.7439406,-0.20989029,1.2168427,0.25641048,0.6827941
202,1778621583.889732,-0.122629106,-2.7439406,-0.20989029,1.2168427,0.25641048,0.6827941
203,1778621583.8997328,-0.19970676,-2.637349,-0.5067369,1.2168427,0.25641048,0.6827941
204,1778621583.9097335,-0.19970676,-2.637349,-0.5067369,1.2168427,0.25641048,0.6827941
205,1778621583.919734,-0.19970676,-2.637349,-0.5067369,1.2168427,0.25641048,0.6827941
206,1778621583.9297347,-0.21458568,-0.5682039,-0.18964522,0.44532043,-0.6867647,0.9112575
207,1778621583.9397357,-0.21458568,-0.5682039,-0.18964522,0.44532043,-0.6867647,0.9112575
208,1778621583.949736,-0.21458568,-0.5682039,-0.18964522,0.44532043,-0.6867647,0.9112575
209,1778621583.9597366,-0.17799819,-0.32989728,-0.19184047,0.4544834,-0.6806561,0.95585066
210,1778621583.9698718,-0.19287711,-0.38916904,-0.18696213,0.4544834,-0.6806561,0.95585066
211,1778621583.9798734,-0.19287711,-0.38916904,-0.18696213,0.4544834,-0.6806561,0.95585066
212,1778621583.9898748,-0.19287711,-0.38916904,-0.18696213,0.4544834,-0.6806561,0.95585066
213,1778621583.999876,-0.19287711,-0.38916904,-0.18696213,0.4544834,-0.6806561,0.95585066
214,1778621584.0098767,-0.19287711,-0.38916904,-0.18696213,0.4544834,-0.6806561,0.95585066
215,1778621584.0198774,-0.19287711,-0.38916904,-0.18696213,0.4544834,-0.6806561,0.95585066
216,1778621584.029878,-0.19287711,-0.38916904,-0.18696213,0.4544834,-0.6806561,0.95585066
217,1778621584.039879,-0.14360595,-0.19037697,-0.17720546,0.46120292,-0.6684388,1.1232276
218,1778621584.04988,-0.14360595,-0.19037697,-0.17720546,0.46120292,-0.6684388,1.1232276
219,1778621584.0598803,-0.14360595,-0.19037697,-0.17720546,0.46120292,-0.6684388,1.1232276
220,1778621584.0698812,-0.14360595,-0.19037697,-0.17720546,0.456316,-0.6678279,1.1855358
221,1778621584.0801206,-0.022379354,0.11012838,-0.17257105,0.39645123,-0.7191406,1.3999493
222,1778621584.0901215,-0.022379354,0.11012838,-0.17257105,0.39645123,-0.7191406,1.3999493
223,1778621584.1001225,0.022501312,0.25330746,-0.15647253,0.32192573,-0.8193224,1.5037963
224,1778621584.1110892,0.031770147,0.30306646,-0.15256988,0.2858847,-0.8553634,1.5318961
225,1778621584.1210911,0.031770147,0.30306646,-0.15256988,0.2858847,-0.8553634,1.5318961
226,1778621584.1310916,0.031770147,0.30306646,-0.15256988,0.2858847,-0.8553634,1.5318961
227,1778621584.1411018,0.031770147,0.30306646,-0.15256988,0.2858847,-0.8553634,1.5318961
228,1778621584.1511047,0.031770147,0.30306646,-0.15256988,0.2858847,-0.8553634,1.5318961
229,1778621584.1611056,0.031770147,0.30306646,-0.15256988,0.2858847,-0.8553634,1.5318961
230,1778621584.1711063,0.031770147,0.30306646,-0.15256988,0.2858847,-0.8553634,1.5318961
231,1778621584.1811073,0.05933273,0.41087765,-0.13427612,0.2858847,-0.8553634,1.5318961
232,1778621584.1911075,0.05933273,0.41087765,-0.13427612,0.2858847,-0.8553634,1.5318961
233,1778621584.2011101,0.05933273,0.41087765,-0.13427612,0.2858847,-0.8553634,1.5318961
234,1778621584.211112,0.05933273,0.41087765,-0.13427612,0.2858847,-0.8553634,1.5318961
235,1778621584.2211154,0.05933273,0.41087765,-0.13427612,0.2858847,-0.8553634,1.5318961
236,1778621584.2311168,0.05933273,0.41087765,-0.13427612,0.2858847,-0.8553634,1.5318961
237,1778621584.241118,0.11372615,0.58357066,-0.04451479,-0.3830122,-1.0435097,1.581987
238,1778621584.2517092,0.056649648,-0.17135146,-0.22720838,-1.3127484,-1.8944443,1.302211
239,1778621584.2617111,0.056649648,-0.17135146,-0.22720838,-1.3127484,-1.8944443,1.302211
240,1778621584.271712,0.056649648,-0.17135146,-0.22720838,-1.3127484,-1.8944443,1.302211
241,1778621584.2817125,0.056649648,-0.17135146,-0.22720838,-1.3127484,-1.8944443,1.302211
242,1778621584.2917135,0.056649648,-0.17135146,-0.22720838,-1.3127484,-1.8944443,1.302211
243,1778621584.3017142,0.28056514,-0.08256579,-0.33062905,0.28221953,-0.16997312,1.2331833
244,1778621584.311715,0.28056514,-0.08256579,-0.33062905,0.28221953,-0.16997312,1.2331833
245,1778621584.321715,0.28056514,-0.08256579,-0.33062905,0.28221953,-0.16997312,1.2331833
246,1778621584.3317182,0.28056514,-0.08256579,-0.33062905,0.14294235,-0.915839,0.90698147
247,1778621584.34172,0.28056514,-0.08256579,-0.33062905,0.14294235,-0.915839,0.90698147
248,1778621584.3517213,0.28056514,-0.08256579,-0.33062905,-0.037262753,-1.6085597,0.6339249
249,1778621584.3617222,0.28056514,-0.08256579,-0.33062905,-0.037262753,-1.6085597,0.6339249
250,1778621584.371723,0.28056514,-0.08256579,-0.33062905,-0.037262753,-1.6085597,0.6339249
251,1778621584.3817234,0.28056514,-0.08256579,-0.33062905,-0.037262753,-1.6085597,0.6339249
252,1778621584.3917272,0.28056514,-0.08256579,-0.33062905,-0.037262753,-1.6085597,0.6339249
253,1778621584.4017282,0.28056514,-0.08256579,-0.33062905,-0.037262753,-1.6085597,0.6339249
254,1778621584.4117286,0.28056514,-0.08256579,-0.33062905,-0.037262753,-1.6085597,0.6339249
255,1778621584.4217293,0.28056514,-0.08256579,-0.33062905,-0.037262753,-1.6085597,0.6339249
256,1778621584.4317305,0.03469715,-0.6579652,0.29428545,-3.5711155,-0.5902481,0.3028362
257,1778621584.441732,0.03469715,-0.6579652,0.29428545,-3.5711155,-0.5902481,0.3028362
258,1778621584.4517326,0.03469715,-0.6579652,0.29428545,-3.5711155,-0.5902481,0.3028362
259,1778621584.4621127,0.03469715,-0.6579652,0.29428545,-3.5711155,-0.5902481,0.3028362
260,1778621584.47212,0.03469715,-0.6579652,0.29428545,-3.22109,-0.24633121,0.32788166
261,1778621584.482123,0.03469715,-0.6579652,0.29428545,-3.22109,-0.24633121,0.32788166
262,1778621584.4921243,-0.12872702,-0.7269936,0.6277195,-3.22109,-0.24633121,0.32788166
263,1778621584.5021253,-0.12872702,-0.7269936,0.6277195,-3.22109,-0.24633121,0.32788166
264,1778621584.5121262,-0.12872702,-0.7269936,0.6277195,-3.22109,-0.24633121,0.32788166
265,1778621584.5221272,-0.26483253,-3.1256702,-1.3914226,0.61452997,4.33882,0.5074759
266,1778621584.5326474,-1.4514871,-2.6273484,-0.23623328,1.4795145,-2.8553348,-2.466214
267,1778621584.542649,-1.4514871,-2.6273484,-0.23623328,1.4795145,-2.8553348,-2.466214
268,1778621584.5526505,-1.4514871,-2.6273484,-0.23623328,1.4795145,-2.8553348,-2.466214
269,1778621584.5626533,-1.4514871,-2.6273484,-0.23623328,1.4795145,-2.8553348,-2.466214
270,1778621584.5726635,-1.4514871,-2.6273484,-0.23623328,1.4795145,-2.8553348,-2.466214
271,1778621584.5826683,-1.4514871,-2.6273484,-0.23623328,1.4795145,-2.8553348,-2.466214
272,1778621584.5926702,-1.4514871,-2.6273484,-0.23623328,1.4795145,-2.8553348,-2.466214
273,1778621584.6026711,-1.4514871,-2.6273484,-0.23623328,1.4795145,-2.8553348,-2.466214
274,1778621584.6126719,-1.4514871,-2.6273484,-0.23623328,1.4795145,-2.8553348,-2.466214
275,1778621584.6226726,-1.4514871,-2.6273484,-0.23623328,1.4795145,-2.8553348,-2.466214
276,1778621584.632673,-2.0054219,-2.1931767,-0.32965338,1.4795145,-2.8553348,-2.466214
277,1778621584.642674,-2.0054219,-2.1931767,-0.32965338,1.4795145,-2.8553348,-2.466214
278,1778621584.652675,-2.0054219,-2.1931767,-0.32965338,1.4795145,-2.8553348,-2.466214
279,1778621584.6626756,-1.8093129,-1.788519,-0.2376968,1.4795145,-2.8553348,-2.466214
280,1778621584.6727004,-1.8093129,-1.788519,-0.2376968,1.5534291,-0.8315397,-2.0306673
281,1778621584.682702,-1.8093129,-1.788519,-0.2376968,1.5534291,-0.8315397,-2.0306673
282,1778621584.692703,-1.8093129,-1.788519,-0.2376968,1.5534291,-0.8315397,-2.0306673
283,1778621584.7027037,-1.8093129,-1.788519,-0.2376968,1.5534291,-0.8315397,-2.0306673
284,1778621584.7127051,-1.8093129,-1.788519,-0.2376968,1.5534291,-0.8315397,-2.0306673
285,1778621584.722706,-1.4024599,-1.3667871,-0.06085721,1.1087196,-2.975675,-2.2010984
286,1778621584.7327068,-1.4024599,-1.3667871,-0.06085721,1.1087196,-2.975675,-2.2010984
287,1778621584.7427077,-1.4024599,-1.3667871,-0.06085721,1.1087196,-2.975675,-2.2010984
288,1778621584.752709,-1.4024599,-1.3667871,-0.06085721,1.1087196,-2.975675,-2.2010984
289,1778621584.76271,-1.4024599,-1.3667871,-0.06085721,1.1087196,-2.975675,-2.2010984
290,1778621584.7727108,-1.7266251,-1.6675363,-0.18330337,1.73058,1.9161301,-1.7521129
291,1778621584.7827113,-1.7266251,-1.6675363,-0.18330337,1.73058,1.9161301,-1.7521129
292,1778621584.7927115,-1.7266251,-1.6675363,-0.18330337,1.73058,1.9161301,-1.7521129
293,1778621584.8027127,-0.4370377,-0.6182068,0.10183521,1.833816,2.8250968,-1.4888302
294,1778621584.8127134,-0.4370377,-0.6182068,0.10183521,1.833816,2.8250968,-1.4888302
295,1778621584.822714,-0.4370377,-0.6182068,0.10183521,1.8289292,2.8831291,-1.4356849
296,1778621584.8327146,-0.3184942,-0.48234522,0.05793021,1.789223,2.8935137,-1.2780819
297,1778621584.8427155,-0.3184942,-0.48234522,0.05793021,1.789223,2.8935137,-1.2780819
298,1778621584.8527172,-0.29580995,-0.45600224,0.043783043,1.7562362,2.8629706,-1.2249366
299,1778621584.8627188,-0.29580995,-0.45600224,0.043783043,1.7562362,2.8629706,-1.2249366
300,1778621584.8727195,-0.29580995,-0.45600224,0.043783043,1.7562362,2.8629706,-1.2249366
301,1778621584.882721,-0.29580995,-0.45600224,0.043783043,1.6077961,2.7175846,-1.1149809
302,1778621584.8927221,-0.29580995,-0.45600224,0.043783043,1.6077961,2.7175846,-1.1149809
303,1778621584.9027228,-0.29580995,-0.45600224,0.043783043,1.6077961,2.7175846,-1.1149809
304,1778621584.9127238,-0.29580995,-0.45600224,0.043783043,1.6077961,2.7175846,-1.1149809
305,1778621584.9227247,-0.29580995,-0.45600224,0.043783043,1.6077961,2.7175846,-1.1149809
306,1778621584.9327252,-0.29580995,-0.45600224,0.043783043,1.6077961,2.7175846,-1.1149809
307,1778621584.942726,-0.29580995,-0.45600224,0.043783043,1.6077961,2.7175846,-1.1149809
308,1778621584.9527261,-0.29580995,-0.45600224,0.043783043,1.6077961,2.7175846,-1.1149809
309,1778621584.9627295,-0.29580995,-0.45600224,0.043783043,1.6077961,2.7175846,-1.1149809
310,1778621584.9727407,-0.20238985,-0.32160413,0.024757542,1.5503749,2.661385,-1.092379
311,1778621584.9829593,-0.20238985,-0.32160413,0.024757542,1.5503749,2.661385,-1.092379
312,1778621584.99296,-0.20238985,-0.32160413,0.024757542,1.5503749,2.661385,-1.092379
313,1778621585.0029614,-0.04408794,0.13744704,-0.029879792,0.813061,0.40362892,-1.1076505
314,1778621585.0129626,-0.04408794,0.13744704,-0.029879792,0.813061,0.40362892,-1.1076505
315,1778621585.0229635,-0.03140427,0.13939838,-0.026708877,0.813061,0.40362892,-1.1076505
316,1778621585.0329645,-0.03140427,0.13939838,-0.026708877,0.813061,0.40362892,-1.1076505
317,1778621585.0429652,-0.03140427,0.13939838,-0.026708877,0.813061,0.40362892,-1.1076505
318,1778621585.0529656,-0.03140427,0.13939838,-0.026708877,0.66095567,0.41034842,-1.0477858
319,1778621585.0629663,-0.03140427,0.13939838,-0.026708877,0.66095567,0.41034842,-1.0477858
320,1778621585.0729668,-0.03140427,0.13939838,-0.026708877,0.66095567,0.41034842,-1.0477858
321,1778621585.0829673,-0.03140427,0.13939838,-0.026708877,0.66095567,0.41034842,-1.0477858
322,1778621585.0929675,-0.03140427,0.13939838,-0.026708877,0.66095567,0.41034842,-1.0477858
323,1778621585.1029682,-0.03140427,0.13939838,-0.026708877,0.51556987,0.43722647,-1.028849
324,1778621585.1129692,0.118360564,0.16013129,-0.3755097,0.51556987,0.43722647,-1.028849
325,1778621585.12297,0.118360564,0.16013129,-0.3755097,0.51556987,0.43722647,-1.028849
326,1778621585.132971,0.118360564,0.16013129,-0.3755097,0.51556987,0.43722647,-1.028849
327,1778621585.142972,0.118360564,0.16013129,-0.3755097,0.2614501,0.43356127,-1.0587814
328,1778621585.1529727,0.118360564,0.16013129,-0.3755097,0.2614501,0.43356127,-1.0587814
329,1778621585.1629732,0.118360564,0.16013129,-0.3755097,0.2614501,0.43356127,-1.0587814
330,1778621585.172976,0.118360564,0.16013129,-0.3755097,0.2614501,0.43356127,-1.0587814
331,1778621585.1829777,0.118360564,0.16013129,-0.3755097,0.2614501,0.43356127,-1.0587814
332,1778621585.1929786,0.118360564,0.16013129,-0.3755097,0.2614501,0.43356127,-1.0587814
333,1778621585.2035363,0.118360564,0.16013129,-0.3755097,0.2614501,0.43356127,-1.0587814
334,1778621585.2135384,0.118360564,0.16013129,-0.3755097,0.2614501,0.43356127,-1.0587814
335,1778621585.2235389,0.118360564,0.16013129,-0.3755097,0.2614501,0.43356127,-1.0587814
336,1778621585.2335396,0.118360564,0.16013129,-0.3755097,0.2614501,0.43356127,-1.0587814
337,1778621585.2435398,0.118360564,0.16013129,-0.3755097,0.2614501,0.43356127,-1.0587814
338,1778621585.2535408,0.14714272,0.15696037,-0.42453694,0.2614501,0.43356127,-1.0587814
339,1778621585.2635417,0.14714272,0.15696037,-0.42453694,0.2614501,0.43356127,-1.0587814
340,1778621585.2735424,0.14714272,0.15696037,-0.42453694,0.2614501,0.43356127,-1.0587814
341,1778621585.283547,0.14714272,0.15696037,-0.42453694,0.2614501,0.43356127,-1.0587814
342,1778621585.293549,0.14714272,0.15696037,-0.42453694,0.2614501,0.43356127,-1.0587814
343,1778621585.30355,0.14714272,0.15696037,-0.42453694,0.2614501,0.43356127,-1.0587814
344,1778621585.3135512,0.20251182,0.10232304,-0.4721007,-0.45937032,0.24724752,-1.249982
345,1778621585.3235524,0.20251182,0.10232304,-0.4721007,-0.45937032,0.24724752,-1.249982
346,1778621585.3335528,0.20251182,0.10232304,-0.4721007,-0.45937032,0.24724752,-1.249982
347,1778621585.3435533,0.20251182,0.10232304,-0.4721007,-0.45937032,0.24724752,-1.249982
348,1778621585.3535542,0.20251182,0.10232304,-0.4721007,-0.71226835,0.06093376,-1.3892592
349,1778621585.3635573,0.20251182,0.10232304,-0.4721007,-0.71226835,0.06093376,-1.3892592
350,1778621585.373559,0.20251182,0.10232304,-0.4721007,-0.71226835,0.06093376,-1.3892592
351,1778621585.3835602,0.19787739,0.107201375,-0.35867947,-0.6377428,-0.006261364,-1.4753911
352,1778621585.393563,0.20543882,0.117933705,-0.31745756,-0.48319405,0.016340632,-1.5364777
353,1778621585.4035668,0.20543882,0.117933705,-0.31745756,-0.48319405,0.016340632,-1.5364777
354,1778621585.413575,0.20543882,0.117933705,-0.31745756,-0.48319405,0.016340632,-1.5364777
355,1778621585.4235759,0.20543882,0.117933705,-0.31745756,-0.48319405,0.016340632,-1.5364777
356,1778621585.4335768,0.20543882,0.117933705,-0.31745756,-0.48319405,0.016340632,-1.5364777
357,1778621585.4435775,0.20543882,0.117933705,-0.31745756,-0.48319405,0.016340632,-1.5364777
358,1778621585.453578,0.20543882,0.117933705,-0.31745756,-0.48319405,0.016340632,-1.5364777
359,1778621585.4635785,0.20543882,0.117933705,-0.31745756,-0.12767074,0.1660025,-1.6543745
360,1778621585.4735794,0.20543882,0.117933705,-0.31745756,-0.12767074,0.1660025,-1.6543745
361,1778621585.4835804,0.20543882,0.117933705,-0.31745756,-0.12767074,0.1660025,-1.6543745
362,1778621585.4935815,0.20543882,0.117933705,-0.31745756,-0.12767074,0.1660025,-1.6543745
363,1778621585.5035825,0.20543882,0.117933705,-0.31745756,-0.12767074,0.1660025,-1.6543745
364,1778621585.5135834,0.20543882,0.117933705,-0.31745756,-0.12767074,0.1660025,-1.6543745
365,1778621585.5235848,0.20202398,0.1823277,-0.19452354,0.005497783,0.2509127,-1.6965243
366,1778621585.533591,0.20202398,0.1823277,-0.19452354,0.005497783,0.2509127,-1.6965243
367,1778621585.5435934,0.20202398,0.1823277,-0.19452354,0.005497783,0.2509127,-1.6965243
368,1778621585.553594,0.20202398,0.1823277,-0.19452354,0.005497783,0.2509127,-1.6965243
369,1778621585.5635953,0.20202398,0.1823277,-0.19452354,0.005497783,0.2509127,-1.6965243
370,1778621585.573596,0.20202398,0.1823277,-0.19452354,0.005497783,0.2509127,-1.6965243
371,1778621585.5835974,0.20202398,0.1823277,-0.19452354,0.005497783,0.2509127,-1.6965243
372,1778621585.593598,0.20202398,0.1823277,-0.19452354,0.005497783,0.2509127,-1.6965243
373,1778621585.6035986,0.20202398,0.1823277,-0.19452354,0.005497783,0.2509127,-1.6965243
374,1778621585.6135993,0.20202398,0.1823277,-0.19452354,0.005497783,0.2509127,-1.6965243
375,1778621585.6236007,0.20202398,0.1823277,-0.19452354,0.005497783,0.2509127,-1.6965243
376,1778621585.6336021,0.10031073,0.21842737,-0.050124876,0.3836231,0.6058251,-1.7643301
377,1778621585.643603,0.10031073,0.21842737,-0.050124876,0.49480048,0.74326974,-1.7545564
378,1778621585.6536043,0.10031073,0.21842737,-0.050124876,0.49480048,0.74326974,-1.7545564
379,1778621585.6636055,0.10031073,0.21842737,-0.050124876,0.49480048,0.74326974,-1.7545564
380,1778621585.6736064,0.08762706,-0.13549572,-0.09793254,0.36468628,1.9515603,-1.006247
381,1778621585.6836066,0.08762706,-0.13549572,-0.09793254,0.36468628,1.9515603,-1.006247
382,1778621585.6936073,0.17665665,-0.20086539,-0.065491624,0.26511532,-1.3312271,-1.2127193
383,1778621585.7037454,0.21056107,-0.2172078,-0.24086772,0.26511532,-1.3312271,-1.2127193
384,1778621585.713746,0.21056107,-0.2172078,-0.24086772,0.26511532,-1.3312271,-1.2127193
385,1778621585.7237484,-0.5780215,-1.5077709,-0.92700535,-2.9321508,-0.25610507,-1.0459533
386,1778621585.7340465,-0.7882777,-1.8160816,-1.021889,-2.0580034,-3.4161086,0.062155493
387,1778621585.744051,-0.7882777,-1.8160816,-1.021889,-2.0580034,-3.4161086,0.062155493
388,1778621585.7540522,-0.7882777,-1.8160816,-1.021889,-2.0580034,-3.4161086,0.062155493
389,1778621585.764053,-0.7882777,-1.8160816,-1.021889,-2.0580034,-3.4161086,0.062155493
390,1778621585.7740538,-0.8073032,-1.8094957,-0.8291947,-2.0580034,-3.4161086,0.062155493
391,1778621585.7840545,-0.8073032,-1.8094957,-0.8291947,-1.9077307,-3.8724246,0.60887945
392,1778621585.7940552,-0.8073032,-1.8094957,-0.8291947,-1.9077307,-3.8724246,0.60887945
393,1778621585.8040562,-0.8073032,-1.8094957,-0.8291947,-1.9077307,-3.8724246,0.60887945
394,1778621585.814057,-0.8073032,-1.8094957,-0.8291947,-2.0451753,-3.7581928,0.21364996
395,1778621585.824058,-0.8073032,-1.8094957,-0.8291947,-2.0451753,-3.7581928,0.21364996
396,1778621585.8340585,-0.8073032,-1.8094957,-0.8291947,-2.0451753,-3.7581928,0.21364996
397,1778621585.8443825,-0.8073032,-1.8094957,-0.8291947,-2.0451753,-3.7581928,0.21364996
398,1778621585.854385,-0.8073032,-1.8094957,-0.8291947,-2.0451753,-3.7581928,0.21364996
399,1778621585.8643863,-0.91730964,-1.9036475,0.9040772,-1.1227695,-1.8235841,0.89354247
400,1778621585.8743958,-1.1668364,-2.508805,1.0972592,-0.71165746,0.7628174,1.1061234
401,1778621585.8844013,-1.1668364,-2.508805,1.0972592,-0.71165746,0.7628174,1.1061234
402,1778621585.8944137,-1.0912222,-3.8976665,0.1589117,0.2046397,3.0896013,0.6717985
403,1778621585.9044147,-1.0912222,-3.8976665,0.1589117,0.2046397,3.0896013,0.6717985
404,1778621585.9144151,-1.0912222,-3.8976665,0.1589117,0.2046397,3.0896013,0.6717985
405,1778621585.924418,-1.0912222,-3.8976665,0.1589117,0.2046397,3.0896013,0.6717985
406,1778621585.9345,-1.0912222,-3.8976665,0.1589117,0.2046397,3.0896013,0.6717985
407,1778621585.944501,-1.0912222,-3.8976665,0.1589117,0.2046397,3.0896013,0.6717985
408,1778621585.95451,-0.6141212,-1.8899884,-0.60674274,1.1276563,0.48059785,0.8165735
409,1778621585.964513,-0.6141212,-1.8899884,-0.60674274,1.1276563,0.48059785,0.8165735
410,1778621585.9745147,0.1349469,-0.25867364,-0.102566965,0.16065744,-0.9402736,1.8855869
411,1778621585.9845235,0.1349469,-0.25867364,-0.102566965,0.16065744,-0.9402736,1.8855869
412,1778621585.9945266,0.1349469,-0.25867364,-0.102566965,0.16065744,-0.9402736,1.8855869
413,1778621586.0045273,0.33373898,0.37331447,0.013781292,0.3781253,-0.39843655,1.6168064
414,1778621586.0145285,0.33373898,0.37331447,0.013781292,0.3781253,-0.39843655,1.6168064
415,1778621586.0245297,0.33373898,0.37331447,0.013781292,0.3781253,-0.39843655,1.6168064
416,1778621586.0345306,0.33373898,0.37331447,0.013781292,0.3781253,-0.39843655,1.6168064
417,1778621586.044531,0.33373898,0.37331447,0.013781292,0.3781253,-0.39843655,1.6168064
418,1778621586.0545318,0.3352025,0.4601488,0.01597654,0.28405213,-0.19929464,1.5520546
419,1778621586.0645328,0.3352025,0.4601488,0.01597654,0.28405213,-0.19929464,1.5520546
420,1778621586.0745332,0.3352025,0.4601488,0.01597654,0.28405213,-0.19929464,1.5520546
421,1778621586.084534,0.3352025,0.4601488,0.01597654,0.16737695,-0.003817905,1.4989095
422,1778621586.0945349,0.3352025,0.4601488,0.01597654,0.16737695,-0.003817905,1.4989095
423,1778621586.1045353,0.3352025,0.4601488,0.01597654,0.16737695,-0.003817905,1.4989095
424,1778621586.1145363,0.31251824,0.5216158,0.023050126,0.16737695,-0.003817905,1.4989095
425,1778621586.1245368,0.31251824,0.5216158,0.023050126,0.16737695,-0.003817905,1.4989095
426,1778621586.1345382,0.31251824,0.5216158,0.023050126,0.16737695,-0.003817905,1.4989095
427,1778621586.1445432,0.31251824,0.5216158,0.023050126,0.16737695,-0.003817905,1.4989095
428,1778621586.1545444,0.31251824,0.5216158,0.023050126,0.16737695,-0.003817905,1.4989095
429,1778621586.1645453,0.29715148,0.5279576,0.026708877,-0.103236146,0.44089165,1.3852886
430,1778621586.174546,0.27275982,0.5225915,0.013537374,-0.103236146,0.44089165,1.3852886
431,1778621586.1845462,0.27275982,0.5225915,0.013537374,-0.103236146,0.44089165,1.3852886
432,1778621586.194547,0.27275982,0.5225915,0.013537374,-0.103236146,0.44089165,1.3852886
433,1778621586.2045488,0.27275982,0.5225915,0.013537374,-0.14110976,0.4989238,1.3700169
434,1778621586.21455,0.27275982,0.5225915,0.013537374,-0.14110976,0.4989238,1.3700169
435,1778621586.224551,0.27275982,0.5225915,0.013537374,-0.14110976,0.4989238,1.3700169
436,1778621586.234552,0.27275982,0.5225915,0.013537374,-0.14110976,0.4989238,1.3700169
437,1778621586.2445526,0.27275982,0.5225915,0.013537374,-0.14110976,0.4989238,1.3700169
438,1778621586.254555,0.27275982,0.5225915,0.013537374,-0.14110976,0.4989238,1.3700169
439,1778621586.2645566,0.27275982,0.5225915,0.013537374,-0.14110976,0.4989238,1.3700169
440,1778621586.2745574,0.27275982,0.5225915,0.013537374,-0.23640467,0.59421873,1.3315325
441,1778621586.284558,0.27275982,0.5225915,0.013537374,-0.23640467,0.59421873,1.3315325
442,1778621586.2945583,0.27275982,0.5225915,0.013537374,-0.23640467,0.59421873,1.3315325
443,1778621586.304559,0.2300744,0.50332206,-0.02426971,-0.23640467,0.59421873,1.3315325
444,1778621586.3145602,0.2300744,0.50332206,-0.02426971,-0.23640467,0.59421873,1.3315325
445,1778621586.3245609,0.2300744,0.50332206,-0.02426971,-0.23640467,0.59421873,1.3315325
446,1778621586.3345616,0.21080498,0.4896627,-0.04085604,-0.36163196,0.51053023,1.3315325
447,1778621586.3445625,0.21080498,0.4896627,-0.04085604,-0.36163196,0.51053023,1.3315325
448,1778621586.3545628,0.21080498,0.4896627,-0.04085604,-0.36163196,0.51053023,1.3315325
449,1778621586.3645635,0.110311314,0.3706314,-0.17159538,-0.9474513,-0.43447757,1.5392265
450,1778621586.3745642,0.110311314,0.3706314,-0.17159538,-0.9474513,-0.43447757,1.5392265
451,1778621586.3845646,0.110311314,0.3706314,-0.17159538,-0.9474513,-0.43447757,1.5392265
452,1778621586.3945663,0.08250481,0.25599056,-0.16354613,-0.9474513,-0.43447757,1.5392265
453,1778621586.4045677,0.08250481,0.25599056,-0.16354613,-0.9474513,-0.43447757,1.5392265
454,1778621586.4145687,0.08250481,0.25599056,-0.16354613,-0.9474513,-0.43447757,1.5392265
455,1778621586.4245694,0.08250481,0.25599056,-0.16354613,-1.2730422,-0.7014255,1.6833906
456,1778621586.43457,0.08250481,0.25599056,-0.16354613,-1.2730422,-0.7014255,1.6833906
457,1778621586.4445736,0.08250481,0.25599056,-0.16354613,-1.2730422,-0.7014255,1.6833906
458,1778621586.4545877,0.042258564,0.12549512,-0.22062263,-1.4782928,-0.7722858,1.7786856
459,1778621586.4645898,0.042258564,0.12549512,-0.22062263,-1.4782928,-0.7722858,1.7786856
460,1778621586.4745903,0.042258564,0.12549512,-0.22062263,-1.4782928,-0.7722858,1.7786856
461,1778621586.484866,-0.015549688,-0.0123177925,-0.33623913,-1.5931354,-0.7948878,1.8452698
462,1778621586.4948685,-0.015549688,-0.0123177925,-0.33623913,-1.5931354,-0.7948878,1.8452698
463,1778621586.5048695,-0.015549688,-0.0123177925,-0.33623913,-1.5931354,-0.7948878,1.8452698
464,1778621586.51487,-0.015549688,-0.0123177925,-0.33623913,-1.5931354,-0.7948878,1.8452698
465,1778621586.5248704,-0.015549688,-0.0123177925,-0.33623913,-1.5931354,-0.7948878,1.8452698
466,1778621586.534871,-0.015549688,-0.0123177925,-0.33623913,-1.5931354,-0.7948878,1.8452698
467,1778621586.544872,-0.015549688,-0.0123177925,-0.33623913,-1.5931354,-0.7948878,1.8452698
468,1778621586.554873,-0.015549688,-0.0123177925,-0.33623913,-1.5931354,-0.7948878,1.8452698
469,1778621586.5648735,-0.015549688,-0.0123177925,-0.33623913,-1.5931354,-0.7948878,1.8452698
470,1778621586.5748742,-0.015549688,-0.0123177925,-0.33623913,-1.5931354,-0.7948878,1.8452698
471,1778621586.584875,-0.015549688,-0.0123177925,-0.33623913,-1.5931354,-0.7948878,1.8452698
472,1778621586.5948758,-0.07360186,-0.122324206,-0.44697732,-1.5931354,-0.7948878,1.8452698
473,1778621586.6048763,-0.07360186,-0.122324206,-0.44697732,-1.5931354,-0.7948878,1.8452698
474,1778621586.6148767,-0.07360186,-0.122324206,-0.44697732,-1.3439025,-0.6214022,1.7725769
475,1778621586.6248784,-0.07360186,-0.122324206,-0.44697732,-1.3439025,-0.6214022,1.7725769
476,1778621586.6348796,-0.07360186,-0.122324206,-0.44697732,-1.3439025,-0.6214022,1.7725769
477,1778621586.644881,-0.07360186,-0.122324206,-0.44697732,-1.3439025,-0.6214022,1.7725769
478,1778621586.6548812,-0.07360186,-0.122324206,-0.44697732,-1.3439025,-0.6214022,1.7725769
479,1778621586.6648817,-0.08189502,-0.21306121,-0.46966153,-1.3439025,-0.6214022,1.7725769
480,1778621586.674883,-0.08189502,-0.21306121,-0.46966153,-1.3439025,-0.6214022,1.7725769
481,1778621586.6848834,-0.08189502,-0.21306121,-0.46966153,-1.3439025,-0.6214022,1.7725769
482,1778621586.6948838,-0.08384635,-0.13598356,-0.47966215,-1.1594213,-0.5401572,1.7243185
483,1778621586.7048845,0.7022971,-0.09573729,0.05573496,0.05864302,-1.7594433,1.2521201
484,1778621586.7148852,0.7022971,-0.09573729,0.05573496,0.05864302,-1.7594433,1.2521201
485,1778621586.7248857,0.7022971,-0.09573729,0.05573496,0.05864302,-1.7594433,1.2521201
486,1778621586.7348876,0.661563,-0.1235438,0.028904125,-0.0048869182,-2.149175,1.0297652
487,1778621586.7448905,0.661563,-0.1235438,0.028904125,-0.0048869182,-2.149175,1.0297652
488,1778621586.754892,0.14689882,-0.17232713,0.013781292,-1.8490877,0.6864593,-0.7313579
489,1778621586.7648942,0.14689882,-0.17232713,0.013781292,-1.8490877,0.6864593,-0.7313579
490,1778621586.7748961,0.14689882,-0.17232713,0.013781292,-1.8490877,0.6864593,-0.7313579
491,1778621586.7848988,0.14689882,-0.17232713,0.013781292,-1.8490877,0.6864593,-0.7313579
492,1778621586.7949004,0.14689882,-0.17232713,0.013781292,-1.8490877,0.6864593,-0.7313579
493,1778621586.8049018,0.04664906,-0.29379764,-0.2842849,-2.1221442,1.0022764,-0.74052083
494,1778621586.814903,0.04664906,-0.29379764,-0.2842849,-2.1221442,1.0022764,-0.74052083
495,1778621586.8249037,0.04664906,-0.29379764,-0.2842849,-2.1221442,1.0022764,-0.74052083
496,1778621586.834905,0.04664906,-0.29379764,-0.2842849,-3.1655014,2.0034838,-0.7863357
497,1778621586.844906,0.04664906,-0.29379764,-0.2842849,-3.1655014,2.0034838,-0.7863357
498,1778621586.8549066,0.04664906,-0.29379764,-0.2842849,-3.1655014,2.0034838,-0.7863357
499,1778621586.8649077,-0.27458918,-0.6955284,-1.2572684,-3.8087418,2.41765,-0.80771595
500,1778621586.8749082,-0.27458918,-0.6955284,-1.2572684,-3.8087418,2.41765,-0.80771595
501,1778621586.884909,-0.27458918,-0.6955284,-1.2572684,-3.8087418,2.41765,-0.80771595
502,1778621586.89491,-0.6019254,-0.95651925,-1.3750802,-3.8087418,2.41765,-0.80771595
503,1778621586.9049113,-0.6019254,-0.95651925,-1.3750802,-3.8087418,2.41765,-0.80771595
504,1778621586.9149117,-0.6019254,-0.95651925,-1.3750802,-3.8087418,2.41765,-0.80771595
505,1778621586.9249125,-0.6019254,-0.95651925,-1.3750802,-4.0420923,2.3119705,-0.7637337
506,1778621586.935044,-0.6019254,-0.95651925,-1.3750802,-4.0420923,2.3119705,-0.7637337
507,1778621586.9450448,-0.6019254,-0.95651925,-1.3750802,-4.0420923,2.3119705,-0.7637337
508,1778621586.9550455,-0.6019254,-0.95651925,-1.3750802,-4.0420923,2.3119705,-0.7637337
509,1778621586.9650462,-0.6019254,-0.95651925,-1.3750802,-4.0420923,2.3119705,-0.7637337
510,1778621586.9750464,-0.6019254,-0.95651925,-1.3750802,-4.0420923,2.3119705,-0.7637337
511,1778621586.9850473,-0.6019254,-0.95651925,-1.3750802,-3.682293,1.6461278,-0.7063124
512,1778621586.995048,-0.6019254,-0.95651925,-1.3750802,-3.682293,1.6461278,-0.7063124
513,1778621587.0050485,-0.92706627,-1.1165286,-0.59991306,-2.3011277,0.45799586,-0.85780686
514,1778621587.0150497,-2.0683522,-1.7785183,0.21940304,-1.7171409,-1.0844377,-1.3416117
515,1778621587.0250502,-2.0683522,-1.7785183,0.21940304,-1.7171409,-1.0844377,-1.3416117
516,1778621587.035051,-2.0683522,-1.7785183,0.21940304,-1.7171409,-1.0844377,-1.3416117
517,1778621587.045052,-3.6355171,-3.2898264,-2.4248977,-1.7171409,-1.0844377,-1.3416117
518,1778621587.0550528,-3.6355171,-3.2898264,-2.4248977,-1.7171409,-1.0844377,-1.3416117
519,1778621587.0650537,-3.6355171,-3.2898264,-2.4248977,-1.7171409,-1.0844377,-1.3416117
520,1778621587.0750542,-3.6355171,-3.2898264,-2.4248977,-1.7171409,-1.0844377,-1.3416117
521,1778621587.0850577,-4.0794454,-4.5647783,-1.1436033,-2.304793,-2.2145376,-1.033125
522,1778621587.0950758,-4.0794454,-4.5647783,-1.1436033,-2.304793,-2.2145376,-1.033125
523,1778621587.1050763,-4.0794454,-4.5647783,-1.1436033,-2.304793,-2.2145376,-1.033125
524,1778621587.1150777,-4.0794454,-4.5647783,-1.1436033,-3.9419105,-5.0593348,0.89170986
525,1778621587.1250787,-4.0794454,-4.5647783,-1.1436033,-3.9419105,-5.0593348,0.89170986
526,1778621587.1350796,-4.0794454,-4.5647783,-1.1436033,-3.9419105,-5.0593348,0.89170986
527,1778621587.1450808,-4.0794454,-4.5647783,-1.1436033,-3.9419105,-5.0593348,0.89170986
528,1778621587.1550825,-4.0794454,-4.5647783,-1.1436033,-3.9419105,-5.0593348,0.89170986
529,1778621587.1650836,-4.0794454,-4.5647783,-1.1436033,-3.9419105,-5.0593348,0.89170986
530,1778621587.1750844,-4.0794454,-4.5647783,-1.1436033,-3.9419105,-5.0593348,0.89170986
531,1778621587.185086,-4.0794454,-4.5647783,-1.1436033,-3.9419105,-5.0593348,0.89170986
532,1778621587.1950872,-4.0794454,-4.5647783,-1.1436033,-3.9419105,-5.0593348,0.89170986
533,1778621587.2050889,-4.016271,-4.6581984,-0.68772304,-3.9003716,-5.1198106,1.3119848
534,1778621587.21509,-4.016271,-4.6581984,-0.68772304,-3.9003716,-5.1198106,1.3119848
535,1778621587.2250912,-4.016271,-4.6581984,-0.68772304,-3.9003716,-5.1198106,1.3119848
536,1778621587.2350929,-4.016271,-4.6581984,-0.68772304,-3.9003716,-5.1198106,1.3119848
537,1778621587.2450943,-4.016271,-4.6581984,-0.68772304,-3.9003716,-5.1198106,1.3119848
538,1778621587.2550952,-4.016271,-4.6581984,-0.68772304,-3.9003716,-5.1198106,1.3119848
539,1778621587.2651057,-4.016271,-4.6581984,-0.68772304,-3.9003716,-5.1198106,1.3119848
540,1778621587.2751093,-4.016271,-4.6581984,-0.68772304,-3.9003716,-5.1198106,1.3119848
541,1778621587.285111,-0.5699723,-1.6204604,-0.69089395,0.060475614,5.0370383,0.54351693
542,1778621587.2953181,-0.4899676,-2.5566125,-0.36453345,1.6462805,-1.3300053,-1.4601195
543,1778621587.30532,-0.4899676,-2.5566125,-0.36453345,1.6462805,-1.3300053,-1.4601195
544,1778621587.3153212,-0.4899676,-2.5566125,-0.36453345,1.6462805,-1.3300053,-1.4601195
545,1778621587.3253217,-0.4899676,-2.5566125,-0.36453345,1.6462805,-1.3300053,-1.4601195
546,1778621587.3353224,-0.4899676,-2.5566125,-0.36453345,1.6462805,-1.3300053,-1.4601195
547,1778621587.345323,-0.4899676,-2.5566125,-0.36453345,1.6462805,-1.3300053,-1.4601195
548,1778621587.3553238,-0.4899676,-2.5566125,-0.36453345,1.6462805,-1.3300053,-1.4601195
549,1778621587.3653245,-0.4899676,-2.5566125,-0.36453345,1.6462805,-1.3300053,-1.4601195
550,1778621587.3753297,-1.077075,-2.2912314,-0.44600162,1.6462805,-1.3300053,-1.4601195
551,1778621587.3853319,-1.077075,-2.2912314,-0.44600162,1.6462805,-1.3300053,-1.4601195
552,1778621587.3953326,-0.3799612,-0.37355837,-0.038904708,2.0848815,1.975384,-1.2304344
553,1778621587.4053411,-0.19531627,-0.26330805,-0.11354321,1.924835,1.9063562,-1.1100941
554,1778621587.4153445,-0.19531627,-0.26330805,-0.11354321,1.924835,1.9063562,-1.1100941
555,1778621587.4253464,-0.19531627,-0.26330805,-0.11354321,1.924835,1.9063562,-1.1100941
556,1778621587.435537,-0.19531627,-0.26330805,-0.11354321,1.924835,1.9063562,-1.1100941
557,1778621587.4455378,-0.19531627,-0.26330805,-0.11354321,1.924835,1.9063562,-1.1100941
558,1778621587.4555383,-0.19531627,-0.26330805,-0.11354321,1.7916664,1.8324416,-1.0758855
559,1778621587.4655387,-0.19531627,-0.26330805,-0.11354321,1.7916664,1.8324416,-1.0758855
560,1778621587.4755394,-0.19531627,-0.26330805,-0.11354321,1.7916664,1.8324416,-1.0758855
561,1778621587.4855404,-0.15116736,-0.22647662,-0.13769096,1.7916664,1.8324416,-1.0758855
562,1778621587.495541,-0.15116736,-0.22647662,-0.13769096,1.7916664,1.8324416,-1.0758855
563,1778621587.505542,-0.103359684,-0.14452063,-0.14793546,1.6432263,1.7310381,-1.0428989
564,1778621587.515546,-0.07701669,-0.102810875,-0.16354613,1.6432263,1.7310381,-1.0428989
565,1778621587.525548,-0.07701669,-0.102810875,-0.16354613,1.6432263,1.7310381,-1.0428989
566,1778621587.535549,-0.07701669,-0.102810875,-0.16354613,1.6432263,1.7310381,-1.0428989
567,1778621587.5455496,-0.07701669,-0.102810875,-0.16354613,1.6432263,1.7310381,-1.0428989
568,1778621587.5555506,-0.07701669,-0.102810875,-0.16354613,1.6432263,1.7310381,-1.0428989
569,1778621587.5655513,-0.07701669,-0.102810875,-0.16354613,1.6432263,1.7310381,-1.0428989
570,1778621587.575552,-0.07701669,-0.102810875,-0.16354613,1.6432263,1.7310381,-1.0428989
571,1778621587.5855527,-0.07701669,-0.102810875,-0.16354613,1.6432263,1.7310381,-1.0428989
572,1778621587.5955536,0.07860215,0.18452296,-0.08646846,1.0225877,1.071915,-0.8981239
573,1778621587.605554,0.07860215,0.18452296,-0.08646846,1.0225877,1.071915,-0.8981239
574,1778621587.6155555,0.022989146,0.1425693,-0.1469598,1.0225877,1.071915,-0.8981239
575,1778621587.625557,0.022989146,0.1425693,-0.1469598,1.0225877,1.071915,-0.8981239
576,1778621587.635558,0.022989146,0.1425693,-0.1469598,1.0225877,1.071915,-0.8981239
577,1778621587.6455588,0.022989146,0.1425693,-0.1469598,0.8833105,0.89048815,-0.83764833
578,1778621587.655569,0.022989146,0.1425693,-0.1469598,0.8833105,0.89048815,-0.83764833
579,1778621587.6655722,0.022989146,0.1425693,-0.1469598,0.8833105,0.89048815,-0.83764833
580,1778621587.6755755,0.022989146,0.1425693,-0.1469598,0.8833105,0.89048815,-0.83764833
581,1778621587.6855848,0.022989146,0.1425693,-0.1469598,0.8833105,0.89048815,-0.83764833
582,1778621587.695588,0.022989146,0.1425693,-0.1469598,0.8833105,0.89048815,-0.83764833
583,1778621587.7056332,0.1627534,0.17866896,-0.10768921,0.6878337,0.67485285,-0.70509064
584,1778621587.7156343,0.1627534,0.17866896,-0.10768921,0.6878337,0.67485285,-0.70509064
585,1778621587.7256353,0.1627534,0.17866896,-0.10768921,0.6878337,0.67485285,-0.70509064
586,1778621587.7356362,0.1627534,0.17866896,-0.10768921,0.36468628,0.48059785,-0.6214022
587,1778621587.7456372,0.1627534,0.17866896,-0.10768921,0.36468628,0.48059785,-0.6214022
588,1778621587.7556381,0.1627534,0.17866896,-0.10768921,0.36468628,0.48059785,-0.6214022
589,1778621587.7656388,0.3234945,0.11573846,-0.16135088,0.40683594,0.75793046,-0.9445497
590,1778621587.7756393,0.3234945,0.11573846,-0.16135088,0.40683594,0.75793046,-0.9445497
591,1778621587.7856405,0.3234945,0.11573846,-0.16135088,0.7324269,0.7799216,-1.1369721
592,1778621587.7956417,0.3234945,0.11573846,-0.16135088,0.7324269,0.7799216,-1.1369721
593,1778621587.805644,0.3234945,0.11573846,-0.16135088,0.7324269,0.7799216,-1.1369721
594,1778621587.8156629,0.3234945,0.11573846,-0.16135088,0.7324269,0.7799216,-1.1369721
595,1778621587.825664,0.3234945,0.11573846,-0.16135088,0.7324269,0.7799216,-1.1369721
596,1778621587.835665,0.3234945,0.11573846,-0.16135088,0.7324269,0.7799216,-1.1369721
597,1778621587.8456657,0.3234945,0.11573846,-0.16135088,0.7324269,0.7799216,-1.1369721
598,1778621587.8556669,0.3234945,0.11573846,-0.16135088,0.7324269,0.7799216,-1.1369721
599,1778621587.8656685,0.3234945,0.11573846,-0.16135088,0.7324269,0.7799216,-1.1369721
600,1778621587.8756704,0.3234945,0.11573846,-0.16135088,0.7324269,0.7799216,-1.1369721
601,1778621587.8856723,0.3234945,0.11573846,-0.16135088,0.7324269,0.7799216,-1.1369721
602,1778621587.8956742,0.3234945,0.11573846,-0.16135088,0.7324269,0.7799216,-1.1369721
603,1778621587.9056754,0.3234945,0.11573846,-0.16135088,0.7324269,0.7799216,-1.1369721
604,1778621587.915677,0.3234945,0.11573846,-0.16135088,0.7324269,0.7799216,-1.1369721
605,1778621587.9256806,0.3234945,0.11573846,-0.16135088,0.7324269,0.7799216,-1.1369721
606,1778621587.9356813,0.3234945,0.11573846,-0.16135088,0.7324269,0.7799216,-1.1369721
607,1778621587.9456828,0.3234945,0.11573846,-0.16135088,0.7324269,0.7799216,-1.1369721
608,1778621587.9556835,0.3234945,0.11573846,-0.16135088,0.31642795,0.7469349,-0.8956805
609,1778621587.965845,0.3234945,0.11573846,-0.16135088,0.31642795,0.7469349,-0.8956805
610,1778621587.9758475,0.3234945,0.11573846,-0.16135088,0.31642795,0.7469349,-0.8956805
611,1778621587.9858487,0.45130682,0.1381788,-0.26355198,1.2938116,0.88499033,-1.5523602
612,1778621587.9958496,0.45130682,0.1381788,-0.26355198,1.2938116,0.88499033,-1.5523602
613,1778621588.00585,0.45130682,0.1381788,-0.26355198,1.2938116,0.88499033,-1.5523602
614,1778621588.0158534,0.45130682,0.1381788,-0.26355198,1.2938116,0.88499033,-1.5523602
615,1778621588.025855,0.45130682,0.1381788,-0.26355198,1.2938116,0.88499033,-1.5523602
616,1778621588.0358558,0.45130682,0.1381788,-0.26355198,1.2938116,0.88499033,-1.5523602
617,1778621588.045857,0.45130682,0.1381788,-0.26355198,1.2938116,0.88499033,-1.5523602
618,1778621588.0558574,0.45130682,0.1381788,-0.26355198,1.2938116,0.88499033,-1.5523602
619,1778621588.0658581,0.36935082,0.18086421,-0.25403923,1.5558726,0.70845044,-1.7692171
620,1778621588.0758684,0.36935082,0.18086421,-0.25403923,1.5558726,0.70845044,-1.7692171
621,1778621588.0858722,0.36935082,0.18086421,-0.25403923,1.5558726,0.70845044,-1.7692171
622,1778621588.0958738,0.36935082,0.18086421,-0.25403923,1.5558726,0.70845044,-1.7692171
623,1778621588.1058753,0.36935082,0.18086421,-0.25403923,1.4898992,0.60765773,-1.6995785
624,1778621588.115877,0.36935082,0.18086421,-0.25403923,1.4898992,0.60765773,-1.6995785
625,1778621588.1258783,0.36935082,0.18086421,-0.25403923,1.4898992,0.60765773,-1.6995785
626,1778621588.1358798,0.36935082,0.18086421,-0.25403923,1.4898992,0.60765773,-1.6995785
627,1778621588.1458805,0.17275399,0.050856624,-0.1733028,1.4898992,0.60765773,-1.6995785
628,1778621588.1558812,0.17275399,0.050856624,-0.1733028,1.4898992,0.60765773,-1.6995785
629,1778621588.165882,0.17275399,0.050856624,-0.1733028,1.4898992,0.60765773,-1.6995785
630,1778621588.1758835,0.17275399,0.050856624,-0.1733028,1.4898992,0.60765773,-1.6995785
631,1778621588.1858864,0.17275399,0.050856624,-0.1733028,1.4898992,0.60765773,-1.6995785
632,1778621588.1958883,0.17275399,0.050856624,-0.1733028,1.4898992,0.60765773,-1.6995785
633,1778621588.2058895,0.10835998,-0.023537958,-0.07207738,0.79290247,0.43722647,-1.3263402
634,1778621588.2158983,0.10835998,-0.023537958,-0.07207738,0.79290247,0.43722647,-1.3263402
635,1778621588.2259026,0.10835998,-0.023537958,-0.07207738,0.79290247,0.43722647,-1.3263402
636,1778621588.235904,0.10835998,-0.023537958,-0.07207738,0.79290247,0.43722647,-1.3263402
637,1778621588.245905,0.10835998,-0.023537958,-0.07207738,0.79290247,0.43722647,-1.3263402
638,1778621588.255906,0.10835998,-0.023537958,-0.07207738,0.79290247,0.43722647,-1.3263402
639,1778621588.2659073,0.10835998,-0.023537958,-0.07207738,0.79290247,0.43722647,-1.3263402
640,1778621588.275908,0.10835998,-0.023537958,-0.07207738,0.79290247,0.43722647,-1.3263402
641,1778621588.2859085,0.10835998,-0.023537958,-0.07207738,0.79290247,0.43722647,-1.3263402
642,1778621588.2960827,0.10835998,-0.023537958,-0.07207738,0.79290247,0.43722647,-1.3263402
643,1778621588.3060834,0.10835998,-0.023537958,-0.07207738,0.79290247,0.43722647,-1.3263402
644,1778621588.316084,0.10835998,-0.023537958,-0.07207738,0.79290247,0.43722647,-1.3263402
645,1778621588.3260849,0.10835998,-0.023537958,-0.07207738,0.79290247,0.43722647,-1.3263402
646,1778621588.336085,0.10835998,-0.023537958,-0.07207738,0.79290247,0.43722647,-1.3263402
647,1778621588.346086,0.10835998,-0.023537958,-0.07207738,0.79290247,0.43722647,-1.3263402
648,1778621588.3560867,0.10835998,-0.023537958,-0.07207738,0.79290247,0.43722647,-1.3263402
649,1778621588.3660874,0.10835998,-0.023537958,-0.07207738,0.79290247,0.43722647,-1.3263402
650,1778621588.3760884,0.10835998,-0.023537958,-0.07207738,0.79290247,0.43722647,-1.3263402
651,1778621588.3862886,0.10835998,-0.023537958,-0.07207738,0.79290247,0.43722647,-1.3263402
652,1778621588.396289,0.10909174,-0.061101127,-0.11232363,0.35796675,0.51175195,-1.2206606
653,1778621588.4062903,0.10909174,-0.061101127,-0.11232363,0.35796675,0.51175195,-1.2206606
654,1778621588.4162908,0.10909174,-0.061101127,-0.11232363,0.35796675,0.51175195,-1.2206606
655,1778621588.4262912,0.10909174,-0.061101127,-0.11232363,0.35796675,0.51175195,-1.2206606
656,1778621588.4362946,0.10909174,-0.061101127,-0.11232363,0.35796675,0.51175195,-1.2206606
657,1778621588.4462967,0.10909174,-0.061101127,-0.11232363,0.35796675,0.51175195,-1.2206606
658,1778621588.4562979,0.07689473,-0.13330047,-0.2394042,-0.17409647,0.26618433,-1.1901174
659,1778621588.466299,0.07689473,-0.13330047,-0.2394042,-0.17409647,0.26618433,-1.1901174
660,1778621588.4766617,0.07689473,-0.13330047,-0.2394042,-0.17409647,0.26618433,-1.1901174
661,1778621588.4866626,0.07689473,-0.13330047,-0.2394042,-0.17409647,0.26618433,-1.1901174
662,1778621588.4966633,0.07689473,-0.13330047,-0.2394042,-0.17409647,0.26618433,-1.1901174
663,1778621588.5066648,0.07689473,-0.13330047,-0.2394042,-0.17409647,0.26618433,-1.1901174
664,1778621588.5166657,0.07689473,-0.13330047,-0.2394042,-0.17409647,0.26618433,-1.1901174
665,1778621588.5266662,0.07689473,-0.13330047,-0.2394042,-0.17409647,0.26618433,-1.1901174
666,1778621588.5366673,0.053234816,-0.15769213,-0.33819047,-0.13988803,0.3376555,-1.1791217
667,1778621588.5466688,0.053234816,-0.15769213,-0.33819047,-0.13988803,0.3376555,-1.1791217
668,1778621588.5566697,0.053234816,-0.15769213,-0.33819047,-0.13988803,0.3376555,-1.1791217
669,1778621588.5668814,0.025184397,-0.17013188,-0.23452587,-0.13988803,0.3376555,-1.1791217
670,1778621588.5768833,0.025184397,-0.17013188,-0.23452587,-0.13988803,0.3376555,-1.1791217
671,1778621588.5868843,0.025184397,-0.17013188,-0.23452587,-0.13988803,0.3376555,-1.1791217
672,1778621588.5968854,0.025184397,-0.17013188,-0.23452587,-0.13988803,0.3376555,-1.1791217
673,1778621588.6068993,0.025184397,-0.17013188,-0.23452587,-0.13988803,0.3376555,-1.1791217
674,1778621588.6169076,0.025184397,-0.17013188,-0.23452587,-0.13988803,0.3376555,-1.1791217
675,1778621588.6269083,0.025184397,-0.17013188,-0.23452587,-0.2131918,-0.017867794,-1.2395973
676,1778621588.6369092,0.025184397,-0.17013188,-0.23452587,-0.2131918,-0.017867794,-1.2395973
677,1778621588.64691,0.025184397,-0.17013188,-0.23452587,-0.2131918,-0.017867794,-1.2395973
678,1778621588.6571803,0.026403978,-0.16110696,-0.09573729,-0.2131918,-0.017867794,-1.2395973
679,1778621588.6671813,0.026403978,-0.16110696,-0.09573729,-0.2131918,-0.017867794,-1.2395973
680,1778621588.677182,0.026403978,-0.16110696,-0.09573729,-0.2131918,-0.017867794,-1.2395973
681,1778621588.6871824,0.026403978,-0.16110696,-0.09573729,-0.07086031,-0.7967204,-1.4924954
682,1778621588.6971831,0.026403978,-0.16110696,-0.09573729,-0.07086031,-0.7967204,-1.4924954
683,1778621588.7071838,0.032501895,-0.15915562,-0.3781928,-0.07086031,-0.7967204,-1.4924954
684,1778621588.7171853,0.017379062,-0.16232654,-0.34282488,-0.11484258,-0.5920807,-1.3330597
685,1778621588.727186,0.017379062,-0.16232654,-0.34282488,-0.11484258,-0.5920807,-1.3330597
686,1778621588.7371871,0.10640865,-0.043539125,-0.09354204,-0.02932151,-0.8883501,-1.4161372
687,1778621588.7471893,0.10640865,-0.043539125,-0.09354204,-0.02932151,-0.8883501,-1.4161372
688,1778621588.7571907,0.10640865,-0.043539125,-0.09354204,-0.02932151,-0.8883501,-1.4161372
689,1778621588.7671924,0.10640865,-0.043539125,-0.09354204,0.017715078,0.47265664,-1.1711805
690,1778621588.7771947,0.10640865,-0.043539125,-0.09354204,0.017715078,0.47265664,-1.1711805
691,1778621588.7871964,0.10640865,-0.043539125,-0.09354204,0.017715078,0.47265664,-1.1711805
692,1778621588.7971973,-0.0031099375,-0.18403512,0.00085370836,-0.31337363,-0.26526803,-1.58046
693,1778621588.8071978,-0.0031099375,-0.18403512,0.00085370836,-0.31337363,-0.26526803,-1.58046
694,1778621588.8171988,-0.0031099375,-0.18403512,0.00085370836,-0.31337363,-0.26526803,-1.58046
695,1778621588.8272,-0.0031099375,-0.18403512,0.00085370836,-0.31337363,-0.26526803,-1.58046
696,1778621588.8372006,-0.0031099375,-0.18403512,0.00085370836,-0.31337363,-0.26526803,-1.58046
697,1778621588.8472018,-0.7204689,-1.6729026,0.17232713,-2.2803583,-3.1906996,0.059712034
698,1778621588.8572028,-0.7204689,-1.6729026,0.17232713,-2.2803583,-3.1906996,0.059712034
699,1778621588.8672035,-0.7204689,-1.6729026,0.17232713,-2.2803583,-3.1906996,0.059712034
700,1778621588.877204,-0.7204689,-1.6729026,0.17232713,-2.2803583,-3.1906996,0.059712034
701,1778621588.887205,-0.7204689,-1.6729026,0.17232713,-2.2803583,-3.1906996,0.059712034
702,1778621588.8972056,-0.7204689,-1.6729026,0.17232713,-2.2803583,-3.1906996,0.059712034
703,1778621588.907227,-0.7204689,-1.6729026,0.17232713,-2.2803583,-3.1906996,0.059712034
704,1778621588.9172277,-0.7204689,-1.6729026,0.17232713,-2.2803583,-3.1906996,0.059712034
705,1778621588.9272285,-0.7204689,-1.6729026,0.17232713,-2.2803583,-3.1906996,0.059712034
706,1778621588.937233,-0.93096894,-2.9283416,0.3781928,-1.7171409,-1.733787,0.22098033
707,1778621588.9472349,-0.93096894,-2.9283416,0.3781928,-1.7171409,-1.733787,0.22098033
708,1778621588.9572363,-0.93096894,-2.9283416,0.3781928,-1.7171409,-1.733787,0.22098033
709,1778621588.9672384,-0.93096894,-2.9283416,0.3781928,-1.7171409,-1.733787,0.22098033
710,1778621588.9772394,-0.93096894,-2.9283416,0.3781928,-1.7171409,-1.733787,0.22098033
711,1778621588.9872406,-0.93096894,-2.9283416,0.3781928,-1.1325433,-0.33063057,0.4488329
712,1778621588.9974365,-0.93096894,-2.9283416,0.3781928,-1.1325433,-0.33063057,0.4488329
713,1778621589.0074391,-0.93096894,-2.9283416,0.3781928,-1.1325433,-0.33063057,0.4488329
714,1778621589.0174403,-0.93096894,-2.9283416,0.3781928,-1.1325433,-0.33063057,0.4488329
715,1778621589.0274408,-0.93096894,-2.9283416,0.3781928,-1.1325433,-0.33063057,0.4488329
716,1778621589.0374424,-0.93096894,-2.9283416,0.3781928,-1.1325433,-0.33063057,0.4488329
717,1778621589.0474439,-0.7426653,-4.931629,-0.12281204,0.53145236,2.2948663,0.56428635
718,1778621589.0574446,-0.7426653,-4.931629,-0.12281204,0.53145236,2.2948663,0.56428635
719,1778621589.0674453,-0.7426653,-4.931629,-0.12281204,0.53145236,2.2948663,0.56428635
720,1778621589.0774462,-0.56680137,-5.110908,-0.17769329,0.53145236,2.2948663,0.56428635
721,1778621589.0874474,-0.56680137,-5.110908,-0.17769329,0.53145236,2.2948663,0.56428635
722,1778621589.097448,-0.56680137,-5.110908,-0.17769329,0.53145236,2.2948663,0.56428635
723,1778621589.107449,-0.56680137,-5.110908,-0.17769329,0.53145236,2.2948663,0.56428635
724,1778621589.1174498,-0.56680137,-5.110908,-0.17769329,0.53145236,2.2948663,0.56428635
725,1778621589.1274507,-0.56680137,-5.110908,-0.17769329,0.53145236,2.2948663,0.56428635
726,1778621589.137452,-0.56680137,-5.110908,-0.17769329,0.53145236,2.2948663,0.56428635
727,1778621589.1474528,-0.56680137,-5.110908,-0.17769329,0.53145236,2.2948663,0.56428635
728,1778621589.1574533,-0.56680137,-5.110908,-0.17769329,0.6878337,2.2258384,0.24785839
729,1778621589.1674538,-0.56680137,-5.110908,-0.17769329,0.6878337,2.2258384,0.24785839
730,1778621589.1774552,0.098603316,-5.420194,-0.22915971,0.75930494,1.9081888,-0.16142102
731,1778621589.187459,0.098603316,-5.420194,-0.22915971,0.75930494,1.9081888,-0.16142102
732,1778621589.197461,0.098603316,-5.420194,-0.22915971,0.75930494,1.9081888,-0.16142102
733,1778621589.207462,0.9759716,-4.6877127,-0.28550446,0.90102553,1.5386157,-0.35017824
734,1778621589.217463,0.9759716,-4.6877127,-0.28550446,0.90102553,1.5386157,-0.35017824
735,1778621589.2274637,0.9759716,-4.6877127,-0.28550446,0.90102553,1.5386157,-0.35017824
736,1778621589.2374647,0.9759716,-4.6877127,-0.28550446,1.0519092,1.2075269,-0.40882125
737,1778621589.2476292,0.9759716,-4.6877127,-0.28550446,1.0519092,1.2075269,-0.40882125
738,1778621589.2576296,0.9759716,-4.6877127,-0.28550446,1.0519092,1.2075269,-0.40882125
739,1778621589.2676303,1.045244,-4.290616,-0.3081887,1.0519092,1.2075269,-0.40882125
740,1778621589.2778153,0.7015653,-3.406906,-0.37160707,1.0519092,1.2075269,-0.40882125
741,1778621589.2878168,0.7015653,-3.406906,-0.37160707,1.0519092,1.2075269,-0.40882125
742,1778621589.2978172,0.7015653,-3.406906,-0.37160707,1.0519092,1.2075269,-0.40882125
743,1778621589.307818,0.7015653,-3.406906,-0.37160707,1.0519092,1.2075269,-0.40882125
744,1778621589.3178186,0.7015653,-3.406906,-0.37160707,1.0519092,1.2075269,-0.40882125
745,1778621589.3278198,0.40349916,-2.9961505,-0.37746105,1.2095122,0.56428635,-0.13454297
746,1778621589.3378208,0.40349916,-2.9961505,-0.37746105,1.2095122,0.56428635,-0.13454297
747,1778621589.3478215,0.40349916,-2.9961505,-0.37746105,1.2095122,0.56428635,-0.13454297
748,1778621589.3578222,0.40349916,-2.9961505,-0.37746105,1.2095122,0.56428635,-0.13454297
749,1778621589.367823,0.40349916,-2.9961505,-0.37746105,1.2095122,0.56428635,-0.13454297
750,1778621589.377824,0.40349916,-2.9961505,-0.37746105,1.2290599,0.3639227,0.056046844
751,1778621589.3878257,0.40349916,-2.9961505,-0.37746105,1.2290599,0.3639227,0.056046844
752,1778621589.3978262,0.40349916,-2.9961505,-0.37746105,1.2290599,0.3639227,0.056046844
753,1778621589.4078276,0.40349916,-2.9961505,-0.37746105,1.2290599,0.3639227,0.056046844
754,1778621589.4182065,0.40349916,-2.9961505,-0.37746105,1.2290599,0.3639227,0.056046844
755,1778621589.4282086,0.40349916,-2.9961505,-0.37746105,1.2290599,0.3639227,0.056046844
756,1778621589.4382093,0.09226148,-2.6712534,-0.40551147,1.2290599,0.3639227,0.056046844
757,1778621589.4482107,0.09226148,-2.6712534,-0.40551147,1.2290599,0.3639227,0.056046844
758,1778621589.4582114,0.09226148,-2.6712534,-0.40551147,1.2290599,0.3639227,0.056046844
759,1778621589.468213,0.09226148,-2.6712534,-0.40551147,1.2290599,0.3639227,0.056046844
760,1778621589.4782138,0.09226148,-2.6712534,-0.40551147,1.2290599,0.3639227,0.056046844
761,1778621589.4882166,0.09226148,-2.6712534,-0.40551147,1.2290599,0.3639227,0.056046844
762,1778621589.4982293,-0.56680137,-2.5153906,-0.4413672,1.0818415,-0.5884155,0.6705768
763,1778621589.5082307,-0.56680137,-2.5153906,-0.4413672,1.0818415,-0.5884155,0.6705768
764,1778621589.5184274,-0.56680137,-2.5153906,-0.4413672,1.0818415,-0.5884155,0.6705768
765,1778621589.5284278,-0.56680137,-2.5153906,-0.4413672,1.0818415,-0.5884155,0.6705768
766,1778621589.5384288,-0.56680137,-2.5153906,-0.4413672,1.0818415,-0.5884155,0.6705768
767,1778621589.5484297,-0.65266,-2.4936821,-0.41551206,1.0818415,-0.5884155,0.6705768
768,1778621589.5584302,-0.65266,-2.4936821,-0.41551206,1.0818415,-0.5884155,0.6705768
769,1778621589.568431,-0.65266,-2.4936821,-0.41551206,1.0818415,-0.5884155,0.6705768
770,1778621589.5784318,-0.65266,-2.4936821,-0.41551206,1.0818415,-0.5884155,0.6705768
771,1778621589.5884326,-0.65266,-2.4936821,-0.41551206,1.0818415,-0.5884155,0.6705768
772,1778621589.5984333,-0.26410076,-0.9840818,-0.31184745,1.0818415,-0.5884155,0.6705768
773,1778621589.6088157,-0.26410076,-0.9840818,-0.31184745,0.5235111,-1.0868812,1.6021456
774,1778621589.6188166,-0.26410076,-0.9840818,-0.31184745,0.5235111,-1.0868812,1.6021456
775,1778621589.6288173,-0.26410076,-0.9840818,-0.31184745,0.5235111,-1.0868812,1.6021456
776,1778621589.6388187,-0.26410076,-0.9840818,-0.31184745,0.5235111,-1.0868812,1.6021456
777,1778621589.6488192,-0.26410076,-0.9840818,-0.31184745,0.5235111,-1.0868812,1.6021456
778,1778621589.65882,0.15933856,0.43161055,-0.26233238,0.5235111,-1.0868812,1.6021456
779,1778621589.6688294,0.19641389,-0.19037697,-0.0030489585,-0.25045455,-0.9109521,1.7805182
780,1778621589.6788332,0.19641389,-0.19037697,-0.0030489585,-0.25045455,-0.9109521,1.7805182
781,1778621589.688834,-0.18775485,-1.2106804,-0.06085721,-1.1496475,1.5196788,-1.209665
782,1778621589.698839,-0.18775485,-1.2106804,-0.06085721,-1.1496475,1.5196788,-1.209665
783,1778621589.7088408,-0.18775485,-1.2106804,-0.06085721,-1.1496475,1.5196788,-1.209665
784,1778621589.7188418,-0.35898435,-1.352396,0.024757542,-1.1496475,1.5196788,-1.209665
785,1778621589.7288425,-0.35898435,-1.352396,0.024757542,-1.1496475,1.5196788,-1.209665
786,1778621589.7388434,-0.35898435,-1.352396,0.024757542,-1.1496475,1.5196788,-1.209665
787,1778621589.7488446,0.8610868,-3.7188754,-0.16574138,1.0928371,0.8446733,-0.22678354
788,1778621589.7588453,0.8610868,-3.7188754,-0.16574138,1.0928371,0.8446733,-0.22678354
789,1778621589.7688463,-0.23848954,-0.53405553,-0.22989148,-0.103236146,-1.1033745,1.7945681
790,1778621589.7788477,-0.23848954,-0.53405553,-0.22989148,-0.103236146,-1.1033745,1.7945681
791,1778621589.7888489,-0.23848954,-0.53405553,-0.22989148,-0.103236146,-1.1033745,1.7945681
792,1778621589.7988498,-0.23848954,-0.53405553,-0.22989148,-0.5577195,0.47815442,1.3162609
793,1778621589.808851,-0.23848954,-0.53405553,-0.22989148,-0.5577195,0.47815442,1.3162609
794,1778621589.818852,-0.23848954,-0.53405553,-0.22989148,-0.5577195,0.47815442,1.3162609
795,1778621589.8288531,-0.81218153,-1.0350604,-1.3589817,-3.4275622,1.6467388,-0.021532983
796,1778621589.838854,-0.81218153,-1.0350604,-1.3589817,-3.4275622,1.6467388,-0.021532983
797,1778621589.8488545,-0.81218153,-1.0350604,-1.3589817,-3.4275622,1.6467388,-0.021532983
798,1778621589.8588579,-0.4804549,-0.81602323,-1.1394567,-3.916254,1.9747732,0.02367101
799,1778621589.8688588,-0.4804549,-0.81602323,-1.1394567,-3.916254,1.9747732,0.02367101
800,1778621589.8788593,-3.343061,-3.2349448,-1.3667871,-3.5094182,-2.6036584,0.02367101
801,1778621589.88886,-3.343061,-3.2349448,-1.3667871,-3.5094182,-2.6036584,0.02367101
802,1778621589.8988607,-3.343061,-3.2349448,-1.3667871,-3.5094182,-2.6036584,0.02367101
803,1778621589.9088612,-1.6358881,-1.6136308,-0.07451654,1.4532473,0.10430516,-0.9311106
804,1778621589.9188704,-1.6358881,-1.6136308,-0.07451654,1.4532473,0.10430516,-0.9311106
805,1778621589.9288735,-1.6358881,-1.6136308,-0.07451654,1.4532473,0.10430516,-0.9311106
806,1778621589.938874,-1.0197546,-1.083112,-0.0059759584,1.4648538,1.2484549,-0.6867647
807,1778621589.9490454,-1.0197546,-1.083112,-0.0059759584,1.4648538,1.2484549,-0.6867647
808,1778621589.959046,-1.0197546,-1.083112,-0.0059759584,1.4648538,1.2484549,-0.6867647
809,1778621589.9690466,-1.0197546,-1.083112,-0.0059759584,1.4416409,0.38224864,-0.85108733
810,1778621589.9790475,-1.0197546,-1.083112,-0.0059759584,1.4416409,0.38224864,-0.85108733
811,1778621589.9890482,-0.7224202,-0.8533425,-0.029879792,1.486234,1.5117376,-0.65499973
812,1778621589.9990497,-0.7224202,-0.8533425,-0.029879792,1.486234,1.5117376,-0.65499973
813,1778621590.0090504,-0.7224202,-0.8533425,-0.029879792,1.486234,1.5117376,-0.65499973
814,1778621590.0190518,-0.034087352,0.07012604,-0.22574489,1.7672318,2.2612686,-0.6342304
815,1778621590.0290527,-0.034087352,0.07012604,-0.22574489,1.7672318,2.2612686,-0.6342304
816,1778621590.039342,-0.034087352,0.07012604,-0.22574489,1.7672318,2.2612686,-0.6342304
817,1778621590.0493429,-0.034087352,0.07012604,-0.22574489,1.7672318,2.2612686,-0.6342304
818,1778621590.0593522,-0.034087352,0.07012604,-0.22574489,1.7672318,2.2612686,-0.6342304
819,1778621590.069355,-0.034087352,0.07012604,-0.22574489,1.7672318,2.2612686,-0.6342304
820,1778621590.0793557,-0.011890938,0.1908648,-0.26403978,1.4868449,1.4274383,-0.7777836
821,1778621590.0893598,-0.011890938,0.1908648,-0.26403978,1.4868449,1.4274383,-0.7777836
822,1778621590.099362,-0.011890938,0.1908648,-0.26403978,1.4868449,1.4274383,-0.7777836
823,1778621590.1093628,-0.011890938,0.1908648,-0.26403978,1.4868449,1.4274383,-0.7777836
824,1778621590.1193652,-0.011890938,0.1908648,-0.26403978,1.4868449,1.4274383,-0.7777836
825,1778621590.1293669,0.02420873,0.29330978,-0.33770263,1.1875211,0.6052143,-0.81993324
826,1778621590.1393673,0.02420873,0.29330978,-0.33770263,1.1875211,0.6052143,-0.81993324
827,1778621590.149368,0.02420873,0.29330978,-0.33770263,1.1875211,0.6052143,-0.81993324
828,1778621590.1593688,0.02420873,0.29330978,-0.33770263,1.1875211,0.6052143,-0.81993324
829,1778621590.1693702,0.083480485,0.29721245,-0.26769856,0.8026763,0.1867719,-0.75395983
830,1778621590.179371,0.083480485,0.29721245,-0.26769856,0.8026763,0.1867719,-0.75395983
831,1778621590.1893718,0.083480485,0.29721245,-0.26769856,0.8026763,0.1867719,-0.75395983
832,1778621590.1993747,0.1349469,0.2728208,-0.2040363,0.8026763,0.1867719,-0.75395983
833,1778621590.2093763,0.1349469,0.2728208,-0.2040363,0.8026763,0.1867719,-0.75395983
834,1778621590.2193778,0.035428897,0.30428603,-0.3340439,0.95172733,0.24602579,-0.77472925
835,1778621590.2293792,0.035428897,0.30428603,-0.3340439,0.95172733,0.24602579,-0.77472925
836,1778621590.2393796,0.035428897,0.30428603,-0.3340439,0.95172733,0.24602579,-0.77472925
837,1778621590.2493834,-0.08945644,-0.010610376,0.03670946,1.4349214,0.8611666,-1.3410009
838,1778621590.2593856,-0.08945644,-0.010610376,0.03670946,1.4349214,0.8611666,-1.3410009
839,1778621590.2693868,-0.08945644,-0.010610376,0.03670946,1.4349214,0.8611666,-1.3410009
840,1778621590.279388,-0.08945644,-0.010610376,0.03670946,1.4349214,0.8611666,-1.3410009
841,1778621590.2893922,-0.08945644,-0.010610376,0.03670946,1.4349214,0.8611666,-1.3410009
842,1778621590.2993937,-0.08945644,-0.010610376,0.03670946,1.4349214,0.8611666,-1.3410009
843,1778621590.3093948,-0.08945644,-0.010610376,0.03670946,1.4349214,0.8611666,-1.3410009
844,1778621590.319396,-0.08945644,-0.010610376,0.03670946,1.4349214,0.8611666,-1.3410009
845,1778621590.329397,-0.114823766,0.053051874,-0.054027542,0.92118406,0.547793,-1.0398445
846,1778621590.339398,-0.114823766,0.053051874,-0.054027542,0.92118406,0.547793,-1.0398445
847,1778621590.3493986,-0.114823766,0.053051874,-0.054027542,0.92118406,0.547793,-1.0398445
848,1778621590.3593998,0.016403396,0.020367041,0.0020732917,-1.0409136,0.031001387,-0.504727
849,1778621590.3694003,0.016403396,0.020367041,0.0020732917,-1.0409136,0.031001387,-0.504727
850,1778621590.3797462,0.016403396,0.020367041,0.0020732917,-0.33047783,-0.28603745,-0.31902415
851,1778621590.3897474,0.016403396,0.020367041,0.0020732917,-0.33047783,-0.28603745,-0.31902415
852,1778621590.3997478,0.016403396,0.020367041,0.0020732917,-0.33047783,-0.28603745,-0.31902415
853,1778621590.4097495,0.016403396,0.020367041,0.0020732917,-0.33047783,-0.28603745,-0.31902415
854,1778621590.4197507,-0.21043912,-0.18988912,0.16110696,-0.59498227,1.9814926,-0.34773478
855,1778621590.4297514,-0.21043912,-0.18988912,0.16110696,-0.59498227,1.9814926,-0.34773478
856,1778621590.439752,-0.21043912,-0.18988912,0.16110696,-0.59498227,1.9814926,-0.34773478
857,1778621590.4497533,-0.21043912,-0.18988912,0.16110696,-0.59498227,1.9814926,-0.34773478
858,1778621590.459754,-0.21043912,-0.18988912,0.16110696,-0.59498227,1.9814926,-0.34773478
859,1778621590.4699667,-0.21043912,-0.18988912,0.16110696,-0.80939585,2.141539,-0.31230462
860,1778621590.4800727,-0.21043912,-0.18988912,0.16110696,-0.80939585,2.141539,-0.31230462
861,1778621590.4900768,-0.21043912,-0.18988912,0.16110696,-0.80939585,2.141539,-0.31230462
862,1778621590.5000799,-0.09384694,-0.8445615,-1.0050586,-3.2656832,-1.422246,0.06520981
863,1778621590.510081,-0.09384694,-0.8445615,-1.0050586,-3.2656832,-1.422246,0.06520981
864,1778621590.5200837,-0.09384694,-0.8445615,-1.0050586,-3.2656832,-1.422246,0.06520981
865,1778621590.5300853,-0.09384694,-0.8445615,-1.0050586,-3.5454593,-0.4668534,-0.035582874
866,1778621590.540086,-0.09384694,-0.8445615,-1.0050586,-3.5454593,-0.4668534,-0.035582874
867,1778621590.5500875,-0.09384694,-0.8445615,-1.0050586,-3.5454593,-0.4668534,-0.035582874
868,1778621590.5603437,-0.09384694,-0.8445615,-1.0050586,-3.5454593,-0.4668534,-0.035582874
869,1778621590.570345,-0.09384694,-0.8445615,-1.0050586,-3.5454593,-0.4668534,-0.035582874
870,1778621590.5803456,-0.09384694,-0.8445615,-1.0050586,-3.5454593,-0.4668534,-0.035582874
871,1778621590.5903463,-0.09384694,-0.8445615,-1.0050586,-3.5454593,-0.4668534,-0.035582874
872,1778621590.600347,-0.09384694,-0.8445615,-1.0050586,-3.5454593,-0.4668534,-0.035582874
873,1778621590.6103477,-0.09384694,-0.8445615,-1.0050586,-3.5454593,-0.4668534,-0.035582874
874,1778621590.620349,-0.09384694,-0.8445615,-1.0050586,-3.5454593,-0.4668534,-0.035582874
875,1778621590.63035,-0.09384694,-0.8445615,-1.0050586,-3.5454593,-0.4668534,-0.035582874
876,1778621590.640352,-0.09384694,-0.8445615,-1.0050586,-3.5454593,-0.4668534,-0.035582874
877,1778621590.6506157,-0.09384694,-0.8445615,-1.0050586,-3.5454593,-0.4668534,-0.035582874
878,1778621590.6606164,-0.09384694,-0.8445615,-1.0050586,1.2125666,-2.931082,-1.2982404
879,1778621590.6706176,-0.08994427,-0.3711192,0.10378654,1.7886121,1.8409938,-0.9408845
880,1778621590.6806185,-0.08994427,-0.3711192,0.10378654,1.7886121,1.8409938,-0.9408845
881,1778621590.6906192,-0.08994427,-0.3711192,0.10378654,1.7886121,1.8409938,-0.9408845
882,1778621590.7006228,-0.08994427,-0.3711192,0.10378654,1.7886121,1.8409938,-0.9408845
883,1778621590.710625,-0.08994427,-0.3711192,0.10378654,1.7886121,1.8409938,-0.9408845
884,1778621590.7206259,-0.08994427,-0.3711192,0.10378654,1.7886121,1.8409938,-0.9408845
885,1778621590.7306268,-0.08994427,-0.3711192,0.10378654,1.7886121,1.8409938,-0.9408845
886,1778621590.740854,-0.08994427,-0.3711192,0.10378654,1.7886121,1.8409938,-0.9408845
887,1778621590.750855,-0.08994427,-0.3711192,0.10378654,1.7886121,1.8409938,-0.9408845
888,1778621590.760856,-0.08994427,-0.3711192,0.10378654,1.7403537,1.6803362,-0.9268346
889,1778621590.7708566,-0.08994427,-0.3711192,0.10378654,1.7403537,1.6803362,-0.9268346
890,1778621590.7808576,-0.08994427,-0.3711192,0.10378654,1.7403537,1.6803362,-0.9268346
891,1778621590.7908585,-0.08994427,-0.3711192,0.10378654,1.7403537,1.6803362,-0.9268346
892,1778621590.8008595,0.040795065,-0.22062263,0.03719729,1.7067562,1.6088651,-0.92378026
893,1778621590.8108606,0.040795065,-0.22062263,0.03719729,1.7067562,1.6088651,-0.92378026
894,1778621590.8208613,0.040795065,-0.22062263,0.03719729,1.7067562,1.6088651,-0.92378026
895,1778621590.831217,0.05567398,-0.18330337,0.029148044,1.7067562,1.6088651,-0.92378026
896,1778621590.8412178,0.09616415,-0.06915038,-0.005732042,1.4911209,1.3400846,-0.93905187
897,1778621590.8512187,0.09616415,-0.06915038,-0.005732042,1.4911209,1.3400846,-0.93905187
898,1778621590.8612194,0.09616415,-0.06915038,-0.005732042,1.4911209,1.3400846,-0.93905187
899,1778621590.8712199,0.090554066,0.019635292,0.002561125,1.2815943,1.2185225,-0.9805907
900,1778621590.8812206,0.090554066,0.019635292,0.002561125,1.2815943,1.2185225,-0.9805907
901,1778621590.891222,0.16885132,-0.11378712,-0.17476629,-0.6218603,1.5331179,-2.0893102
902,1778621590.9012325,0.14592315,-0.035489876,-0.072321296,0.0048869182,1.9894339,-2.1345143
903,1778621590.911236,0.14592315,-0.035489876,-0.072321296,0.0048869182,1.9894339,-2.1345143
904,1778621590.9212375,0.14592315,-0.035489876,-0.072321296,0.0048869182,1.9894339,-2.1345143
905,1778621590.9312387,0.14592315,-0.035489876,-0.072321296,0.0048869182,1.9894339,-2.1345143
906,1778621590.9412396,0.14592315,-0.035489876,-0.072321296,0.0048869182,1.9894339,-2.1345143
907,1778621590.9512408,0.14592315,-0.035489876,-0.072321296,0.0048869182,1.9894339,-2.1345143
908,1778621590.9612415,0.14592315,-0.035489876,-0.072321296,0.0048869182,1.9894339,-2.1345143
909,1778621590.9712424,0.14592315,-0.035489876,-0.072321296,0.0048869182,1.9894339,-2.1345143
910,1778621590.981243,0.14592315,-0.035489876,-0.072321296,0.0048869182,1.9894339,-2.1345143
911,1778621590.9912436,0.14592315,-0.035489876,-0.072321296,0.0048869182,1.9894339,-2.1345143
912,1778621591.0012448,0.14592315,-0.035489876,-0.072321296,0.0048869182,1.9894339,-2.1345143
913,1778621591.011973,0.070065066,0.06329638,0.12256813,0.4630355,2.232558,-2.180329
914,1778621591.021974,0.070065066,0.06329638,0.12256813,0.4630355,2.232558,-2.180329
915,1778621591.031975,0.070065066,0.06329638,0.12256813,0.6071996,2.3266313,-2.193768
916,1778621591.041976,0.070065066,0.06329638,0.12256813,0.6071996,2.3266313,-2.193768
917,1778621591.0519767,0.070065066,0.06329638,0.12256813,0.6071996,2.3266313,-2.193768
918,1778621591.0619776,0.070065066,0.06329638,0.12256813,0.6071996,2.3266313,-2.193768
919,1778621591.0719783,0.070065066,0.06329638,0.12256813,0.6071996,2.3266313,-2.193768
920,1778621591.081979,0.031282313,0.046466127,0.14988679,0.6071996,2.3266313,-2.193768
921,1778621591.0919797,0.031282313,0.046466127,0.14988679,0.980438,2.597855,-2.1864378
922,1778621591.102008,0.031282313,0.046466127,0.14988679,0.980438,2.597855,-2.1864378
923,1778621591.112009,0.031282313,0.046466127,0.14988679,0.980438,2.597855,-2.1864378
924,1778621591.1220148,-0.0062808543,0.021098793,0.15549688,1.2962551,2.7023132,-2.0477715
925,1778621591.132017,-0.0062808543,0.021098793,0.15549688,1.2962551,2.7023132,-2.0477715
926,1778621591.1420178,-0.0062808543,0.021098793,0.15549688,1.2962551,2.7023132,-2.0477715
927,1778621591.1520185,-0.0062808543,0.021098793,0.15549688,1.2962551,2.7023132,-2.0477715
928,1778621591.1620195,-0.042624436,0.04841746,0.11476279,1.3041964,2.4048219,-1.7539455
929,1778621591.1720204,-0.042624436,0.04841746,0.11476279,1.3041964,2.4048219,-1.7539455
930,1778621591.1820214,-0.042624436,0.04841746,0.11476279,1.3041964,2.4048219,-1.7539455
931,1778621591.1923952,-0.042624436,0.04841746,0.11476279,1.3041964,2.4048219,-1.7539455
932,1778621591.202396,-0.06555261,0.06280854,0.081346214,1.1246021,2.1164937,-1.5749621
933,1778621591.2123966,-0.06555261,0.06280854,0.081346214,1.1246021,2.1164937,-1.5749621
934,1778621591.2223983,-0.06555261,0.06280854,0.081346214,1.1246021,2.1164937,-1.5749621
935,1778621591.2324002,-0.08018761,0.07622396,0.049393125,1.1246021,2.1164937,-1.5749621
936,1778621591.2424011,-0.08018761,0.07622396,0.049393125,1.1246021,2.1164937,-1.5749621
937,1778621591.252402,-0.08018761,0.07622396,0.049393125,1.0445788,2.0065382,-1.5089887
938,1778621591.262403,-0.08018761,0.07622396,0.049393125,1.0445788,2.0065382,-1.5089887
939,1778621591.272404,-0.08018761,0.07622396,0.049393125,1.0445788,2.0065382,-1.5089887
940,1778621591.2824047,-0.08018761,0.07622396,0.049393125,1.0445788,2.0065382,-1.5089887
941,1778621591.292405,-0.08018761,0.07622396,0.049393125,1.0445788,2.0065382,-1.5089887
942,1778621591.3024058,-0.13799585,0.14159364,-0.55186146,1.0445788,2.0065382,-1.5089887
943,1778621591.312416,-0.13799585,0.14159364,-0.55186146,1.0445788,2.0065382,-1.5089887
944,1778621591.3224192,-0.13799585,0.14159364,-0.55186146,1.0445788,2.0065382,-1.5089887
945,1778621591.3324206,-0.13799585,0.14159364,-0.55186146,1.0445788,2.0065382,-1.5089887
946,1778621591.3424947,-0.29532212,-0.652843,-0.30721304,0.42821622,-0.48151416,1.2704461
947,1778621591.3524957,-0.29532212,-0.652843,-0.30721304,0.42821622,-0.48151416,1.2704461
948,1778621591.3624966,-0.29532212,-0.652843,-0.30721304,0.42821622,-0.48151416,1.2704461
949,1778621591.3724973,-0.29532212,-0.652843,-0.30721304,0.42821622,-0.48151416,1.2704461
950,1778621591.3824983,-0.23946518,-0.5306407,-0.3272142,0.42821622,-0.48151416,1.2704461
951,1778621591.3924987,-0.23946518,-0.5306407,-0.3272142,0.42821622,-0.48151416,1.2704461
952,1778621591.4024994,-0.23946518,-0.5306407,-0.3272142,0.42821622,-0.48151416,1.2704461
953,1778621591.4125,-0.23946518,-0.5306407,-0.3272142,0.39584038,-0.79244435,1.4708097
954,1778621591.422502,-0.23946518,-0.5306407,-0.3272142,0.39584038,-0.79244435,1.4708097
955,1778621591.4325032,-0.23946518,-0.5306407,-0.3272142,0.39584038,-0.79244435,1.4708097
956,1778621591.4425046,-0.17458336,-0.42453694,-0.3418492,0.40989026,-0.8883501,1.5263984
957,1778621591.4525054,-0.17458336,-0.42453694,-0.3418492,0.40989026,-0.8883501,1.5263984
958,1778621591.462506,-0.17458336,-0.42453694,-0.3418492,0.40989026,-0.8883501,1.5263984
959,1778621591.4725096,-0.17458336,-0.42453694,-0.3418492,0.49480048,-1.2102759,1.6931645
960,1778621591.48251,-0.17458336,-0.42453694,-0.3418492,0.49480048,-1.2102759,1.6931645
961,1778621591.4925106,-0.17458336,-0.42453694,-0.3418492,0.49480048,-1.2102759,1.6931645
962,1778621591.5025115,-0.17458336,-0.42453694,-0.3418492,0.49480048,-1.2102759,1.6931645
963,1778621591.5125122,-0.17458336,-0.42453694,-0.3418492,0.49480048,-1.2102759,1.6931645
964,1778621591.522513,-0.17458336,-0.42453694,-0.3418492,0.57909983,-1.4460696,1.8092288
965,1778621591.5326502,-0.17458336,-0.42453694,-0.3418492,0.57909983,-1.4460696,1.8092288
966,1778621591.5426507,-0.17458336,-0.42453694,-0.3418492,0.57909983,-1.4460696,1.8092288
967,1778621591.5526526,-0.17458336,-0.42453694,-0.3418492,0.57909983,-1.4460696,1.8092288
968,1778621591.5628073,-0.17458336,-0.42453694,-0.3418492,0.57909983,-1.4460696,1.8092288
969,1778621591.572808,-0.17458336,-0.42453694,-0.3418492,0.57909983,-1.4460696,1.8092288
970,1778621591.582809,0.10957957,0.043539125,-0.23867247,0.6829468,-1.6806418,1.916741
971,1778621591.5928102,0.10957957,0.043539125,-0.23867247,0.6829468,-1.6806418,1.916741
972,1778621591.6028109,0.10957957,0.043539125,-0.23867247,0.6829468,-1.6806418,1.916741
973,1778621591.6128247,0.10957957,0.043539125,-0.23867247,0.6829468,-1.6806418,1.916741
974,1778621591.622941,0.10957957,0.043539125,-0.23867247,0.6829468,-1.6806418,1.916741
975,1778621591.6329417,0.10957957,0.043539125,-0.23867247,0.6829468,-1.6806418,1.916741
976,1778621591.6429427,-0.9341399,-1.0872586,0.06280854,1.1533127,0.9124793,-1.2872448
977,1778621591.6529431,-0.9341399,-1.0872586,0.06280854,1.1533127,0.9124793,-1.2872448
978,1778621591.662944,-0.9341399,-1.0872586,0.06280854,1.1533127,0.9124793,-1.2872448
979,1778621591.6729445,-0.9341399,-1.0872586,0.06280854,1.1533127,0.9124793,-1.2872448
980,1778621591.682945,-0.9341399,-1.0872586,0.06280854,1.1533127,0.9124793,-1.2872448
981,1778621591.692946,-0.9341399,-1.0872586,0.06280854,1.2486076,1.2484549,-1.2279909
982,1778621591.7029462,-0.9341399,-1.0872586,0.06280854,1.2486076,1.2484549,-1.2279909
983,1778621591.7133045,-0.9341399,-1.0872586,0.06280854,1.2486076,1.2484549,-1.2279909
984,1778621591.7233052,-0.9341399,-1.0872586,0.06280854,1.2486076,1.2484549,-1.2279909
985,1778621591.733306,-0.9341399,-1.0872586,0.06280854,1.2486076,1.2484549,-1.2279909
986,1778621591.743307,-0.9341399,-1.0872586,0.06280854,1.2486076,1.2484549,-1.2279909
987,1778621591.7533157,-0.9341399,-1.0872586,0.06280854,1.2486076,1.2484549,-1.2279909
988,1778621591.7633188,-0.9341399,-1.0872586,0.06280854,1.2486076,1.2484549,-1.2279909
989,1778621591.7733195,-0.9341399,-1.0872586,0.06280854,1.2486076,1.2484549,-1.2279909
990,1778621591.783322,-0.9341399,-1.0872586,0.06280854,-0.1178969,1.1928662,-1.2719731
991,1778621591.7933238,-0.9341399,-1.0872586,0.06280854,-0.1178969,1.1928662,-1.2719731
992,1778621591.8035219,-0.9341399,-1.0872586,0.06280854,-0.1178969,1.1928662,-1.2719731
993,1778621591.8135226,-0.9341399,-1.0872586,0.06280854,-0.1178969,1.1928662,-1.2719731
994,1778621591.8235233,-0.9341399,-1.0872586,0.06280854,-0.1178969,1.1928662,-1.2719731
995,1778621591.8335266,0.14104481,0.046710044,-0.48819923,-0.26389357,1.229518,-1.381318
996,1778621591.8435283,0.14104481,0.046710044,-0.48819923,-0.26389357,1.229518,-1.381318
997,1778621591.8535302,0.18836464,-0.011586042,-0.6540625,-0.26389357,1.229518,-1.381318
998,1778621591.863531,0.18836464,-0.011586042,-0.6540625,-0.26389357,1.229518,-1.381318
999,1778621591.8735318,0.18836464,-0.011586042,-0.6540625,-0.26389357,1.229518,-1.381318
