id,timestamp,acc_x,acc_y,acc_z,gyro_x,gyro_y,gyro_z
1,1778619381.58516,0.6893695,-0.58820504,-0.34502012,-1.8167119,-1.6908737,3.431991
2,1778619381.5951624,0.6893695,-0.58820504,-0.34502012,-1.8167119,-1.6908737,3.431991
3,1778619381.6051638,0.6893695,-0.58820504,-0.34502012,-1.8167119,-1.6908737,3.431991
4,1778619381.6151648,0.6893695,-0.58820504,-0.34502012,-1.8167119,-1.6908737,3.431991
5,1778619381.6251667,0.6893695,-0.58820504,-0.34502012,-1.8167119,-1.6908737,3.431991
6,1778619381.6351683,0.6893695,-0.58820504,-0.34502012,-1.8167119,-1.6908737,3.431991
7,1778619381.6451693,0.6893695,-0.58820504,-0.34502012,-1.8167119,-1.6908737,3.431991
8,1778619381.6551702,0.6893695,-0.58820504,-0.34502012,-1.8167119,-1.6908737,3.431991
9,1778619381.6651719,0.6893695,-0.58820504,-0.34502012,-1.8167119,-1.6908737,3.431991
10,1778619381.6751745,0.6893695,-0.58820504,-0.34502012,-1.8167119,-1.6908737,3.431991
11,1778619381.6851757,0.95475084,-0.6855278,-0.08744413,-2.04151,-1.8118249,3.377624
12,1778619381.6951766,0.95475084,-0.6855278,-0.08744413,-2.04151,-1.8118249,3.377624
13,1778619381.7051773,0.95475084,-0.6855278,-0.08744413,-2.04151,-1.8118249,3.377624
14,1778619381.7151783,0.95475084,-0.6855278,-0.08744413,-2.2449281,-1.7849469,3.3354745
15,1778619381.7251787,0.95475084,-0.6855278,-0.08744413,-2.2449281,-1.7849469,3.3354745
16,1778619381.7351794,0.95475084,-0.6855278,-0.08744413,-2.2449281,-1.7849469,3.3354745
17,1778619381.7451806,1.0437804,-0.717237,0.005488125,-2.2449281,-1.7849469,3.3354745
18,1778619381.7551813,1.0437804,-0.717237,0.005488125,-2.2449281,-1.7849469,3.3354745
19,1778619381.7651818,1.0437804,-0.717237,0.005488125,-2.2449281,-1.7849469,3.3354745
20,1778619381.7751844,1.0437804,-0.717237,0.005488125,-2.2449281,-1.7849469,3.3354745
21,1778619381.7851853,1.0437804,-0.717237,0.005488125,-2.2449281,-1.7849469,3.3354745
22,1778619381.7951863,1.0437804,-0.717237,0.005488125,-2.2449281,-1.7849469,3.3354745
23,1778619381.8051953,1.0437804,-0.717237,0.005488125,-2.447735,-1.6090178,3.2847726
24,1778619381.815199,1.0437804,-0.717237,0.005488125,-2.447735,-1.6090178,3.2847726
25,1778619381.8252003,1.0437804,-0.717237,0.005488125,-2.447735,-1.6090178,3.2847726
26,1778619381.835201,1.0437804,-0.717237,0.005488125,-2.447735,-1.6090178,3.2847726
27,1778619381.845202,1.0437804,-0.717237,0.005488125,-2.447735,-1.6090178,3.2847726
28,1778619381.8552027,1.0437804,-0.717237,0.005488125,-2.447735,-1.6090178,3.2847726
29,1778619381.8652031,1.0437804,-0.717237,0.005488125,-2.447735,-1.6090178,3.2847726
30,1778619381.875204,3.0016997,0.013537374,0.9728616,-3.428784,-0.7984003,3.5700464
31,1778619381.885205,3.0016997,0.013537374,0.9728616,-3.428784,-0.7984003,3.5700464
32,1778619381.8952053,3.0016997,0.013537374,0.9728616,-3.428784,-0.7984003,3.5700464
33,1778619381.9052067,3.0016997,0.013537374,0.9728616,-3.428784,-0.7984003,3.5700464
34,1778619381.9152076,3.0016997,0.013537374,0.9728616,-3.428784,-0.7984003,3.5700464
35,1778619381.9252083,3.0016997,0.013537374,0.9728616,-3.428784,-0.7984003,3.5700464
36,1778619381.9352095,3.1009736,0.17232713,1.0387192,-3.428784,-0.7984003,3.5700464
37,1778619381.9452183,3.1009736,0.17232713,1.0387192,-3.428784,-0.7984003,3.5700464
38,1778619381.9552214,3.1009736,0.17232713,1.0387192,-3.428784,-0.7984003,3.5700464
39,1778619381.9652224,1.3964839,0.6601605,0.4677102,-1.4379756,0.46242464,0.8022182
40,1778619381.9752228,1.3964839,0.6601605,0.4677102,-1.4379756,0.46242464,0.8022182
41,1778619381.9852242,1.3964839,0.6601605,0.4677102,-1.4379756,0.46242464,0.8022182
42,1778619381.9952257,1.3964839,0.6601605,0.4677102,-1.4379756,0.46242464,0.8022182
43,1778619382.0052269,1.3964839,0.6601605,0.4677102,-1.4379756,0.46242464,0.8022182
44,1778619382.0152278,1.3964839,0.6601605,0.4677102,-1.4379756,0.46242464,0.8022182
45,1778619382.0253246,1.3594086,0.7028459,0.4852722,-1.427591,0.10445788,0.61040664
46,1778619382.0353253,1.3594086,0.7028459,0.4852722,-1.427591,0.10445788,0.61040664
47,1778619382.0453258,1.3594086,0.7028459,0.4852722,-1.427591,0.10445788,0.61040664
48,1778619382.0553265,1.3594086,0.7028459,0.4852722,-1.427591,0.10445788,0.61040664
49,1778619382.0653272,1.3594086,0.7028459,0.4852722,-1.427591,0.10445788,0.61040664
50,1778619382.075328,1.3594086,0.7028459,0.4852722,-1.427591,0.10445788,0.61040664
51,1778619382.08543,1.3594086,0.7028459,0.4852722,-1.427591,0.10445788,0.61040664
52,1778619382.0954316,1.3594086,0.7028459,0.4852722,-1.427591,0.10445788,0.61040664
53,1778619382.1054332,1.3594086,0.7028459,0.4852722,-1.427591,0.10445788,0.61040664
54,1778619382.1154344,1.3594086,0.7028459,0.4852722,-1.427591,0.10445788,0.61040664
55,1778619382.1254356,1.2881849,0.8611478,0.62259734,-1.427591,0.10445788,0.61040664
56,1778619382.1354368,1.2881849,0.8611478,0.62259734,-1.427591,0.10445788,0.61040664
57,1778619382.1454377,1.2881849,0.8611478,0.62259734,-1.427591,0.10445788,0.61040664
58,1778619382.155439,1.2881849,0.8611478,0.62259734,-1.427591,0.10445788,0.61040664
59,1778619382.1654472,1.0576837,1.1655558,0.7821188,-0.6878337,-0.33047783,-0.47204575
60,1778619382.1754508,1.0576837,1.1655558,0.7821188,-0.6878337,-0.33047783,-0.47204575
61,1778619382.1854517,1.0576837,1.1655558,0.7821188,-0.6878337,-0.33047783,-0.47204575
62,1778619382.1954525,1.0576837,1.1655558,0.7821188,-0.66156656,-0.14294235,-0.80863225
63,1778619382.2054534,1.0576837,1.1655558,0.7821188,-0.66156656,-0.14294235,-0.80863225
64,1778619382.2154548,1.0576837,1.1655558,0.7821188,-0.66156656,-0.14294235,-0.80863225
65,1778619382.2254663,1.0576837,1.1655558,0.7821188,-0.66156656,-0.14294235,-0.80863225
66,1778619382.2354696,0.5486296,0.85261077,0.9331032,0.77946347,1.7269148,-2.8586946
67,1778619382.245471,0.5486296,0.85261077,0.9331032,0.77946347,1.7269148,-2.8586946
68,1778619382.2554722,0.5486296,0.85261077,0.9331032,0.77946347,1.7269148,-2.8586946
69,1778619382.2654734,0.5486296,0.85261077,0.9331032,0.77946347,1.7269148,-2.8586946
70,1778619382.2754824,0.5486296,0.85261077,0.9331032,0.77946347,1.7269148,-2.8586946
71,1778619382.2854853,0.5486296,0.85261077,0.9331032,0.77946347,1.7269148,-2.8586946
72,1778619382.2954867,0.5486296,0.85261077,0.9331032,0.77946347,1.7269148,-2.8586946
73,1778619382.3054929,0.5486296,0.85261077,0.9331032,0.77946347,1.7269148,-2.8586946
74,1778619382.3154964,0.5486296,0.85261077,0.9331032,0.77946347,1.7269148,-2.8586946
75,1778619382.325498,0.5486296,0.85261077,0.9331032,0.77946347,1.7269148,-2.8586946
76,1778619382.3354988,0.5486296,0.85261077,0.9331032,0.77946347,1.7269148,-2.8586946
77,1778619382.3455021,0.5486296,0.85261077,0.9331032,1.3939934,1.7525711,-2.9319983
78,1778619382.3555048,0.5486296,0.85261077,0.9331032,1.3939934,1.7525711,-2.9319983
79,1778619382.365506,0.5486296,0.85261077,0.9331032,1.3939934,1.7525711,-2.9319983
80,1778619382.375507,0.5486296,0.85261077,0.9331032,1.3939934,1.7525711,-2.9319983
81,1778619382.385508,0.5486296,0.85261077,0.9331032,1.3939934,1.7525711,-2.9319983
82,1778619382.3955083,0.5486296,0.85261077,0.9331032,1.3939934,1.7525711,-2.9319983
83,1778619382.4055092,0.600096,0.63357353,0.9860331,1.3939934,1.7525711,-2.9319983
84,1778619382.4155102,0.600096,0.63357353,0.9860331,1.3939934,1.7525711,-2.9319983
85,1778619382.425857,0.600096,0.63357353,0.9860331,1.3939934,1.7525711,-2.9319983
86,1778619382.4358587,0.600096,0.63357353,0.9860331,2.1447463,1.8918482,-2.8849616
87,1778619382.44586,0.600096,0.63357353,0.9860331,2.1447463,1.8918482,-2.8849616
88,1778619382.4558604,0.600096,0.63357353,0.9860331,2.1447463,1.8918482,-2.8849616
89,1778619382.4658618,0.600096,0.63357353,0.9860331,2.1447463,1.8918482,-2.8849616
90,1778619382.4758625,0.600096,0.63357353,0.9860331,2.1447463,1.8918482,-2.8849616
91,1778619382.4858637,0.600096,0.63357353,0.9860331,2.1447463,1.8918482,-2.8849616
92,1778619382.4958646,0.600096,0.63357353,0.9860331,2.1447463,1.8918482,-2.8849616
93,1778619382.5058672,0.600096,0.63357353,0.9860331,2.1447463,1.8918482,-2.8849616
94,1778619382.5158687,0.600096,0.63357353,0.9860331,2.1447463,1.8918482,-2.8849616
95,1778619382.5258696,0.6920526,0.5857659,0.9240783,2.5381432,1.9504912,-2.8391469
96,1778619382.5358706,0.6920526,0.5857659,0.9240783,2.5381432,1.9504912,-2.8391469
97,1778619382.5458713,0.6920526,0.5857659,0.9240783,2.5381432,1.9504912,-2.8391469
98,1778619382.5558724,0.6920526,0.5857659,0.9240783,2.5381432,1.9504912,-2.8391469
99,1778619382.565873,0.6920526,0.5857659,0.9240783,2.5381432,1.9504912,-2.8391469
100,1778619382.5758739,0.6920526,0.5857659,0.9240783,2.5381432,1.9504912,-2.8391469
101,1778619382.585874,0.6920526,0.5857659,0.9240783,2.5381432,1.9504912,-2.8391469
102,1778619382.5958748,0.6920526,0.5857659,0.9240783,2.5381432,1.9504912,-2.8391469
103,1778619382.6058757,0.6920526,0.5857659,0.9240783,2.5381432,1.9504912,-2.8391469
104,1778619382.6158767,0.6920526,0.5857659,0.9240783,2.5381432,1.9504912,-2.8391469
105,1778619382.6258771,0.6920526,0.5857659,0.9240783,2.5381432,1.9504912,-2.8391469
106,1778619382.635878,0.6920526,0.5857659,0.9240783,2.5381432,1.9504912,-2.8391469
107,1778619382.6458786,0.6920526,0.5857659,0.9240783,2.5381432,1.9504912,-2.8391469
108,1778619382.6558793,0.8274264,0.58479017,0.8484642,3.0329437,1.8979568,-2.8257077
109,1778619382.6659334,0.8274264,0.58479017,0.8484642,3.0329437,1.8979568,-2.8257077
110,1778619382.675965,0.8274264,0.58479017,0.8484642,3.0329437,1.8979568,-2.8257077
111,1778619382.685966,1.2842822,0.6313783,0.84382975,3.9632907,1.3762784,-3.1207554
112,1778619382.695975,1.551371,0.6062549,0.93456674,3.9632907,1.3762784,-3.1207554
113,1778619382.7059784,1.551371,0.6062549,0.93456674,3.9632907,1.3762784,-3.1207554
114,1778619382.715979,1.551371,0.6062549,0.93456674,3.9632907,1.3762784,-3.1207554
115,1778619382.7259796,1.551371,0.6062549,0.93456674,3.9632907,1.3762784,-3.1207554
116,1778619382.7359807,1.551371,0.6062549,0.93456674,4.173428,1.2443316,-3.3113453
117,1778619382.7459817,1.551371,0.6062549,0.93456674,4.173428,1.2443316,-3.3113453
118,1778619382.7559822,1.551371,0.6062549,0.93456674,4.173428,1.2443316,-3.3113453
119,1778619382.7659833,1.551371,0.6062549,0.93456674,4.173428,1.2443316,-3.3113453
120,1778619382.775987,1.8252894,0.6140602,1.0731114,4.042703,1.5699224,-3.3229518
121,1778619382.7859886,1.8252894,0.6140602,1.0731114,4.042703,1.5699224,-3.3229518
122,1778619382.795989,1.8252894,0.6140602,1.0731114,4.042703,1.5699224,-3.3229518
123,1778619382.80599,2.4045916,0.7396773,1.2621468,3.1764967,2.6676464,-3.4689484
124,1778619382.8159907,2.4045916,0.7396773,1.2621468,3.1764967,2.6676464,-3.4689484
125,1778619382.8259912,2.4045916,0.7396773,1.2621468,3.1764967,2.6676464,-3.4689484
126,1778619382.8359919,2.4045916,0.7396773,1.2621468,3.1764967,2.6676464,-3.4689484
127,1778619382.8459926,2.7497337,0.77699655,1.2494631,3.1764967,2.6676464,-3.4689484
128,1778619382.8559942,2.7497337,0.77699655,1.2494631,3.1764967,2.6676464,-3.4689484
129,1778619382.866005,2.7497337,0.77699655,1.2494631,3.1764967,2.6676464,-3.4689484
130,1778619382.8760085,3.1221945,0.7557758,1.3692262,3.1764967,2.6676464,-3.4689484
131,1778619382.8860097,3.1221945,0.7557758,1.3692262,3.1764967,2.6676464,-3.4689484
132,1778619382.8960104,3.1221945,0.7557758,1.3692262,3.1764967,2.6676464,-3.4689484
133,1778619382.9060116,3.4266024,0.5213719,1.6321683,3.0121741,2.7409503,-3.9875727
134,1778619382.9160125,3.4266024,0.5213719,1.6321683,3.1826055,2.769661,-4.1867146
135,1778619382.9260132,3.4266024,0.5213719,1.6321683,3.1826055,2.769661,-4.1867146
136,1778619382.9360142,3.4266024,0.5213719,1.6321683,3.1826055,2.769661,-4.1867146
137,1778619382.946015,3.4266024,0.5213719,1.6321683,3.4171777,2.9242096,-4.27529
138,1778619382.9560156,3.4266024,0.5213719,1.6321683,3.4171777,2.9242096,-4.27529
139,1778619382.9660165,3.381234,0.27672347,1.6760736,3.4171777,2.9242096,-4.27529
140,1778619382.976017,3.381234,0.27672347,1.6760736,3.4171777,2.9242096,-4.27529
141,1778619382.9860175,3.381234,0.27672347,1.6760736,3.4171777,2.9242096,-4.27529
142,1778619382.9960182,3.3346457,0.14305714,1.6368027,3.6034913,3.0665412,-4.230086
143,1778619383.0060184,3.3346457,0.14305714,1.6368027,3.6034913,3.0665412,-4.230086
144,1778619383.0161397,2.8616912,-0.3918521,1.0575007,3.957182,3.1948228,-3.949699
145,1778619383.0261414,2.8616912,-0.3918521,1.0575007,3.957182,3.1948228,-3.949699
146,1778619383.036142,2.8616912,-0.3918521,1.0575007,3.957182,3.1948228,-3.949699
147,1778619383.046143,-0.20165811,-1.0377434,-0.57503355,1.7611232,0.102014415,0.811992
148,1778619383.0561438,-0.20165811,-1.0377434,-0.57503355,1.7611232,0.102014415,0.811992
149,1778619383.066146,-0.20165811,-1.0377434,-0.57503355,1.7611232,0.102014415,0.811992
150,1778619383.0761478,-0.25824678,-1.0487198,-0.61991423,1.7611232,0.102014415,0.811992
151,1778619383.0862935,-0.25824678,-1.0487198,-0.61991423,1.7611232,0.102014415,0.811992
152,1778619383.0962968,-0.25824678,-1.0487198,-0.61991423,1.7611232,0.102014415,0.811992
153,1778619383.1062984,-0.25824678,-1.0487198,-0.61991423,1.7611232,0.102014415,0.811992
154,1778619383.1162999,-0.25824678,-1.0487198,-0.61991423,1.7611232,0.102014415,0.811992
155,1778619383.1263006,-0.25824678,-1.0487198,-0.61991423,1.7611232,0.102014415,0.811992
156,1778619383.1363027,-0.25214887,-1.0435975,-0.60991365,1.1239913,-0.5852085,1.3648247
157,1778619383.1463044,-0.25214887,-1.0435975,-0.60991365,1.1239913,-0.5852085,1.3648247
158,1778619383.156306,-0.25214887,-1.0435975,-0.60991365,1.1239913,-0.5852085,1.3648247
159,1778619383.166307,-0.25214887,-1.0435975,-0.60991365,1.1239913,-0.5852085,1.3648247
160,1778619383.1763077,-0.25214887,-1.0435975,-0.60991365,1.1239913,-0.5852085,1.3648247
161,1778619383.186309,-0.25214887,-1.0435975,-0.60991365,1.1239913,-0.5852085,1.3648247
162,1778619383.1963136,-0.25214887,-1.0435975,-0.60991365,1.1239913,-0.5852085,1.3648247
163,1778619383.2063162,-0.25214887,-1.0435975,-0.60991365,1.1239913,-0.5852085,1.3648247
164,1778619383.2163174,-0.25214887,-1.0435975,-0.60991365,1.1239913,-0.5852085,1.3648247
165,1778619383.226321,-0.25214887,-1.0435975,-0.60991365,1.1239913,-0.5852085,1.3648247
166,1778619383.2363226,-0.25214887,-1.0435975,-0.60991365,1.1239913,-0.5852085,1.3648247
167,1778619383.2463233,-0.25214887,-1.0435975,-0.60991365,1.1239913,-0.5852085,1.3648247
168,1778619383.2563262,-0.25214887,-1.0435975,-0.60991365,1.1239913,-0.5852085,1.3648247
169,1778619383.2663293,-0.25214887,-1.0435975,-0.60991365,1.1239913,-0.5852085,1.3648247
170,1778619383.2763317,-0.25214887,-1.0435975,-0.60991365,1.1239913,-0.5852085,1.3648247
171,1778619383.286333,-0.25214887,-1.0435975,-0.60991365,1.1239913,-0.5852085,1.3648247
172,1778619383.2963352,-0.25214887,-1.0435975,-0.60991365,1.1239913,-0.5852085,1.3648247
173,1778619383.3065314,-0.25214887,-1.0435975,-0.60991365,1.1239913,-0.5852085,1.3648247
174,1778619383.316539,-0.25214887,-1.0435975,-0.60991365,1.1239913,-0.5852085,1.3648247
175,1778619383.326542,-0.16653411,-1.039207,-0.4089263,1.1239913,-0.5852085,1.3648247
176,1778619383.3365445,-0.16653411,-1.039207,-0.4089263,1.1239913,-0.5852085,1.3648247
177,1778619383.3465462,-0.16653411,-1.039207,-0.4089263,1.1239913,-0.5852085,1.3648247
178,1778619383.3565478,-0.16653411,-1.039207,-0.4089263,1.1239913,-0.5852085,1.3648247
179,1778619383.3665497,-0.16653411,-1.039207,-0.4089263,1.1239913,-0.5852085,1.3648247
180,1778619383.3765523,-0.16653411,-1.039207,-0.4089263,1.1239913,-0.5852085,1.3648247
181,1778619383.3865554,-0.16653411,-1.039207,-0.4089263,0.87536925,-0.69394237,1.5205952
182,1778619383.3965578,-0.05408852,-1.1967771,-0.44673342,-0.95111644,-0.61330825,3.0697482
183,1778619383.4065611,-0.05408852,-1.1967771,-0.44673342,-0.95111644,-0.61330825,3.0697482
184,1778619383.416564,-0.05408852,-1.1967771,-0.44673342,-0.95111644,-0.61330825,3.0697482
185,1778619383.4265668,-0.05408852,-1.1967771,-0.44673342,-0.95111644,-0.61330825,3.0697482
186,1778619383.4365697,-0.05408852,-1.1967771,-0.44673342,-0.95111644,-0.61330825,3.0697482
187,1778619383.4465714,-0.05408852,-1.1967771,-0.44673342,-0.95111644,-0.61330825,3.0697482
188,1778619383.4565732,-0.05408852,-1.1967771,-0.44673342,-0.95111644,-0.61330825,3.0697482
189,1778619383.466575,-0.05408852,-1.1967771,-0.44673342,-0.95111644,-0.61330825,3.0697482
190,1778619383.4765766,-0.05408852,-1.1967771,-0.44673342,-0.95111644,-0.61330825,3.0697482
191,1778619383.486578,-0.05408852,-1.1967771,-0.44673342,-0.95111644,-0.61330825,3.0697482
192,1778619383.4965796,-0.05408852,-1.1967771,-0.44673342,-1.1136065,-0.97432935,3.3843436
193,1778619383.5065815,-0.05408852,-1.1967771,-0.44673342,-1.1136065,-0.97432935,3.3843436
194,1778619383.5165834,-0.05408852,-1.1967771,-0.44673342,-1.1136065,-0.97432935,3.3843436
195,1778619383.5265858,0.25129515,-1.1406763,-0.22696446,-1.1136065,-0.97432935,3.3843436
196,1778619383.5365877,0.25129515,-1.1406763,-0.22696446,-1.1136065,-0.97432935,3.3843436
197,1778619383.5465891,0.25129515,-1.1406763,-0.22696446,-1.1136065,-0.97432935,3.3843436
198,1778619383.5565908,0.25129515,-1.1406763,-0.22696446,-1.1899645,-1.1581997,3.6158614
199,1778619383.5665922,0.25129515,-1.1406763,-0.22696446,-1.1899645,-1.1581997,3.6158614
200,1778619383.5765939,0.25129515,-1.1406763,-0.22696446,-1.1899645,-1.1581997,3.6158614
201,1778619383.586608,0.25129515,-1.1406763,-0.22696446,-1.1899645,-1.1581997,3.6158614
202,1778619383.5966132,0.25129515,-1.1406763,-0.22696446,-1.1899645,-1.1581997,3.6158614
203,1778619383.6066148,0.25129515,-1.1406763,-0.22696446,-1.1899645,-1.1581997,3.6158614
204,1778619383.6166167,0.10372557,-1.1818982,-0.3052617,-1.1899645,-1.1581997,3.6158614
205,1778619383.6266181,0.10372557,-1.1818982,-0.3052617,-1.1899645,-1.1581997,3.6158614
206,1778619383.6366196,0.10372557,-1.1818982,-0.3052617,-1.1899645,-1.1581997,3.6158614
207,1778619383.6466212,0.10372557,-1.1818982,-0.3052617,-1.1899645,-1.1581997,3.6158614
208,1778619383.656623,0.10372557,-1.1818982,-0.3052617,-1.1899645,-1.1581997,3.6158614
209,1778619383.6666243,0.10372557,-1.1818982,-0.3052617,-1.1899645,-1.1581997,3.6158614
210,1778619383.6766322,0.10372557,-1.1818982,-0.3052617,-1.2345577,-1.1844668,3.7508624
211,1778619383.6866336,0.10372557,-1.1818982,-0.3052617,-1.2345577,-1.1844668,3.7508624
212,1778619383.6966345,0.10372557,-1.1818982,-0.3052617,-1.2345577,-1.1844668,3.7508624
213,1778619383.7066352,0.10372557,-1.1818982,-0.3052617,-1.2345577,-1.1844668,3.7508624
214,1778619383.7166364,0.10372557,-1.1818982,-0.3052617,-1.2345577,-1.1844668,3.7508624
215,1778619383.7266371,0.10372557,-1.1818982,-0.3052617,-1.2345577,-1.1844668,3.7508624
216,1778619383.7366376,0.10372557,-1.1818982,-0.3052617,-1.2345577,-1.1844668,3.7508624
217,1778619383.7466393,0.43520832,-1.0860391,-0.15305771,-1.2345577,-1.1844668,3.7508624
218,1778619383.7566404,0.43520832,-1.0860391,-0.15305771,-1.2345577,-1.1844668,3.7508624
219,1778619383.7666411,0.43520832,-1.0860391,-0.15305771,-1.2345577,-1.1844668,3.7508624
220,1778619383.7766428,3.8712623,0.7135782,1.0801849,-2.393979,-1.2137883,4.218174
221,1778619383.7870598,3.8712623,0.7135782,1.0801849,-2.393979,-1.2137883,4.218174
222,1778619383.7970638,3.8712623,0.7135782,1.0801849,-2.393979,-1.2137883,4.218174
223,1778619383.8070652,3.8712623,0.7135782,1.0801849,-2.141081,-0.8784236,3.522399
224,1778619383.817066,3.8712623,0.7135782,1.0801849,-2.141081,-0.8784236,3.522399
225,1778619383.8270667,3.541487,0.7123586,0.96432453,-2.141081,-0.8784236,3.522399
226,1778619383.8370676,3.541487,0.7123586,0.96432453,-2.141081,-0.8784236,3.522399
227,1778619383.847068,3.541487,0.7123586,0.96432453,-2.141081,-0.8784236,3.522399
228,1778619383.8570685,3.541487,0.7123586,0.96432453,-2.141081,-0.8784236,3.522399
229,1778619383.867069,3.541487,0.7123586,0.96432453,-2.141081,-0.8784236,3.522399
230,1778619383.8770697,3.541487,0.7123586,0.96432453,-2.141081,-0.8784236,3.522399
231,1778619383.8870704,3.541487,0.7123586,0.96432453,-2.141081,-0.8784236,3.522399
232,1778619383.8970768,3.541487,0.7123586,0.96432453,-1.8851287,-0.5247328,2.6574144
233,1778619383.907081,3.541487,0.7123586,0.96432453,-1.8851287,-0.5247328,2.6574144
234,1778619383.9170825,3.541487,0.7123586,0.96432453,-1.8851287,-0.5247328,2.6574144
235,1778619383.9270833,3.541487,0.7123586,0.96432453,-1.8851287,-0.5247328,2.6574144
236,1778619383.9370837,3.541487,0.7123586,0.96432453,-1.8851287,-0.5247328,2.6574144
237,1778619383.9470844,3.541487,0.7123586,0.96432453,-1.8851287,-0.5247328,2.6574144
238,1778619383.9571018,3.541487,0.7123586,0.96432453,-1.8851287,-0.5247328,2.6574144
239,1778619383.967102,3.541487,0.7123586,0.96432453,-1.8851287,-0.5247328,2.6574144
240,1778619383.977103,3.541487,0.7123586,0.96432453,-2.0085235,-0.7024945,3.102124
241,1778619383.987104,3.541487,0.7123586,0.96432453,-2.0085235,-0.7024945,3.102124
242,1778619383.9971044,3.541487,0.7123586,0.96432453,-2.0085235,-0.7024945,3.102124
243,1778619384.007105,3.541487,0.7123586,0.96432453,-2.0085235,-0.7024945,3.102124
244,1778619384.0171058,3.541487,0.7123586,0.96432453,-2.0085235,-0.7024945,3.102124
245,1778619384.027106,3.541487,0.7123586,0.96432453,-2.0085235,-0.7024945,3.102124
246,1778619384.037107,3.0687766,0.70333374,0.7760209,-2.0085235,-0.7024945,3.102124
247,1778619384.047108,3.0687766,0.70333374,0.7760209,-2.0085235,-0.7024945,3.102124
248,1778619384.0571084,3.0687766,0.70333374,0.7760209,-2.0085235,-0.7024945,3.102124
249,1778619384.0671525,2.8029075,0.75211704,0.68674743,-2.0085235,-0.7024945,3.102124
250,1778619384.0771558,2.8029075,0.75211704,0.68674743,-2.0085235,-0.7024945,3.102124
251,1778619384.0871565,2.8029075,0.75211704,0.68674743,-2.0085235,-0.7024945,3.102124
252,1778619384.097157,2.8029075,0.75211704,0.68674743,-2.0085235,-0.7024945,3.102124
253,1778619384.107158,2.8029075,0.75211704,0.68674743,-1.9132285,-0.5247328,2.5651739
254,1778619384.1171591,2.8029075,0.75211704,0.68674743,-1.9132285,-0.5247328,2.5651739
255,1778619384.1271598,2.8029075,0.75211704,0.68674743,-1.9132285,-0.5247328,2.5651739
256,1778619384.1371615,2.8029075,0.75211704,0.68674743,-1.9132285,-0.5247328,2.5651739
257,1778619384.1472745,1.7245518,0.7262619,0.58088756,-2.235765,-0.36712974,2.0569344
258,1778619384.1572757,1.7245518,0.7262619,0.58088756,-2.235765,-0.36712974,2.0569344
259,1778619384.1672773,1.7245518,0.7262619,0.58088756,-2.235765,-0.36712974,2.0569344
260,1778619384.1772788,2.3453197,0.8045591,0.57844836,-2.235765,-0.36712974,2.0569344
261,1778619384.18728,2.3453197,0.8045591,0.57844836,-2.235765,-0.36712974,2.0569344
262,1778619384.1972814,2.3453197,0.8045591,0.57844836,-2.235765,-0.36712974,2.0569344
263,1778619384.2072818,2.3453197,0.8045591,0.57844836,-2.235765,-0.36712974,2.0569344
264,1778619384.2172823,2.3453197,0.8045591,0.57844836,-2.235765,-0.36712974,2.0569344
265,1778619384.2272828,2.0799384,0.73723817,0.56234986,-2.235765,-0.36712974,2.0569344
266,1778619384.2372832,2.0799384,0.73723817,0.56234986,-2.235765,-0.36712974,2.0569344
267,1778619384.247284,2.0799384,0.73723817,0.56234986,-2.235765,-0.36712974,2.0569344
268,1778619384.2572849,2.0799384,0.73723817,0.56234986,-2.4544547,-0.1631009,2.0013456
269,1778619384.267288,2.0799384,0.73723817,0.56234986,-2.4544547,-0.1631009,2.0013456
270,1778619384.2772906,1.5391752,0.8011443,0.6435742,-2.5558581,0.039095346,1.9231551
271,1778619384.2872918,1.5391752,0.8011443,0.6435742,-2.5558581,0.039095346,1.9231551
272,1778619384.2972927,1.5391752,0.8011443,0.6435742,-2.5558581,0.039095346,1.9231551
273,1778619384.3072934,1.5391752,0.8011443,0.6435742,-2.5558581,0.039095346,1.9231551
274,1778619384.3172984,0.6327808,0.957251,0.64162284,-1.5351032,0.3921752,0.69104075
275,1778619384.3273005,0.6327808,0.957251,0.64162284,-1.5351032,0.3921752,0.69104075
276,1778619384.3373015,0.31617698,1.0323772,0.644062,0.54366964,-0.03848448,-0.67363113
277,1778619384.3473034,0.31617698,1.0323772,0.644062,0.54366964,-0.03848448,-0.67363113
278,1778619384.3573048,0.31617698,1.0323772,0.644062,0.54366964,-0.03848448,-0.67363113
279,1778619384.3673053,0.31617698,1.0323772,0.644062,0.54366964,-0.03848448,-0.67363113
280,1778619384.377307,0.31617698,1.0323772,0.644062,0.54366964,-0.03848448,-0.67363113
281,1778619384.3873086,0.31617698,1.0323772,0.644062,0.54366964,-0.03848448,-0.67363113
282,1778619384.3973098,0.21178065,1.024328,0.6543065,0.54366964,-0.03848448,-0.67363113
283,1778619384.4073105,0.21178065,1.024328,0.6543065,0.54366964,-0.03848448,-0.67363113
284,1778619384.4173112,0.21178065,1.024328,0.6543065,0.54366964,-0.03848448,-0.67363113
285,1778619384.4273162,0.21178065,1.024328,0.6543065,0.71043575,0.12400555,-0.90698147
286,1778619384.4373183,0.21178065,1.024328,0.6543065,0.71043575,0.12400555,-0.90698147
287,1778619384.4473193,0.21178065,1.024328,0.6543065,0.71043575,0.12400555,-0.90698147
288,1778619384.4573202,0.21178065,1.024328,0.6543065,0.71043575,0.12400555,-0.90698147
289,1778619384.4673207,0.21178065,1.024328,0.6543065,0.71043575,0.12400555,-0.90698147
290,1778619384.4773214,0.21178065,1.024328,0.6543065,0.71043575,0.12400555,-0.90698147
291,1778619384.4873219,0.21178065,1.024328,0.6543065,0.71043575,0.12400555,-0.90698147
292,1778619384.4973223,0.21178065,1.024328,0.6543065,0.71043575,0.12400555,-0.90698147
293,1778619384.507323,0.21178065,1.024328,0.6543065,0.71043575,0.12400555,-0.90698147
294,1778619384.5173237,0.21178065,1.024328,0.6543065,0.71043575,0.12400555,-0.90698147
295,1778619384.5273247,0.1539724,0.99139935,0.6221095,0.71043575,0.12400555,-0.90698147
296,1778619384.5373309,0.12811723,0.9772521,0.59113204,0.82283485,0.29382595,-1.1195624
297,1778619384.5473337,0.12811723,0.9772521,0.59113204,0.82283485,0.29382595,-1.1195624
298,1778619384.5573356,0.12811723,0.9772521,0.59113204,0.82283485,0.29382595,-1.1195624
299,1778619384.5677443,2.5138662,0.70382154,0.7665081,2.3909247,1.6041309,-3.32173
300,1778619384.5777462,2.5138662,0.70382154,0.7665081,2.3909247,1.6041309,-3.32173
301,1778619384.587747,2.5138662,0.70382154,0.7665081,2.3909247,1.6041309,-3.32173
302,1778619384.597749,2.5138662,0.70382154,0.7665081,2.3909247,1.6041309,-3.32173
303,1778619384.6077502,2.5138662,0.70382154,0.7665081,2.3909247,1.6041309,-3.32173
304,1778619384.6177511,2.5138662,0.70382154,0.7665081,2.3964226,1.7269148,-3.362047
305,1778619384.6277516,2.5138662,0.70382154,0.7665081,2.3964226,1.7269148,-3.362047
306,1778619384.6377525,2.5138662,0.70382154,0.7665081,2.3964226,1.7269148,-3.362047
307,1778619384.6477532,2.5138662,0.70382154,0.7665081,2.3964226,1.7269148,-3.362047
308,1778619384.6577537,2.5138662,0.70382154,0.7665081,2.3964226,1.7269148,-3.362047
309,1778619384.6677587,2.5138662,0.70382154,0.7665081,2.3964226,1.7269148,-3.362047
310,1778619384.6777747,3.020481,0.6843082,0.778704,2.3964226,1.7269148,-3.362047
311,1778619384.6877754,3.020481,0.6843082,0.778704,2.3964226,1.7269148,-3.362047
312,1778619384.6977756,3.020481,0.6843082,0.778704,2.3964226,1.7269148,-3.362047
313,1778619384.7077851,1.2186687,-0.8250481,0.21306121,2.5937319,0.82650006,-3.9967356
314,1778619384.7177882,1.2186687,-0.8250481,0.21306121,2.5937319,0.82650006,-3.9967356
315,1778619384.7277892,1.2186687,-0.8250481,0.21306121,2.5937319,0.82650006,-3.9967356
316,1778619384.7377913,1.2186687,-0.8250481,0.21306121,2.9767442,0.5516109,-3.7792678
317,1778619384.7477925,1.2186687,-0.8250481,0.21306121,2.9767442,0.5516109,-3.7792678
318,1778619384.757793,1.2186687,-0.8250481,0.21306121,2.9767442,0.5516109,-3.7792678
319,1778619384.7677937,1.2186687,-0.8250481,0.21306121,2.9767442,0.5516109,-3.7792678
320,1778619384.7777948,0.77498424,-0.9872528,0.17549805,4.2436776,0.3262018,-2.9710937
321,1778619384.7877958,0.77498424,-0.9872528,0.17549805,4.2436776,0.3262018,-2.9710937
322,1778619384.797796,0.77498424,-0.9872528,0.17549805,4.2436776,0.3262018,-2.9710937
323,1778619384.8077967,0.53667766,-1.071404,0.098420374,4.2436776,0.3262018,-2.9710937
324,1778619384.8177972,0.53667766,-1.071404,0.098420374,4.2436776,0.3262018,-2.9710937
325,1778619384.8277974,0.53667766,-1.071404,0.098420374,4.2436776,0.3262018,-2.9710937
326,1778619384.8377984,0.3632529,-1.1209191,0.033538543,4.251008,0.2254091,-2.6424484
327,1778619384.847799,0.3632529,-1.1209191,0.033538543,4.251008,0.2254091,-2.6424484
328,1778619384.8577995,0.3632529,-1.1209191,0.033538543,4.251008,0.2254091,-2.6424484
329,1778619384.8678,0.3632529,-1.1209191,0.033538543,4.251008,0.2254091,-2.6424484
330,1778619384.877803,0.3632529,-1.1209191,0.033538543,4.251008,0.2254091,-2.6424484
331,1778619384.8878047,0.3632529,-1.1209191,0.033538543,4.251008,0.2254091,-2.6424484
332,1778619384.897806,0.3632529,-1.1209191,0.033538543,3.8832674,0.058032155,-2.016312
333,1778619384.9078062,0.3632529,-1.1209191,0.033538543,3.8832674,0.058032155,-2.016312
334,1778619384.917807,-0.15872878,-1.1567748,-0.15305771,2.6670356,0.25656322,-0.90392715
335,1778619384.927808,-0.17921777,-1.1618971,-0.22940363,2.6670356,0.25656322,-0.90392715
336,1778619384.937809,-0.17921777,-1.1618971,-0.22940363,2.6670356,0.25656322,-0.90392715
337,1778619384.9478097,-0.17921777,-1.1618971,-0.22940363,2.6670356,0.25656322,-0.90392715
338,1778619384.957811,-0.20678036,-1.176776,-0.28965104,1.0928371,0.41538805,-0.47693267
339,1778619384.9678116,-0.20678036,-1.176776,-0.28965104,1.0928371,0.41538805,-0.47693267
340,1778619384.9778125,-0.29995653,-1.2655616,-0.24891695,-0.46181378,0.42699447,-0.5196932
341,1778619384.987815,-0.29995653,-1.2655616,-0.24891695,-0.46181378,0.42699447,-0.5196932
342,1778619384.9978163,-0.29995653,-1.2655616,-0.24891695,-0.46181378,0.42699447,-0.5196932
343,1778619385.0078173,-0.29995653,-1.2655616,-0.24891695,-0.46181378,0.42699447,-0.5196932
344,1778619385.017818,-0.29995653,-1.2655616,-0.24891695,-0.46181378,0.42699447,-0.5196932
345,1778619385.0278187,-0.29995653,-1.2655616,-0.24891695,-0.46181378,0.42699447,-0.5196932
346,1778619385.0378191,-0.46508813,-1.5767993,-0.10037171,-1.535714,0.69272065,-0.20631959
347,1778619385.0478196,-0.46508813,-1.5767993,-0.10037171,-1.535714,0.69272065,-0.20631959
348,1778619385.05782,-0.46508813,-1.5767993,-0.10037171,-1.7586797,0.79045904,0.09605849
349,1778619385.0678208,-0.46508813,-1.5767993,-0.10037171,-1.7586797,0.79045904,0.09605849
350,1778619385.0778215,-0.46508813,-1.5767993,-0.10037171,-1.7586797,0.79045904,0.09605849
351,1778619385.0878217,-0.62900007,-1.6575357,-0.14647196,-1.856418,0.77213305,0.8315397
352,1778619385.0978227,-0.62900007,-1.6575357,-0.14647196,-1.856418,0.77213305,0.8315397
353,1778619385.1078346,-0.62900007,-1.6575357,-0.14647196,-1.856418,0.77213305,0.8315397
354,1778619385.117839,-0.5887539,-1.6026545,-0.24745347,-1.693928,0.33353218,1.7765476
355,1778619385.1279836,-0.5887539,-1.6026545,-0.24745347,-1.693928,0.33353218,1.7765476
356,1778619385.137984,-0.5887539,-1.6026545,-0.24745347,-1.693928,0.33353218,1.7765476
357,1778619385.1479847,-0.10409144,-1.3643479,-0.2086707,-1.2253947,-0.81916964,3.0941827
358,1778619385.1579852,-0.10409144,-1.3643479,-0.2086707,-1.2253947,-0.81916964,3.0941827
359,1778619385.167986,-0.10409144,-1.3643479,-0.2086707,-1.2253947,-0.81916964,3.0941827
360,1778619385.1779866,-0.10409144,-1.3643479,-0.2086707,-1.2253947,-0.81916964,3.0941827
361,1778619385.1879876,-0.10409144,-1.3643479,-0.2086707,-1.2253947,-0.81916964,3.0941827
362,1778619385.1979885,0.059820563,-1.2860507,-0.17403455,-1.0891719,-1.1001675,3.350135
363,1778619385.20799,0.059820563,-1.2860507,-0.17403455,-1.0891719,-1.1001675,3.350135
364,1778619385.2179904,0.059820563,-1.2860507,-0.17403455,-1.0891719,-1.1001675,3.350135
365,1778619385.2279913,0.059820563,-1.2860507,-0.17403455,-1.0891719,-1.1001675,3.350135
366,1778619385.2379923,0.059820563,-1.2860507,-0.17403455,-1.0891719,-1.1001675,3.350135
367,1778619385.2479932,0.059820563,-1.2860507,-0.17403455,-1.0891719,-1.1001675,3.350135
368,1778619385.258024,0.059820563,-1.2860507,-0.17403455,-1.0891719,-1.1001675,3.350135
369,1778619385.2680252,0.059820563,-1.2860507,-0.17403455,-1.0891719,-1.1001675,3.350135
370,1778619385.2780266,0.8169379,-0.91505337,-0.21428078,-2.5668538,0.3762927,3.160767
371,1778619385.2880273,0.8169379,-0.91505337,-0.21428078,-2.5668538,0.3762927,3.160767
372,1778619385.2980282,0.8169379,-0.91505337,-0.21428078,-2.5668538,0.3762927,3.160767
373,1778619385.308029,1.1406153,-0.90480894,-0.4233174,-2.5668538,0.3762927,3.160767
374,1778619385.3180299,1.1406153,-0.90480894,-0.4233174,-3.207651,0.46120292,3.2493424
375,1778619385.32803,1.1406153,-0.90480894,-0.4233174,-3.207651,0.46120292,3.2493424
376,1778619385.338033,2.7670517,-0.16037522,0.13330047,-4.277886,-1.8399247,5.4441795
377,1778619385.3480384,2.7670517,-0.16037522,0.13330047,-4.277886,-1.8399247,5.4441795
378,1778619385.3580406,2.7670517,-0.16037522,0.13330047,-4.277886,-1.8399247,5.4441795
379,1778619385.368042,2.7670517,-0.16037522,0.13330047,-4.277886,-1.8399247,5.4441795
380,1778619385.3782823,3.292936,0.21989086,0.44575772,-4.277886,-1.8399247,5.4441795
381,1778619385.3882868,3.292936,0.21989086,0.44575772,-4.277886,-1.8399247,5.4441795
382,1778619385.3982875,3.292936,0.21989086,0.44575772,-4.277886,-1.8399247,5.4441795
383,1778619385.4082882,3.292936,0.21989086,0.44575772,-4.277886,-1.8399247,5.4441795
384,1778619385.4182887,3.292936,0.21989086,0.44575772,-4.277886,-1.8399247,5.4441795
385,1778619385.4282904,3.292936,0.21989086,0.44575772,-4.277886,-1.8399247,5.4441795
386,1778619385.4382913,3.292936,0.21989086,0.44575772,-4.277886,-1.8399247,5.4441795
387,1778619385.4482923,3.292936,0.21989086,0.44575772,-4.277886,-1.8399247,5.4441795
388,1778619385.458293,3.292936,0.21989086,0.44575772,-4.277886,-1.8399247,5.4441795
389,1778619385.4682934,3.292936,0.21989086,0.44575772,-4.277886,-1.8399247,5.4441795
390,1778619385.4782944,3.292936,0.21989086,0.44575772,-4.277886,-1.8399247,5.4441795
391,1778619385.4882963,3.292936,0.21989086,0.44575772,-4.277886,-1.8399247,5.4441795
392,1778619385.498297,3.292936,0.21989086,0.44575772,-4.277886,-1.8399247,5.4441795
393,1778619385.5082982,3.7039356,0.6282074,0.6174751,-4.00544,-1.8246531,5.298794
394,1778619385.5182993,3.7039356,0.6282074,0.6174751,-4.00544,-1.8246531,5.298794
395,1778619385.5283,3.7039356,0.6282074,0.6174751,-4.00544,-1.8246531,5.298794
396,1778619385.538301,3.8002825,0.8909056,0.714066,-4.00544,-1.8246531,5.298794
397,1778619385.5483098,3.8002825,0.8909056,0.714066,-3.8789914,-1.5656464,4.683653
398,1778619385.5583286,3.8002825,0.8909056,0.714066,-3.8789914,-1.5656464,4.683653
399,1778619385.5683305,2.894864,0.97920346,0.8330974,-3.7653706,-0.5687151,3.0068293
400,1778619385.578332,2.894864,0.97920346,0.8330974,-3.7653706,-0.5687151,3.0068293
401,1778619385.5883515,2.894864,0.97920346,0.8330974,-3.7653706,-0.5687151,3.0068293
402,1778619385.5983596,2.894864,0.97920346,0.8330974,-3.7653706,-0.5687151,3.0068293
403,1778619385.6083605,2.894864,0.97920346,0.8330974,-3.7653706,-0.5687151,3.0068293
404,1778619385.6183617,2.894864,0.97920346,0.8330974,-3.7653706,-0.5687151,3.0068293
405,1778619385.6283653,2.894864,0.97920346,0.8330974,-3.7653706,-0.5687151,3.0068293
406,1778619385.6383667,2.894864,0.97920346,0.8330974,-3.7653706,-0.5687151,3.0068293
407,1778619385.6485236,2.2706814,0.86724573,0.76016635,-3.5246897,-0.5210677,2.831511
408,1778619385.6585333,2.2706814,0.86724573,0.76016635,-3.5246897,-0.5210677,2.831511
409,1778619385.6685367,2.2706814,0.86724573,0.76016635,-3.5246897,-0.5210677,2.831511
410,1778619385.678539,2.2706814,0.86724573,0.76016635,-3.5246897,-0.5210677,2.831511
411,1778619385.6885407,2.2706814,0.86724573,0.76016635,-3.5246897,-0.5210677,2.831511
412,1778619385.698542,2.2706814,0.86724573,0.76016635,-3.5246897,-0.5210677,2.831511
413,1778619385.7085435,0.8391343,0.8357805,0.69943106,-1.9437717,-0.23701553,1.3642138
414,1778619385.718545,0.8391343,0.8357805,0.69943106,-1.9437717,-0.23701553,1.3642138
415,1778619385.7285464,0.8391343,0.8357805,0.69943106,-1.9437717,-0.23701553,1.3642138
416,1778619385.7389033,0.8391343,0.8357805,0.69943106,-1.9437717,-0.23701553,1.3642138
417,1778619385.7489042,0.8391343,0.8357805,0.69943106,-1.9437717,-0.23701553,1.3642138
418,1778619385.7589054,0.8391343,0.8357805,0.69943106,-1.9437717,-0.23701553,1.3642138
419,1778619385.7689066,0.8391343,0.8357805,0.69943106,-1.9437717,-0.23701553,1.3642138
420,1778619385.7789087,0.8391343,0.8357805,0.69943106,-1.9437717,-0.23701553,1.3642138
421,1778619385.78891,0.7366893,0.84212226,0.66430706,-1.7427973,-0.2290743,1.4020873
422,1778619385.7989113,0.7366893,0.84212226,0.66430706,-1.7427973,-0.2290743,1.4020873
423,1778619385.8089137,0.7366893,0.84212226,0.66430706,-1.7427973,-0.2290743,1.4020873
424,1778619385.8189156,0.7366893,0.84212226,0.66430706,-1.4477495,-0.3262018,1.4839432
425,1778619385.8290994,0.7366893,0.84212226,0.66430706,-1.4477495,-0.3262018,1.4839432
426,1778619385.8391006,0.7366893,0.84212226,0.66430706,-1.4477495,-0.3262018,1.4839432
427,1778619385.849102,0.51692045,0.9218831,0.56478906,-1.4477495,-0.3262018,1.4839432
428,1778619385.8591027,0.51692045,0.9218831,0.56478906,-1.4477495,-0.3262018,1.4839432
429,1778619385.8691037,0.51692045,0.9218831,0.56478906,-1.4477495,-0.3262018,1.4839432
430,1778619385.8791137,0.4608196,1.0084735,0.5477149,-1.4477495,-0.3262018,1.4839432
431,1778619385.889117,0.4608196,1.0084735,0.5477149,-1.4477495,-0.3262018,1.4839432
432,1778619385.8991184,0.34203213,1.2484875,0.49649242,-1.2113448,-0.44959646,1.4906628
433,1778619385.9091196,0.34203213,1.2484875,0.49649242,-1.2113448,-0.44959646,1.4906628
434,1778619385.919407,0.34203213,1.2484875,0.49649242,-1.2113448,-0.44959646,1.4906628
435,1778619385.929409,0.47179583,1.1170164,0.5506419,-0.97005326,-0.5009091,1.3507748
436,1778619385.9394095,0.47179583,1.1170164,0.5506419,-0.97005326,-0.5009091,1.3507748
437,1778619385.9494107,0.47179583,1.1170164,0.5506419,-0.97005326,-0.5009091,1.3507748
438,1778619385.9594123,0.46203914,1.2197053,0.5362508,-0.97005326,-0.5009091,1.3507748
439,1778619385.9694133,0.46203914,1.2197053,0.5362508,-0.97005326,-0.5009091,1.3507748
440,1778619385.9794137,0.46203914,1.2197053,0.5362508,-0.97005326,-0.5009091,1.3507748
441,1778619385.9894235,0.2654423,1.2119,0.47405204,-0.54489136,-0.41355544,0.37766716
442,1778619385.9994268,0.2654423,1.2119,0.47405204,-0.54489136,-0.41355544,0.37766716
443,1778619386.0097723,0.2654423,1.2119,0.47405204,-0.54489136,-0.41355544,0.37766716
444,1778619386.0197732,0.2654423,1.2119,0.47405204,-0.54489136,-0.41355544,0.37766716
445,1778619386.0297742,0.2654423,1.2119,0.47405204,-0.54489136,-0.41355544,0.37766716
446,1778619386.039775,0.2654423,1.2119,0.47405204,-0.5082395,-0.3188714,-0.066431545
447,1778619386.0497758,0.2654423,1.2119,0.47405204,-0.5082395,-0.3188714,-0.066431545
448,1778619386.0597765,0.14689882,1.121163,0.4630758,-0.5082395,-0.3188714,-0.066431545
449,1778619386.0697775,0.14689882,1.121163,0.4630758,-0.5082395,-0.3188714,-0.066431545
450,1778619386.079778,0.14689882,1.121163,0.4630758,-0.5082395,-0.3188714,-0.066431545
451,1778619386.089779,0.14689882,1.121163,0.4630758,-0.5772672,-0.16676609,-0.35231626
452,1778619386.099782,0.14689882,1.121163,0.4630758,-0.5772672,-0.16676609,-0.35231626
453,1778619386.1097836,0.14689882,1.121163,0.4630758,-0.5772672,-0.16676609,-0.35231626
454,1778619386.119785,0.14689882,1.121163,0.4630758,-0.5772672,-0.16676609,-0.35231626
455,1778619386.1297932,0.14689882,1.121163,0.4630758,-0.5772672,-0.16676609,-0.35231626
456,1778619386.1397965,0.14689882,1.121163,0.4630758,-0.5772672,-0.16676609,-0.35231626
457,1778619386.1497993,0.079333894,1.0572568,0.49673632,-0.69638586,0.022601997,-0.4659371
458,1778619386.159802,0.079333894,1.0572568,0.49673632,-0.69638586,0.022601997,-0.4659371
459,1778619386.1698027,0.13567865,1.0787215,0.56917953,-0.5894845,0.43127054,-0.5319105
460,1778619386.1798036,0.13567865,1.0787215,0.56917953,-0.5894845,0.43127054,-0.5319105
461,1778619386.1898046,0.13567865,1.0787215,0.56917953,-0.5894845,0.43127054,-0.5319105
462,1778619386.1998057,0.13567865,1.0787215,0.56917953,-0.5894845,0.43127054,-0.5319105
463,1778619386.2098072,0.27788207,1.1423838,0.5816193,-0.5894845,0.43127054,-0.5319105
464,1778619386.219808,0.27788207,1.1423838,0.5816193,-0.5894845,0.43127054,-0.5319105
465,1778619386.2298086,0.27788207,1.1423838,0.5816193,-0.5894845,0.43127054,-0.5319105
466,1778619386.2398121,0.27788207,1.1423838,0.5816193,-0.5894845,0.43127054,-0.5319105
467,1778619386.2498136,0.27788207,1.1423838,0.5816193,-0.5894845,0.43127054,-0.5319105
468,1778619386.2598166,0.27788207,1.1423838,0.5816193,-0.23151775,0.49418962,-0.77503467
469,1778619386.2698174,0.27788207,1.1423838,0.5816193,-0.23151775,0.49418962,-0.77503467
470,1778619386.279818,0.27788207,1.1423838,0.5816193,-0.23151775,0.49418962,-0.77503467
471,1778619386.2898188,3.9580967,0.3620943,0.42551264,1.7379103,1.2278382,-4.441445
472,1778619386.2998195,3.9580967,0.3620943,0.42551264,1.7379103,1.2278382,-4.441445
473,1778619386.3098204,3.9580967,0.3620943,0.42551264,1.7379103,1.2278382,-4.441445
474,1778619386.3198218,3.9580967,0.3620943,0.42551264,1.7379103,1.2278382,-4.441445
475,1778619386.3298225,3.9580967,0.3620943,0.42551264,1.7379103,1.2278382,-4.441445
476,1778619386.3398237,3.9580967,0.3620943,0.42551264,1.7379103,1.2278382,-4.441445
477,1778619386.3500266,3.9580967,0.3620943,0.42551264,1.7379103,1.2278382,-4.441445
478,1778619386.3600276,3.9580967,0.3620943,0.42551264,1.7379103,1.2278382,-4.441445
479,1778619386.3700283,3.9580967,0.3620943,0.42551264,1.7379103,1.2278382,-4.441445
480,1778619386.3800309,3.9580967,0.3620943,0.42551264,1.7379103,1.2278382,-4.441445
481,1778619386.390033,3.9580967,0.3620943,0.42551264,1.7379103,1.2278382,-4.441445
482,1778619386.400035,2.8880343,-0.66869754,-0.12769037,1.3603959,1.3304635,-4.6381435
483,1778619386.410042,2.8880343,-0.66869754,-0.12769037,1.3603959,1.3304635,-4.6381435
484,1778619386.4200451,2.8880343,-0.66869754,-0.12769037,1.3603959,1.3304635,-4.6381435
485,1778619386.4300468,2.8880343,-0.66869754,-0.12769037,1.3603959,1.3304635,-4.6381435
486,1778619386.4400482,2.8880343,-0.66869754,-0.12769037,1.3603959,1.3304635,-4.6381435
487,1778619386.4500496,2.8880343,-0.66869754,-0.12769037,1.3603959,1.3304635,-4.6381435
488,1778619386.460051,2.5063047,-0.77382565,-0.13525179,1.3603959,1.3304635,-4.6381435
489,1778619386.4700518,2.5063047,-0.77382565,-0.13525179,1.3603959,1.3304635,-4.6381435
490,1778619386.4800525,2.5063047,-0.77382565,-0.13525179,1.3603959,1.3304635,-4.6381435
491,1778619386.4900537,2.5063047,-0.77382565,-0.13525179,0.97371846,1.2986985,-4.468934
492,1778619386.5000544,2.5063047,-0.77382565,-0.13525179,0.97371846,1.2986985,-4.468934
493,1778619386.5100548,2.5063047,-0.77382565,-0.13525179,0.97371846,1.2986985,-4.468934
494,1778619386.52006,-0.22726935,-0.8726119,-0.26477155,-0.38240135,-1.0543526,0.11804962
495,1778619386.5300627,-0.22726935,-0.8726119,-0.26477155,-0.38240135,-1.0543526,0.11804962
496,1778619386.540064,-0.22726935,-0.8726119,-0.26477155,-0.38240135,-1.0543526,0.11804962
497,1778619386.550413,-0.22726935,-0.8726119,-0.26477155,-0.50885034,-1.1691952,0.2988656
498,1778619386.5604136,-0.22726935,-0.8726119,-0.26477155,-0.50885034,-1.1691952,0.2988656
499,1778619386.5704145,-0.22726935,-0.8726119,-0.26477155,-0.50885034,-1.1691952,0.2988656
500,1778619386.5804152,-0.22726935,-0.8726119,-0.26477155,-0.50885034,-1.1691952,0.2988656
501,1778619386.5904162,-0.1972676,-0.8201698,-0.18525472,-0.50885034,-1.1691952,0.2988656
502,1778619386.6004176,-0.1972676,-0.8201698,-0.18525472,-0.72815084,-1.1618648,0.46807513
503,1778619386.6104183,-0.1972676,-0.8201698,-0.18525472,-0.72815084,-1.1618648,0.46807513
504,1778619386.620419,-0.1972676,-0.8201698,-0.18525472,-0.72815084,-1.1618648,0.46807513
505,1778619386.63042,-0.16848545,-0.7513853,-0.20452413,-0.72815084,-1.1618648,0.46807513
506,1778619386.640421,-0.16848545,-0.7513853,-0.20452413,-0.72815084,-1.1618648,0.46807513
507,1778619386.6504219,-0.16848545,-0.7513853,-0.20452413,-0.72815084,-1.1618648,0.46807513
508,1778619386.6604226,-0.1501917,-0.772606,-0.23916028,-0.72815084,-1.1618648,0.46807513
509,1778619386.6704237,-0.1501917,-0.772606,-0.23916028,-0.72815084,-1.1618648,0.46807513
510,1778619386.680425,-0.1501917,-0.772606,-0.23916028,-0.72815084,-1.1618648,0.46807513
511,1778619386.690651,1.1098819,-1.1784834,-0.3769732,-3.8087418,-2.9523094,0.9921971
512,1778619386.7006526,1.1098819,-1.1784834,-0.3769732,-3.8087418,-2.9523094,0.9921971
513,1778619386.7106535,1.1098819,-1.1784834,-0.3769732,-3.8087418,-2.9523094,0.9921971
514,1778619386.721305,1.1098819,-1.1784834,-0.3769732,-4.2467318,-3.1202972,1.3642138
515,1778619386.7313058,1.1098819,-1.1784834,-0.3769732,-4.2467318,-3.1202972,1.3642138
516,1778619386.7413065,1.1098819,-1.1784834,-0.3769732,-4.2467318,-3.1202972,1.3642138
517,1778619386.7516904,2.204092,-1.0148153,0.46185625,-5.6401143,-2.3322818,3.5877616
518,1778619386.7616937,2.204092,-1.0148153,0.46185625,-5.6401143,-2.3322818,3.5877616
519,1778619386.771695,2.204092,-1.0148153,0.46185625,-5.6401143,-2.3322818,3.5877616
520,1778619386.7816958,2.204092,-1.0148153,0.46185625,-5.6401143,-2.3322818,3.5877616
521,1778619386.7917016,2.485328,-0.7189444,0.68455213,-5.995638,-1.7061453,3.599368
522,1778619386.801711,2.485328,-0.7189444,0.68455213,-5.995638,-1.7061453,3.599368
523,1778619386.8117115,2.485328,-0.7189444,0.68455213,-5.995638,-1.7061453,3.599368
524,1778619386.821713,2.839251,-0.2874558,0.8296825,-6.2778573,-1.3176353,3.5083492
525,1778619386.8317165,2.839251,-0.2874558,0.8296825,-6.2778573,-1.3176353,3.5083492
526,1778619386.8417187,2.839251,-0.2874558,0.8296825,-6.2778573,-1.3176353,3.5083492
527,1778619386.8517196,2.839251,-0.2874558,0.8296825,-6.2778573,-1.3176353,3.5083492
528,1778619386.8617206,2.839251,-0.2874558,0.8296825,-6.2778573,-1.3176353,3.5083492
529,1778619386.871721,2.839251,-0.2874558,0.8296825,-6.2778573,-1.3176353,3.5083492
530,1778619386.881722,2.8958397,-0.1908648,0.9260297,-6.2778573,-1.3176353,3.5083492
531,1778619386.8917258,2.8958397,-0.1908648,0.9260297,-6.2778573,-1.3176353,3.5083492
532,1778619386.901727,2.8958397,-0.1908648,0.9260297,-6.2778573,-1.3176353,3.5083492
533,1778619386.9117281,2.8958397,-0.1908648,0.9260297,-6.2778573,-1.3176353,3.5083492
534,1778619386.9217286,2.8958397,-0.1908648,0.9260297,-6.2778573,-1.3176353,3.5083492
535,1778619386.9317293,2.8958397,-0.1908648,0.9260297,-6.2778573,-1.3176353,3.5083492
536,1778619386.9417298,2.8958397,-0.1908648,0.9260297,-6.757997,-0.8454369,3.3275332
537,1778619386.951731,2.8958397,-0.1908648,0.9260297,-6.757997,-0.8454369,3.3275332
538,1778619386.9617321,2.8958397,-0.1908648,0.9260297,-6.757997,-0.8454369,3.3275332
539,1778619386.9717336,2.8958397,-0.1908648,0.9260297,-6.757997,-0.8454369,3.3275332
540,1778619386.9817348,2.8958397,-0.1908648,0.9260297,-6.757997,-0.8454369,3.3275332
541,1778619386.9917357,2.8958397,-0.1908648,0.9260297,-6.757997,-0.8454369,3.3275332
542,1778619387.0017369,2.681437,-0.063540295,1.3255651,-7.3346534,-0.6377428,3.2615597
543,1778619387.0117376,2.681437,-0.063540295,1.3255651,-7.3346534,-0.6377428,3.2615597
544,1778619387.0217383,2.681437,-0.063540295,1.3255651,-7.3346534,-0.6377428,3.2615597
545,1778619387.0317392,2.681437,-0.063540295,1.3255651,-7.3346534,-0.6377428,3.2615597
546,1778619387.0417397,2.4780104,-0.06695513,1.6060693,-7.386577,-0.3280344,3.1412194
547,1778619387.0517406,2.4780104,-0.06695513,1.6060693,-7.386577,-0.3280344,3.1412194
548,1778619387.0617409,2.4780104,-0.06695513,1.6060693,-7.386577,-0.3280344,3.1412194
549,1778619387.0717423,2.2838528,-0.074272625,1.7536389,-7.1947656,-0.09529491,3.1418302
550,1778619387.081744,2.0248132,-0.051588375,1.8719386,-6.4849405,0.30298892,3.24751
551,1778619387.0917447,2.0248132,-0.051588375,1.8719386,-6.4849405,0.30298892,3.24751
552,1778619387.1017458,2.0248132,-0.051588375,1.8719386,-6.4849405,0.30298892,3.24751
553,1778619387.1117465,2.0248132,-0.051588375,1.8719386,-6.4849405,0.30298892,3.24751
554,1778619387.1217473,2.0248132,-0.051588375,1.8719386,-6.4849405,0.30298892,3.24751
555,1778619387.1317484,2.0248132,-0.051588375,1.8719386,-6.4849405,0.30298892,3.24751
556,1778619387.1417997,1.8855369,0.04914921,1.8109595,-4.783071,0.6994402,3.0587528
557,1778619387.1518016,1.8855369,0.04914921,1.8109595,-4.783071,0.6994402,3.0587528
558,1778619387.1618025,1.8855369,0.04914921,1.8109595,-4.783071,0.6994402,3.0587528
559,1778619387.1718032,1.8855369,0.04914921,1.8109595,-4.783071,0.6994402,3.0587528
560,1778619387.181804,1.8855369,0.04914921,1.8109595,-4.783071,0.6994402,3.0587528
561,1778619387.1918046,1.8855369,0.04914921,1.8109595,-4.783071,0.6994402,3.0587528
562,1778619387.2018054,1.8855369,0.04914921,1.8109595,-4.783071,0.6994402,3.0587528
563,1778619387.2118063,1.8855369,0.04914921,1.8109595,-4.783071,0.6994402,3.0587528
564,1778619387.221807,1.8855369,0.04914921,1.8109595,-4.783071,0.6994402,3.0587528
565,1778619387.2321126,1.8855369,0.04914921,1.8109595,-4.783071,0.6994402,3.0587528
566,1778619387.2421134,1.5589324,0.1630583,1.5485051,-4.783071,0.6994402,3.0587528
567,1778619387.252116,1.5589324,0.1630583,1.5485051,-4.783071,0.6994402,3.0587528
568,1778619387.2621171,1.5589324,0.1630583,1.5485051,-4.783071,0.6994402,3.0587528
569,1778619387.2721183,1.5589324,0.1630583,1.5485051,-4.1349435,0.54916745,2.895041
570,1778619387.2821207,1.5589324,0.1630583,1.5485051,-4.1349435,0.54916745,2.895041
571,1778619387.2921221,1.5589324,0.1630583,1.5485051,-4.1349435,0.54916745,2.895041
572,1778619387.302123,1.2774526,0.16110696,1.3238578,-4.1349435,0.54916745,2.895041
573,1778619387.3121235,1.2774526,0.16110696,1.3238578,-4.1349435,0.54916745,2.895041
574,1778619387.3221245,1.2774526,0.16110696,1.3238578,-4.1349435,0.54916745,2.895041
575,1778619387.3321257,1.2774526,0.16110696,1.3238578,-4.1349435,0.54916745,2.895041
576,1778619387.3421261,1.2774526,0.16110696,1.3238578,-4.1349435,0.54916745,2.895041
577,1778619387.352127,1.2774526,0.16110696,1.3238578,-4.1349435,0.54916745,2.895041
578,1778619387.3621361,1.0906124,0.13549572,1.2179979,-3.6260934,0.047647454,2.6965098
579,1778619387.3721395,1.0906124,0.13549572,1.2179979,-3.6260934,0.047647454,2.6965098
580,1778619387.3821402,1.0906124,0.13549572,1.2179979,-3.6260934,0.047647454,2.6965098
581,1778619387.3921409,1.0906124,0.13549572,1.2179979,-3.6260934,0.047647454,2.6965098
582,1778619387.402142,1.0906124,0.13549572,1.2179979,-3.6260934,0.047647454,2.6965098
583,1778619387.4121435,1.0906124,0.13549572,1.2179979,-3.6260934,0.047647454,2.6965098
584,1778619387.4221442,1.0906124,0.13549572,1.2179979,-3.6260934,0.047647454,2.6965098
585,1778619387.4321456,0.86767256,0.11451888,1.2321451,-2.8936665,-0.84054995,2.610378
586,1778619387.4421475,0.778643,0.14378887,1.3423954,-2.8936665,-0.84054995,2.610378
587,1778619387.4521492,0.778643,0.14378887,1.3423954,-2.8936665,-0.84054995,2.610378
588,1778619387.4621508,0.778643,0.14378887,1.3423954,-2.1972806,-1.3420699,2.7600398
589,1778619387.4721525,0.778643,0.14378887,1.3423954,-2.1972806,-1.3420699,2.7600398
590,1778619387.4821546,0.778643,0.14378887,1.3423954,-2.1972806,-1.3420699,2.7600398
591,1778619387.4921572,0.778643,0.14378887,1.3423954,-2.1972806,-1.3420699,2.7600398
592,1778619387.5022244,0.778643,0.14378887,1.3423954,-2.1972806,-1.3420699,2.7600398
593,1778619387.5122304,0.778643,0.14378887,1.3423954,-2.1972806,-1.3420699,2.7600398
594,1778619387.5222359,0.778643,0.14378887,1.3423954,-2.1972806,-1.3420699,2.7600398
595,1778619387.5325751,0.778643,0.14378887,1.3423954,-1.571755,-1.4019346,2.9878924
596,1778619387.5425787,0.778643,0.14378887,1.3423954,-1.571755,-1.4019346,2.9878924
597,1778619387.5525799,0.4969192,0.94090855,0.018903542,-2.3878703,1.3567307,0.7845031
598,1778619387.5625806,0.4969192,0.94090855,0.018903542,-2.3878703,1.3567307,0.7845031
599,1778619387.5725813,0.4969192,0.94090855,0.018903542,-2.3878703,1.3567307,0.7845031
600,1778619387.5825818,0.4969192,0.94090855,0.018903542,-2.3878703,1.3567307,0.7845031
601,1778619387.5925825,0.4969192,0.94090855,0.018903542,-2.3878703,1.3567307,0.7845031
602,1778619387.6025836,0.4969192,0.94090855,0.018903542,-2.3878703,1.3567307,0.7845031
603,1778619387.6125846,0.7723012,0.91578513,-0.013293459,-3.2449138,1.4947861,0.4668534
604,1778619387.6225855,0.7723012,0.91578513,-0.013293459,-3.2449138,1.4947861,0.4668534
605,1778619387.6325867,0.7723012,0.91578513,-0.013293459,-3.2449138,1.4947861,0.4668534
606,1778619387.6425877,0.9691419,0.9504213,-0.040612124,-3.2449138,1.4947861,0.4668534
607,1778619387.6525884,0.9691419,0.9504213,-0.040612124,-3.2449138,1.4947861,0.4668534
608,1778619387.662742,0.9691419,0.9504213,-0.040612124,-3.2449138,1.4947861,0.4668534
609,1778619387.6728504,1.9216366,0.8128523,-0.29379764,-3.401906,1.5308272,-0.8446733
610,1778619387.6828523,1.9216366,0.8128523,-0.29379764,-3.401906,1.5308272,-0.8446733
611,1778619387.69286,1.9216366,0.8128523,-0.29379764,-3.401906,1.5308272,-0.8446733
612,1778619387.7028604,1.9216366,0.8128523,-0.29379764,-3.401906,1.5308272,-0.8446733
613,1778619387.7128613,1.9216366,0.8128523,-0.29379764,-3.0115633,1.197295,-1.4201078
614,1778619387.7228622,1.9216366,0.8128523,-0.29379764,-3.0115633,1.197295,-1.4201078
615,1778619387.7328627,1.9216366,0.8128523,-0.29379764,-3.0115633,1.197295,-1.4201078
616,1778619387.7428634,1.9216366,0.8128523,-0.29379764,-3.0115633,1.197295,-1.4201078
617,1778619387.7530503,1.9216366,0.8128523,-0.29379764,-3.0115633,1.197295,-1.4201078
618,1778619387.763051,1.9216366,0.8128523,-0.29379764,-3.0115633,1.197295,-1.4201078
619,1778619387.773052,1.9216366,0.8128523,-0.29379764,-3.0115633,1.197295,-1.4201078
620,1778619387.7830625,2.7331471,0.43575716,-0.3823394,-2.2131631,-0.6511819,-2.1598651
621,1778619387.793066,2.7331471,0.43575716,-0.3823394,-2.2131631,-0.6511819,-2.1598651
622,1778619387.803067,2.7331471,0.43575716,-0.3823394,-2.2131631,-0.6511819,-2.1598651
623,1778619387.8130677,2.418007,-0.46917373,0.024513626,-2.8698428,2.9003859,-3.9881835
624,1778619387.8230684,2.418007,-0.46917373,0.024513626,-2.8698428,2.9003859,-3.9881835
625,1778619387.833069,2.418007,-0.46917373,0.024513626,-2.8698428,2.9003859,-3.9881835
626,1778619387.8434367,2.418007,-0.46917373,0.024513626,-2.8698428,2.9003859,-3.9881835
627,1778619387.8534372,2.418007,-0.46917373,0.024513626,-2.8698428,2.9003859,-3.9881835
628,1778619387.8634381,1.4981972,-0.35648423,-0.20940247,-0.13561198,1.7037019,-3.6082256
629,1778619387.873439,1.4981972,-0.35648423,-0.20940247,-0.13561198,1.7037019,-3.6082256
630,1778619387.8834395,1.4981972,-0.35648423,-0.20940247,-0.13561198,1.7037019,-3.6082256
631,1778619387.8934531,1.4981972,-0.35648423,-0.20940247,-0.13561198,1.7037019,-3.6082256
632,1778619387.9034562,1.4981972,-0.35648423,-0.20940247,-0.13561198,1.7037019,-3.6082256
633,1778619387.9134572,1.4981972,-0.35648423,-0.20940247,-0.13561198,1.7037019,-3.6082256
634,1778619387.9236138,1.0193888,-0.45331916,-0.28648013,0.26083925,0.69516414,-3.2203264
635,1778619387.933618,1.0193888,-0.45331916,-0.28648013,0.26083925,0.69516414,-3.2203264
636,1778619387.9436193,1.0193888,-0.45331916,-0.28648013,0.26083925,0.69516414,-3.2203264
637,1778619387.9536202,1.0193888,-0.45331916,-0.28648013,0.26083925,0.69516414,-3.2203264
638,1778619387.9636216,1.0193888,-0.45331916,-0.28648013,0.26083925,0.69516414,-3.2203264
639,1778619387.9736228,0.4364279,-0.58796114,-0.33038515,0.30665413,0.30543238,-2.8904595
640,1778619387.9836235,0.4364279,-0.58796114,-0.33038515,0.30665413,0.30543238,-2.8904595
641,1778619387.9936247,0.25251475,-0.60723054,-0.35404503,0.26511532,0.17959425,-2.8580835
642,1778619388.0036252,0.25251475,-0.60723054,-0.35404503,0.26511532,0.17959425,-2.8580835
643,1778619388.0136259,0.25251475,-0.60723054,-0.35404503,0.26511532,0.17959425,-2.8580835
644,1778619388.0239906,0.25251475,-0.60723054,-0.35404503,0.26511532,0.17959425,-2.8580835
645,1778619388.0339928,0.14592315,-0.6711367,-0.4189269,0.26511532,0.17959425,-2.8580835
646,1778619388.0439944,0.14592315,-0.6711367,-0.4189269,0.26511532,0.17959425,-2.8580835
647,1778619388.0539958,0.14592315,-0.6711367,-0.4189269,0.118507765,0.07696896,-2.8189883
648,1778619388.0639963,0.14592315,-0.6711367,-0.4189269,0.118507765,0.07696896,-2.8189883
649,1778619388.0739973,0.14592315,-0.6711367,-0.4189269,0.118507765,0.07696896,-2.8189883
650,1778619388.0839984,0.14592315,-0.6711367,-0.4189269,0.118507765,0.07696896,-2.8189883
651,1778619388.0939991,0.14592315,-0.6711367,-0.4189269,0.118507765,0.07696896,-2.8189883
652,1778619388.1040003,0.14592315,-0.6711367,-0.4189269,0.118507765,0.07696896,-2.8189883
653,1778619388.1142068,0.14592315,-0.6711367,-0.4189269,0.118507765,0.07696896,-2.8189883
654,1778619388.124207,0.14592315,-0.6711367,-0.4189269,0.118507765,0.07696896,-2.8189883
655,1778619388.1342082,0.14592315,-0.6711367,-0.4189269,0.118507765,0.07696896,-2.8189883
656,1778619388.1442099,-0.096042186,-1.0114005,-0.5138105,-1.084285,-0.72387475,-2.2966988
657,1778619388.1542106,-0.096042186,-1.0114005,-0.5138105,-1.084285,-0.72387475,-2.2966988
658,1778619388.1642122,-0.096042186,-1.0114005,-0.5138105,-1.084285,-0.72387475,-2.2966988
659,1778619388.1744683,-0.096042186,-1.0114005,-0.5138105,-1.084285,-0.72387475,-2.2966988
660,1778619388.1844702,-0.096042186,-1.0114005,-0.5138105,-1.084285,-0.72387475,-2.2966988
661,1778619388.1944711,-0.096042186,-1.0114005,-0.5138105,-1.084285,-0.72387475,-2.2966988
662,1778619388.2045038,-0.096042186,-1.0114005,-0.5138105,-1.084285,-0.72387475,-2.2966988
663,1778619388.2145045,-0.096042186,-1.0114005,-0.5138105,-1.084285,-0.72387475,-2.2966988
664,1778619388.2245052,-0.096042186,-1.0114005,-0.5138105,-1.084285,-0.72387475,-2.2966988
665,1778619388.2345057,-0.096042186,-1.0114005,-0.5138105,-1.084285,-0.72387475,-2.2966988
666,1778619388.2445066,-0.096042186,-1.0114005,-0.5138105,-1.1545345,-0.9944879,-2.1238241
667,1778619388.254509,-0.1372641,-1.0184741,-0.45770964,-1.1545345,-0.9944879,-2.1238241
668,1778619388.2645109,-0.1372641,-1.0184741,-0.45770964,-1.1545345,-0.9944879,-2.1238241
669,1778619388.2745116,-0.1372641,-1.0184741,-0.45770964,-1.1545345,-0.9944879,-2.1238241
670,1778619388.284513,-0.1372641,-1.0184741,-0.45770964,-1.1545345,-0.9944879,-2.1238241
671,1778619388.294866,-0.1372641,-1.0184741,-0.45770964,-1.1545345,-0.9944879,-2.1238241
672,1778619388.3048668,-0.1372641,-1.0184741,-0.45770964,-1.1545345,-0.9944879,-2.1238241
673,1778619388.3148823,-0.1372641,-1.0184741,-0.45770964,-1.1545345,-0.9944879,-2.1238241
674,1778619388.3249629,-0.1372641,-1.0184741,-0.45770964,-1.1545345,-0.9944879,-2.1238241
675,1778619388.334964,-0.1372641,-1.0184741,-0.45770964,-1.1545345,-0.9944879,-2.1238241
676,1778619388.344965,-0.1372641,-1.0184741,-0.45770964,-1.1545345,-0.9944879,-2.1238241
677,1778619388.3549662,-0.1372641,-1.0184741,-0.45770964,-1.1545345,-0.9944879,-2.1238241
678,1778619388.3649673,-0.1372641,-1.0184741,-0.45770964,-1.1545345,-0.9944879,-2.1238241
679,1778619388.3749678,-0.1372641,-1.0184741,-0.45770964,-1.1545345,-0.9944879,-2.1238241
680,1778619388.385094,-0.1372641,-1.0184741,-0.45770964,-1.1545345,-0.9944879,-2.1238241
681,1778619388.3950949,-0.15872878,-1.0343287,-0.36965573,-1.1545345,-0.9944879,-2.1238241
682,1778619388.4050953,-0.15872878,-1.0343287,-0.36965573,-1.1545345,-0.9944879,-2.1238241
683,1778619388.4150963,-0.15872878,-1.0343287,-0.36965573,-1.1545345,-0.9944879,-2.1238241
684,1778619388.425098,-0.15872878,-1.0343287,-0.36965573,-1.1545345,-0.9944879,-2.1238241
685,1778619388.4351082,-0.15872878,-1.0343287,-0.36965573,-1.1545345,-0.9944879,-2.1238241
686,1778619388.4451125,-0.15872878,-1.0343287,-0.36965573,-1.1545345,-0.9944879,-2.1238241
687,1778619388.4551153,-0.15872878,-1.0343287,-0.36965573,-1.1893537,-1.1893537,-2.001651
688,1778619388.4651172,-0.15872878,-1.0343287,-0.36965573,-1.1893537,-1.1893537,-2.001651
689,1778619388.475455,-0.22409843,-1.1448228,-0.34965453,-1.3060288,-1.2510511,-1.7456988
690,1778619388.4854555,-0.22409843,-1.1448228,-0.34965453,-1.3060288,-1.2510511,-1.7456988
691,1778619388.495457,-0.22409843,-1.1448228,-0.34965453,-1.3060288,-1.2510511,-1.7456988
692,1778619388.5054584,-0.22409843,-1.1448228,-0.34965453,-1.3060288,-1.2510511,-1.7456988
693,1778619388.5154603,-0.22409843,-1.1448228,-0.34965453,-1.3060288,-1.2510511,-1.7456988
694,1778619388.525461,-0.22409843,-1.1448228,-0.34965453,-1.3060288,-1.2510511,-1.7456988
695,1778619388.5354617,-0.22409843,-1.1448228,-0.34965453,-1.3060288,-1.2510511,-1.7456988
696,1778619388.5454624,-0.22409843,-1.1448228,-0.34965453,-1.3060288,-1.2510511,-1.7456988
697,1778619388.555463,-0.22019579,-1.1655558,-0.3872177,-1.3060288,-1.2510511,-1.7456988
698,1778619388.565466,-0.22019579,-1.1655558,-0.3872177,-1.3060288,-1.2510511,-1.7456988
699,1778619388.5754673,-0.22019579,-1.1655558,-0.3872177,-1.3060288,-1.2510511,-1.7456988
700,1778619388.5854688,-0.22019579,-1.1655558,-0.3872177,-1.6249003,-1.3964369,-1.355967
701,1778619388.5954702,-0.22019579,-1.1655558,-0.3872177,-1.6249003,-1.3964369,-1.355967
702,1778619388.6054711,-0.22019579,-1.1655558,-0.3872177,-1.6249003,-1.3964369,-1.355967
703,1778619388.615472,-0.17946169,-1.1587261,-0.38624203,-1.6249003,-1.3964369,-1.355967
704,1778619388.6254728,-0.17946169,-1.1587261,-0.38624203,-1.6249003,-1.3964369,-1.355967
705,1778619388.6354742,1.9562727,-0.09524946,0.6974797,-4.4159417,-3.1740534,1.1675153
706,1778619388.6454756,1.9562727,-0.09524946,0.6974797,-4.4159417,-3.1740534,1.1675153
707,1778619388.6554763,1.9562727,-0.09524946,0.6974797,-4.4159417,-3.1740534,1.1675153
708,1778619388.6654773,1.9562727,-0.09524946,0.6974797,-4.4159417,-3.1740534,1.1675153
709,1778619388.675479,1.9562727,-0.09524946,0.6974797,-4.8447685,-2.1966698,1.2163845
710,1778619388.6854799,1.9562727,-0.09524946,0.6974797,-4.8447685,-2.1966698,1.2163845
711,1778619388.6954808,1.9562727,-0.09524946,0.6974797,-4.8447685,-2.1966698,1.2163845
712,1778619388.7054815,1.9562727,-0.09524946,0.6974797,-4.8447685,-2.1966698,1.2163845
713,1778619388.7154827,1.9562727,-0.09524946,0.6974797,-4.8447685,-2.1966698,1.2163845
714,1778619388.7254844,1.9562727,-0.09524946,0.6974797,-4.8447685,-2.1966698,1.2163845
715,1778619388.735485,1.9562727,-0.09524946,0.6974797,-4.8447685,-2.1966698,1.2163845
716,1778619388.745486,1.9562727,-0.09524946,0.6974797,-4.8447685,-2.1966698,1.2163845
717,1778619388.7554872,1.8543155,0.008171208,0.5962543,-5.0292497,-1.612683,1.2719731
718,1778619388.765488,1.8543155,0.008171208,0.5962543,-5.0292497,-1.612683,1.2719731
719,1778619388.77549,1.8543155,0.008171208,0.5962543,-5.0292497,-1.612683,1.2719731
720,1778619388.7854917,1.8543155,0.008171208,0.5962543,-5.0292497,-1.612683,1.2719731
721,1778619388.7954922,1.8543155,0.008171208,0.5962543,-5.0292497,-1.612683,1.2719731
722,1778619388.8054934,1.8591939,0.011342125,0.608938,-4.7048807,-1.5021164,1.7808236
723,1778619388.8162434,1.8591939,0.011342125,0.608938,-4.7048807,-1.5021164,1.7808236
724,1778619388.826244,1.8591939,0.011342125,0.608938,-4.7048807,-1.5021164,1.7808236
725,1778619388.8365598,1.8591939,0.011342125,0.608938,-4.2980447,-1.7788383,2.0062327
726,1778619388.8465607,1.8591939,0.011342125,0.608938,-4.2980447,-1.7788383,2.0062327
727,1778619388.8565614,1.8591939,0.011342125,0.608938,-4.2980447,-1.7788383,2.0062327
728,1778619388.8665624,1.8870004,0.043051295,0.6694293,-4.2980447,-1.7788383,2.0062327
729,1778619388.8765633,1.8870004,0.043051295,0.6694293,-4.2980447,-1.7788383,2.0062327
730,1778619388.8865643,1.8870004,0.043051295,0.6694293,-4.2980447,-1.7788383,2.0062327
731,1778619388.8965657,1.8870004,0.043051295,0.6694293,-4.2980447,-1.7788383,2.0062327
732,1778619388.9065669,1.8870004,0.043051295,0.6694293,-4.2980447,-1.7788383,2.0062327
733,1778619388.9165673,1.8838295,0.027196707,0.7277254,-3.92053,-2.0225732,2.2243114
734,1778619388.926568,1.8838295,0.027196707,0.7277254,-3.92053,-2.0225732,2.2243114
735,1778619388.9365685,1.8838295,0.027196707,0.7277254,-3.92053,-2.0225732,2.2243114
736,1778619388.9465694,1.8577303,0.011586042,0.7882167,-3.92053,-2.0225732,2.2243114
737,1778619388.9565704,1.8577303,0.011586042,0.7882167,-3.92053,-2.0225732,2.2243114
738,1778619388.9665716,1.5652742,1.1028692,0.71552956,-1.9095633,-1.007927,3.0361507
739,1778619388.9765725,1.5652742,1.1028692,0.71552956,-1.9095633,-1.007927,3.0361507
740,1778619388.9865735,1.5652742,1.1028692,0.71552956,-1.9095633,-1.007927,3.0361507
741,1778619388.9965742,0.85815984,1.5814338,0.5794241,-1.3891065,-0.73120517,1.2957969
742,1778619389.0065749,0.85815984,1.5814338,0.5794241,-1.3891065,-0.73120517,1.2957969
743,1778619389.0165756,0.85815984,1.5814338,0.5794241,-1.3891065,-0.73120517,1.2957969
744,1778619389.0265763,0.85815984,1.5814338,0.5794241,-1.3891065,-0.73120517,1.2957969
745,1778619389.0365767,0.85815984,1.5814338,0.5794241,-1.3891065,-0.73120517,1.2957969
746,1778619389.0465775,0.85815984,1.5814338,0.5794241,-1.3891065,-0.73120517,1.2957969
747,1778619389.0565786,1.2093998,1.6736342,0.58820504,-1.3891065,-0.73120517,1.2957969
748,1778619389.0665824,1.2093998,1.6736342,0.58820504,-1.2730422,-0.74220073,0.82726365
749,1778619389.076584,1.2093998,1.6736342,0.58820504,-1.2730422,-0.74220073,0.82726365
750,1778619389.086585,1.2093998,1.6736342,0.58820504,-1.2730422,-0.74220073,0.82726365
751,1778619389.0965858,1.2093998,1.6736342,0.58820504,-1.2730422,-0.74220073,0.82726365
752,1778619389.1065867,1.2093998,1.6736342,0.58820504,-1.2730422,-0.74220073,0.82726365
753,1778619389.1165879,0.5939981,1.4504505,0.6216216,-0.9657772,-0.79351336,-0.7188351
754,1778619389.1265883,0.5939981,1.4504505,0.6216216,-0.9657772,-0.79351336,-0.7188351
755,1778619389.1365895,0.5939981,1.4504505,0.6216216,-0.9657772,-0.79351336,-0.7188351
756,1778619389.1465905,0.5939981,1.4504505,0.6216216,-1.0555743,-0.5345067,-1.0236566
757,1778619389.1565912,0.5939981,1.4504505,0.6216216,-1.0555743,-0.5345067,-1.0236566
758,1778619389.166592,0.6825398,0.8687092,0.7077242,0.2932151,0.9523382,-2.0633485
759,1778619389.1769564,0.6825398,0.8687092,0.7077242,0.75747234,0.6835577,-2.1641412
760,1778619389.186957,0.6825398,0.8687092,0.7077242,0.75747234,0.6835577,-2.1641412
761,1778619389.1969597,0.6825398,0.8687092,0.7077242,0.75747234,0.6835577,-2.1641412
762,1778619389.207318,0.6825398,0.8687092,0.7077242,0.75747234,0.6835577,-2.1641412
763,1778619389.2173207,0.6825398,0.8687092,0.7077242,0.75747234,0.6835577,-2.1641412
764,1778619389.2273219,0.6825398,0.8687092,0.7077242,0.75747234,0.6835577,-2.1641412
765,1778619389.237322,0.6825398,0.8687092,0.7077242,0.75747234,0.6835577,-2.1641412
766,1778619389.247323,0.6825398,0.8687092,0.7077242,0.9920444,0.58032155,-2.1842997
767,1778619389.2573237,0.6825398,0.8687092,0.7077242,0.9920444,0.58032155,-2.1842997
768,1778619389.2673244,0.6825398,0.8687092,0.7077242,0.9920444,0.58032155,-2.1842997
769,1778619389.2773254,0.9613366,0.8877348,0.82529205,0.9920444,0.58032155,-2.1842997
770,1778619389.287327,0.9613366,0.8877348,0.82529205,0.9920444,0.58032155,-2.1842997
771,1778619389.2973285,0.9613366,0.8877348,0.82529205,0.9920444,0.58032155,-2.1842997
772,1778619389.30733,1.2669642,0.94968957,0.9457869,0.9920444,0.58032155,-2.1842997
773,1778619389.3173308,1.2669642,0.94968957,0.9457869,0.9920444,0.58032155,-2.1842997
774,1778619389.3273318,1.2669642,0.94968957,0.9457869,0.9920444,0.58032155,-2.1842997
775,1778619389.3373322,1.2669642,0.94968957,0.9457869,1.341459,0.6175843,-2.1867433
776,1778619389.3473327,1.2669642,0.94968957,0.9457869,1.341459,0.6175843,-2.1867433
777,1778619389.357355,1.2669642,0.94968957,0.9457869,1.341459,0.6175843,-2.1867433
778,1778619389.367356,1.2669642,0.94968957,0.9457869,1.341459,0.6175843,-2.1867433
779,1778619389.3773568,1.2669642,0.94968957,0.9457869,1.341459,0.6175843,-2.1867433
780,1778619389.387358,2.2970243,1.1394567,1.0660378,1.7354668,1.0659591,-2.327853
781,1778619389.3973591,3.4146504,1.0396948,1.0994544,2.0659447,1.5772529,-2.9625416
782,1778619389.4073598,3.4146504,1.0396948,1.0994544,2.0659447,1.5772529,-2.9625416
783,1778619389.4173613,3.4146504,1.0396948,1.0994544,2.0659447,1.5772529,-2.9625416
784,1778619389.4273622,2.1933596,-0.6079623,-0.13744704,3.0976954,2.362825,-3.624108
785,1778619389.437363,2.1933596,-0.6079623,-0.13744704,3.0976954,2.362825,-3.624108
786,1778619389.447364,2.1933596,-0.6079623,-0.13744704,3.0976954,2.362825,-3.624108
787,1778619389.4573698,2.1933596,-0.6079623,-0.13744704,2.7733262,2.2492042,-3.3797622
788,1778619389.4673727,2.1933596,-0.6079623,-0.13744704,2.7733262,2.2492042,-3.3797622
789,1778619389.4773736,2.1933596,-0.6079623,-0.13744704,2.7733262,2.2492042,-3.3797622
790,1778619389.4873745,2.1933596,-0.6079623,-0.13744704,2.7733262,2.2492042,-3.3797622
791,1778619389.4973752,2.1933596,-0.6079623,-0.13744704,2.7733262,2.2492042,-3.3797622
792,1778619389.507376,1.4684393,-0.7779722,-0.15549688,2.7733262,2.2492042,-3.3797622
793,1778619389.5173767,1.4684393,-0.7779722,-0.15549688,2.7733262,2.2492042,-3.3797622
794,1778619389.5273783,1.4684393,-0.7779722,-0.15549688,2.4025311,2.2131631,-3.0633342
795,1778619389.53738,1.4684393,-0.7779722,-0.15549688,2.4025311,2.2131631,-3.0633342
796,1778619389.547381,1.4684393,-0.7779722,-0.15549688,2.4025311,2.2131631,-3.0633342
797,1778619389.5573819,1.4684393,-0.7779722,-0.15549688,2.4025311,2.2131631,-3.0633342
798,1778619389.5673826,1.4684393,-0.7779722,-0.15549688,2.4025311,2.2131631,-3.0633342
799,1778619389.5773835,1.4684393,-0.7779722,-0.15549688,2.4025311,2.2131631,-3.0633342
800,1778619389.587384,1.2350111,-0.81846243,-0.1703758,2.4025311,2.2131631,-3.0633342
801,1778619389.597394,1.2350111,-0.81846243,-0.1703758,2.4025311,2.2131631,-3.0633342
802,1778619389.607577,1.2350111,-0.81846243,-0.1703758,2.4025311,2.2131631,-3.0633342
803,1778619389.617578,0.8388904,-0.85212296,-0.24794129,1.8594724,2.0812163,-2.344957
804,1778619389.6275787,0.8388904,-0.85212296,-0.24794129,1.8594724,2.0812163,-2.344957
805,1778619389.6375792,0.8388904,-0.85212296,-0.24794129,1.8594724,2.0812163,-2.344957
806,1778619389.64758,0.8388904,-0.85212296,-0.24794129,1.8594724,2.0812163,-2.344957
807,1778619389.6575806,0.8388904,-0.85212296,-0.24794129,1.8594724,2.0812163,-2.344957
808,1778619389.6675818,0.8388904,-0.85212296,-0.24794129,1.8594724,2.0812163,-2.344957
809,1778619389.6775825,0.62326807,-0.9340789,-0.2816018,1.8594724,2.0812163,-2.344957
810,1778619389.687583,0.62326807,-0.9340789,-0.2816018,1.8594724,2.0812163,-2.344957
811,1778619389.6977994,0.62326807,-0.9340789,-0.2816018,1.8594724,2.0812163,-2.344957
812,1778619389.7078004,0.62326807,-0.9340789,-0.2816018,1.8106033,1.7647884,-1.8923063
813,1778619389.7178009,0.62326807,-0.9340789,-0.2816018,1.8106033,1.7647884,-1.8923063
814,1778619389.727802,0.62326807,-0.9340789,-0.2816018,1.8106033,1.7647884,-1.8923063
815,1778619389.737814,0.62326807,-0.9340789,-0.2816018,1.8106033,1.7647884,-1.8923063
816,1778619389.7478151,0.62326807,-0.9340789,-0.2816018,1.8106033,1.7647884,-1.8923063
817,1778619389.7578156,0.62326807,-0.9340789,-0.2816018,1.8619158,1.5338814,-1.5838196
818,1778619389.7678163,0.62326807,-0.9340789,-0.2816018,1.8619158,1.5338814,-1.5838196
819,1778619389.7778172,0.62326807,-0.9340789,-0.2816018,1.8619158,1.5338814,-1.5838196
820,1778619389.7881117,0.62326807,-0.9340789,-0.2816018,1.8619158,1.5338814,-1.5838196
821,1778619389.7981126,0.62326807,-0.9340789,-0.2816018,1.8619158,1.5338814,-1.5838196
822,1778619389.8081133,0.62326807,-0.9340789,-0.2816018,1.8619158,1.5338814,-1.5838196
823,1778619389.818114,0.18592548,-1.1043327,-0.42551264,1.8619158,1.5338814,-1.5838196
824,1778619389.8281147,0.18592548,-1.1043327,-0.42551264,1.8619158,1.5338814,-1.5838196
825,1778619389.8381157,0.18592548,-1.1043327,-0.42551264,1.8619158,1.5338814,-1.5838196
826,1778619389.8481162,0.18592548,-1.1043327,-0.42551264,1.8619158,1.5338814,-1.5838196
827,1778619389.8581169,0.18592548,-1.1043327,-0.42551264,1.8619158,1.5338814,-1.5838196
828,1778619389.868118,0.18592548,-1.1043327,-0.42551264,1.8619158,1.5338814,-1.5838196
829,1778619389.878119,0.18592548,-1.1043327,-0.42551264,1.8619158,1.5338814,-1.5838196
830,1778619389.8881204,0.010549396,-1.1377493,-0.47990605,1.9504912,1.0500766,-0.9607376
831,1778619389.8981214,0.010549396,-1.1377493,-0.47990605,1.9504912,1.0500766,-0.9607376
832,1778619389.9081223,0.010549396,-1.1377493,-0.47990605,1.9504912,1.0500766,-0.9607376
833,1778619389.9181232,0.010549396,-1.1377493,-0.47990605,1.9504912,1.0500766,-0.9607376
834,1778619389.9281313,0.010549396,-1.1377493,-0.47990605,1.9504912,1.0500766,-0.9607376
835,1778619389.9381337,0.010549396,-1.1377493,-0.47990605,1.9504912,1.0500766,-0.9607376
836,1778619389.9481344,0.010549396,-1.1377493,-0.47990605,1.9339979,0.6169734,-0.38163778
837,1778619389.9581351,0.010549396,-1.1377493,-0.47990605,1.9339979,0.6169734,-0.38163778
838,1778619389.9681358,0.010549396,-1.1377493,-0.47990605,1.9339979,0.6169734,-0.38163778
839,1778619389.9781365,-0.07262619,-1.0294503,-0.43331796,0.65851223,-0.49480048,1.2432625
840,1778619389.9881372,-0.07262619,-1.0294503,-0.43331796,0.65851223,-0.49480048,1.2432625
841,1778619389.9981382,-0.07262619,-1.0294503,-0.43331796,1.3274091,-0.4159989,0.9323324
842,1778619390.008139,-0.07262619,-1.0294503,-0.43331796,0.9462295,-0.5357284,1.168737
843,1778619390.0181398,-0.07262619,-1.0294503,-0.43331796,0.9462295,-0.5357284,1.168737
844,1778619390.0281408,-0.05213719,-1.0053025,-0.34526405,0.9462295,-0.5357284,1.168737
845,1778619390.0381527,-0.13165402,-0.939689,-0.23111105,0.41355544,-0.32498005,1.2310452
846,1778619390.0481534,-0.13165402,-0.939689,-0.23111105,0.41355544,-0.32498005,1.2310452
847,1778619390.0581539,-0.13165402,-0.939689,-0.23111105,0.41355544,-0.32498005,1.2310452
848,1778619390.0683048,-0.13165402,-0.939689,-0.23111105,0.41355544,-0.32498005,1.2310452
849,1778619390.078307,-0.13165402,-0.939689,-0.23111105,0.41355544,-0.32498005,1.2310452
850,1778619390.0883079,-0.13165402,-0.939689,-0.23111105,0.41355544,-0.32498005,1.2310452
851,1778619390.0983086,-0.13165402,-0.939689,-0.23111105,0.41355544,-0.32498005,1.2310452
852,1778619390.1083097,-0.19702369,-0.9860331,-0.32282373,-0.29932374,-0.034208428,1.2353213
853,1778619390.118311,-0.19702369,-0.9860331,-0.32282373,-0.29932374,-0.034208428,1.2353213
854,1778619390.1284988,-0.19702369,-0.9860331,-0.32282373,-0.29932374,-0.034208428,1.2353213
855,1778619390.1384995,-0.34312975,-1.1294562,-0.4484408,-0.5986475,-0.25045455,1.5468624
856,1778619390.148501,-0.34312975,-1.1294562,-0.4484408,-0.5986475,-0.25045455,1.5468624
857,1778619390.1585014,-0.34312975,-1.1294562,-0.4484408,-0.5986475,-0.25045455,1.5468624
858,1778619390.168502,-0.34312975,-1.1294562,-0.4484408,-0.7336486,-0.47952884,1.8077016
859,1778619390.1785028,-0.34312975,-1.1294562,-0.4484408,-0.7336486,-0.47952884,1.8077016
860,1778619390.1885037,-0.34312975,-1.1294562,-0.4484408,-0.7336486,-0.47952884,1.8077016
861,1778619390.1985059,-0.34312975,-1.1294562,-0.4484408,-0.7336486,-0.47952884,1.8077016
862,1778619390.2085166,-0.34312975,-1.1294562,-0.4484408,-0.7336486,-0.47952884,1.8077016
863,1778619390.2187207,-0.34849593,-1.1250657,-0.46990547,-0.7336486,-0.47952884,1.8077016
864,1778619390.2287214,-0.34849593,-1.1250657,-0.46990547,-0.8197805,-0.95844686,2.2744024
865,1778619390.238722,-0.34849593,-1.1250657,-0.46990547,-0.8197805,-0.95844686,2.2744024
866,1778619390.248723,-0.34849593,-1.1250657,-0.46990547,-0.8197805,-0.95844686,2.2744024
867,1778619390.2587252,-0.34849593,-1.1250657,-0.46990547,-0.8197805,-0.95844686,2.2744024
868,1778619390.268726,-0.34849593,-1.1250657,-0.46990547,-0.8197805,-0.95844686,2.2744024
869,1778619390.2787275,-0.34849593,-1.1250657,-0.46990547,-0.8197805,-0.95844686,2.2744024
870,1778619390.288731,-0.34849593,-1.1250657,-0.46990547,-0.8197805,-0.95844686,2.2744024
871,1778619390.2987325,-0.34849593,-1.1250657,-0.46990547,-0.8197805,-0.95844686,2.2744024
872,1778619390.3091004,-0.34849593,-1.1250657,-0.46990547,-0.8197805,-0.95844686,2.2744024
873,1778619390.3191018,-0.34849593,-1.1250657,-0.46990547,-0.8197805,-0.95844686,2.2744024
874,1778619390.329104,-0.34849593,-1.1250657,-0.46990547,-0.8197805,-0.95844686,2.2744024
875,1778619390.3391051,-0.28873634,-1.0940882,-0.41941473,-0.8197805,-0.95844686,2.2744024
876,1778619390.3491058,-0.28873634,-1.0940882,-0.41941473,-0.8197805,-0.95844686,2.2744024
877,1778619390.3591068,-0.28873634,-1.0940882,-0.41941473,-0.8197805,-0.95844686,2.2744024
878,1778619390.3691082,-0.28873634,-1.0940882,-0.41941473,-0.8197805,-0.95844686,2.2744024
879,1778619390.379109,-0.28873634,-1.0940882,-0.41941473,-0.8197805,-0.95844686,2.2744024
880,1778619390.38911,-0.14531335,-1.0648183,-0.31916496,-0.8197805,-0.95844686,2.2744024
881,1778619390.3993077,-0.14531335,-1.0648183,-0.31916496,-0.8197805,-0.95844686,2.2744024
882,1778619390.4093084,-0.14531335,-1.0648183,-0.31916496,-0.8197805,-0.95844686,2.2744024
883,1778619390.4193091,0.049332146,-0.9850575,-0.21184163,-0.6682861,-1.3579524,2.9420774
884,1778619390.4293103,0.049332146,-0.9850575,-0.21184163,-0.6682861,-1.3579524,2.9420774
885,1778619390.4393115,0.17836407,-0.9228587,-0.2274523,-0.6682861,-1.3579524,2.9420774
886,1778619390.4493136,0.71937126,-0.78309447,-0.3498985,-1.0170898,-1.5729768,2.9964445
887,1778619390.4593146,0.71937126,-0.78309447,-0.3498985,-1.0170898,-1.5729768,2.9964445
888,1778619390.4693167,0.71937126,-0.78309447,-0.3498985,-1.6658282,-1.5430444,2.5932736
889,1778619390.4793184,0.71937126,-0.78309447,-0.3498985,-1.6658282,-1.5430444,2.5932736
890,1778619390.489672,0.71937126,-0.78309447,-0.3498985,-1.6658282,-1.5430444,2.5932736
891,1778619390.4996734,0.71937126,-0.78309447,-0.3498985,-1.6658282,-1.5430444,2.5932736
892,1778619390.5096772,0.71937126,-0.78309447,-0.3498985,-1.6658282,-1.5430444,2.5932736
893,1778619390.51968,0.71937126,-0.78309447,-0.3498985,-1.6658282,-1.5430444,2.5932736
894,1778619390.5296814,1.1228094,-0.6018644,-0.24257512,-1.6658282,-1.5430444,2.5932736
895,1778619390.5396826,1.1228094,-0.6018644,-0.24257512,-1.6658282,-1.5430444,2.5932736
896,1778619390.549684,1.1228094,-0.6018644,-0.24257512,-1.6658282,-1.5430444,2.5932736
897,1778619390.5598063,1.1228094,-0.6018644,-0.24257512,-1.6658282,-1.5430444,2.5932736
898,1778619390.5698073,1.1228094,-0.6018644,-0.24257512,-1.6658282,-1.5430444,2.5932736
899,1778619390.5798807,1.1228094,-0.6018644,-0.24257512,-1.6658282,-1.5430444,2.5932736
900,1778619390.5898821,1.1228094,-0.6018644,-0.24257512,-1.6658282,-1.5430444,2.5932736
901,1778619390.5998826,1.1228094,-0.6018644,-0.24257512,-1.6658282,-1.5430444,2.5932736
902,1778619390.6098843,1.1228094,-0.6018644,-0.24257512,-1.6658282,-1.5430444,2.5932736
903,1778619390.6198857,1.1228094,-0.6018644,-0.24257512,-1.6658282,-1.5430444,2.5932736
904,1778619390.6298862,1.1228094,-0.6018644,-0.24257512,-1.6658282,-1.5430444,2.5932736
905,1778619390.6398876,2.3245869,0.83041435,0.933591,-4.1984735,0.15760311,-0.03405571
906,1778619390.6498933,2.3245869,0.83041435,0.933591,-4.1984735,0.15760311,-0.03405571
907,1778619390.659896,2.3245869,0.83041435,0.933591,-4.1984735,0.15760311,-0.03405571
908,1778619390.6698968,2.3245869,0.83041435,0.933591,-4.260171,0.53145236,0.006872229
909,1778619390.6798975,2.3245869,0.83041435,0.933591,-4.260171,0.53145236,0.006872229
910,1778619390.6898985,1.7940682,0.79016805,0.86334306,-4.260171,0.53145236,0.006872229
911,1778619390.6998992,1.7940682,0.79016805,0.86334306,-4.260171,0.53145236,0.006872229
912,1778619390.7098997,1.7940682,0.79016805,0.86334306,-4.260171,0.53145236,0.006872229
913,1778619390.7199006,1.7940682,0.79016805,0.86334306,-4.260171,0.53145236,0.006872229
914,1778619390.7299013,1.7940682,0.79016805,0.86334306,-4.260171,0.53145236,0.006872229
915,1778619390.7399018,1.7940682,0.79016805,0.86334306,-4.260171,0.53145236,0.006872229
916,1778619390.7499032,1.7940682,0.79016805,0.86334306,-4.260171,0.53145236,0.006872229
917,1778619390.7604542,1.2064728,0.6665023,0.81212056,-3.852724,0.53511757,0.45769045
918,1778619390.7704558,1.2064728,0.6665023,0.81212056,-3.852724,0.53511757,0.45769045
919,1778619390.7804563,1.2064728,0.6665023,0.81212056,-3.852724,0.53511757,0.45769045
920,1778619390.790457,1.2064728,0.6665023,0.81212056,-3.852724,0.53511757,0.45769045
921,1778619390.8004582,1.2064728,0.6665023,0.81212056,-3.4935358,0.38728827,0.6336195
922,1778619390.8104663,1.2064728,0.6665023,0.81212056,-3.4935358,0.38728827,0.6336195
923,1778619390.8204691,1.2064728,0.6665023,0.81212056,-3.4935358,0.38728827,0.6336195
924,1778619390.8304708,1.2064728,0.6665023,0.81212056,-3.4935358,0.38728827,0.6336195
925,1778619390.8404744,1.2064728,0.6665023,0.81212056,-3.4935358,0.38728827,0.6336195
926,1778619390.8504763,1.2064728,0.6665023,0.81212056,-3.4935358,0.38728827,0.6336195
927,1778619390.860477,1.2064728,0.6665023,0.81212056,-2.8295257,0.1301142,1.0080796
928,1778619390.8704782,1.2064728,0.6665023,0.81212056,-2.8295257,0.1301142,1.0080796
929,1778619390.8804784,1.2064728,0.6665023,0.81212056,-2.8295257,0.1301142,1.0080796
930,1778619390.8904793,0.9298713,0.5011268,0.79650986,-2.8295257,0.1301142,1.0080796
931,1778619390.9004796,0.9298713,0.5011268,0.79650986,-2.8295257,0.1301142,1.0080796
932,1778619390.9104805,0.9298713,0.5011268,0.79650986,-2.8295257,0.1301142,1.0080796
933,1778619390.9204817,0.813767,0.66967326,0.62308514,-1.1716386,0.08124501,1.5822924
934,1778619390.9304826,0.813767,0.66967326,0.62308514,-1.1716386,0.08124501,1.5822924
935,1778619390.9404833,0.40032822,0.7621176,0.48600397,0.16615522,-0.62735814,0.4356993
936,1778619390.95049,0.40032822,0.7621176,0.48600397,0.16615522,-0.62735814,0.4356993
937,1778619390.9604926,0.40032822,0.7621176,0.48600397,0.16615522,-0.62735814,0.4356993
938,1778619390.9704938,0.40032822,0.7621176,0.48600397,0.16615522,-0.62735814,0.4356993
939,1778619390.9804945,0.40032822,0.7621176,0.48600397,0.16615522,-0.62735814,0.4356993
940,1778619390.990495,0.40032822,0.7621176,0.48600397,0.16615522,-0.62735814,0.4356993
941,1778619391.0004957,0.40032822,0.7621176,0.48600397,0.16615522,-0.62735814,0.4356993
942,1778619391.010859,0.40032822,0.7621176,0.48600397,0.5540544,-0.8778127,0.25060728
943,1778619391.0209043,0.40032822,0.7621176,0.48600397,0.5540544,-0.8778127,0.25060728
944,1778619391.030905,0.81815743,1.0123762,0.55527633,1.0250311,0.9401209,-1.8348851
945,1778619391.0409057,0.81815743,1.0123762,0.55527633,1.0250311,0.9401209,-1.8348851
946,1778619391.0509064,0.81815743,1.0123762,0.55527633,1.0250311,0.9401209,-1.8348851
947,1778619391.0609102,0.81815743,1.0123762,0.55527633,1.0250311,0.9401209,-1.8348851
948,1778619391.0709126,0.81815743,1.0123762,0.55527633,1.0250311,0.9401209,-1.8348851
949,1778619391.0809133,0.81815743,1.0123762,0.55527633,1.0250311,0.9401209,-1.8348851
950,1778619391.0909145,1.0784166,1.0675013,0.6082062,1.0250311,0.9401209,-1.8348851
951,1778619391.1009152,1.0784166,1.0675013,0.6082062,1.0250311,0.9401209,-1.8348851
952,1778619391.1109157,1.0784166,1.0675013,0.6082062,1.0250311,0.9401209,-1.8348851
953,1778619391.120918,1.0784166,1.0675013,0.6082062,1.0250311,0.9401209,-1.8348851
954,1778619391.1309195,1.5416144,1.179703,0.72333485,1.1606431,0.93889916,-2.0285292
955,1778619391.1409204,1.9077333,1.2316571,0.80919355,1.3255765,1.0781764,-2.2563818
956,1778619391.1509206,1.9077333,1.2316571,0.80919355,1.3255765,1.0781764,-2.2563818
957,1778619391.1609216,1.9077333,1.2316571,0.80919355,1.3255765,1.0781764,-2.2563818
958,1778619391.1709223,1.9077333,1.2316571,0.80919355,1.3255765,1.0781764,-2.2563818
959,1778619391.1809235,1.9077333,1.2316571,0.80919355,1.3255765,1.0781764,-2.2563818
960,1778619391.190924,1.9077333,1.2316571,0.80919355,1.3255765,1.0781764,-2.2563818
961,1778619391.2009268,2.3014147,1.220437,0.922127,1.1740822,1.2779291,-2.2472188
962,1778619391.2109284,2.3014147,1.220437,0.922127,1.1740822,1.2779291,-2.2472188
963,1778619391.220929,2.3014147,1.220437,0.922127,1.1740822,1.2779291,-2.2472188
964,1778619391.2309353,2.7497337,1.1877522,1.0811605,1.0299181,1.594968,-2.3632832
965,1778619391.2409375,2.7497337,1.1877522,1.0811605,1.0299181,1.594968,-2.3632832
966,1778619391.2509382,2.7497337,1.1877522,1.0811605,1.0299181,1.594968,-2.3632832
967,1778619391.2609394,2.7497337,1.1877522,1.0811605,1.0299181,1.594968,-2.3632832
968,1778619391.2709403,2.7497337,1.1877522,1.0811605,1.0299181,1.594968,-2.3632832
969,1778619391.2809415,2.7497337,1.1877522,1.0811605,1.0299181,1.594968,-2.3632832
970,1778619391.2909422,2.7497337,1.1877522,1.0811605,1.0299181,1.594968,-2.3632832
971,1778619391.3009427,2.7497337,1.1877522,1.0811605,1.0299181,1.594968,-2.3632832
972,1778619391.310951,3.1046324,1.1316514,1.2282424,1.1178825,2.0806055,-2.7872233
973,1778619391.3209722,3.1046324,1.1316514,1.2282424,1.1178825,2.0806055,-2.7872233
974,1778619391.3309836,3.1046324,1.1316514,1.2282424,1.1178825,2.0806055,-2.7872233
975,1778619391.3417184,3.1046324,1.1316514,1.2282424,1.1178825,2.0806055,-2.7872233
976,1778619391.3517215,3.1046324,1.1316514,1.2282424,1.1178825,2.0806055,-2.7872233
977,1778619391.361723,3.2983022,0.8370001,1.2133635,1.7873904,2.4336853,-3.4555094
978,1778619391.371724,3.2983022,0.8370001,1.2133635,1.7873904,2.4336853,-3.4555094
979,1778619391.3817246,3.2983022,0.8370001,1.2133635,1.7873904,2.4336853,-3.4555094
980,1778619391.3917255,3.2983022,0.8370001,1.2133635,1.7873904,2.4336853,-3.4555094
981,1778619391.4017262,3.2983022,0.8370001,1.2133635,1.7873904,2.4336853,-3.4555094
982,1778619391.4117272,3.2983022,0.8370001,1.2133635,1.7873904,2.4336853,-3.4555094
983,1778619391.4217274,3.2983022,0.8370001,1.2133635,1.7873904,2.4336853,-3.4555094
984,1778619391.4317281,3.2983022,0.8370001,1.2133635,1.7873904,2.4336853,-3.4555094
985,1778619391.441798,3.2356155,0.5308846,1.0992105,2.3597705,2.4245224,-3.6118908
986,1778619391.4518015,3.2356155,0.5308846,1.0992105,2.3597705,2.4245224,-3.6118908
987,1778619391.4618034,3.2356155,0.5308846,1.0992105,2.3597705,2.4245224,-3.6118908
988,1778619391.4718049,3.2356155,0.5308846,1.0992105,2.3597705,2.4245224,-3.6118908
989,1778619391.481807,3.2356155,0.5308846,1.0992105,2.3597705,2.4245224,-3.6118908
990,1778619391.4918091,3.052922,0.049393125,0.8250481,2.9468117,2.205222,-3.4823873
991,1778619391.5018098,3.052922,0.049393125,0.8250481,2.9468117,2.205222,-3.4823873
992,1778619391.5118108,3.052922,0.049393125,0.8250481,2.9468117,2.205222,-3.4823873
993,1778619391.5218124,3.052922,0.049393125,0.8250481,2.9468117,2.205222,-3.4823873
994,1778619391.5318162,3.052922,0.049393125,0.8250481,2.9468117,2.205222,-3.4823873
995,1778619391.5418184,3.052922,0.049393125,0.8250481,2.9468117,2.205222,-3.4823873
996,1778619391.5518203,3.052922,0.049393125,0.8250481,2.9468117,2.205222,-3.4823873
997,1778619391.5618222,3.052922,0.049393125,0.8250481,2.9468117,2.205222,-3.4823873
998,1778619391.5718243,3.052922,0.049393125,0.8250481,2.9468117,2.205222,-3.4823873
999,1778619391.5818262,3.052922,0.049393125,0.8250481,2.9468117,2.205222,-3.4823873
