id,timestamp,acc_x,acc_y,acc_z,gyro_x,gyro_y,gyro_z
1,1778620622.708426,-0.26044202,-1.0670135,0.16793664,-0.10995566,-0.59452415,0.56062114
2,1778620622.7584295,-0.26044202,-1.0670135,0.16793664,-0.10995566,-0.59452415,0.56062114
3,1778620622.8084319,-0.26044202,-1.0670135,0.16793664,-0.10995566,-0.59452415,0.56062114
4,1778620622.858435,-0.26044202,-1.0670135,0.16793664,-0.10995566,-0.59452415,0.56062114
5,1778620622.908877,-0.21141478,-1.091649,0.1325687,0.021991132,-0.47112945,0.42012227
6,1778620622.9588788,-0.16555844,-1.0657939,0.10890879,0.118507765,-0.35689774,0.28878632
7,1778620623.0088804,-0.39947453,-0.91163856,0.05744238,0.046425723,-0.40393433,0.19349141
8,1778620623.0588822,-0.4255736,-0.90456504,0.08427321,0.046425723,-0.40393433,0.19349141
9,1778620623.1088846,-0.438989,-0.9004184,0.09890821,0.046425723,-0.40393433,0.19349141
10,1778620623.158887,-0.438989,-0.9004184,0.09890821,0.064140804,-0.3904953,0.20876303
11,1778620623.2088885,-0.438989,-0.9004184,0.09890821,0.064140804,-0.3904953,0.20876303
12,1778620623.2588904,-0.43508637,-0.89871097,0.11183579,0.086742796,-0.38927358,0.22525638
13,1778620623.3088937,-0.42435405,-0.895784,0.11110405,0.13377939,-0.3526217,0.25396705
14,1778620623.3588955,-0.42435405,-0.895784,0.11110405,0.14905101,-0.27015495,0.28695372
15,1778620623.4088972,-0.3287387,-0.9204195,0.013049542,0.12889247,-0.20784675,0.4017963
16,1778620623.4589002,-0.3287387,-0.9204195,0.013049542,0.12889247,-0.20784675,0.4017963
17,1778620623.5089023,-0.28458977,-0.92993236,0.03280679,0.12889247,-0.20784675,0.4017963
18,1778620623.5589054,-0.28458977,-0.92993236,0.03280679,0.12889247,-0.20784675,0.4017963
19,1778620623.608907,-0.28458977,-0.92993236,0.03280679,0.12889247,-0.20784675,0.4017963
20,1778620623.6589084,-0.24629487,-0.95651925,0.06988213,0.11484258,-0.23411393,0.3999637
21,1778620623.70891,-0.14897211,-1.0170106,-0.04744179,0.08491021,-0.07101303,0.2527453
22,1778620623.758911,-0.14897211,-1.0170106,-0.04744179,0.08491021,-0.07101303,0.2527453
23,1778620623.8089123,-0.061649937,-1.1023813,-0.14988679,-0.33719736,-0.34101525,0.04138609
24,1778620623.858914,-0.09799352,-1.1106745,-0.13695921,-0.33719736,-0.34101525,0.04138609
25,1778620623.9089162,-0.09799352,-1.1106745,-0.13695921,-0.5858193,-0.19013166,-0.06551525
26,1778620623.9589179,-0.120921694,-1.0665256,-0.14232537,-0.5858193,-0.19013166,-0.06551525
27,1778620624.0089195,-0.120921694,-1.0665256,-0.14232537,-0.6829468,0.06093376,-0.15225805
28,1778620624.0589216,-0.120921694,-1.0665256,-0.14232537,-0.6829468,0.06093376,-0.15225805
29,1778620624.108923,0.14055698,-0.8882226,-0.3769732,-1.0696242,3.073108,-1.462563
30,1778620624.1589243,0.15641156,-0.89041775,-0.45136783,-1.1496475,3.227046,-1.7307327
31,1778620624.2089257,0.056161813,-1.0389631,-0.5462514,-1.3903283,3.1610725,-2.1332924
32,1778620624.2589266,-0.1621436,-1.2597077,-0.63235396,-1.8600832,2.8538074,-2.2597415
33,1778620624.3089285,-0.37800986,-1.3909348,-1.0153031,-2.850906,1.7884593,-2.2603524
34,1778620624.3589294,-0.37800986,-1.3909348,-1.0153031,-2.850906,1.7884593,-2.2603524
35,1778620624.4089305,-0.37800986,-1.3909348,-1.0153031,-2.850906,1.7884593,-2.2603524
36,1778620624.4589317,-0.58704644,-1.3480054,-0.5935712,-3.926028,-1.1253656,-2.2023203
37,1778620624.508933,-0.51509106,-1.2092168,0.22062263,-3.862498,-2.0703735,-2.1241295
38,1778620624.558934,-0.23312336,-1.3589817,0.4091702,-2.3023493,-2.4937027,-1.5554144
39,1778620624.608945,-0.19019403,-2.0304844,-1.0870147,-2.5314236,-2.0612104,-1.7960951
40,1778620624.658949,-0.19019403,-2.0304844,-1.0870147,-2.5314236,-2.0612104,-1.7960951
41,1778620624.708951,-0.24288003,-1.8897444,-0.76382506,-2.7165158,-2.605491,-1.787543
42,1778620624.7589526,-0.24288003,-1.8897444,-0.76382506,-2.7165158,-2.605491,-1.787543
43,1778620624.8089535,-0.24288003,-1.8897444,-0.76382506,-2.7904303,-3.030653,-1.6336051
44,1778620624.8589544,-0.21458568,-1.1545795,-0.30867654,-1.2211187,-3.1693192,-0.69226253
45,1778620624.9089556,-0.054820273,0.1367153,0.08329754,1.4398082,-0.9176716,0.26251915
46,1778620624.9589565,-0.9324324,-1.3004417,0.86456263,1.5082251,0.21792601,0.1867719
47,1778620625.0089588,-1.1021985,-2.9083405,-0.09890821,1.1038326,4.076148,1.1330014
48,1778620625.0589604,-1.1021985,-2.9083405,-0.09890821,1.1038326,4.076148,1.1330014
49,1778620625.1089618,-1.1021985,-2.9083405,-0.09890821,0.411112,3.4829984,0.6858484
50,1778620625.1589632,-0.91828525,-1.7399796,0.67381984,2.5540257,1.6302453,1.396895
51,1778620625.2089643,-0.94267696,-1.9817009,0.29550505,2.8753405,1.1800381,1.6760602
52,1778620625.2589655,-0.031160356,-2.2846453,-0.5464953,2.0793836,-1.0569488,0.7982476
53,1778620625.3089676,-0.12677568,-0.64967203,-0.3694118,0.5198459,-1.4650065,0.38591382
54,1778620625.358969,-0.41167036,-0.1542773,-0.40331623,-2.128253,0.6882919,-0.59452415
55,1778620625.4089704,-0.48313794,-0.7045533,-0.023781875,-2.9016078,0.33826637,-0.51144654
56,1778620625.458972,-0.40776768,-1.5604569,-0.547227,-1.9236132,-1.7802126,-0.5090031
57,1778620625.5089738,-0.40776768,-1.5604569,-0.547227,-1.9236132,-1.7802126,-0.5090031
58,1778620625.558975,-0.40776768,-1.5604569,-0.547227,-1.5625921,-2.2609632,-0.5120574
59,1778620625.6089766,-0.4119143,-1.1467743,-0.38136372,-1.5625921,-2.2609632,-0.5120574
60,1778620625.658978,-0.39776713,-0.83090216,-0.2716012,-1.5625921,-2.2609632,-0.5120574
61,1778620625.7089808,-0.39776713,-0.83090216,-0.2716012,-1.2779291,-2.6781838,-0.5328268
62,1778620625.758983,-0.23458686,-0.24403864,0.20696329,-0.42943794,-2.7606506,-0.39477137
63,1778620625.8089848,-0.23458686,-0.24403864,0.20696329,-0.42943794,-2.7606506,-0.39477137
64,1778620625.8589861,-0.09726177,0.2698938,0.22086655,1.3946043,-0.56459177,0.08781181
65,1778620625.9089892,-0.010427438,0.36916786,0.19159654,1.3946043,-0.56459177,0.08781181
66,1778620625.9589992,-0.010427438,0.36916786,0.19159654,1.3946043,-0.56459177,0.08781181
67,1778620626.0090008,0.22446433,0.39282778,0.22940363,1.9126177,-0.39477137,-0.17119485
68,1778620626.059002,0.22446433,0.39282778,0.22940363,2.2064435,-0.5523745,-0.39599308
69,1778620626.109003,-0.55533725,-1.1455547,-1.8226674,0.68905544,3.8318021,0.19104797
70,1778620626.1590047,-0.55533725,-1.1455547,-1.8226674,0.68905544,3.8318021,0.19104797
71,1778620626.209006,-0.57387495,-0.98261833,-0.51722527,1.6279546,-1.8571817,0.6998983
72,1778620626.259007,-0.6016815,-1.9085261,1.0077418,1.2492185,-1.9891285,0.6895136
73,1778620626.3090084,-0.1475086,-2.1119523,0.30233473,3.2931721,-1.322675,0.28939718
74,1778620626.3590093,-0.07335794,-2.1363442,0.21671996,3.2931721,-1.322675,0.28939718
75,1778620626.4090102,0.27593073,-2.0643888,-0.06866254,3.3408196,-0.014813471,0.02489274
76,1778620626.4590154,-0.30629835,-1.0653061,-0.8982231,2.3390012,-0.32574365,0.092087865
77,1778620626.50902,-0.30629835,-1.0653061,-0.8982231,2.3390012,-0.32574365,0.092087865
78,1778620626.5590222,-0.30629835,-1.0653061,-0.8982231,1.66705,-0.88957185,0.14217877
79,1778620626.6090238,-0.35093513,-0.89066166,-0.6143041,0.35307986,-1.7264566,0.5905535
80,1778620626.659059,-0.30654228,-0.47966215,-0.1515942,-2.0066907,1.54167,-1.0691661
81,1778620626.7090635,-0.3858152,-0.7391895,-0.07719963,-2.0066907,1.54167,-1.0691661
82,1778620626.7590647,-0.47289345,-1.0957956,-0.1323248,-2.4526222,1.0761911,-1.1290308
83,1778620626.8090663,-0.94633573,-2.0880487,0.119641125,-2.6450446,3.6845837,-0.25305074
84,1778620626.8590672,-0.9560924,-1.9021841,-0.12183637,-2.476446,3.3156214,-0.38805184
85,1778620626.9090693,-1.0043879,-1.8170573,-0.38063195,-2.476446,3.3156214,-0.38805184
86,1778620626.959071,-0.47191778,-1.917307,-0.39477912,-2.7391176,-0.3507891,-0.19013166
87,1778620627.009072,-0.47191778,-1.917307,-0.39477912,-2.7391176,-0.3507891,-0.19013166
88,1778620627.0590732,-0.15775311,-1.6368027,-0.47893035,-1.8784091,-0.8785763,-0.43508843
89,1778620627.109074,0.12519024,0.22672056,0.28038222,2.068999,0.5031999,0.7383828
90,1778620627.1590757,0.13397123,0.29818815,0.066223375,-0.90530163,5.0626945,-0.41126472
91,1778620627.209078,0.13397123,0.29818815,0.066223375,-0.031154104,4.440834,-0.5566505
92,1778620627.259081,-0.85389125,-1.6385102,0.82821906,2.0995421,-1.5566362,0.54718214
93,1778620627.3090847,-0.64680606,-2.2473264,1.232389,1.2168427,0.88926643,0.7182243
94,1778620627.3590875,-0.25312454,-1.5877756,0.028660208,2.317621,0.09636392,0.09880738
95,1778620627.409089,-0.25312454,-1.5877756,0.028660208,2.317621,0.09636392,0.09880738
96,1778620627.4590905,0.08055348,-0.11573846,0.010610376,-0.24556763,1.6785038,0.0004581486
97,1778620627.5090916,0.04884431,-0.039392542,-0.006219875,-0.3500255,2.7811146,-0.6110175
98,1778620627.5590925,-0.0014025208,0.12525122,-0.10573788,-0.3500255,2.7811146,-0.6110175
99,1778620627.6090996,-0.18190086,0.056954544,-0.11378712,-0.68050337,3.3089018,-0.87430024
100,1778620627.6591024,-0.18190086,0.056954544,-0.11378712,-0.8271109,3.362047,-0.86819154
101,1778620627.7091036,-0.18190086,0.056954544,-0.11378712,-0.9101885,3.412138,-0.82726365
102,1778620627.7591045,-0.18190086,0.056954544,-0.11378712,-0.9101885,3.412138,-0.82726365
103,1778620627.8095074,-0.45094094,-1.6633897,-0.5857659,-1.0653481,2.5825837,-0.5083922
104,1778620627.8595092,-0.45094094,-1.6633897,-0.5857659,-1.0653481,2.5825837,-0.5083922
105,1778620627.9095109,-0.4309398,-1.6280218,-0.5628377,-1.1313215,1.5355613,-0.51327914
106,1778620627.9595122,-0.45947802,-1.7119291,-0.5401535,-1.238223,0.61315554,-0.44913834
107,1778620628.0095134,-0.32776302,-1.7272959,-0.34111744,-1.2663227,-0.13454297,-0.24083345
108,1778620628.0595164,-0.17580293,-1.4504505,-0.3884373,0.45509425,0.27779076,0.3205513
109,1778620628.1095285,-0.14433768,-1.2916607,-0.3501424,0.45509425,0.27779076,0.3205513
110,1778620628.1595328,-0.14433768,-1.2916607,-0.3501424,1.4856231,1.1091777,0.44089165
111,1778620628.2095346,-0.086285524,-1.0789654,-0.28062615,1.2889247,0.8813252,0.39080074
112,1778620628.2595363,-0.10579886,-0.70382154,-0.04256346,1.2889247,0.8813252,0.39080074
113,1778620628.3095376,0.21031716,0.18525472,0.2303793,2.2302673,1.9026911,-0.09300416
114,1778620628.359539,0.31959182,0.27477214,0.06524771,2.1313071,0.8611666,-0.7344122
115,1778620628.4095404,0.35105708,0.3108718,-0.030611541,2.1313071,0.8611666,-0.7344122
116,1778620628.459542,0.30715206,0.30843264,-0.12988563,2.2999058,0.48059785,-0.8449787
117,1778620628.509543,0.3354464,-0.8777341,0.52015233,2.3096797,2.4243696,-1.3886484
118,1778620628.5595455,-0.13653237,-1.4233757,0.708456,0.9932661,2.5605924,-0.40515608
119,1778620628.6095476,-0.13653237,-1.4233757,0.708456,0.9932661,2.5605924,-0.40515608
120,1778620628.6595488,-0.4345985,-2.1468327,0.33916613,0.034208428,2.7847798,0.3572032
121,1778620628.70955,-0.5350922,-1.5721649,0.20184104,-0.034208428,2.639394,0.47082403
122,1778620628.7595515,-0.19946286,-1.264586,0.24525821,0.33047783,3.3479972,0.40607235
123,1778620628.8095524,-0.19238928,-1.2126317,0.036953375,0.33414304,3.9759662,0.21059564
124,1778620628.8595538,-0.10189619,-0.31014004,0.36038688,-0.6310233,6.201957,-0.41431904
125,1778620628.9095552,-0.10189619,-0.31014004,0.36038688,-0.6310233,6.201957,-0.41431904
126,1778620628.959556,0.07128465,-0.1864743,0.25867364,-0.72753996,6.432864,-0.4637991
127,1778620629.0095606,0.21275632,-0.10232304,0.119397216,-1.8949026,3.7658286,-0.8315397
128,1778620629.059562,0.16031423,-0.08793196,0.17696154,-1.8515311,3.787209,-0.6391173
129,1778620629.1095655,0.16031423,-0.08793196,0.17696154,-1.8515311,3.787209,-0.6391173
130,1778620629.1595786,0.16031423,-0.08793196,0.17696154,-1.8515311,3.787209,-0.6391173
131,1778620629.2095797,-0.7070534,-1.3475176,-1.0487198,-1.4159845,0.7634283,0.3517054
132,1778620629.2595809,-0.08604161,0.04988096,-0.027440626,1.5228859,1.2142465,0.57467103
133,1778620629.3095818,0.04006331,0.21306121,0.004024625,1.5228859,1.2142465,0.57467103
134,1778620629.359583,0.03420931,-2.2878163,-0.23476979,1.576642,2.6100724,1.4903574
135,1778620629.409584,0.08738314,-1.838034,-0.24330688,0.42882708,0.6333141,0.33826637
136,1778620629.4595854,0.08738314,-1.838034,-0.24330688,0.7513637,1.6442952,0.40423977
137,1778620629.5095894,-0.35434994,-1.8168132,0.15647253,1.3060288,-1.0813833,1.6119194
138,1778620629.5595918,-0.12677568,-1.9634073,0.14452063,1.8087707,-1.3031273,1.0089959
139,1778620629.6095932,-0.025306353,-1.9646268,0.066223375,1.9761475,-1.2408191,0.6998983
140,1778620629.659594,-0.025306353,-1.9646268,0.066223375,1.9761475,-1.2408191,0.6998983
141,1778620629.7095954,0.07762648,-1.788275,-0.20501198,2.2736387,-0.8834632,0.2509127
142,1778620629.7595992,-0.25214887,-1.0955517,-0.7540684,1.4446952,-0.5566505,0.18432845
143,1778620629.809601,-0.076528855,-0.9238344,-0.5264941,0.9798271,-0.4949532,0.32299474
144,1778620629.8596022,-0.076528855,-0.9238344,-0.5264941,0.9798271,-0.4949532,0.32299474
145,1778620629.909603,0.2300744,-0.60747445,-0.34136137,0.7629701,-0.31352636,0.27656904
146,1778620629.9596043,0.32568973,-0.33550736,-0.22940363,0.47708538,-0.24266604,0.24174973
147,1778620630.0096068,0.32568973,-0.33550736,-0.22940363,0.2131918,-0.4668534,0.1262963
148,1778620630.0596092,0.32568973,-0.33550736,-0.22940363,0.2131918,-0.4668534,0.1262963
149,1778620630.1096122,0.45764863,-0.13939838,-0.27086946,-0.20219624,0.24480405,-0.80405074
150,1778620630.1596143,0.45764863,-0.13939838,-0.27086946,-0.20219624,0.24480405,-0.80405074
151,1778620630.209616,-0.6068037,-1.7165636,0.24842913,-3.1276276,0.41340274,-0.75395983
152,1778620630.2596183,-0.5497272,-1.9058429,0.2274523,-3.2223117,0.7035635,-0.7527381
153,1778620630.30962,-0.5497272,-1.9058429,0.2274523,-3.2223117,0.7035635,-0.7527381
154,1778620630.3596213,-0.006768687,-1.8009588,-0.4896627,-2.177122,-2.0257804,-0.6727148
155,1778620630.409624,-0.27532095,-0.57796055,0.11012838,-1.0103704,-3.5211773,-0.46624255
156,1778620630.4596283,-0.13653237,0.18842563,0.23550156,1.0574069,-1.5334233,0.0016798781
157,1778620630.5096314,-0.13653237,0.18842563,0.23550156,1.0574069,-1.5334233,0.0016798781
158,1778620630.5596342,-0.004817354,0.33062905,0.13427612,1.9987496,0.102472566,0.1678351
159,1778620630.609636,-0.004817354,0.33062905,0.13427612,2.0635011,0.25152358,0.14828743
160,1778620630.659638,0.02859923,0.33770263,0.0942738,1.6499457,0.4659371,-0.028863361
161,1778620630.709639,-0.027501604,0.028172374,0.27965048,-0.45937032,0.619875,0.74082625
162,1778620630.7596402,-0.027501604,0.028172374,0.27965048,0.5583304,-0.05818487,0.4744892
163,1778620630.8096414,-0.21629311,-0.8740754,1.1892157,1.5344924,0.32299474,-0.3837758
164,1778620630.859643,-0.39557186,-1.9887747,-0.15842387,2.7714934,-1.5670209,0.35414886
165,1778620630.9096441,0.03298973,-0.069638215,-0.21769562,-0.09834923,-0.41126472,-0.37278023
166,1778620630.9596455,-0.4255736,-0.20745113,-0.21623214,-1.3866631,0.6815724,-0.41981682
167,1778620631.0096467,-0.30898145,-0.56234986,0.048661377,-2.7269003,-0.01970039,-0.19013166
168,1778620631.0596478,-0.31629896,-1.0309138,-0.0023172083,-2.9553638,-0.10461059,-0.31902415
169,1778620631.109649,-0.4531362,-1.6121672,-0.03378246,-3.112967,0.1574504,-0.58047426
170,1778620631.1596496,0.015671646,-2.189274,-0.38648596,-1.9993604,-1.3770419,-0.75212723
171,1778620631.209651,-0.12482436,-1.6109476,-0.65528214,-1.305418,-2.229809,-1.1583524
172,1778620631.2596521,-0.18360828,-0.23281845,-0.8130962,0.3604102,2.2203407,0.46715885
173,1778620631.309655,-0.18360828,-0.23281845,-0.8130962,0.3604102,2.2203407,0.46715885
174,1778620631.3596573,-0.08433419,-0.5916199,-0.79309505,0.3604102,2.2203407,0.46715885
175,1778620631.4102414,-0.51923764,-1.8131545,0.17842504,2.3231187,-0.5676461,0.53496486
176,1778620631.4602427,-0.27141827,-1.7777867,0.04451479,2.3231187,-0.5676461,0.53496486
177,1778620631.5102437,0.19958481,-1.6797321,-0.3225798,1.8661919,-1.3416117,0.48304132
178,1778620631.5602446,0.21080498,-1.6241192,-0.7130904,2.1154246,-0.021532983,0.2319759
179,1778620631.6102457,0.21080498,-1.6241192,-0.7130904,2.1154246,-0.021532983,0.2319759
180,1778620631.6602468,-0.012622688,-0.8448054,-0.6267439,0.032986697,-1.5102104,0.6699659
181,1778620631.7102485,0.010793312,-0.6250365,-0.3838029,0.032986697,-1.5102104,0.6699659
182,1778620631.7602496,-0.33971494,-0.51600575,-0.031099375,-2.5949535,0.06704241,-0.7673989
183,1778620631.8102512,-0.38508344,-1.1643362,-0.1574482,-3.0274458,-1.0202969,-0.77595097
184,1778620631.8602521,-0.38508344,-1.1643362,-0.1574482,-3.379304,-1.3410009,-0.8290962
185,1778620631.910253,-0.87925863,-2.8602889,0.48551616,-3.5588982,-1.29091,-0.8852958
186,1778620631.9602542,-0.63168323,-2.0482903,-0.017196124,-2.3964226,2.910007,0.022449281
187,1778620632.0102556,-0.17921777,-0.70699245,-0.22598879,-1.1930189,-3.3428047,-0.15164718
188,1778620632.0602567,-0.12336086,-0.41965863,-0.08280971,-0.6872229,-3.5028512,-0.056963142
189,1778620632.1102576,-0.28702894,-1.2816602,-0.023781875,-1.1502584,-1.2133301,0.56428635
190,1778620632.1602604,-0.21482961,-1.5575299,-0.547227,1.0256419,-2.3238823,-0.21517712
191,1778620632.210262,0.29544407,0.093785964,0.30550563,-1.047633,-1.5548036,-0.70570153
192,1778620632.2602634,0.21909817,0.054515377,0.14378887,-1.047633,-1.5548036,-0.70570153
193,1778620632.3102646,0.21909817,0.054515377,0.14378887,-1.1844668,-1.2029455,-0.7808379
194,1778620632.3602655,0.21909817,0.054515377,0.14378887,-1.4055998,-1.1375829,-0.72769266
195,1778620632.4102666,-0.110189356,-0.17964463,-0.086712375,-1.5503749,-2.0801473,-0.28725916
196,1778620632.4602675,-0.38410777,-0.33160472,0.014513042,-1.8741331,-2.4045165,0.10980295
197,1778620632.5102684,-0.4502092,-0.45307523,0.100127794,-2.1673481,-1.7759366,0.12140937
198,1778620632.5602694,-0.45191658,-0.644062,0.096469045,-2.1673481,-1.7759366,0.12140937
199,1778620632.610271,-0.45191658,-0.644062,0.096469045,-2.1673481,-1.7759366,0.12140937
200,1778620632.66028,0.014939896,-1.9299905,-0.005000292,-2.3677118,-0.87307847,0.049938194
