id,timestamp,acc_x,acc_y,acc_z,gyro_x,gyro_y,gyro_z
1,1778619399.9395425,0.3822784,-0.21403688,-0.009146876,-1.4336996,-0.40011644,1.4753911
2,1778619399.9495447,0.3822784,-0.21403688,-0.009146876,-1.4336996,-0.40011644,1.4753911
3,1778619399.959546,0.3822784,-0.21403688,-0.009146876,-1.4336996,-0.40011644,1.4753911
4,1778619399.969548,0.4105727,-0.29599288,0.019147458,-1.4391974,-0.5656608,1.7563889
5,1778619399.9795508,0.4105727,-0.29599288,0.019147458,-1.4391974,-0.5656608,1.7563889
6,1778619399.9895525,0.4105727,-0.29599288,0.019147458,-1.4391974,-0.5656608,1.7563889
7,1778619399.9995546,0.4105727,-0.29599288,0.019147458,-1.4391974,-0.5656608,1.7563889
8,1778619400.0095565,0.6505867,-0.39233997,-0.04183171,-1.2449424,-1.5186099,2.6207626
9,1778619400.019559,0.6505867,-0.39233997,-0.04183171,-1.2449424,-1.5186099,2.6207626
10,1778619400.0295606,0.6505867,-0.39233997,-0.04183171,-1.2449424,-1.5186099,2.6207626
11,1778619400.0395615,0.70644367,-0.46673456,-0.10329871,-1.2449424,-1.5186099,2.6207626
12,1778619400.0495627,0.70644367,-0.46673456,-0.10329871,-1.2449424,-1.5186099,2.6207626
13,1778619400.0595636,0.70644367,-0.46673456,-0.10329871,-1.2449424,-1.5186099,2.6207626
14,1778619400.0695646,1.7147952,-0.23476979,0.17940071,-3.0805912,-1.0965023,3.3134832
15,1778619400.0795739,1.7147952,-0.23476979,0.17940071,-3.0805912,-1.0965023,3.3134832
16,1778619400.0895772,1.7147952,-0.23476979,0.17940071,-3.0805912,-1.0965023,3.3134832
17,1778619400.0995784,1.9021232,-0.15769213,0.24550213,-3.0805912,-1.0965023,3.3134832
18,1778619400.109579,1.9021232,-0.15769213,0.24550213,-3.0805912,-1.0965023,3.3134832
19,1778619400.1195803,1.9021232,-0.15769213,0.24550213,-3.0805912,-1.0965023,3.3134832
20,1778619400.129581,2.9995043,0.42990315,0.9935945,-2.0176864,-2.005469,2.6519167
21,1778619400.1395822,2.9995043,0.42990315,0.9935945,-2.0176864,-2.005469,2.6519167
22,1778619400.1495836,2.7616856,0.48356482,0.89236915,-2.2119415,-1.5027274,2.2792892
23,1778619400.1595848,2.7616856,0.48356482,0.89236915,-2.2119415,-1.5027274,2.2792892
24,1778619400.1695857,2.7616856,0.48356482,0.89236915,-2.2119415,-1.5027274,2.2792892
25,1778619400.1795871,2.6631434,0.49015057,0.8757828,-2.579071,-0.8167262,1.9017748
26,1778619400.1895885,2.6631434,0.49015057,0.8757828,-2.579071,-0.8167262,1.9017748
27,1778619400.199589,2.6631434,0.49015057,0.8757828,-2.579071,-0.8167262,1.9017748
28,1778619400.20959,2.5189884,0.50454164,0.90383315,-2.5857906,-1.0286963,2.050215
29,1778619400.219591,2.3831267,0.4591731,0.89846706,-2.5857906,-1.0286963,2.050215
30,1778619400.2295914,2.3831267,0.4591731,0.89846706,-2.5857906,-1.0286963,2.050215
31,1778619400.2395918,2.3831267,0.4591731,0.89846706,-2.5857906,-1.0286963,2.050215
32,1778619400.2495942,2.0570102,0.33014122,0.7535805,-2.5454736,-0.67378384,1.8241949
33,1778619400.2595963,2.0570102,0.33014122,0.7535805,-2.5454736,-0.67378384,1.8241949
34,1778619400.2695975,2.0570102,0.33014122,0.7535805,-2.4581199,-0.56627166,1.724624
35,1778619400.2795982,2.0570102,0.33014122,0.7535805,-2.4581199,-0.56627166,1.724624
36,1778619400.2895987,2.0570102,0.33014122,0.7535805,-2.4581199,-0.56627166,1.724624
37,1778619400.2995994,1.9411498,0.34794715,0.7174809,-2.4581199,-0.56627166,1.724624
38,1778619400.3096,1.9411498,0.34794715,0.7174809,-2.4581199,-0.56627166,1.724624
39,1778619400.3196008,1.9411498,0.34794715,0.7174809,-2.4581199,-0.56627166,1.724624
40,1778619400.3296015,1.4186803,0.53844607,0.76675206,-1.1374302,-1.174693,1.5603013
41,1778619400.3396027,1.4186803,0.53844607,0.76675206,-1.1374302,-1.174693,1.5603013
42,1778619400.3496037,1.36136,0.59747386,0.7560197,-1.1374302,-1.174693,1.5603013
43,1778619400.3596058,1.36136,0.59747386,0.7560197,-1.1374302,-1.174693,1.5603013
44,1778619400.369607,1.36136,0.59747386,0.7560197,-1.1374302,-1.174693,1.5603013
45,1778619400.3796082,1.36136,0.59747386,0.7560197,-1.1374302,-1.174693,1.5603013
46,1778619400.3896124,1.36136,0.59747386,0.7560197,-1.1374302,-1.174693,1.5603013
47,1778619400.3996146,1.36136,0.59747386,0.7560197,-1.1374302,-1.174693,1.5603013
48,1778619400.4096155,1.2454995,0.72260314,0.7321159,-1.1917971,-0.6847794,1.3764311
49,1778619400.4196935,1.0337799,0.8931009,0.649916,-1.2675444,-0.34758207,1.1155918
50,1778619400.4296968,1.0337799,0.8931009,0.649916,-1.2675444,-0.34758207,1.1155918
51,1778619400.4396975,1.0337799,0.8931009,0.649916,-1.2675444,-0.34758207,1.1155918
52,1778619400.4496977,1.0337799,0.8931009,0.649916,-1.2675444,-0.34758207,1.1155918
53,1778619400.4596992,1.0337799,0.8931009,0.649916,-1.2675444,-0.34758207,1.1155918
54,1778619400.4697003,0.8962108,0.9704225,0.5994252,-1.2974768,-0.17043127,0.85291994
55,1778619400.4797015,0.8962108,0.9704225,0.5994252,-1.2974768,-0.17043127,0.85291994
56,1778619400.4897025,0.8962108,0.9704225,0.5994252,-1.2974768,-0.17043127,0.85291994
57,1778619400.4997034,0.8962108,0.9704225,0.5994252,-1.2974768,-0.17043127,0.85291994
58,1778619400.509704,0.8962108,0.9704225,0.5994252,-1.2974768,-0.17043127,0.85291994
59,1778619400.5197048,0.8962108,0.9704225,0.5994252,-1.2974768,-0.17043127,0.85291994
60,1778619400.5297055,0.8962108,0.9704225,0.5994252,-1.2974768,-0.17043127,0.85291994
61,1778619400.5397065,0.8962108,0.9704225,0.5994252,-1.2974768,-0.17043127,0.85291994
62,1778619400.5497074,0.8962108,0.9704225,0.5994252,-1.2974768,-0.17043127,0.85291994
63,1778619400.5602462,0.8962108,0.9704225,0.5994252,-1.2974768,-0.17043127,0.85291994
64,1778619400.5702472,0.8962108,0.9704225,0.5994252,-1.2974768,-0.17043127,0.85291994
65,1778619400.5802495,0.72010297,1.0296943,0.5794241,-1.3072506,-0.01527162,0.5059488
66,1778619400.590261,0.72010297,1.0296943,0.5794241,-1.3072506,-0.01527162,0.5059488
67,1778619400.600262,0.72010297,1.0296943,0.5794241,-1.3072506,-0.01527162,0.5059488
68,1778619400.610263,0.72010297,1.0296943,0.5794241,-1.3072506,-0.01527162,0.5059488
69,1778619400.620264,0.72010297,1.0296943,0.5794241,-1.3072506,-0.01527162,0.5059488
70,1778619400.630265,0.72010297,1.0296943,0.5794241,-1.3072506,-0.01527162,0.5059488
71,1778619400.640266,0.72010297,1.0296943,0.5794241,-1.3072506,-0.01527162,0.5059488
72,1778619400.6502666,0.72010297,1.0296943,0.5794241,-1.3072506,-0.01527162,0.5059488
73,1778619400.660269,0.72010297,1.0296943,0.5794241,-1.3072506,-0.01527162,0.5059488
74,1778619400.6702712,0.18714507,0.9418842,0.6252804,0.44409868,0.29749113,-1.685834
75,1778619400.6802733,0.18714507,0.9418842,0.6252804,0.44409868,0.29749113,-1.685834
76,1778619400.6902838,0.18714507,0.9418842,0.6252804,0.849102,0.39645123,-1.835496
77,1778619400.700291,0.18714507,0.9418842,0.6252804,0.849102,0.39645123,-1.835496
78,1778619400.710293,0.18714507,0.9418842,0.6252804,0.849102,0.39645123,-1.835496
79,1778619400.7202992,0.62326807,0.90480894,0.64967203,1.2315034,0.35124725,-1.9320126
80,1778619400.730302,0.62326807,0.90480894,0.64967203,1.2315034,0.35124725,-1.9320126
81,1778619400.7403038,0.62326807,0.90480894,0.64967203,1.2315034,0.35124725,-1.9320126
82,1778619400.7503061,0.62326807,0.90480894,0.64967203,1.2315034,0.35124725,-1.9320126
83,1778619400.7603076,0.62326807,0.90480894,0.64967203,1.2315034,0.35124725,-1.9320126
84,1778619400.77031,0.62326807,0.90480894,0.64967203,1.2315034,0.35124725,-1.9320126
85,1778619400.780312,0.62326807,0.90480894,0.64967203,1.2315034,0.35124725,-1.9320126
86,1778619400.7903135,0.62326807,0.90480894,0.64967203,1.2315034,0.35124725,-1.9320126
87,1778619400.8003154,0.62326807,0.90480894,0.64967203,1.2315034,0.35124725,-1.9320126
88,1778619400.8103173,0.62326807,0.90480894,0.64967203,1.2315034,0.35124725,-1.9320126
89,1778619400.8203194,0.62326807,0.90480894,0.64967203,1.2315034,0.35124725,-1.9320126
90,1778619400.830321,1.09793,0.89066166,0.87968546,2.0977097,-0.13439025,-2.142761
91,1778619400.8403242,1.09793,0.89066166,0.87968546,2.0977097,-0.13439025,-2.142761
92,1778619400.8503258,1.09793,0.89066166,0.87968546,2.0977097,-0.13439025,-2.142761
93,1778619400.8603292,1.09793,0.89066166,0.87968546,2.5564692,-0.3176497,-2.3058617
94,1778619400.870344,1.09793,0.89066166,0.87968546,2.5564692,-0.3176497,-2.3058617
95,1778619400.8803453,1.09793,0.89066166,0.87968546,2.5564692,-0.3176497,-2.3058617
96,1778619400.8903468,1.09793,0.89066166,0.87968546,2.5564692,-0.3176497,-2.3058617
97,1778619400.900348,1.09793,0.89066166,0.87968546,2.5564692,-0.3176497,-2.3058617
98,1778619400.9103494,1.09793,0.89066166,0.87968546,2.5564692,-0.3176497,-2.3058617
99,1778619400.920351,1.09793,0.89066166,0.87968546,2.5564692,-0.3176497,-2.3058617
100,1778619400.9303522,1.09793,0.89066166,0.87968546,2.5564692,-0.3176497,-2.3058617
101,1778619400.9403536,1.09793,0.89066166,0.87968546,2.5564692,-0.3176497,-2.3058617
102,1778619400.9503553,1.09793,0.89066166,0.87968546,2.5564692,-0.3176497,-2.3058617
103,1778619400.960357,1.09793,0.89066166,0.87968546,2.5564692,-0.3176497,-2.3058617
104,1778619400.970359,1.09793,0.89066166,0.87968546,2.5564692,-0.3176497,-2.3058617
105,1778619400.980361,3.5527072,-0.20428021,0.9377376,3.5075855,2.6816964,-4.0150614
106,1778619400.9903624,3.5527072,-0.20428021,0.9377376,3.5075855,2.6816964,-4.0150614
107,1778619401.0003638,3.5527072,-0.20428021,0.9377376,3.5075855,2.6816964,-4.0150614
108,1778619401.0103652,3.5527072,-0.20428021,0.9377376,3.5075855,2.6816964,-4.0150614
109,1778619401.0203736,3.5527072,-0.20428021,0.9377376,3.5075855,2.6816964,-4.0150614
110,1778619401.0303862,3.5527072,-0.20428021,0.9377376,3.5075855,2.6816964,-4.0150614
111,1778619401.040388,3.5527072,-0.20428021,0.9377376,3.5075855,2.6816964,-4.0150614
112,1778619401.0503893,3.5527072,-0.20428021,0.9377376,3.5075855,2.6816964,-4.0150614
113,1778619401.0603907,3.5527072,-0.20428021,0.9377376,3.5075855,2.6816964,-4.0150614
114,1778619401.070392,3.5527072,-0.20428021,0.9377376,3.5075855,2.6816964,-4.0150614
115,1778619401.0803936,3.5527072,-0.20428021,0.9377376,3.5075855,2.6816964,-4.0150614
116,1778619401.0905418,3.5527072,-0.20428021,0.9377376,3.5075855,2.6816964,-4.0150614
117,1778619401.1005433,3.5527072,-0.20428021,0.9377376,3.5075855,2.6816964,-4.0150614
118,1778619401.1105452,3.5527072,-0.20428021,0.9377376,3.5075855,2.6816964,-4.0150614
119,1778619401.1205466,3.5527072,-0.20428021,0.9377376,3.5075855,2.6816964,-4.0150614
120,1778619401.130556,3.5527072,-0.20428021,0.9377376,3.4862053,3.0195045,-3.9466445
121,1778619401.14056,3.5527072,-0.20428021,0.9377376,3.4862053,3.0195045,-3.9466445
122,1778619401.1505616,3.5527072,-0.20428021,0.9377376,3.4862053,3.0195045,-3.9466445
123,1778619401.1605628,3.201955,-0.36282605,0.7128465,3.5210247,3.0359979,-3.8330238
124,1778619401.170564,3.201955,-0.36282605,0.7128465,3.5210247,3.0359979,-3.8330238
125,1778619401.1805644,3.201955,-0.36282605,0.7128465,3.5210247,3.0359979,-3.8330238
126,1778619401.1905653,3.201955,-0.36282605,0.7128465,3.5210247,3.0359979,-3.8330238
127,1778619401.2005703,3.201955,-0.36282605,0.7128465,3.5210247,3.0359979,-3.8330238
128,1778619401.2105727,3.201955,-0.36282605,0.7128465,3.5210247,3.0359979,-3.8330238
129,1778619401.2205849,2.830714,-0.51088345,0.47819862,3.5796676,2.6010623,-3.6118908
130,1778619401.230593,2.830714,-0.51088345,0.47819862,3.5796676,2.6010623,-3.6118908
131,1778619401.2405937,2.830714,-0.51088345,0.47819862,3.5796676,2.6010623,-3.6118908
132,1778619401.2505949,2.4384959,-0.60698664,0.24525821,3.5796676,2.6010623,-3.6118908
133,1778619401.260595,2.4384959,-0.60698664,0.24525821,3.5796676,2.6010623,-3.6118908
134,1778619401.2705963,2.4384959,-0.60698664,0.24525821,3.5796676,2.6010623,-3.6118908
135,1778619401.2805974,2.154333,-0.6506477,0.14330104,3.5802784,2.3432772,-3.5135415
136,1778619401.2905986,2.154333,-0.6506477,0.14330104,3.5802784,2.3432772,-3.5135415
137,1778619401.3005998,2.154333,-0.6506477,0.14330104,3.5802784,2.3432772,-3.5135415
138,1778619401.310601,-0.21848835,-1.1040888,-0.43283013,0.021991132,-0.19547673,-0.062155493
139,1778619401.3206022,-0.21848835,-1.1040888,-0.43283013,0.021991132,-0.19547673,-0.062155493
140,1778619401.3306031,-0.21848835,-1.1040888,-0.43283013,0.021991132,-0.19547673,-0.062155493
141,1778619401.3406034,-0.21848835,-1.1040888,-0.43283013,0.021991132,-0.19547673,-0.062155493
142,1778619401.3506043,-0.20556077,-1.0867708,-0.064272046,-0.8136719,0.38240135,1.055727
143,1778619401.3606105,-0.18092519,-1.1631166,-0.3181893,-0.42760533,0.6194169,1.6256639
144,1778619401.370613,-0.18092519,-1.1631166,-0.3181893,-0.42760533,0.6194169,1.6256639
145,1778619401.380614,-0.18092519,-1.1631166,-0.3181893,-0.42760533,0.6194169,1.6256639
146,1778619401.390615,-0.18092519,-1.1631166,-0.3181893,-0.42760533,0.6194169,1.6256639
147,1778619401.4006155,-0.18092519,-1.1631166,-0.3181893,-0.42760533,0.6194169,1.6256639
148,1778619401.4106164,2.7887604,-1.2833675,0.045734376,-5.688984,-1.3066398,5.947532
149,1778619401.4206185,2.7887604,-1.2833675,0.045734376,-5.688984,-1.3066398,5.947532
150,1778619401.43062,2.7887604,-1.2833675,0.045734376,-5.688984,-1.3066398,5.947532
151,1778619401.440621,0.6818081,1.1096989,0.45746574,-0.3035998,-0.2706131,-0.5496256
152,1778619401.4506216,0.6818081,1.1096989,0.45746574,-0.3035998,-0.2706131,-0.5496256
153,1778619401.4606223,0.6818081,1.1096989,0.45746574,-0.3035998,-0.2706131,-0.5496256
154,1778619401.4706235,0.6818081,1.1096989,0.45746574,-0.3035998,-0.2706131,-0.5496256
155,1778619401.4806242,0.6818081,1.1096989,0.45746574,-0.3035998,-0.2706131,-0.5496256
156,1778619401.4906251,0.6818081,1.1096989,0.45746574,-0.3035998,-0.2706131,-0.5496256
157,1778619401.5006294,1.4281931,0.9557874,0.9467625,2.9449792,0.22479823,-3.3565493
158,1778619401.5106325,1.4281931,0.9557874,0.9467625,2.9449792,0.22479823,-3.3565493
159,1778619401.5206335,1.5621033,0.8601721,0.92968833,3.0317218,0.375071,-3.8098109
160,1778619401.5306358,1.6469864,0.7535805,0.93042016,3.0317218,0.375071,-3.8098109
161,1778619401.540637,1.6469864,0.7535805,0.93042016,3.0317218,0.375071,-3.8098109
162,1778619401.5506377,1.6469864,0.7535805,0.93042016,3.0317218,0.375071,-3.8098109
163,1778619401.560645,1.6469864,0.7535805,0.93042016,2.9278748,0.5222894,-3.9729118
164,1778619401.5706487,1.6469864,0.7535805,0.93042016,2.9278748,0.5222894,-3.9729118
165,1778619401.5806496,1.6469864,0.7535805,0.93042016,2.9278748,0.5222894,-3.9729118
166,1778619401.5906506,1.6469864,0.7535805,0.93042016,2.9278748,0.5222894,-3.9729118
167,1778619401.6006513,1.6469864,0.7535805,0.93042016,2.9278748,0.5222894,-3.9729118
168,1778619401.6106558,2.031399,0.6545504,0.9862771,2.3683228,1.1239913,-3.478722
169,1778619401.620658,2.031399,0.6545504,0.9862771,2.3683228,1.1239913,-3.478722
170,1778619401.6306586,2.031399,0.6545504,0.9862771,2.3683228,1.1239913,-3.478722
171,1778619401.6406598,2.569967,0.708212,0.95456785,2.3683228,1.1239913,-3.478722
172,1778619401.65066,2.569967,0.708212,0.95456785,2.3683228,1.1239913,-3.478722
173,1778619401.6606615,2.359467,-0.66479486,0.058174126,1.4569125,2.2785256,-3.2105525
174,1778619401.670663,2.359467,-0.66479486,0.058174126,1.4569125,2.2785256,-3.2105525
175,1778619401.6806643,2.359467,-0.66479486,0.058174126,1.4569125,2.2785256,-3.2105525
176,1778619401.6906648,2.359467,-0.66479486,0.058174126,1.4569125,2.2785256,-3.2105525
177,1778619401.7008274,2.359467,-0.66479486,0.058174126,1.4569125,2.2785256,-3.2105525
178,1778619401.7108288,2.359467,-0.66479486,0.058174126,1.4569125,2.2785256,-3.2105525
179,1778619401.72083,1.0418291,-0.9877406,-0.014513042,0.7354812,2.5509713,-2.3217442
180,1778619401.7308304,1.0418291,-0.9877406,-0.014513042,0.7354812,2.5509713,-2.3217442
181,1778619401.7408311,1.0418291,-0.9877406,-0.014513042,0.7354812,2.5509713,-2.3217442
182,1778619401.750834,0.8347438,-1.0962834,-0.09866429,0.700051,2.7953172,-2.2313364
183,1778619401.7608352,0.8347438,-1.0962834,-0.09866429,0.700051,2.7953172,-2.2313364
184,1778619401.770836,0.8347438,-1.0962834,-0.09866429,0.700051,2.7953172,-2.2313364
185,1778619401.780837,0.8347438,-1.0962834,-0.09866429,0.700051,2.7953172,-2.2313364
186,1778619401.7908375,0.8347438,-1.0962834,-0.09866429,0.700051,2.7953172,-2.2313364
187,1778619401.8008392,0.8347438,-1.0962834,-0.09866429,0.700051,2.7953172,-2.2313364
188,1778619401.8108404,0.8347438,-1.0962834,-0.09866429,0.700051,2.7953172,-2.2313364
189,1778619401.8208413,0.8347438,-1.0962834,-0.09866429,0.700051,2.7953172,-2.2313364
190,1778619401.830842,0.8347438,-1.0962834,-0.09866429,0.73792464,3.1520622,-1.8629849
191,1778619401.8408425,0.8347438,-1.0962834,-0.09866429,0.73792464,3.1520622,-1.8629849
192,1778619401.850843,0.8347438,-1.0962834,-0.09866429,0.73792464,3.1520622,-1.8629849
193,1778619401.8608456,0.45008725,-1.2419018,-0.28233355,0.73792464,3.1520622,-1.8629849
194,1778619401.870847,0.45008725,-1.2419018,-0.28233355,0.73792464,3.1520622,-1.8629849
195,1778619401.8808482,0.45008725,-1.2419018,-0.28233355,0.73792464,3.1520622,-1.8629849
196,1778619401.8908496,0.45008725,-1.2419018,-0.28233355,0.73792464,3.1520622,-1.8629849
197,1778619401.9008508,0.45008725,-1.2419018,-0.28233355,0.73792464,3.1520622,-1.8629849
198,1778619401.910851,0.45008725,-1.2419018,-0.28233355,0.73792464,3.1520622,-1.8629849
199,1778619401.9208531,0.1393374,-1.3504447,-0.5945469,0.4893027,2.7733262,-0.945466
200,1778619401.9308548,0.1393374,-1.3504447,-0.5945469,0.4893027,2.7733262,-0.945466
201,1778619401.9408576,0.1393374,-1.3504447,-0.5945469,0.4893027,2.7733262,-0.945466
202,1778619401.9508681,0.1393374,-1.3504447,-0.5945469,0.4893027,2.7733262,-0.945466
203,1778619401.9608693,-0.33947104,-1.3445907,-1.3750802,0.4893027,2.7733262,-0.945466
204,1778619401.9708703,-0.33947104,-1.3445907,-1.3750802,0.4893027,2.7733262,-0.945466
205,1778619401.9808705,-0.33947104,-1.3445907,-1.3750802,0.4893027,2.7733262,-0.945466
206,1778619401.9908717,0.40715793,-0.8948083,-0.673332,-1.0329723,-1.7513493,2.4668248
207,1778619402.0008724,0.40715793,-0.8948083,-0.673332,-1.0329723,-1.7513493,2.4668248
208,1778619402.010873,0.40715793,-0.8948083,-0.673332,-1.0329723,-1.7513493,2.4668248
209,1778619402.0208735,2.9251096,0.036465544,1.4509383,-3.5088072,-2.073886,3.6060874
210,1778619402.0308743,2.9251096,0.036465544,1.4509383,-3.5088072,-2.073886,3.6060874
211,1778619402.040875,2.9251096,0.036465544,1.4509383,-3.5088072,-2.073886,3.6060874
212,1778619402.0508754,2.6863153,0.12549512,1.3414198,-2.7055202,-1.2040145,3.4032805
213,1778619402.06092,2.6863153,0.12549512,1.3414198,-2.7055202,-1.2040145,3.4032805
214,1778619402.0709212,2.6863153,0.12549512,1.3414198,-2.7055202,-1.2040145,3.4032805
215,1778619402.0809224,2.6863153,0.12549512,1.3414198,-2.7055202,-1.2040145,3.4032805
216,1778619402.090923,2.6863153,0.12549512,1.3414198,-2.7055202,-1.2040145,3.4032805
217,1778619402.100924,2.6863153,0.12549512,1.3414198,-2.2656975,-1.1215477,3.378846
218,1778619402.1109245,2.6863153,0.12549512,1.3414198,-2.2656975,-1.1215477,3.378846
219,1778619402.1209252,2.6863153,0.12549512,1.3414198,-2.2656975,-1.1215477,3.378846
220,1778619402.1309257,2.3528812,0.29306588,1.1604335,-2.2656975,-1.1215477,3.378846
221,1778619402.1409261,2.3528812,0.29306588,1.1604335,-2.2656975,-1.1215477,3.378846
222,1778619402.1509266,2.3528812,0.29306588,1.1604335,-2.2656975,-1.1215477,3.378846
223,1778619402.1609282,2.3528812,0.29306588,1.1604335,-1.89307,-1.0806198,3.3489134
224,1778619402.17093,2.3528812,0.29306588,1.1604335,-1.89307,-1.0806198,3.3489134
225,1778619402.1809306,2.3528812,0.29306588,1.1604335,-1.89307,-1.0806198,3.3489134
226,1778619402.190932,2.3528812,0.29306588,1.1604335,-1.89307,-1.0806198,3.3489134
227,1778619402.2013292,2.3528812,0.29306588,1.1604335,-1.89307,-1.0806198,3.3489134
228,1778619402.21133,2.3528812,0.29306588,1.1604335,-1.89307,-1.0806198,3.3489134
229,1778619402.2213314,2.3528812,0.29306588,1.1604335,-1.89307,-1.0806198,3.3489134
230,1778619402.2313323,2.3528812,0.29306588,1.1604335,-1.89307,-1.0806198,3.3489134
231,1778619402.2416105,2.3528812,0.29306588,1.1604335,-1.89307,-1.0806198,3.3489134
232,1778619402.2516139,1.5591763,0.8555377,0.7530927,-0.6682861,-0.5674934,1.6910264
233,1778619402.2616177,1.5591763,0.8555377,0.7530927,-0.6682861,-0.5674934,1.6910264
234,1778619402.2716196,1.5591763,0.8555377,0.7530927,-0.6682861,-0.5674934,1.6910264
235,1778619402.2816203,1.5591763,0.8555377,0.7530927,-0.6682861,-0.5674934,1.6910264
236,1778619402.2916205,1.5591763,0.8555377,0.7530927,-0.6682861,-0.5674934,1.6910264
237,1778619402.3016217,1.5591763,0.8555377,0.7530927,-0.6682861,-0.5674934,1.6910264
238,1778619402.3116233,1.5591763,0.8555377,0.7530927,-0.6682861,-0.5674934,1.6910264
239,1778619402.3216243,1.5591763,0.8555377,0.7530927,-0.6682861,-0.5674934,1.6910264
240,1778619402.3316252,1.5591763,0.8555377,0.7530927,-0.6682861,-0.5674934,1.6910264
241,1778619402.3416283,1.5591763,0.8555377,0.7530927,-0.5430588,-0.5204568,1.3984222
242,1778619402.3516314,1.5591763,0.8555377,0.7530927,-0.5430588,-0.5204568,1.3984222
243,1778619402.3616326,1.5591763,0.8555377,0.7530927,-0.5430588,-0.5204568,1.3984222
244,1778619402.371634,1.5591763,0.8555377,0.7530927,-0.5430588,-0.5204568,1.3984222
245,1778619402.3816357,1.5591763,0.8555377,0.7530927,-0.5430588,-0.5204568,1.3984222
246,1778619402.3916368,0.69741875,1.203363,0.4747838,-1.6878194,0.69394237,0.16447534
247,1778619402.4016378,0.69741875,1.203363,0.4747838,-1.6878194,0.69394237,0.16447534
248,1778619402.4116397,0.1349469,1.0084735,0.5864976,-1.1716386,0.89247346,-0.84345156
249,1778619402.421641,0.1349469,1.0084735,0.5864976,-1.1716386,0.89247346,-0.84345156
250,1778619402.431642,0.1349469,1.0084735,0.5864976,-1.1716386,0.89247346,-0.84345156
251,1778619402.441643,0.1349469,1.0084735,0.5864976,-1.1716386,0.89247346,-0.84345156
252,1778619402.451646,0.1349469,1.0084735,0.5864976,-1.1716386,0.89247346,-0.84345156
253,1778619402.4616485,0.1349469,1.0084735,0.5864976,-1.1716386,0.89247346,-0.84345156
254,1778619402.4716492,0.1349469,1.0084735,0.5864976,-1.1716386,0.89247346,-0.84345156
255,1778619402.4816499,0.1349469,1.0084735,0.5864976,-1.1716386,0.89247346,-0.84345156
256,1778619402.4916503,0.1349469,1.0084735,0.5864976,-1.1716386,0.89247346,-0.84345156
257,1778619402.5016518,0.67107576,0.76065415,0.48380873,1.7745622,0.34941465,-1.4726423
258,1778619402.5116527,0.67107576,0.76065415,0.48380873,1.7745622,0.34941465,-1.4726423
259,1778619402.5216532,0.67107576,0.76065415,0.48380873,1.7745622,0.34941465,-1.4726423
260,1778619402.5316546,0.99987537,0.65137947,0.41160935,1.7745622,0.34941465,-1.4726423
261,1778619402.5416555,0.99987537,0.65137947,0.41160935,1.7745622,0.34941465,-1.4726423
262,1778619402.5516562,0.99987537,0.65137947,0.41160935,2.2351542,-0.0018325944,-1.5447243
263,1778619402.5616577,0.99987537,0.65137947,0.41160935,2.2351542,-0.0018325944,-1.5447243
264,1778619402.5716586,0.99987537,0.65137947,0.41160935,2.2351542,-0.0018325944,-1.5447243
265,1778619402.5816596,1.3677016,0.606011,0.42185387,2.751335,-0.46853328,-1.6039782
266,1778619402.5916603,1.3677016,0.606011,0.42185387,2.751335,-0.46853328,-1.6039782
267,1778619402.601661,1.3677016,0.606011,0.42185387,2.751335,-0.46853328,-1.6039782
268,1778619402.611662,1.3677016,0.606011,0.42185387,2.751335,-0.46853328,-1.6039782
269,1778619402.621665,1.3677016,0.606011,0.42185387,2.751335,-0.46853328,-1.6039782
270,1778619402.6316667,1.3677016,0.606011,0.42185387,2.751335,-0.46853328,-1.6039782
271,1778619402.6416683,2.280194,0.58064365,0.49039447,3.2656832,-0.69394237,-2.020588
272,1778619402.6516771,2.280194,0.58064365,0.49039447,3.2656832,-0.69394237,-2.020588
273,1778619402.6616807,2.280194,0.58064365,0.49039447,3.2656832,-0.69394237,-2.020588
274,1778619402.6716821,2.280194,0.58064365,0.49039447,3.2595744,-0.59742576,-2.2172863
275,1778619402.6816826,2.280194,0.58064365,0.49039447,3.2595744,-0.59742576,-2.2172863
276,1778619402.6916835,3.2246392,0.13964228,0.38648596,2.7385068,0.5387827,-3.3504405
277,1778619402.7016845,3.2246392,0.13964228,0.38648596,2.7385068,0.5387827,-3.3504405
278,1778619402.7116847,3.2246392,0.13964228,0.38648596,2.7385068,0.5387827,-3.3504405
279,1778619402.7216856,3.2704957,-0.0059759584,0.23794071,2.7385068,0.5387827,-3.3504405
280,1778619402.731696,3.2704957,-0.0059759584,0.23794071,2.5057673,0.8148936,-3.6864161
281,1778619402.7417002,3.2704957,-0.0059759584,0.23794071,2.5057673,0.8148936,-3.6864161
282,1778619402.7517014,0.94157934,-1.0309138,-0.16281438,2.294408,1.2431098,-3.8519607
283,1778619402.7617023,0.94157934,-1.0309138,-0.16281438,2.294408,1.2431098,-3.8519607
284,1778619402.7717028,0.94157934,-1.0309138,-0.16281438,2.294408,1.2431098,-3.8519607
285,1778619402.7817037,0.94157934,-1.0309138,-0.16281438,2.294408,1.2431098,-3.8519607
286,1778619402.7917047,0.94157934,-1.0309138,-0.16281438,2.294408,1.2431098,-3.8519607
287,1778619402.8017058,0.94157934,-1.0309138,-0.16281438,2.294408,1.2431098,-3.8519607
288,1778619402.8117065,0.94157934,-1.0309138,-0.16281438,2.294408,1.2431098,-3.8519607
289,1778619402.8217072,0.94157934,-1.0309138,-0.16281438,2.294408,1.2431098,-3.8519607
290,1778619402.8317082,0.6442449,-1.0821364,-0.39868182,2.294408,1.2431098,-3.8519607
291,1778619402.8417091,0.6442449,-1.0821364,-0.39868182,2.294408,1.2431098,-3.8519607
292,1778619402.8517096,0.6442449,-1.0821364,-0.39868182,2.294408,1.2431098,-3.8519607
293,1778619402.8617113,0.6442449,-1.0821364,-0.39868182,2.6010623,0.66339916,-3.7743807
294,1778619402.8717132,0.6442449,-1.0821364,-0.39868182,2.6010623,0.66339916,-3.7743807
295,1778619402.881715,0.6442449,-1.0821364,-0.39868182,2.6010623,0.66339916,-3.7743807
296,1778619402.8917174,0.6442449,-1.0821364,-0.39868182,2.6010623,0.66339916,-3.7743807
297,1778619402.9018095,0.6442449,-1.0821364,-0.39868182,2.6010623,0.66339916,-3.7743807
298,1778619402.9118109,0.6442449,-1.0821364,-0.39868182,2.6010623,0.66339916,-3.7743807
299,1778619402.9218123,0.6442449,-1.0821364,-0.39868182,2.6010623,0.66339916,-3.7743807
300,1778619402.931813,0.6442449,-1.0821364,-0.39868182,2.6010623,0.66339916,-3.7743807
301,1778619402.9418137,0.6442449,-1.0821364,-0.39868182,2.6010623,0.66339916,-3.7743807
302,1778619402.9518166,0.6442449,-1.0821364,-0.39868182,2.6102252,0.109344795,-3.7786567
303,1778619402.961819,0.6442449,-1.0821364,-0.39868182,2.6102252,0.109344795,-3.7786567
304,1778619402.97182,0.2815408,-1.0635986,-0.49454108,2.6102252,0.109344795,-3.7786567
305,1778619402.9818237,0.2815408,-1.0635986,-0.49454108,2.6102252,0.109344795,-3.7786567
306,1778619402.991825,0.2815408,-1.0635986,-0.49454108,2.6102252,0.109344795,-3.7786567
307,1778619403.0018265,0.2815408,-1.0635986,-0.49454108,2.6102252,0.109344795,-3.7786567
308,1778619403.0118272,0.2815408,-1.0635986,-0.49454108,2.6102252,0.109344795,-3.7786567
309,1778619403.0218303,0.2815408,-1.0635986,-0.49454108,2.6102252,0.109344795,-3.7786567
310,1778619403.0318477,-0.020184105,-1.1582383,-0.46527106,2.6102252,0.109344795,-3.7786567
311,1778619403.0418484,-0.020184105,-1.1582383,-0.46527106,2.6102252,0.109344795,-3.7786567
312,1778619403.051849,-0.020184105,-1.1582383,-0.46527106,2.6102252,0.109344795,-3.7786567
313,1778619403.06185,-0.020184105,-1.1582383,-0.46527106,2.4000878,-0.6029235,-3.6094472
314,1778619403.0718505,-0.020184105,-1.1582383,-0.46527106,2.4000878,-0.6029235,-3.6094472
315,1778619403.0818515,-0.17068069,-1.3245895,-0.43380582,2.4000878,-0.6029235,-3.6094472
316,1778619403.091958,-0.5575325,-1.3897152,-0.3498985,0.93767744,-0.80756325,-1.2557852
317,1778619403.101959,-0.5575325,-1.3897152,-0.3498985,0.93767744,-0.80756325,-1.2557852
318,1778619403.1119597,-0.5575325,-1.3897152,-0.3498985,0.93767744,-0.80756325,-1.2557852
319,1778619403.1219602,-0.5575325,-1.3897152,-0.3498985,0.93767744,-0.80756325,-1.2557852
320,1778619403.1319609,-0.49167505,-1.2987343,-0.27208906,0.25534147,-0.64385146,-0.44394597
321,1778619403.1419618,-0.49167505,-1.2987343,-0.27208906,0.25534147,-0.64385146,-0.44394597
322,1778619403.1519623,-0.49167505,-1.2987343,-0.27208906,0.25534147,-0.64385146,-0.44394597
323,1778619403.161963,-0.49167505,-1.2987343,-0.27208906,0.25534147,-0.64385146,-0.44394597
324,1778619403.1719637,-0.49167505,-1.2987343,-0.27208906,0.25534147,-0.64385146,-0.44394597
325,1778619403.1819646,-0.49167505,-1.2987343,-0.27208906,0.25534147,-0.64385146,-0.44394597
326,1778619403.1919663,-0.27215004,-1.159214,-0.24818522,-0.320704,-0.37079492,0.108886644
327,1778619403.2019694,-0.27215004,-1.159214,-0.24818522,-0.320704,-0.37079492,0.108886644
328,1778619403.211971,-0.27215004,-1.159214,-0.24818522,-0.320704,-0.37079492,0.108886644
329,1778619403.2219718,-0.27215004,-1.159214,-0.24818522,-0.78801554,-0.14660755,0.42287114
330,1778619403.231973,-0.22287886,-1.1209191,-0.2918463,-0.78801554,-0.14660755,0.42287114
331,1778619403.2419734,-0.22287886,-1.1209191,-0.2918463,-0.78801554,-0.14660755,0.42287114
332,1778619403.2519743,-0.22287886,-1.1209191,-0.2918463,-0.95111644,-0.18448116,0.46990773
333,1778619403.2619748,-0.22287886,-1.1209191,-0.2918463,-0.95111644,-0.18448116,0.46990773
334,1778619403.2719755,-0.22287886,-1.1209191,-0.2918463,-0.95111644,-0.18448116,0.46990773
335,1778619403.2819762,-0.22287886,-1.1209191,-0.2918463,-0.95111644,-0.18448116,0.46990773
336,1778619403.291977,-0.22287886,-1.1209191,-0.2918463,-0.95111644,-0.18448116,0.46990773
337,1778619403.3019774,-0.22287886,-1.1209191,-0.2918463,-0.95111644,-0.18448116,0.46990773
338,1778619403.3119802,-0.21751268,-1.1477499,-0.34062964,-0.98532486,-0.3762927,0.45402524
339,1778619403.321982,-0.21751268,-1.1477499,-0.34062964,-0.98532486,-0.3762927,0.45402524
340,1778619403.3320234,-0.25678328,-1.2260472,-0.37624148,-0.9731076,-0.6878337,0.56275916
341,1778619403.3420253,-0.25678328,-1.2260472,-0.37624148,-0.9731076,-0.6878337,0.56275916
342,1778619403.3520262,-0.25678328,-1.2260472,-0.37624148,-0.9731076,-0.6878337,0.56275916
343,1778619403.3620274,-0.25678328,-1.2260472,-0.37624148,-0.9731076,-0.6878337,0.56275916
344,1778619403.3720303,-0.25678328,-1.2260472,-0.37624148,-0.9731076,-0.6878337,0.56275916
345,1778619403.382032,-0.25678328,-1.2260472,-0.37624148,-0.9731076,-0.6878337,0.56275916
346,1778619403.3920329,2.8460808,-0.65089166,0.7923633,-6.447067,0.3555233,4.457633
347,1778619403.4020333,2.8460808,-0.65089166,0.7923633,-6.447067,0.3555233,4.457633
348,1778619403.4120345,2.8460808,-0.65089166,0.7923633,-6.447067,0.3555233,4.457633
349,1778619403.4220357,2.8460808,-0.65089166,0.7923633,-6.447067,0.3555233,4.457633
350,1778619403.4320364,2.8460808,-0.65089166,0.7923633,-6.447067,0.3555233,4.457633
351,1778619403.4420376,3.0265791,-0.4730764,0.8296825,-6.447067,0.3555233,4.457633
352,1778619403.4520383,3.0265791,-0.4730764,0.8296825,-6.447067,0.3555233,4.457633
353,1778619403.4620476,3.0265791,-0.4730764,0.8296825,-6.447067,0.3555233,4.457633
354,1778619403.472055,3.0265791,-0.4730764,0.8296825,-6.447067,0.3555233,4.457633
355,1778619403.482056,3.0265791,-0.4730764,0.8296825,-6.447067,0.3555233,4.457633
356,1778619403.4920564,3.0265791,-0.4730764,0.8296825,-6.447067,0.3555233,4.457633
357,1778619403.5020578,3.108779,-0.36038688,0.9450551,-5.9107275,-0.22235478,3.9487827
358,1778619403.512615,3.108779,-0.36038688,0.9450551,-5.9107275,-0.22235478,3.9487827
359,1778619403.5226169,3.108779,-0.36038688,0.9450551,-5.9107275,-0.22235478,3.9487827
360,1778619403.5326178,2.6272874,-0.09524946,0.9348107,-3.8710501,-0.49357873,3.7838492
361,1778619403.5426185,2.6272874,-0.09524946,0.9348107,-3.8710501,-0.49357873,3.7838492
362,1778619403.5526192,2.505573,0.020367041,0.8972475,-3.8710501,-0.49357873,3.7838492
363,1778619403.5626202,2.505573,0.020367041,0.8972475,-3.8710501,-0.49357873,3.7838492
364,1778619403.5726206,2.505573,0.020367041,0.8972475,-3.8710501,-0.49357873,3.7838492
365,1778619403.582622,2.505573,0.020367041,0.8972475,-3.8710501,-0.49357873,3.7838492
366,1778619403.592623,2.505573,0.020367041,0.8972475,-3.8710501,-0.49357873,3.7838492
367,1778619403.6026242,2.505573,0.020367041,0.8972475,-3.8710501,-0.49357873,3.7838492
368,1778619403.612625,2.4421546,0.3591673,1.0460366,-3.6914558,-0.6334668,3.7319257
369,1778619403.6226258,2.4421546,0.3591673,1.0460366,-3.6914558,-0.6334668,3.7319257
370,1778619403.6326265,2.4421546,0.3591673,1.0460366,-3.6914558,-0.6334668,3.7319257
371,1778619403.6426272,2.4421546,0.3591673,1.0460366,-3.6914558,-0.6334668,3.7319257
372,1778619403.6526299,2.300927,0.5250307,1.1189677,-3.5454593,-0.39950556,3.2297947
373,1778619403.6626318,2.300927,0.5250307,1.1189677,-3.5454593,-0.39950556,3.2297947
374,1778619403.6726327,2.300927,0.5250307,1.1189677,-3.5454593,-0.39950556,3.2297947
375,1778619403.6827745,2.300927,0.5250307,1.1189677,-3.5454593,-0.39950556,3.2297947
376,1778619403.692779,2.300927,0.5250307,1.1189677,-3.5454593,-0.39950556,3.2297947
377,1778619403.7027805,2.300927,0.5250307,1.1189677,-3.5454593,-0.39950556,3.2297947
378,1778619403.7127814,2.300927,0.5250307,1.1189677,-3.5454593,-0.39950556,3.2297947
379,1778619403.7227821,2.300927,0.5250307,1.1189677,-3.4660468,-0.106290475,2.804633
380,1778619403.7327833,2.300927,0.5250307,1.1189677,-3.4660468,-0.106290475,2.804633
381,1778619403.742784,2.300927,0.5250307,1.1189677,-3.4660468,-0.106290475,2.804633
382,1778619403.752785,2.0567663,0.58113146,1.1109184,-3.4660468,-0.106290475,2.804633
383,1778619403.7627866,1.1432985,0.37185097,0.8970036,-3.4721553,0.41355544,2.2206461
384,1778619403.7727878,1.1432985,0.37185097,0.8970036,-3.4721553,0.41355544,2.2206461
385,1778619403.7827888,1.1432985,0.37185097,0.8970036,-3.7006187,1.1184934,1.8626795
386,1778619403.79279,1.1432985,0.37185097,0.8970036,-3.7006187,1.1184934,1.8626795
387,1778619403.8027904,1.1432985,0.37185097,0.8970036,-3.7006187,1.1184934,1.8626795
388,1778619403.8127913,1.1432985,0.37185097,0.8970036,-3.7006187,1.1184934,1.8626795
389,1778619403.8227923,1.1432985,0.37185097,0.8970036,-3.7006187,1.1184934,1.8626795
390,1778619403.8327928,1.1432985,0.37185097,0.8970036,-3.7006187,1.1184934,1.8626795
391,1778619403.8427937,1.1432985,0.37185097,0.8970036,-4.2167997,2.0848815,1.0526727
392,1778619403.8529177,1.1432985,0.37185097,0.8970036,-4.2167997,2.0848815,1.0526727
393,1778619403.8629181,1.1432985,0.37185097,0.8970036,-4.2167997,2.0848815,1.0526727
394,1778619403.872919,1.1432985,0.37185097,0.8970036,-4.2491755,2.0598361,1.3721551
395,1778619403.88292,1.1432985,0.37185097,0.8970036,-4.2491755,2.0598361,1.3721551
396,1778619403.892921,1.1432985,0.37185097,0.8970036,-4.2491755,2.0598361,1.3721551
397,1778619403.902926,0.7344941,0.44429418,0.86358696,-4.0323186,1.5821397,1.9946262
398,1778619403.9129286,0.7344941,0.44429418,0.86358696,-4.0323186,1.5821397,1.9946262
399,1778619403.9229312,0.7344941,0.44429418,0.86358696,-4.0323186,1.5821397,1.9946262
400,1778619403.9330077,0.7344941,0.44429418,0.86358696,-4.0323186,1.5821397,1.9946262
401,1778619403.9432933,0.7344941,0.44429418,0.86358696,-4.0323186,1.5821397,1.9946262
402,1778619403.953303,0.7344941,0.44429418,0.86358696,-4.0323186,1.5821397,1.9946262
403,1778619403.9633036,0.7344941,0.44429418,0.86358696,-4.0323186,1.5821397,1.9946262
404,1778619403.9733045,0.7344941,0.44429418,0.86358696,-4.0323186,1.5821397,1.9946262
405,1778619403.9833055,0.5998521,0.62064594,0.84163445,-4.0323186,1.5821397,1.9946262
406,1778619403.9933064,0.5998521,0.62064594,0.84163445,-4.0323186,1.5821397,1.9946262
407,1778619404.003307,0.5998521,0.62064594,0.84163445,-4.18198,1.789223,1.9158247
408,1778619404.013308,0.5998521,0.62064594,0.84163445,-4.18198,1.789223,1.9158247
409,1778619404.023309,0.5998521,0.62064594,0.84163445,-4.18198,1.789223,1.9158247
410,1778619404.0334978,0.5998521,0.62064594,0.84163445,-4.210691,1.8649702,1.8156428
411,1778619404.0435083,0.57155776,0.65211123,0.8267556,-4.210691,1.8649702,1.8156428
412,1778619404.0535128,0.57155776,0.65211123,0.8267556,-4.210691,1.8649702,1.8156428
413,1778619404.0635147,0.57155776,0.65211123,0.8267556,-4.210691,1.8649702,1.8156428
414,1778619404.074209,0.38886416,0.7469948,0.72333485,-4.210691,1.8649702,1.8156428
415,1778619404.0842118,0.38886416,0.7469948,0.72333485,-4.210691,1.8649702,1.8156428
416,1778619404.0942125,0.38886416,0.7469948,0.72333485,-4.210691,1.8649702,1.8156428
417,1778619404.1042132,0.38886416,0.7469948,0.72333485,-4.210691,1.8649702,1.8156428
418,1778619404.114214,0.29105356,0.7243106,0.64186674,-4.210691,1.8649702,1.8156428
419,1778619404.1242151,0.29105356,0.7243106,0.64186674,-4.210691,1.8649702,1.8156428
420,1778619404.1342158,0.29105356,0.7243106,0.64186674,-4.210691,1.8649702,1.8156428
421,1778619404.144217,0.25471,0.6728441,0.62259734,-4.006662,1.8875722,0.7325796
422,1778619404.154218,0.25471,0.6728441,0.62259734,-4.006662,1.8875722,0.7325796
423,1778619404.1642187,0.25471,0.6728441,0.62259734,-4.006662,1.8875722,0.7325796
424,1778619404.1742203,1.16208,0.6928453,0.27989438,0.03176497,0.16859868,-0.35659233
425,1778619404.1842213,1.16208,0.6928453,0.27989438,0.03176497,0.16859868,-0.35659233
426,1778619404.1942225,1.16208,0.6928453,0.27989438,0.03176497,0.16859868,-0.35659233
427,1778619404.2042234,1.16208,0.6928453,0.27989438,0.03176497,0.16859868,-0.35659233
428,1778619404.2142243,1.16208,0.6928453,0.27989438,0.03176497,0.16859868,-0.35659233
429,1778619404.2242255,1.16208,0.6928453,0.27989438,-0.08307761,0.38973173,-0.7536544
430,1778619404.2342312,1.16208,0.6928453,0.27989438,-0.08307761,0.38973173,-0.7536544
431,1778619404.2442334,1.16208,0.6928453,0.27989438,-0.08307761,0.38973173,-0.7536544
432,1778619404.2542348,2.2848284,0.6257682,-0.2157443,-0.849102,0.5986475,-1.4934117
433,1778619404.2642362,2.2848284,0.6257682,-0.2157443,-1.2602141,0.654847,-1.8843651
434,1778619404.274237,2.2848284,0.6257682,-0.2157443,-1.2602141,0.654847,-1.8843651
435,1778619404.2842379,2.5965538,0.4994194,-0.26208845,-1.7800599,0.82100224,-2.4164283
436,1778619404.2945487,2.5965538,0.4994194,-0.26208845,-1.7800599,0.82100224,-2.4164283
437,1778619404.30455,2.5965538,0.4994194,-0.26208845,-1.7800599,0.82100224,-2.4164283
438,1778619404.314553,2.5965538,0.4994194,-0.26208845,-1.7800599,0.82100224,-2.4164283
439,1778619404.324555,2.5965538,0.4994194,-0.26208845,-1.7800599,0.82100224,-2.4164283
440,1778619404.3345556,2.5965538,0.4994194,-0.26208845,-1.7800599,0.82100224,-2.4164283
441,1778619404.3445573,2.5965538,0.4994194,-0.26208845,-1.7800599,0.82100224,-2.4164283
442,1778619404.3545578,2.5965538,0.4994194,-0.26208845,-1.7800599,0.82100224,-2.4164283
443,1778619404.364559,2.5965538,0.4994194,-0.26208845,-1.7800599,0.82100224,-2.4164283
444,1778619404.3745618,2.5965538,0.4994194,-0.26208845,-1.7800599,0.82100224,-2.4164283
445,1778619404.3845637,2.5965538,0.4994194,-0.26208845,-1.7800599,0.82100224,-2.4164283
446,1778619404.3947499,2.8638866,0.29916382,-0.32331154,-2.137416,0.93706656,-2.69315
447,1778619404.4047506,2.8638866,0.29916382,-0.32331154,-2.137416,0.93706656,-2.69315
448,1778619404.4147515,2.8638866,0.29916382,-0.32331154,-2.137416,0.93706656,-2.69315
449,1778619404.424753,2.8638866,0.29916382,-0.32331154,-2.137416,0.93706656,-2.69315
450,1778619404.4347541,2.8638866,0.29916382,-0.32331154,-2.137416,0.93706656,-2.69315
451,1778619404.4447556,3.03536,0.18964522,-0.39648655,-2.65604,1.0341941,-3.009578
452,1778619404.4547565,3.03536,0.18964522,-0.39648655,-2.65604,1.0341941,-3.009578
453,1778619404.4647574,3.03536,0.18964522,-0.39648655,-2.65604,1.0341941,-3.009578
454,1778619404.4747584,3.2031748,0.08256579,-0.4379524,-2.65604,1.0341941,-3.009578
455,1778619404.4847636,3.2804964,-0.41697556,-0.17598589,-3.9193084,2.687805,-4.3956304
456,1778619404.4947655,3.2804964,-0.41697556,-0.17598589,-3.9193084,2.687805,-4.3956304
457,1778619404.5047686,3.2804964,-0.41697556,-0.17598589,-3.9193084,2.687805,-4.3956304
458,1778619404.5147781,2.3001952,-0.3181893,-0.17281497,-2.1801765,2.258367,-4.0236135
459,1778619404.5247824,2.3001952,-0.3181893,-0.17281497,-2.1801765,2.258367,-4.0236135
460,1778619404.5347838,2.3001952,-0.3181893,-0.17281497,-2.1801765,2.258367,-4.0236135
461,1778619404.5447843,2.3001952,-0.3181893,-0.17281497,-2.1801765,2.258367,-4.0236135
462,1778619404.554785,2.3001952,-0.3181893,-0.17281497,-2.1801765,2.258367,-4.0236135
463,1778619404.5647862,2.3001952,-0.3181893,-0.17281497,-2.1801765,2.258367,-4.0236135
464,1778619404.5747871,2.3001952,-0.3181893,-0.17281497,-2.1801765,2.258367,-4.0236135
465,1778619404.584789,2.1087205,-0.27086946,-0.20525588,-2.1801765,2.258367,-4.0236135
466,1778619404.5947907,1.3186744,-0.21403688,-0.28013828,-0.3280344,1.241888,-3.9521425
467,1778619404.6047916,1.3186744,-0.21403688,-0.28013828,-0.3280344,1.241888,-3.9521425
468,1778619404.6147926,1.3186744,-0.21403688,-0.28013828,-0.3280344,1.241888,-3.9521425
469,1778619404.6248019,0.8410857,-0.26086888,-0.3545329,0.021991132,0.8820887,-3.8867798
470,1778619404.6348052,0.8410857,-0.26086888,-0.3545329,0.021991132,0.8820887,-3.8867798
471,1778619404.6448064,0.8410857,-0.26086888,-0.3545329,0.021991132,0.8820887,-3.8867798
472,1778619404.6548073,0.8410857,-0.26086888,-0.3545329,0.021991132,0.8820887,-3.8867798
473,1778619404.6648078,0.8410857,-0.26086888,-0.3545329,0.021991132,0.8820887,-3.8867798
474,1778619404.674809,0.8410857,-0.26086888,-0.3545329,0.22418737,0.56810427,-3.7829328
475,1778619404.68481,0.8410857,-0.26086888,-0.3545329,0.22418737,0.56810427,-3.7829328
476,1778619404.694811,0.8410857,-0.26086888,-0.3545329,0.22418737,0.56810427,-3.7829328
477,1778619404.7048118,0.8410857,-0.26086888,-0.3545329,0.22418737,0.56810427,-3.7829328
478,1778619404.7148125,0.8410857,-0.26086888,-0.3545329,0.22418737,0.56810427,-3.7829328
479,1778619404.724814,0.60546213,-0.29550505,-0.32331154,0.50152,0.020158539,-3.537976
480,1778619404.734815,0.60546213,-0.29550505,-0.32331154,0.50152,0.020158539,-3.537976
481,1778619404.744816,0.60546213,-0.29550505,-0.32331154,0.50152,0.020158539,-3.537976
482,1778619404.7548175,0.60546213,-0.29550505,-0.32331154,0.6047561,-0.171653,-3.4237444
483,1778619404.764872,0.60546213,-0.29550505,-0.32331154,0.6047561,-0.171653,-3.4237444
484,1778619404.7748742,0.60546213,-0.29550505,-0.32331154,0.6047561,-0.171653,-3.4237444
485,1778619404.7848763,0.60546213,-0.29550505,-0.32331154,0.6047561,-0.171653,-3.4237444
486,1778619404.795217,0.60546213,-0.29550505,-0.32331154,0.6047561,-0.171653,-3.4237444
487,1778619404.8052206,0.60546213,-0.29550505,-0.32331154,0.6047561,-0.171653,-3.4237444
488,1778619404.8152215,0.60546213,-0.29550505,-0.32331154,0.6047561,-0.171653,-3.4237444
489,1778619404.8253684,0.60546213,-0.29550505,-0.32331154,0.6047561,-0.171653,-3.4237444
490,1778619404.8353698,0.60546213,-0.29550505,-0.32331154,0.6047561,-0.171653,-3.4237444
491,1778619404.8453715,0.37422916,-0.37672928,-0.28379703,0.9816597,-0.80878496,-2.8672466
492,1778619404.855373,0.37422916,-0.37672928,-0.28379703,0.9816597,-0.80878496,-2.8672466
493,1778619404.8653738,0.15299673,-0.5096639,-0.38453463,0.62857985,-1.1349868,-2.6051855
494,1778619404.8753753,0.15299673,-0.5096639,-0.38453463,0.62857985,-1.1349868,-2.6051855
495,1778619404.8853765,0.15299673,-0.5096639,-0.38453463,0.62857985,-1.1349868,-2.6051855
496,1778619404.8953838,0.15299673,-0.5096639,-0.38453463,0.912632,-0.93951005,-2.7676756
497,1778619404.9053864,0.15299673,-0.5096639,-0.38453463,0.912632,-0.93951005,-2.7676756
498,1778619404.9155872,0.15299673,-0.5096639,-0.38453463,0.912632,-0.93951005,-2.7676756
499,1778619404.9255881,0.15299673,-0.5096639,-0.38453463,0.912632,-0.93951005,-2.7676756
500,1778619404.9355888,0.15299673,-0.5096639,-0.38453463,0.912632,-0.93951005,-2.7676756
501,1778619404.94559,0.026403978,-0.57357,-0.3647774,0.912632,-0.93951005,-2.7676756
502,1778619404.9555912,0.026403978,-0.57357,-0.3647774,0.912632,-0.93951005,-2.7676756
503,1778619404.9655924,0.026403978,-0.57357,-0.3647774,0.912632,-0.93951005,-2.7676756
504,1778619404.9755938,0.026403978,-0.57357,-0.3647774,0.31093016,-1.0903937,-2.4420848
505,1778619404.9855952,0.026403978,-0.57357,-0.3647774,0.31093016,-1.0903937,-2.4420848
506,1778619404.9955962,0.026403978,-0.57357,-0.3647774,0.31093016,-1.0903937,-2.4420848
507,1778619405.005951,-0.098725274,-0.65162337,-0.2786748,-0.07574723,-0.8649845,-2.2356124
508,1778619405.0159519,-0.1709246,-0.7569954,-0.2876997,-0.07574723,-0.8649845,-2.2356124
509,1778619405.0259526,-0.1709246,-0.7569954,-0.2876997,-0.07574723,-0.8649845,-2.2356124
510,1778619405.0359538,-0.1709246,-0.7569954,-0.2876997,-0.07574723,-0.8649845,-2.2356124
511,1778619405.0459547,-0.1709246,-0.7569954,-0.2876997,-0.07574723,-0.8649845,-2.2356124
512,1778619405.0559552,-0.1709246,-0.7569954,-0.2876997,-0.07574723,-0.8649845,-2.2356124
513,1778619405.0659559,-0.1709246,-0.7569954,-0.2876997,-0.07574723,-0.8649845,-2.2356124
514,1778619405.0764341,-0.1709246,-0.7569954,-0.2876997,-0.5100721,-0.66217744,-1.9882121
515,1778619405.0864356,-0.1709246,-0.7569954,-0.2876997,-0.5100721,-0.66217744,-1.9882121
516,1778619405.0964365,-0.2528806,-0.8206576,-0.3403857,-0.5100721,-0.66217744,-1.9882121
517,1778619405.1064374,-0.2528806,-0.8206576,-0.3403857,-0.5100721,-0.66217744,-1.9882121
518,1778619405.1164384,-0.2528806,-0.8206576,-0.3403857,-0.5100721,-0.66217744,-1.9882121
519,1778619405.1264403,-0.2528806,-0.8206576,-0.3403857,-0.5100721,-0.66217744,-1.9882121
520,1778619405.1364412,-0.2528806,-0.8206576,-0.3403857,-0.5100721,-0.66217744,-1.9882121
521,1778619405.1464443,-0.2528806,-0.8206576,-0.3403857,-0.5100721,-0.66217744,-1.9882121
522,1778619405.1564538,-0.17824212,-0.971642,-0.42063433,-1.6908737,-1.8771875,-1.04015
523,1778619405.1664548,-0.17824212,-0.971642,-0.42063433,-1.6908737,-1.8771875,-1.04015
524,1778619405.1764553,-0.17824212,-0.971642,-0.42063433,-1.6908737,-1.8771875,-1.04015
525,1778619405.186589,-0.17824212,-0.971642,-0.42063433,-1.6908737,-1.8771875,-1.04015
526,1778619405.1965904,-0.17824212,-0.971642,-0.42063433,-1.6908737,-1.8771875,-1.04015
527,1778619405.2065911,-0.17824212,-0.971642,-0.42063433,-1.6908737,-1.8771875,-1.04015
528,1778619405.2168856,0.12494631,-1.0587202,-0.58430237,-4.860651,-2.750724,2.4503314
529,1778619405.226887,0.12494631,-1.0587202,-0.58430237,-4.860651,-2.750724,2.4503314
530,1778619405.2368906,0.7313232,-0.73528683,-0.4320984,-2.0262384,-2.411694,-0.22647811
531,1778619405.246892,0.7313232,-0.73528683,-0.4320984,-2.0262384,-2.411694,-0.22647811
532,1778619405.2568927,1.004022,-0.60698664,-0.34258097,-2.8447974,-3.2369726,0.8364266
533,1778619405.2668948,1.004022,-0.60698664,-0.34258097,-2.8447974,-3.2369726,0.8364266
534,1778619405.276896,1.004022,-0.60698664,-0.34258097,-2.8447974,-3.2369726,0.8364266
535,1778619405.286897,1.004022,-0.60698664,-0.34258097,-2.8447974,-3.2369726,0.8364266
536,1778619405.2968976,1.004022,-0.60698664,-0.34258097,-2.8447974,-3.2369726,0.8364266
537,1778619405.3068984,1.004022,-0.60698664,-0.34258097,-2.8447974,-3.2369726,0.8364266
538,1778619405.3168988,1.004022,-0.60698664,-0.34258097,-2.8447974,-3.2369726,0.8364266
539,1778619405.3269043,1.004022,-0.60698664,-0.34258097,-2.8447974,-3.2369726,0.8364266
540,1778619405.336907,1.004022,-0.60698664,-0.34258097,-2.8447974,-3.2369726,0.8364266
541,1778619405.346908,1.004022,-0.60698664,-0.34258097,-2.8447974,-3.2369726,0.8364266
542,1778619405.356909,1.004022,-0.60698664,-0.34258097,-3.4410014,-3.379304,1.0783291
543,1778619405.3670568,1.004022,-0.60698664,-0.34258097,-3.4410014,-3.379304,1.0783291
544,1778619405.377058,1.004022,-0.60698664,-0.34258097,-3.4410014,-3.379304,1.0783291
545,1778619405.387063,1.004022,-0.60698664,-0.34258097,-3.4410014,-3.379304,1.0783291
546,1778619405.3970654,1.004022,-0.60698664,-0.34258097,-3.4410014,-3.379304,1.0783291
547,1778619405.4070663,1.004022,-0.60698664,-0.34258097,-3.4410014,-3.379304,1.0783291
548,1778619405.417067,1.004022,-0.60698664,-0.34258097,-3.4410014,-3.379304,1.0783291
549,1778619405.4270682,1.5621033,-0.54576355,-0.0015854583,-4.4141088,-3.2333074,1.7209588
550,1778619405.4370694,1.9770056,-0.38014415,0.38819337,-4.4141088,-3.2333074,1.7209588
551,1778619405.4470696,1.9770056,-0.38014415,0.38819337,-4.4141088,-3.2333074,1.7209588
552,1778619405.4574203,1.9770056,-0.38014415,0.38819337,-4.4141088,-3.2333074,1.7209588
553,1778619405.4674213,2.6216774,0.21964696,0.63211006,-4.9199047,-2.3866487,3.0049965
554,1778619405.4774218,2.6216774,0.21964696,0.63211006,-4.9199047,-2.3866487,3.0049965
555,1778619405.487423,2.8680332,0.5684478,0.82187724,-4.2436776,-2.0073016,2.7356052
556,1778619405.497425,2.8680332,0.5684478,0.82187724,-4.2436776,-2.0073016,2.7356052
557,1778619405.5074265,2.8680332,0.5684478,0.82187724,-4.2436776,-2.0073016,2.7356052
558,1778619405.5174274,2.8680332,0.5684478,0.82187724,-4.2436776,-2.0073016,2.7356052
559,1778619405.5274284,2.8680332,0.5684478,0.82187724,-4.2436776,-2.0073016,2.7356052
560,1778619405.537429,2.8680332,0.5684478,0.82187724,-4.2436776,-2.0073016,2.7356052
561,1778619405.5476322,2.8680332,0.5684478,0.82187724,-4.2436776,-2.0073016,2.7356052
562,1778619405.557633,2.8680332,0.5684478,0.82187724,-4.2436776,-2.0073016,2.7356052
563,1778619405.5676339,2.8680332,0.5684478,0.82187724,-4.2436776,-2.0073016,2.7356052
564,1778619405.5776353,2.748514,0.57039917,0.8318778,-3.9241953,-1.7745622,2.5572326
565,1778619405.5876362,2.748514,0.57039917,0.8318778,-3.9241953,-1.7745622,2.5572326
566,1778619405.597637,2.748514,0.57039917,0.8318778,-3.9241953,-1.7745622,2.5572326
567,1778619405.6076381,2.5741136,0.57478964,0.78772885,-3.7421577,-1.5845833,2.6549711
568,1778619405.6176388,2.5741136,0.57478964,0.78772885,-3.7421577,-1.5845833,2.6549711
569,1778619405.62764,2.5741136,0.57478964,0.78772885,-3.7421577,-1.5845833,2.6549711
570,1778619405.6379476,2.429715,0.6186946,0.7538245,-3.636478,-1.4202607,2.8052437
571,1778619405.6479492,2.429715,0.6186946,0.7538245,-3.636478,-1.4202607,2.8052437
572,1778619405.6579497,2.429715,0.6186946,0.7538245,-3.636478,-1.4202607,2.8052437
573,1778619405.6679506,2.429715,0.6186946,0.7538245,-3.636478,-1.4202607,2.8052437
574,1778619405.6779516,2.429715,0.6186946,0.7538245,-3.636478,-1.4202607,2.8052437
575,1778619405.6879523,2.1255507,0.6267439,0.7323598,-3.7079492,-1.1062762,3.0453136
576,1778619405.6979535,2.1255507,0.6267439,0.7323598,-3.7079492,-1.1062762,3.0453136
577,1778619405.7079542,2.1255507,0.6267439,0.7323598,-3.7079492,-1.1062762,3.0453136
578,1778619405.7179549,2.1255507,0.6267439,0.7323598,-3.7079492,-1.1062762,3.0453136
579,1778619405.7283943,2.1255507,0.6267439,0.7323598,-3.839896,-0.97188586,3.0947938
580,1778619405.7383952,2.1255507,0.6267439,0.7323598,-3.839896,-0.97188586,3.0947938
581,1778619405.748396,2.1255507,0.6267439,0.7323598,-3.839896,-0.97188586,3.0947938
582,1778619405.7583969,2.1255507,0.6267439,0.7323598,-3.839896,-0.97188586,3.0947938
583,1778619405.7683978,1.5906416,0.51063955,0.8333413,-3.745212,-0.8533781,3.0593636
584,1778619405.7784028,1.5906416,0.51063955,0.8333413,-3.745212,-0.8533781,3.0593636
585,1778619405.788405,1.5906416,0.51063955,0.8333413,-3.745212,-0.8533781,3.0593636
586,1778619405.7984064,1.4172169,0.49015057,0.84382975,-3.745212,-0.8533781,3.0593636
587,1778619405.808407,1.4172169,0.49015057,0.84382975,-3.745212,-0.8533781,3.0593636
588,1778619405.81852,1.4172169,0.49015057,0.84382975,-3.745212,-0.8533781,3.0593636
589,1778619405.8285213,1.4172169,0.49015057,0.84382975,-3.5888305,-0.7843504,2.99339
590,1778619405.8385222,1.4172169,0.49015057,0.84382975,-3.5888305,-0.7843504,2.99339
591,1778619405.8485227,1.4172169,0.49015057,0.84382975,-3.5888305,-0.7843504,2.99339
592,1778619405.8585236,1.4172169,0.49015057,0.84382975,-3.5888305,-0.7843504,2.99339
593,1778619405.8685267,1.4172169,0.49015057,0.84382975,-3.5888305,-0.7843504,2.99339
594,1778619405.878529,1.4172169,0.49015057,0.84382975,-3.5888305,-0.7843504,2.99339
595,1778619405.88853,1.4172169,0.49015057,0.84382975,-3.5888305,-0.7843504,2.99339
596,1778619405.898531,1.4172169,0.49015057,0.84382975,-3.5888305,-0.7843504,2.99339
597,1778619405.908882,1.4172169,0.49015057,0.84382975,-3.5888305,-0.7843504,2.99339
598,1778619405.9188848,1.4172169,0.49015057,0.84382975,-3.5888305,-0.7843504,2.99339
599,1778619405.9288852,1.4172169,0.49015057,0.84382975,-3.5888305,-0.7843504,2.99339
600,1778619405.9388862,1.4172169,0.49015057,0.84382975,-3.5888305,-0.7843504,2.99339
601,1778619405.948889,1.4172169,0.49015057,0.84382975,-3.5888305,-0.7843504,2.99339
602,1778619405.958891,1.4172169,0.49015057,0.84382975,-3.5888305,-0.7843504,2.99339
603,1778619405.968892,1.2608663,0.45770964,0.8362683,-3.4318383,-0.7031054,2.9365797
604,1778619405.978893,1.2608663,0.45770964,0.8362683,-3.4318383,-0.7031054,2.9365797
605,1778619405.988894,1.124273,0.42819571,0.80285174,-3.3395977,-0.5894845,2.8925974
606,1778619405.9991019,1.124273,0.42819571,0.80285174,-3.3395977,-0.5894845,2.8925974
607,1778619406.0091026,1.124273,0.42819571,0.80285174,-3.3395977,-0.5894845,2.8925974
608,1778619406.0191033,1.124273,0.42819571,0.80285174,-3.3395977,-0.5894845,2.8925974
609,1778619406.0291042,1.124273,0.42819571,0.80285174,-3.3395977,-0.5894845,2.8925974
610,1778619406.0391047,1.124273,0.42819571,0.80285174,-3.3395977,-0.5894845,2.8925974
611,1778619406.0491054,1.124273,0.42819571,0.80285174,-3.3395977,-0.5894845,2.8925974
612,1778619406.0591142,1.124273,0.42819571,0.80285174,-3.3395977,-0.5894845,2.8925974
613,1778619406.0691183,1.124273,0.42819571,0.80285174,-3.3395977,-0.5894845,2.8925974
614,1778619406.0791206,1.124273,0.42819571,0.80285174,-3.3395977,-0.5894845,2.8925974
615,1778619406.0892518,1.124273,0.42819571,0.80285174,-3.3395977,-0.5894845,2.8925974
616,1778619406.0992532,1.124273,0.42819571,0.80285174,-3.3395977,-0.5894845,2.8925974
617,1778619406.1092544,1.124273,0.42819571,0.80285174,-3.3395977,-0.5894845,2.8925974
618,1778619406.1192553,1.124273,0.42819571,0.80285174,-3.3395977,-0.5894845,2.8925974
619,1778619406.1292562,1.0015829,0.39575478,0.7662642,-3.310887,-0.44409868,2.8486152
620,1778619406.1392577,0.75473917,0.35843554,0.7584589,-2.8991642,-0.47403106,2.750877
621,1778619406.1492581,0.75473917,0.35843554,0.7584589,-2.8991642,-0.47403106,2.750877
622,1778619406.1592588,0.75473917,0.35843554,0.7584589,-2.8991642,-0.47403106,2.750877
623,1778619406.1692595,0.75473917,0.35843554,0.7584589,-2.8991642,-0.47403106,2.750877
624,1778619406.1792603,0.75473917,0.35843554,0.7584589,-2.8991642,-0.47403106,2.750877
625,1778619406.1892607,0.75473917,0.35843554,0.7584589,-2.8991642,-0.47403106,2.750877
626,1778619406.1999526,0.69180864,0.35867947,0.7569954,-2.548528,-0.49907652,2.7533202
627,1778619406.2099545,0.69180864,0.35867947,0.7569954,-2.548528,-0.49907652,2.7533202
628,1778619406.2199557,0.573753,0.4279518,0.65820915,-2.548528,-0.49907652,2.7533202
629,1778619406.230184,0.573753,0.4279518,0.65820915,-2.548528,-0.49907652,2.7533202
630,1778619406.240188,0.573753,0.4279518,0.65820915,-2.548528,-0.49907652,2.7533202
631,1778619406.2501886,0.573753,0.4279518,0.65820915,-2.548528,-0.49907652,2.7533202
632,1778619406.2601895,0.573753,0.4279518,0.65820915,-2.548528,-0.49907652,2.7533202
633,1778619406.27019,0.5615572,0.5411291,0.56942344,-1.8796309,-0.51434815,2.7765331
634,1778619406.2801907,0.5615572,0.5411291,0.56942344,-1.8796309,-0.51434815,2.7765331
635,1778619406.2901912,0.5615572,0.5411291,0.56942344,-1.8796309,-0.51434815,2.7765331
636,1778619406.300192,0.5615572,0.5411291,0.56942344,-1.8796309,-0.51434815,2.7765331
637,1778619406.3101928,0.5830218,0.95139694,0.2977003,-0.0036651888,-0.7867938,1.3471096
638,1778619406.3201938,0.5830218,0.95139694,0.2977003,-0.0036651888,-0.7867938,1.3471096
639,1778619406.3301945,0.5454587,0.9623732,0.26038104,-0.0036651888,-0.7867938,1.3471096
640,1778619406.3402011,0.57228947,1.0579885,0.17305888,-0.64324063,-0.34636033,1.024573
641,1778619406.3502038,0.57228947,1.0579885,0.17305888,-0.64324063,-0.34636033,1.024573
642,1778619406.3602047,0.57228947,1.0579885,0.17305888,-0.64324063,-0.34636033,1.024573
643,1778619406.3702056,0.57228947,1.0579885,0.17305888,-0.64324063,-0.34636033,1.024573
644,1778619406.3802066,0.6474158,1.1184798,0.19306004,-0.90774506,-0.23273948,0.9121738
645,1778619406.3902075,0.6474158,1.1184798,0.19306004,-0.90774506,-0.23273948,0.9121738
646,1778619406.4002078,0.6474158,1.1184798,0.19306004,-0.90774506,-0.23273948,0.9121738
647,1778619406.410209,0.6474158,1.1184798,0.19306004,-0.90774506,-0.23273948,0.9121738
648,1778619406.4202096,0.6474158,1.1184798,0.19306004,-0.90774506,-0.23273948,0.9121738
649,1778619406.4302106,0.6474158,1.1184798,0.19306004,-0.90774506,-0.23273948,0.9121738
650,1778619406.4402122,0.6474158,1.1184798,0.19306004,-0.90774506,-0.23273948,0.9121738
651,1778619406.4502132,0.6474158,1.1184798,0.19306004,-1.2241731,-0.023212861,0.41187558
652,1778619406.460214,0.6474158,1.1184798,0.19306004,-1.2241731,-0.023212861,0.41187558
653,1778619406.4702153,0.6474158,1.1184798,0.19306004,-1.2241731,-0.023212861,0.41187558
654,1778619406.4802167,0.82962155,1.2506827,0.2923341,-1.2516619,0.08124501,-0.072540194
655,1778619406.4902172,0.82962155,1.2506827,0.2923341,-1.2516619,0.08124501,-0.072540194
656,1778619406.5002184,0.87742925,1.1536039,0.33379996,-1.2516619,0.08124501,-0.072540194
657,1778619406.510219,0.87742925,1.1536039,0.33379996,-1.2516619,0.08124501,-0.072540194
658,1778619406.5202198,0.87742925,1.1536039,0.33379996,-1.2516619,0.08124501,-0.072540194
659,1778619406.5302207,0.87742925,1.1536039,0.33379996,-1.188132,0.16615522,-0.5215258
660,1778619406.5402212,0.87742925,1.1536039,0.33379996,-1.188132,0.16615522,-0.5215258
661,1778619406.5502224,0.87742925,1.1536039,0.33379996,-1.188132,0.16615522,-0.5215258
662,1778619406.560224,0.87742925,1.1536039,0.33379996,-1.188132,0.16615522,-0.5215258
663,1778619406.5702252,0.87742925,1.1536039,0.33379996,-1.188132,0.16615522,-0.5215258
664,1778619406.5802267,0.87742925,1.1536039,0.33379996,-1.188132,0.16615522,-0.5215258
665,1778619406.5902283,0.9296274,1.0101808,0.3855103,-0.79290247,0.27427828,-1.230129
666,1778619406.6002288,0.9296274,1.0101808,0.3855103,-0.79290247,0.27427828,-1.230129
667,1778619406.6103888,0.9296274,1.0101808,0.3855103,-0.79290247,0.27427828,-1.230129
668,1778619406.6203897,1.1276877,0.93237144,0.46161228,-0.79290247,0.27427828,-1.230129
669,1778619406.6303906,1.1276877,0.93237144,0.46161228,-0.79290247,0.27427828,-1.230129
670,1778619406.6403928,1.1276877,0.93237144,0.46161228,-0.6328559,0.21197008,-1.3296999
671,1778619406.6503942,1.1276877,0.93237144,0.46161228,-0.6328559,0.21197008,-1.3296999
672,1778619406.660395,1.1276877,0.93237144,0.46161228,-0.6328559,0.21197008,-1.3296999
673,1778619406.6703982,1.1276877,0.93237144,0.46161228,-0.6328559,0.21197008,-1.3296999
674,1778619406.6804116,1.1276877,0.93237144,0.46161228,-0.6328559,0.21197008,-1.3296999
675,1778619406.6904125,1.1276877,0.93237144,0.46161228,-0.6328559,0.21197008,-1.3296999
676,1778619406.7006109,1.7101607,-0.6923575,0.24306297,2.0769403,1.9688172,-3.0144649
677,1778619406.710612,1.7101607,-0.6923575,0.24306297,2.0769403,1.9688172,-3.0144649
678,1778619406.7206128,1.7101607,-0.6923575,0.24306297,2.0769403,1.9688172,-3.0144649
679,1778619406.7306135,1.7101607,-0.6923575,0.24306297,2.0299037,2.073886,-2.8635814
680,1778619406.740614,1.7101607,-0.6923575,0.24306297,2.0299037,2.073886,-2.8635814
681,1778619406.750615,1.7101607,-0.6923575,0.24306297,2.0299037,2.073886,-2.8635814
682,1778619406.760716,1.7101607,-0.6923575,0.24306297,2.0299037,2.073886,-2.8635814
683,1778619406.7707164,1.7101607,-0.6923575,0.24306297,2.0299037,2.073886,-2.8635814
684,1778619406.7807174,1.7101607,-0.6923575,0.24306297,2.0299037,2.073886,-2.8635814
685,1778619406.7909696,1.7101607,-0.6923575,0.24306297,2.0299037,2.073886,-2.8635814
686,1778619406.8009706,1.7101607,-0.6923575,0.24306297,2.0299037,2.073886,-2.8635814
687,1778619406.810972,1.7101607,-0.6923575,0.24306297,2.0299037,2.073886,-2.8635814
688,1778619406.8209727,1.7101607,-0.6923575,0.24306297,2.0299037,2.073886,-2.8635814
689,1778619406.8309734,1.270135,-0.74772656,0.1267147,2.037845,2.191172,-2.5068364
690,1778619406.8409743,1.270135,-0.74772656,0.1267147,2.037845,2.191172,-2.5068364
691,1778619406.8509748,1.270135,-0.74772656,0.1267147,2.037845,2.191172,-2.5068364
692,1778619406.8609765,1.270135,-0.74772656,0.1267147,2.037845,2.191172,-2.5068364
693,1778619406.870978,1.270135,-0.74772656,0.1267147,2.037845,2.191172,-2.5068364
694,1778619406.8812625,1.270135,-0.74772656,0.1267147,2.037845,2.191172,-2.5068364
695,1778619406.8912635,0.9896309,-0.7752892,0.014756958,2.037845,2.191172,-2.5068364
696,1778619406.9015384,0.9896309,-0.7752892,0.014756958,2.037845,2.191172,-2.5068364
697,1778619406.9115412,0.9896309,-0.7752892,0.014756958,2.037845,2.191172,-2.5068364
698,1778619406.9215424,0.9896309,-0.7752892,0.014756958,2.037845,2.191172,-2.5068364
699,1778619406.9315436,0.9896309,-0.7752892,0.014756958,2.037845,2.191172,-2.5068364
700,1778619406.9415464,0.9896309,-0.7752892,0.014756958,2.037845,2.191172,-2.5068364
701,1778619406.9515488,0.749373,-0.81480366,-0.12915388,2.254091,1.9419391,-2.0236423
702,1778619406.9615505,0.749373,-0.81480366,-0.12915388,2.254091,1.9419391,-2.0236423
703,1778619406.9715693,0.749373,-0.81480366,-0.12915388,2.254091,1.9419391,-2.0236423
704,1778619406.9815757,0.749373,-0.81480366,-0.12915388,2.254091,1.9419391,-2.0236423
705,1778619406.9915795,0.749373,-0.81480366,-0.12915388,2.254091,1.9419391,-2.0236423
706,1778619407.0015836,0.749373,-0.81480366,-0.12915388,2.254091,1.9419391,-2.0236423
707,1778619407.011587,0.749373,-0.81480366,-0.12915388,2.3463316,1.60352,-1.7566944
708,1778619407.021589,0.749373,-0.81480366,-0.12915388,2.3463316,1.60352,-1.7566944
709,1778619407.031592,0.749373,-0.81480366,-0.12915388,2.3463316,1.60352,-1.7566944
710,1778619407.0415945,0.749373,-0.81480366,-0.12915388,2.3463316,1.60352,-1.7566944
711,1778619407.0515974,0.749373,-0.81480366,-0.12915388,2.3463316,1.60352,-1.7566944
712,1778619407.0615988,0.749373,-0.81480366,-0.12915388,2.3463316,1.60352,-1.7566944
713,1778619407.071601,0.749373,-0.81480366,-0.12915388,2.3463316,1.60352,-1.7566944
714,1778619407.081603,0.4788694,-0.91432166,-0.31184745,2.3463316,1.60352,-1.7566944
715,1778619407.0916054,0.4788694,-0.91432166,-0.31184745,2.3463316,1.60352,-1.7566944
716,1778619407.101608,0.4788694,-0.91432166,-0.31184745,2.3463316,1.60352,-1.7566944
717,1778619407.1116107,0.4788694,-0.91432166,-0.31184745,2.3463316,1.60352,-1.7566944
718,1778619407.1216137,0.4788694,-0.91432166,-0.31184745,2.3463316,1.60352,-1.7566944
719,1778619407.1316178,0.4788694,-0.91432166,-0.31184745,2.3463316,1.60352,-1.7566944
720,1778619407.1416206,0.4788694,-0.91432166,-0.31184745,2.3463316,1.60352,-1.7566944
721,1778619407.15163,0.4788694,-0.91432166,-0.31184745,2.3463316,1.60352,-1.7566944
722,1778619407.1616333,0.4788694,-0.91432166,-0.31184745,2.3463316,1.60352,-1.7566944
723,1778619407.1716342,0.4788694,-0.91432166,-0.31184745,2.3463316,1.60352,-1.7566944
724,1778619407.181635,0.4788694,-0.91432166,-0.31184745,2.3463316,1.60352,-1.7566944
725,1778619407.1916363,0.4788694,-0.91432166,-0.31184745,2.3463316,1.60352,-1.7566944
726,1778619407.2016373,0.4788694,-0.91432166,-0.31184745,2.3463316,1.60352,-1.7566944
727,1778619407.211638,0.4788694,-0.91432166,-0.31184745,2.3463316,1.60352,-1.7566944
728,1778619407.221639,0.27154022,-0.96505636,-0.42429304,2.3249514,1.1465932,-1.4671445
729,1778619407.2316437,-0.06726002,-1.0228646,-0.43356186,1.8332052,0.08735366,-0.5111411
730,1778619407.241646,-0.06726002,-1.0228646,-0.43356186,1.8332052,0.08735366,-0.5111411
731,1778619407.2516487,-0.06726002,-1.0228646,-0.43356186,1.8332052,0.08735366,-0.5111411
732,1778619407.261651,-0.2528806,-1.0704283,-0.39843786,1.8332052,0.08735366,-0.5111411
733,1778619407.271653,-0.2528806,-1.0704283,-0.39843786,1.8332052,0.08735366,-0.5111411
734,1778619407.2816541,-0.2528806,-1.0704283,-0.39843786,1.8332052,0.08735366,-0.5111411
735,1778619407.2916548,-0.2528806,-1.0704283,-0.39843786,1.8332052,0.08735366,-0.5111411
736,1778619407.3016553,-0.2528806,-1.0704283,-0.39843786,1.8332052,0.08735366,-0.5111411
737,1778619407.3118167,-0.2528806,-1.0704283,-0.39843786,1.5943571,0.06597339,-0.28634286
738,1778619407.3222628,-0.2528806,-1.0704283,-0.39843786,1.5943571,0.06597339,-0.28634286
739,1778619407.3322666,-0.2528806,-1.0704283,-0.39843786,1.5943571,0.06597339,-0.28634286
740,1778619407.3422673,-0.2528806,-1.0704283,-0.39843786,1.5943571,0.06597339,-0.28634286
741,1778619407.3522675,-0.2528806,-1.0704283,-0.39843786,1.5943571,0.06597339,-0.28634286
742,1778619407.3622682,-0.2528806,-1.0704283,-0.39843786,1.5943571,0.06597339,-0.28634286
743,1778619407.3722692,-0.2528806,-1.0704283,-0.39843786,1.5943571,0.06597339,-0.28634286
744,1778619407.3822699,-0.2528806,-1.0704283,-0.39843786,1.5943571,0.06597339,-0.28634286
745,1778619407.3922703,-0.2528806,-1.0704283,-0.39843786,1.5943571,0.06597339,-0.28634286
746,1778619407.402271,-0.2528806,-1.0704283,-0.39843786,1.5943571,0.06597339,-0.28634286
747,1778619407.4122715,-0.2528806,-1.0704283,-0.39843786,1.5943571,0.06597339,-0.28634286
748,1778619407.4222722,-0.35020337,-1.0443293,-0.4642954,1.5943571,0.06597339,-0.28634286
749,1778619407.4322789,-0.35020337,-1.0443293,-0.4642954,1.5943571,0.06597339,-0.28634286
750,1778619407.4422815,-0.35020337,-1.0443293,-0.4642954,1.5943571,0.06597339,-0.28634286
751,1778619407.4522827,-0.47069818,-1.1428716,-0.5925956,0.24434592,-0.32375833,0.16814053
752,1778619407.4622872,-0.47069818,-1.1428716,-0.5925956,0.24434592,-0.32375833,0.16814053
753,1778619407.472289,-0.47069818,-1.1428716,-0.5925956,0.24434592,-0.32375833,0.16814053
754,1778619407.4822903,-0.47069818,-1.1428716,-0.5925956,0.24434592,-0.32375833,0.16814053
755,1778619407.4924786,-0.47069818,-1.1428716,-0.5925956,0.24434592,-0.32375833,0.16814053
756,1778619407.5024793,-0.47069818,-1.1428716,-0.5925956,0.24434592,-0.32375833,0.16814053
757,1778619407.51248,-0.47069818,-1.1428716,-0.5925956,0.24434592,-0.32375833,0.16814053
758,1778619407.5224807,-0.47069818,-1.1428716,-0.5925956,0.24434592,-0.32375833,0.16814053
759,1778619407.5324812,-0.47069818,-1.1428716,-0.5925956,-0.05742129,-0.66339916,0.3593412
760,1778619407.5424821,-0.47069818,-1.1428716,-0.5925956,-0.05742129,-0.66339916,0.3593412
761,1778619407.552484,-0.47069818,-1.1428716,-0.5925956,-0.05742129,-0.66339916,0.3593412
762,1778619407.5624874,-0.47069818,-1.1428716,-0.5925956,-0.05742129,-0.66339916,0.3593412
763,1778619407.5724878,-0.47069818,-1.1428716,-0.5925956,-0.05742129,-0.66339916,0.3593412
764,1778619407.5826068,-0.47069818,-1.1428716,-0.5925956,-0.05742129,-0.66339916,0.3593412
765,1778619407.5926075,-0.47069818,-1.1428716,-0.5925956,-0.05742129,-0.66339916,0.3593412
766,1778619407.6026082,-0.47069818,-1.1428716,-0.5925956,-0.14660755,-0.767857,0.47968158
767,1778619407.612609,-0.47069818,-1.1428716,-0.5925956,-0.14660755,-0.767857,0.47968158
768,1778619407.62261,-0.46435636,-1.1809226,-0.5225915,-0.14660755,-0.767857,0.47968158
769,1778619407.632611,-0.46435636,-1.1809226,-0.5225915,-0.14660755,-0.767857,0.47968158
770,1778619407.6426117,-0.46435636,-1.1809226,-0.5225915,-0.14660755,-0.767857,0.47968158
771,1778619407.6526127,-0.46435636,-1.1809226,-0.5225915,-0.14660755,-0.767857,0.47968158
772,1778619407.662613,-0.46435636,-1.1809226,-0.5225915,-0.14660755,-0.767857,0.47968158
773,1778619407.6726139,-0.46435636,-1.1809226,-0.5225915,-0.14660755,-0.767857,0.47968158
774,1778619407.6826148,-0.46435636,-1.1809226,-0.5225915,-0.14660755,-0.767857,0.47968158
775,1778619407.6926155,-0.46435636,-1.1809226,-0.5225915,-0.14660755,-0.767857,0.47968158
776,1778619407.702616,-0.46435636,-1.1809226,-0.5225915,-0.14660755,-0.767857,0.47968158
777,1778619407.712617,-0.46435636,-1.1809226,-0.5225915,-0.14660755,-0.767857,0.47968158
778,1778619407.7226176,-0.46435636,-1.1809226,-0.5225915,-0.14660755,-0.767857,0.47968158
779,1778619407.7326186,-0.42801276,-1.2104365,-0.43600106,-0.14660755,-0.767857,0.47968158
780,1778619407.742961,-0.42801276,-1.2104365,-0.43600106,-0.14660755,-0.767857,0.47968158
781,1778619407.7529643,-0.42801276,-1.2104365,-0.43600106,-0.14660755,-0.767857,0.47968158
782,1778619407.7629654,-0.42801276,-1.2104365,-0.43600106,-0.14660755,-0.767857,0.47968158
783,1778619407.772966,-0.42801276,-1.2104365,-0.43600106,-0.14660755,-0.767857,0.47968158
784,1778619407.7829669,-0.42801276,-1.2104365,-0.43600106,-0.14660755,-0.767857,0.47968158
785,1778619407.7929766,-0.26678386,-1.200192,-0.35892338,-0.48441577,-1.0836741,1.7215697
786,1778619407.802977,-0.26678386,-1.200192,-0.35892338,-0.48441577,-1.0836741,1.7215697
787,1778619407.8129783,-0.26678386,-1.200192,-0.35892338,-0.48441577,-1.0836741,1.7215697
788,1778619407.822979,-0.26678386,-1.200192,-0.35892338,-0.48441577,-1.0836741,1.7215697
789,1778619407.8329797,-0.26678386,-1.200192,-0.35892338,-0.48441577,-1.0836741,1.7215697
790,1778619407.8429809,-0.26678386,-1.200192,-0.35892338,-0.48441577,-1.0836741,1.7215697
791,1778619407.852982,-0.14799644,-1.1404324,-0.2952611,-0.7043271,-1.0745112,2.3965752
792,1778619407.8629835,-0.14799644,-1.1404324,-0.2952611,-0.7043271,-1.0745112,2.3965752
793,1778619407.8729846,-0.14799644,-1.1404324,-0.2952611,-0.7043271,-1.0745112,2.3965752
794,1778619407.882985,-0.14799644,-1.1404324,-0.2952611,-0.7043271,-1.0745112,2.3965752
795,1778619407.8929856,-0.14799644,-1.1404324,-0.2952611,-0.7043271,-1.0745112,2.3965752
796,1778619407.9029863,-0.14799644,-1.1404324,-0.2952611,-0.7043271,-1.0745112,2.3965752
797,1778619407.9129872,-0.14799644,-1.1404324,-0.2952611,-0.7043271,-1.0745112,2.3965752
798,1778619407.9229894,0.16787565,-0.9557874,-0.18744996,-0.8625411,-0.88697565,2.460716
799,1778619407.9329906,0.16787565,-0.9557874,-0.18744996,-0.8625411,-0.88697565,2.460716
800,1778619407.942991,0.16787565,-0.9557874,-0.18744996,-0.8625411,-0.88697565,2.460716
801,1778619407.952992,0.16787565,-0.9557874,-0.18744996,-0.8625411,-0.88697565,2.460716
802,1778619407.9629927,0.16787565,-0.9557874,-0.18744996,-0.8625411,-0.88697565,2.460716
803,1778619407.9729934,0.16787565,-0.9557874,-0.18744996,-0.8625411,-0.88697565,2.460716
804,1778619407.982994,0.16787565,-0.9557874,-0.18744996,-0.8625411,-0.88697565,2.460716
805,1778619407.9930503,0.16787565,-0.9557874,-0.18744996,-0.8625411,-0.88697565,2.460716
806,1778619408.0030518,0.16787565,-0.9557874,-0.18744996,-0.8625411,-0.88697565,2.460716
807,1778619408.0133128,0.16787565,-0.9557874,-0.18744996,-0.8625411,-0.88697565,2.460716
808,1778619408.0239275,0.71107805,-1.0579885,-0.3825833,-2.1807873,-0.50152,2.3495386
809,1778619408.0339296,0.71107805,-1.0579885,-0.3825833,-2.1807873,-0.50152,2.3495386
810,1778619408.0439312,2.5280135,-1.0067661,0.13744704,-3.6389215,-1.6609414,4.0886707
811,1778619408.053933,2.5280135,-1.0067661,0.13744704,-3.6389215,-1.6609414,4.0886707
812,1778619408.0639343,2.5280135,-1.0067661,0.13744704,-3.6389215,-1.6609414,4.0886707
813,1778619408.073936,3.073167,-0.7365064,0.54283655,-3.6389215,-1.6609414,4.0886707
814,1778619408.0839372,3.073167,-0.7365064,0.54283655,-3.6389215,-1.6609414,4.0886707
815,1778619408.0939386,3.073167,-0.7365064,0.54283655,-3.6389215,-1.6609414,4.0886707
816,1778619408.1039402,2.3921518,0.5791801,0.5086882,-1.1093304,-0.1386663,1.5291473
817,1778619408.1139414,2.3921518,0.5791801,0.5086882,-1.1093304,-0.1386663,1.5291473
818,1778619408.1239424,2.3921518,0.5791801,0.5086882,-1.1093304,-0.1386663,1.5291473
819,1778619408.1339436,2.3921518,0.5791801,0.5086882,-1.2357794,0.16676609,1.3788745
820,1778619408.1439443,2.3921518,0.5791801,0.5086882,-1.2357794,0.16676609,1.3788745
821,1778619408.1539454,2.3921518,0.5791801,0.5086882,-1.2357794,0.16676609,1.3788745
822,1778619408.163946,2.3921518,0.5791801,0.5086882,-1.2357794,0.16676609,1.3788745
823,1778619408.1739469,2.3921518,0.5791801,0.5086882,-1.2357794,0.16676609,1.3788745
824,1778619408.183948,1.8691944,0.582351,0.31989673,-1.4245367,0.51434815,1.3611594
825,1778619408.193949,1.8691944,0.582351,0.31989673,-1.4245367,0.51434815,1.3611594
826,1778619408.2039502,1.8691944,0.582351,0.31989673,-1.4245367,0.51434815,1.3611594
827,1778619408.2139516,1.4333154,0.6369884,0.29721245,-1.3939934,0.41905323,1.4112504
828,1778619408.223952,1.4333154,0.6369884,0.29721245,-1.3939934,0.41905323,1.4112504
829,1778619408.2339528,1.4333154,0.6369884,0.29721245,-1.3939934,0.41905323,1.4112504
830,1778619408.243958,1.3255042,0.76358116,0.3755097,-1.3939934,0.41905323,1.4112504
831,1778619408.2539604,1.3255042,0.76358116,0.3755097,-1.3939934,0.41905323,1.4112504
832,1778619408.2639613,1.3255042,0.76358116,0.3755097,-1.3939934,0.41905323,1.4112504
833,1778619408.2739694,1.3255042,0.76358116,0.3755097,-1.2125666,0.42210758,1.1308634
834,1778619408.2842634,1.3255042,0.76358116,0.3755097,-1.2125666,0.42210758,1.1308634
835,1778619408.2942643,1.3255042,0.76358116,0.3755097,-1.2125666,0.42210758,1.1308634
836,1778619408.304265,1.3255042,0.76358116,0.3755097,-1.2125666,0.42210758,1.1308634
837,1778619408.314266,1.1657388,0.86358696,0.36453345,-1.0488548,0.4960222,0.7673989
838,1778619408.3242671,1.1657388,0.86358696,0.36453345,-1.0488548,0.4960222,0.7673989
839,1778619408.334268,1.1657388,0.86358696,0.36453345,-1.0488548,0.4960222,0.7673989
840,1778619408.344269,1.1657388,0.86358696,0.36453345,-1.0488548,0.4960222,0.7673989
841,1778619408.354272,1.1657388,0.86358696,0.36453345,-1.0488548,0.4960222,0.7673989
842,1778619408.364274,1.1657388,0.86358696,0.36453345,-1.0488548,0.4960222,0.7673989
843,1778619408.3745623,1.1657388,0.86358696,0.36453345,-1.0488548,0.4960222,0.7673989
844,1778619408.384564,0.48569906,0.83065826,0.2511122,-0.56443906,0.57971066,-0.29733843
845,1778619408.3945649,0.48569906,0.83065826,0.2511122,-0.56443906,0.57971066,-0.29733843
846,1778619408.4045658,0.48569906,0.83065826,0.2511122,-0.56443906,0.57971066,-0.29733843
847,1778619408.4145694,0.30007848,0.840171,0.21623214,-0.32375833,0.6163626,-0.49098256
848,1778619408.4245713,0.30007848,0.840171,0.21623214,-0.32375833,0.6163626,-0.49098256
849,1778619408.4345725,0.30007848,0.840171,0.21623214,-0.32375833,0.6163626,-0.49098256
850,1778619408.4445772,0.30007848,0.840171,0.21623214,-0.32375833,0.6163626,-0.49098256
851,1778619408.4545794,0.30007848,0.840171,0.21623214,-0.32375833,0.6163626,-0.49098256
852,1778619408.4647863,0.30007848,0.840171,0.21623214,-0.32375833,0.6163626,-0.49098256
853,1778619408.4747868,0.30007848,0.840171,0.21623214,-0.32375833,0.6163626,-0.49098256
854,1778619408.4847877,0.30007848,0.840171,0.21623214,-0.32375833,0.6163626,-0.49098256
855,1778619408.4947884,0.30007848,0.840171,0.21623214,-0.07696896,0.6157517,-0.7848085
856,1778619408.5047889,0.30007848,0.840171,0.21623214,-0.07696896,0.6157517,-0.7848085
857,1778619408.51479,0.17690057,0.8472445,0.17866896,-0.07696896,0.6157517,-0.7848085
858,1778619408.5247908,0.17690057,0.8472445,0.17866896,-0.07696896,0.6157517,-0.7848085
859,1778619408.5347915,0.17690057,0.8472445,0.17866896,-0.07696896,0.6157517,-0.7848085
860,1778619408.5447922,0.12811723,0.8423662,0.15549688,-0.07696896,0.6157517,-0.7848085
861,1778619408.5548148,0.12811723,0.8423662,0.15549688,-0.07696896,0.6157517,-0.7848085
862,1778619408.5650275,0.12811723,0.8423662,0.15549688,-0.07696896,0.6157517,-0.7848085
863,1778619408.5750287,0.12811723,0.8423662,0.15549688,0.043371398,0.59437144,-0.9937243
864,1778619408.5850298,0.12811723,0.8423662,0.15549688,0.043371398,0.59437144,-0.9937243
865,1778619408.5950305,0.12811723,0.8423662,0.15549688,0.043371398,0.59437144,-0.9937243
866,1778619408.6050315,0.12811723,0.8423662,0.15549688,0.043371398,0.59437144,-0.9937243
867,1778619408.6150324,0.12811723,0.8423662,0.15549688,0.043371398,0.59437144,-0.9937243
868,1778619408.6250336,0.06860156,0.7750452,0.11403105,0.24862197,0.45875946,-1.3944516
869,1778619408.6350346,0.06860156,0.7750452,0.11403105,0.24862197,0.45875946,-1.3944516
870,1778619408.645035,0.06860156,0.7750452,0.11403105,0.24862197,0.45875946,-1.3944516
871,1778619408.6550362,0.06860156,0.7750452,0.11403105,0.24862197,0.45875946,-1.3944516
872,1778619408.6650376,0.12519024,0.64235455,0.23574546,0.34819293,0.38789913,-1.5441134
873,1778619408.675038,0.12519024,0.64235455,0.23574546,0.34819293,0.38789913,-1.5441134
874,1778619408.6850395,0.12519024,0.64235455,0.23574546,0.34819293,0.38789913,-1.5441134
875,1778619408.6950426,0.12519024,0.64235455,0.23574546,0.34819293,0.38789913,-1.5441134
876,1778619408.7050445,0.12519024,0.64235455,0.23574546,0.34819293,0.38789913,-1.5441134
877,1778619408.7150452,0.12519024,0.64235455,0.23574546,0.4575377,0.38912088,-1.6320779
878,1778619408.725046,0.12519024,0.64235455,0.23574546,0.4575377,0.38912088,-1.6320779
879,1778619408.7350464,0.12519024,0.64235455,0.23574546,0.4575377,0.38912088,-1.6320779
880,1778619408.745047,0.12519024,0.64235455,0.23574546,0.4575377,0.38912088,-1.6320779
881,1778619408.755056,0.12519024,0.64235455,0.23574546,0.4575377,0.38912088,-1.6320779
882,1778619408.7650595,0.12519024,0.64235455,0.23574546,0.4575377,0.38912088,-1.6320779
883,1778619408.775061,0.12519024,0.64235455,0.23574546,0.4575377,0.38912088,-1.6320779
884,1778619408.7858315,0.12519024,0.64235455,0.23574546,0.5870411,0.5070178,-1.7023274
885,1778619408.7958326,0.12519024,0.64235455,0.23574546,0.5870411,0.5070178,-1.7023274
886,1778619408.805834,0.12519024,0.64235455,0.23574546,0.5870411,0.5070178,-1.7023274
887,1778619408.8158352,0.12519024,0.64235455,0.23574546,0.5870411,0.5070178,-1.7023274
888,1778619408.8258362,0.19714566,0.6250365,0.29306588,0.5870411,0.5070178,-1.7023274
889,1778619408.8358376,0.19714566,0.6250365,0.29306588,0.5870411,0.5070178,-1.7023274
890,1778619408.8458388,0.19714566,0.6250365,0.29306588,0.5870411,0.5070178,-1.7023274
891,1778619408.8558395,0.19714566,0.6250365,0.29306588,0.7195987,0.6517927,-1.7957897
892,1778619408.8658402,0.19714566,0.6250365,0.29306588,0.7195987,0.6517927,-1.7957897
893,1778619408.8758414,0.19714566,0.6250365,0.29306588,0.7195987,0.6517927,-1.7957897
894,1778619408.8858423,2.637532,0.43917197,0.65089166,1.6004658,0.6163626,-2.4610214
895,1778619408.8964071,2.637532,0.43917197,0.65089166,1.6639956,0.46792242,-2.5593708
896,1778619408.9064085,2.637532,0.43917197,0.65089166,1.6639956,0.46792242,-2.5593708
897,1778619408.9164095,2.892181,0.33819047,0.75089747,1.6639956,0.46792242,-2.5593708
898,1778619408.9264097,2.892181,0.33819047,0.75089747,1.6639956,0.46792242,-2.5593708
899,1778619408.93641,2.892181,0.33819047,0.75089747,1.6639956,0.46792242,-2.5593708
900,1778619408.946411,2.892181,0.33819047,0.75089747,1.6639956,0.46792242,-2.5593708
901,1778619408.9564114,2.892181,0.33819047,0.75089747,1.6639956,0.46792242,-2.5593708
902,1778619408.966412,3.1036565,0.18598646,0.84090275,1.6639956,0.46792242,-2.5593708
903,1778619408.9764128,3.1036565,0.18598646,0.84090275,1.6639956,0.46792242,-2.5593708
904,1778619408.9864135,3.1036565,0.18598646,0.84090275,1.6639956,0.46792242,-2.5593708
905,1778619408.9964142,3.1036565,0.18598646,0.84090275,1.7873904,0.33108872,-2.6778784
906,1778619409.0067375,3.1036565,0.18598646,0.84090275,1.7873904,0.33108872,-2.6778784
907,1778619409.016739,3.1036565,0.18598646,0.84090275,1.7873904,0.33108872,-2.6778784
908,1778619409.0267403,2.7316837,-0.644062,0.46063665,2.3487751,1.0995566,-3.0248497
909,1778619409.036741,2.7316837,-0.644062,0.46063665,2.3487751,1.0995566,-3.0248497
910,1778619409.046742,2.7316837,-0.644062,0.46063665,2.4593415,1.2638792,-2.9423828
911,1778619409.0567787,2.7316837,-0.644062,0.46063665,2.4593415,1.2638792,-2.9423828
912,1778619409.0667806,2.7316837,-0.644062,0.46063665,2.4593415,1.2638792,-2.9423828
913,1778619409.076782,2.7316837,-0.644062,0.46063665,2.4593415,1.2638792,-2.9423828
914,1778619409.0867834,2.5016704,-0.6921136,0.3579477,2.4287984,1.1979058,-2.828762
915,1778619409.0967844,2.5016704,-0.6921136,0.3579477,2.4287984,1.1979058,-2.828762
916,1778619409.106785,2.5016704,-0.6921136,0.3579477,2.4287984,1.1979058,-2.828762
917,1778619409.1167858,2.110428,-0.7633372,0.29135844,2.0127995,1.3933825,-2.3339617
918,1778619409.1267862,2.110428,-0.7633372,0.29135844,2.0127995,1.3933825,-2.3339617
919,1778619409.136787,2.110428,-0.7633372,0.29135844,2.0127995,1.3933825,-2.3339617
920,1778619409.1467876,2.110428,-0.7633372,0.29135844,2.0127995,1.3933825,-2.3339617
921,1778619409.156788,2.110428,-0.7633372,0.29135844,2.0127995,1.3933825,-2.3339617
922,1778619409.166789,2.110428,-0.7633372,0.29135844,2.0127995,1.3933825,-2.3339617
923,1778619409.1767895,2.110428,-0.7633372,0.29135844,2.0127995,1.3933825,-2.3339617
924,1778619409.1867907,2.110428,-0.7633372,0.29135844,2.0127995,1.3933825,-2.3339617
925,1778619409.1967933,1.7982148,-0.78724104,0.27647954,2.1801765,1.2186753,-2.5367687
926,1778619409.2067952,1.7982148,-0.78724104,0.27647954,2.1801765,1.2186753,-2.5367687
927,1778619409.216796,1.7982148,-0.78724104,0.27647954,2.1801765,1.2186753,-2.5367687
928,1778619409.2267992,1.5828363,-0.80041254,0.23891638,1.8411465,1.6041309,-2.0596833
929,1778619409.2368016,1.5828363,-0.80041254,0.23891638,1.8411465,1.6041309,-2.0596833
930,1778619409.2468028,1.5828363,-0.80041254,0.23891638,1.8411465,1.6041309,-2.0596833
931,1778619409.2568038,1.5828363,-0.80041254,0.23891638,1.8411465,1.6041309,-2.0596833
932,1778619409.2668042,1.5828363,-0.80041254,0.23891638,1.8411465,1.6041309,-2.0596833
933,1778619409.2768068,1.2494022,-0.81919414,0.13866661,1.8411465,1.6041309,-2.0596833
934,1778619409.2868094,1.2494022,-0.81919414,0.13866661,1.8411465,1.6041309,-2.0596833
935,1778619409.2968104,1.2494022,-0.81919414,0.13866661,1.8411465,1.6041309,-2.0596833
936,1778619409.3068113,1.0042659,-0.79602206,0.030855458,1.8411465,1.6041309,-2.0596833
937,1778619409.3168118,1.0042659,-0.79602206,0.030855458,1.8411465,1.6041309,-2.0596833
938,1778619409.3268132,1.0042659,-0.79602206,0.030855458,1.8411465,1.6041309,-2.0596833
939,1778619409.3368142,1.0042659,-0.79602206,0.030855458,1.7837251,1.6554435,-1.8880303
940,1778619409.3468525,1.0042659,-0.79602206,0.030855458,1.7837251,1.6554435,-1.8880303
941,1778619409.3568535,1.0042659,-0.79602206,0.030855458,1.7837251,1.6554435,-1.8880303
942,1778619409.36686,1.0042659,-0.79602206,0.030855458,1.7837251,1.6554435,-1.8880303
943,1778619409.3768625,1.0042659,-0.79602206,0.030855458,1.7837251,1.6554435,-1.8880303
944,1778619409.3868642,1.0042659,-0.79602206,0.030855458,1.7837251,1.6554435,-1.8880303
945,1778619409.3968654,1.0042659,-0.79602206,0.030855458,1.7837251,1.6554435,-1.8880303
946,1778619409.4068666,1.0042659,-0.79602206,0.030855458,1.7837251,1.6554435,-1.8880303
947,1778619409.4168682,1.0042659,-0.79602206,0.030855458,1.7837251,1.6554435,-1.8880303
948,1778619409.426869,1.0042659,-0.79602206,0.030855458,1.7837251,1.6554435,-1.8880303
949,1778619409.437152,1.0042659,-0.79602206,0.030855458,1.7965534,1.6047418,-1.7603595
950,1778619409.4471526,1.0042659,-0.79602206,0.030855458,1.7965534,1.6047418,-1.7603595
951,1778619409.4571533,1.0042659,-0.79602206,0.030855458,1.7965534,1.6047418,-1.7603595
952,1778619409.4671545,0.7732768,-0.7918755,-0.07549221,1.7965534,1.6047418,-1.7603595
953,1778619409.4771557,0.51716435,-0.86797744,-0.24769738,1.8081597,1.4355322,-1.6436844
954,1778619409.4871564,0.51716435,-0.86797744,-0.24769738,1.8081597,1.4355322,-1.6436844
955,1778619409.4971578,0.51716435,-0.86797744,-0.24769738,1.8081597,1.4355322,-1.6436844
956,1778619409.507159,-0.42069528,-1.0860391,-0.3867299,-0.38851,-0.19364414,0.34956738
957,1778619409.51716,-0.42069528,-1.0860391,-0.3867299,-0.38851,-0.19364414,0.34956738
958,1778619409.5271611,3.52734,0.6562578,0.8365122,-1.5607595,-1.4471387,3.1192284
959,1778619409.537649,3.52734,0.6562578,0.8365122,-1.5607595,-1.4471387,3.1192284
960,1778619409.5476499,3.52734,0.6562578,0.8365122,-1.5607595,-1.4471387,3.1192284
961,1778619409.5576503,3.52734,0.6562578,0.8365122,-1.5607595,-1.4471387,3.1192284
962,1778619409.5676513,3.52734,0.6562578,0.8365122,-1.5607595,-1.4471387,3.1192284
963,1778619409.5776515,3.52734,0.6562578,0.8365122,-1.5607595,-1.4471387,3.1192284
964,1778619409.5876527,3.52734,0.6562578,0.8365122,-1.4813471,-1.1355976,2.727664
965,1778619409.5976534,3.52734,0.6562578,0.8365122,-1.4813471,-1.1355976,2.727664
966,1778619409.607654,3.52734,0.6562578,0.8365122,-1.4813471,-1.1355976,2.727664
967,1778619409.6176548,3.4278219,0.7718743,0.8733436,-1.4813471,-1.1355976,2.727664
968,1778619409.6276562,3.4278219,0.7718743,0.8733436,-1.4813471,-1.1355976,2.727664
969,1778619409.6376579,3.4278219,0.7718743,0.8733436,-1.4813471,-1.1355976,2.727664
970,1778619409.6476588,3.4278219,0.7718743,0.8733436,-1.4813471,-1.1355976,2.727664
971,1778619409.6576595,3.4278219,0.7718743,0.8733436,-1.4813471,-1.1355976,2.727664
972,1778619409.6676602,3.18171,0.7748013,0.8228529,-1.4880666,-0.46181378,2.148564
973,1778619409.6776795,3.18171,0.7748013,0.8228529,-1.4880666,-0.46181378,2.148564
974,1778619409.687691,3.18171,0.7748013,0.8228529,-1.4880666,-0.46181378,2.148564
975,1778619409.697692,2.6807053,0.7079681,0.6250365,-1.5827507,0.03604102,1.8785619
976,1778619409.7076929,2.6807053,0.7079681,0.6250365,-1.5827507,0.03604102,1.8785619
977,1778619409.7176943,2.6807053,0.7079681,0.6250365,-1.5827507,0.03604102,1.8785619
978,1778619409.7276957,0.86913604,0.6723563,0.16720487,-0.6988293,-0.086742796,0.46257734
979,1778619409.737697,0.86913604,0.6723563,0.16720487,-0.6988293,-0.086742796,0.46257734
980,1778619409.7476974,0.86913604,0.6723563,0.16720487,-0.6988293,-0.086742796,0.46257734
981,1778619409.7576983,0.86913604,0.6723563,0.16720487,-0.650571,-0.16615522,0.40882125
982,1778619409.7676988,0.86913604,0.6723563,0.16720487,-0.650571,-0.16615522,0.40882125
983,1778619409.7776992,0.86913604,0.6723563,0.16720487,-0.650571,-0.16615522,0.40882125
984,1778619409.787877,0.86913604,0.6723563,0.16720487,-0.650571,-0.16615522,0.40882125
985,1778619409.7978776,0.86913604,0.6723563,0.16720487,-0.650571,-0.16615522,0.40882125
986,1778619409.8078785,0.86913604,0.6723563,0.16720487,-0.650571,-0.16615522,0.40882125
987,1778619409.817879,0.86913604,0.6723563,0.16720487,-0.650571,-0.16615522,0.40882125
988,1778619409.8278797,0.64278144,0.7040655,0.14159364,-0.5558869,-0.32864526,0.36728245
989,1778619409.8378804,0.64278144,0.7040655,0.14159364,-0.5558869,-0.32864526,0.36728245
990,1778619409.8478806,0.64278144,0.7040655,0.14159364,-0.5558869,-0.32864526,0.36728245
991,1778619409.8578813,0.64278144,0.7040655,0.14159364,-0.5558869,-0.32864526,0.36728245
992,1778619409.867882,0.64278144,0.7040655,0.14159364,-0.5558869,-0.32864526,0.36728245
993,1778619409.8778827,0.64278144,0.7040655,0.14159364,-0.5558869,-0.32864526,0.36728245
994,1778619409.8878837,0.64278144,0.7040655,0.14159364,-0.5558869,-0.32864526,0.36728245
995,1778619409.8978848,0.64278144,0.7040655,0.14159364,-0.47586367,-0.37079492,0.31169376
996,1778619409.9078856,0.64278144,0.7040655,0.14159364,-0.47586367,-0.37079492,0.31169376
997,1778619409.9178865,0.64278144,0.7040655,0.14159364,-0.47586367,-0.37079492,0.31169376
998,1778619409.9278877,0.5669233,0.7433361,0.17476629,-0.34391686,-0.31642795,0.16386448
