id,timestamp,acc_x,acc_y,acc_z,gyro_x,gyro_y,gyro_z
1,1778619448.4281006,1.1293951,-0.6911379,0.19549921,-2.3884814,-0.5100721,2.876104
2,1778619448.438102,1.1293951,-0.6911379,0.19549921,-2.544252,-0.43615746,2.858389
3,1778619448.4481032,1.1293951,-0.6911379,0.19549921,-2.544252,-0.43615746,2.858389
4,1778619448.4581046,1.1293951,-0.6911379,0.19549921,-2.544252,-0.43615746,2.858389
5,1778619448.468108,1.1293951,-0.6911379,0.19549921,-2.544252,-0.43615746,2.858389
6,1778619448.4781103,1.1293951,-0.6911379,0.19549921,-2.544252,-0.43615746,2.858389
7,1778619448.4881113,1.1293951,-0.6911379,0.19549921,-2.544252,-0.43615746,2.858389
8,1778619448.498112,1.1293951,-0.6911379,0.19549921,-2.544252,-0.43615746,2.858389
9,1778619448.5081131,1.6647923,-0.80894965,0.20623155,-3.1813838,-0.34574947,2.8199046
10,1778619448.5181143,1.6647923,-0.80894965,0.20623155,-3.1813838,-0.34574947,2.8199046
11,1778619448.528115,1.6647923,-0.80894965,0.20623155,-3.1813838,-0.34574947,2.8199046
12,1778619448.5381157,1.9577361,-0.84163445,0.34233707,-3.3273804,-0.69455326,3.1308348
13,1778619448.5481167,1.9577361,-0.84163445,0.34233707,-3.3273804,-0.69455326,3.1308348
14,1778619448.5581174,1.9577361,-0.84163445,0.34233707,-3.3273804,-0.69455326,3.1308348
15,1778619448.568118,2.7211952,-0.2816018,0.9526166,-1.9297218,-0.5723803,2.907869
16,1778619448.5781229,2.7621734,-0.10890879,0.9879845,-1.9297218,-0.5723803,2.907869
17,1778619448.5881255,2.7621734,-0.10890879,0.9879845,-1.9297218,-0.5723803,2.907869
18,1778619448.5981264,2.7621734,-0.10890879,0.9879845,-1.9297218,-0.5723803,2.907869
19,1778619448.6081269,2.7621734,-0.10890879,0.9879845,-1.9297218,-0.5723803,2.907869
20,1778619448.6181278,2.7390013,0.052076213,0.95334834,-1.3243549,-0.33108872,2.6623015
21,1778619448.6281283,2.7390013,0.052076213,0.95334834,-1.3243549,-0.33108872,2.6623015
22,1778619448.638129,2.7390013,0.052076213,0.95334834,-1.3243549,-0.33108872,2.6623015
23,1778619448.6481297,2.649484,0.20696329,0.8491959,-1.3243549,-0.33108872,2.6623015
24,1778619448.6581302,2.649484,0.20696329,0.8491959,-1.3243549,-0.33108872,2.6623015
25,1778619448.6681309,2.649484,0.20696329,0.8491959,-1.3243549,-0.33108872,2.6623015
26,1778619448.678132,2.649484,0.20696329,0.8491959,-0.72387475,-0.07574723,2.176053
27,1778619448.688133,2.493865,0.36111864,0.6779664,-0.65790135,-0.051923506,2.0434954
28,1778619448.6981342,2.493865,0.36111864,0.6779664,-0.65790135,-0.051923506,2.0434954
29,1778619448.7081347,2.493865,0.36111864,0.6779664,-0.65790135,-0.051923506,2.0434954
30,1778619448.718135,2.493865,0.36111864,0.6779664,-0.65790135,-0.051923506,2.0434954
31,1778619448.7281356,2.493865,0.36111864,0.6779664,-0.65790135,-0.051923506,2.0434954
32,1778619448.7381363,2.493865,0.36111864,0.6779664,-0.65790135,-0.051923506,2.0434954
33,1778619448.7481372,2.493865,0.36111864,0.6779664,-0.65790135,-0.051923506,2.0434954
34,1778619448.7581382,2.493865,0.36111864,0.6779664,-0.65790135,-0.051923506,2.0434954
35,1778619448.7681391,2.493865,0.36111864,0.6779664,-0.65790135,-0.051923506,2.0434954
36,1778619448.7781396,2.493865,0.36111864,0.6779664,-0.65790135,-0.051923506,2.0434954
37,1778619448.7893734,2.420934,0.39551088,0.61991423,-0.65790135,-0.051923506,2.0434954
38,1778619448.7993765,1.8991961,0.526982,0.3545329,-0.650571,-0.16249003,1.3330597
39,1778619448.8093774,1.8991961,0.526982,0.3545329,-0.650571,-0.16249003,1.3330597
40,1778619448.8193784,1.975786,0.51015174,0.3752658,-0.650571,-0.16249003,1.3330597
41,1778619448.8293836,1.975786,0.51015174,0.3752658,-0.650571,-0.16249003,1.3330597
42,1778619448.8393862,1.975786,0.51015174,0.3752658,-0.650571,-0.16249003,1.3330597
43,1778619448.8493965,1.975786,0.51015174,0.3752658,-0.650571,-0.16249003,1.3330597
44,1778619448.8593998,1.975786,0.51015174,0.3752658,-0.650571,-0.16249003,1.3330597
45,1778619448.8694017,1.8555351,0.5255185,0.35136196,-0.7128792,-0.21563527,1.1821761
46,1778619448.8794034,1.8555351,0.5255185,0.35136196,-0.77091134,-0.24190246,1.091768
47,1778619448.8894043,1.8555351,0.5255185,0.35136196,-0.77091134,-0.24190246,1.091768
48,1778619448.8994052,1.8555351,0.5255185,0.35136196,-0.77091134,-0.24190246,1.091768
49,1778619448.9094734,1.8555351,0.5255185,0.35136196,-0.77091134,-0.24190246,1.091768
50,1778619448.9194753,1.8555351,0.5255185,0.35136196,-0.77091134,-0.24190246,1.091768
51,1778619448.929476,1.8555351,0.5255185,0.35136196,-0.77091134,-0.24190246,1.091768
52,1778619448.9394765,1.8555351,0.5255185,0.35136196,-0.77091134,-0.24190246,1.091768
53,1778619448.949478,1.8555351,0.5255185,0.35136196,-0.77091134,-0.24190246,1.091768
54,1778619448.9594793,1.8555351,0.5255185,0.35136196,-0.77091134,-0.24190246,1.091768
55,1778619448.9694803,1.8555351,0.5255185,0.35136196,-0.77091134,-0.24190246,1.091768
56,1778619448.9794817,1.8555351,0.5255185,0.35136196,-0.77091134,-0.24190246,1.091768
57,1778619448.9894836,1.8555351,0.5255185,0.35136196,-0.77091134,-0.24190246,1.091768
58,1778619448.9994853,1.8555351,0.5255185,0.35136196,-0.77091134,-0.24190246,1.091768
59,1778619449.0094872,1.8555351,0.5255185,0.35136196,-0.77091134,-0.24190246,1.091768
60,1778619449.0194888,1.8555351,0.5255185,0.35136196,-0.77091134,-0.24190246,1.091768
61,1778619449.0294902,1.8555351,0.5255185,0.35136196,-0.77091134,-0.24190246,1.091768
62,1778619449.0394917,1.8555351,0.5255185,0.35136196,-0.8374956,-0.2290743,1.0453423
63,1778619449.0494926,1.8555351,0.5255185,0.35136196,-0.8374956,-0.2290743,1.0453423
64,1778619449.0594938,1.8555351,0.5255185,0.35136196,-0.8374956,-0.2290743,1.0453423
65,1778619449.0694978,1.7830919,0.5379582,0.37941238,-0.8374956,-0.2290743,1.0453423
66,1778619449.07951,1.7830919,0.5379582,0.37941238,-0.8374956,-0.2290743,1.0453423
67,1778619449.089631,1.7830919,0.5379582,0.37941238,-0.8374956,-0.2290743,1.0453423
68,1778619449.099633,1.7830919,0.5379582,0.37941238,-0.8374956,-0.2290743,1.0453423
69,1778619449.1096349,1.7830919,0.5379582,0.37941238,-0.8374956,-0.2290743,1.0453423
70,1778619449.1196365,1.7830919,0.5379582,0.37941238,-0.8374956,-0.2290743,1.0453423
71,1778619449.1296382,1.7830919,0.5379582,0.37941238,-0.8374956,-0.2290743,1.0453423
72,1778619449.1396399,1.7830919,0.5379582,0.37941238,-0.8374956,-0.2290743,1.0453423
73,1778619449.1496418,1.7830919,0.5379582,0.37941238,-0.8374956,-0.2290743,1.0453423
74,1778619449.159644,1.7830919,0.5379582,0.37941238,-0.8374956,-0.2290743,1.0453423
75,1778619449.1696458,1.7830919,0.5379582,0.37941238,-0.8374956,-0.2290743,1.0453423
76,1778619449.1796477,1.7830919,0.5379582,0.37941238,-0.8374956,-0.2290743,1.0453423
77,1778619449.1896524,1.7830919,0.5379582,0.37941238,-0.8374956,-0.2290743,1.0453423
78,1778619449.1996548,1.4364862,0.80285174,0.42965922,-0.92729276,-0.116675176,0.6977603
79,1778619449.2096565,1.4364862,0.80285174,0.42965922,-0.92729276,-0.116675176,0.6977603
80,1778619449.2196586,1.4364862,0.80285174,0.42965922,-0.92729276,-0.116675176,0.6977603
81,1778619449.2296605,1.4364862,0.80285174,0.42965922,-0.92729276,-0.116675176,0.6977603
82,1778619449.2396622,1.4364862,0.80285174,0.42965922,-0.92729276,-0.116675176,0.6977603
83,1778619449.249664,1.4364862,0.80285174,0.42965922,-0.92729276,-0.116675176,0.6977603
84,1778619449.2596657,1.2994051,0.82797515,0.43917197,-0.91812974,-0.0042760535,0.19318599
85,1778619449.2696676,1.2994051,0.82797515,0.43917197,-0.91812974,-0.0042760535,0.19318599
86,1778619449.2796683,1.2994051,0.82797515,0.43917197,-0.91812974,-0.0042760535,0.19318599
87,1778619449.2896695,1.2994051,0.82797515,0.43917197,-0.91812974,-0.0042760535,0.19318599
88,1778619449.29967,1.2994051,0.82797515,0.43917197,-0.91812974,-0.0042760535,0.19318599
89,1778619449.309671,0.27788207,0.8474884,0.44453815,-0.94928384,0.8393282,-1.1299471
90,1778619449.3196719,0.27788207,0.8474884,0.44453815,-0.94928384,0.8393282,-1.1299471
91,1778619449.3296728,0.27788207,0.8474884,0.44453815,-0.94928384,0.8393282,-1.1299471
92,1778619449.3396738,0.27788207,0.8474884,0.44453815,-0.94928384,0.8393282,-1.1299471
93,1778619449.3496776,0.27788207,0.8474884,0.44453815,-0.94928384,0.8393282,-1.1299471
94,1778619449.3596787,0.27788207,0.8474884,0.44453815,-0.94928384,0.8393282,-1.1299471
95,1778619449.3696797,0.27788207,0.8474884,0.44453815,-0.94928384,0.8393282,-1.1299471
96,1778619449.3796804,0.9359693,0.6328418,0.66455096,2.8924448,0.4667007,-2.7731733
97,1778619449.3896816,0.9359693,0.6328418,0.66455096,2.8924448,0.4667007,-2.7731733
98,1778619449.3996823,1.3486762,0.579668,0.7308963,2.8979425,0.5833759,-2.9032876
99,1778619449.4096828,1.3486762,0.579668,0.7308963,2.8979425,0.5833759,-2.9032876
100,1778619449.4196837,1.3486762,0.579668,0.7308963,2.8979425,0.5833759,-2.9032876
101,1778619449.4298847,1.3486762,0.579668,0.7308963,2.8979425,0.5833759,-2.9032876
102,1778619449.4398854,1.3486762,0.579668,0.7308963,2.8979425,0.5833759,-2.9032876
103,1778619449.4498868,1.3486762,0.579668,0.7308963,2.8979425,0.5833759,-2.9032876
104,1778619449.4598882,1.3486762,0.579668,0.7308963,2.8979425,0.5833759,-2.9032876
105,1778619449.4698887,1.3486762,0.579668,0.7308963,2.8979425,0.5833759,-2.9032876
106,1778619449.4798896,2.6497276,-0.61552376,0.96334887,5.0707884,1.5259402,-2.6100724
107,1778619449.4898906,2.6497276,-0.61552376,0.96334887,5.0707884,1.5259402,-2.6100724
108,1778619449.499891,2.6497276,-0.61552376,0.96334887,5.0707884,1.5259402,-2.6100724
109,1778619449.509894,2.6497276,-0.61552376,0.96334887,4.589427,1.9761475,-2.517221
110,1778619449.5199087,2.6497276,-0.61552376,0.96334887,4.589427,1.9761475,-2.517221
111,1778619449.52991,2.6497276,-0.61552376,0.96334887,4.589427,1.9761475,-2.517221
112,1778619449.5399108,2.6497276,-0.61552376,0.96334887,4.589427,1.9761475,-2.517221
113,1778619449.5499158,2.6497276,-0.61552376,0.96334887,4.589427,1.9761475,-2.517221
114,1778619449.5599182,2.6497276,-0.61552376,0.96334887,4.589427,1.9761475,-2.517221
115,1778619449.5699198,2.6497276,-0.61552376,0.96334887,4.589427,1.9761475,-2.517221
116,1778619449.5799205,2.6497276,-0.61552376,0.96334887,4.589427,1.9761475,-2.517221
117,1778619449.5899217,0.93157876,-0.7252862,-0.09085896,3.1416776,1.820377,-0.8061888
118,1778619449.5999227,0.93157876,-0.7252862,-0.09085896,3.1416776,1.820377,-0.8061888
119,1778619449.6099231,0.93157876,-0.7252862,-0.09085896,3.1416776,1.820377,-0.8061888
120,1778619449.6199243,0.93157876,-0.7252862,-0.09085896,3.1416776,1.820377,-0.8061888
121,1778619449.6299257,0.93157876,-0.7252862,-0.09085896,3.1416776,1.820377,-0.8061888
122,1778619449.6399274,0.93157876,-0.7252862,-0.09085896,3.1416776,1.820377,-0.8061888
123,1778619449.6499293,0.93157876,-0.7252862,-0.09085896,3.1416776,1.820377,-0.8061888
124,1778619449.6600904,0.93157876,-0.7252862,-0.09085896,3.1416776,1.820377,-0.8061888
125,1778619449.6700938,0.93157876,-0.7252862,-0.09085896,3.1416776,1.820377,-0.8061888
126,1778619449.6800947,0.93157876,-0.7252862,-0.09085896,3.1416776,1.820377,-0.8061888
127,1778619449.6900957,0.93157876,-0.7252862,-0.09085896,3.1416776,1.820377,-0.8061888
128,1778619449.700097,0.73571366,-0.6213777,-0.23379412,3.1416776,1.820377,-0.8061888
129,1778619449.7101097,0.73571366,-0.6213777,-0.23379412,3.1416776,1.820377,-0.8061888
130,1778619449.7201142,0.73571366,-0.6213777,-0.23379412,3.1416776,1.820377,-0.8061888
131,1778619449.7301154,0.73571366,-0.6213777,-0.23379412,3.1416776,1.820377,-0.8061888
132,1778619449.7401168,0.73571366,-0.6213777,-0.23379412,3.1416776,1.820377,-0.8061888
133,1778619449.7501178,0.73571366,-0.6213777,-0.23379412,3.1416776,1.820377,-0.8061888
134,1778619449.7601185,0.73571366,-0.6213777,-0.23379412,3.1416776,1.820377,-0.8061888
135,1778619449.7702117,0.73571366,-0.6213777,-0.23379412,3.1416776,1.820377,-0.8061888
136,1778619449.7802126,0.73571366,-0.6213777,-0.23379412,3.1416776,1.820377,-0.8061888
137,1778619449.7902136,0.46667355,-0.5099078,-0.3167258,2.9156575,0.092851445,-0.23136504
138,1778619449.800214,0.46667355,-0.5099078,-0.3167258,2.9156575,0.092851445,-0.23136504
139,1778619449.8102155,0.46667355,-0.5099078,-0.3167258,2.9156575,0.092851445,-0.23136504
140,1778619449.8202164,0.46667355,-0.5099078,-0.3167258,2.846019,-0.34452772,-0.15622866
141,1778619449.8302171,0.46667355,-0.5099078,-0.3167258,2.846019,-0.34452772,-0.15622866
142,1778619449.8402185,0.46667355,-0.5099078,-0.3167258,2.846019,-0.34452772,-0.15622866
143,1778619449.8502197,0.46667355,-0.5099078,-0.3167258,2.846019,-0.34452772,-0.15622866
144,1778619449.860221,0.46667355,-0.5099078,-0.3167258,2.846019,-0.34452772,-0.15622866
145,1778619449.8702226,0.33154374,-0.51990837,-0.27940655,2.846019,-0.34452772,-0.15622866
146,1778619449.8802311,0.33154374,-0.51990837,-0.27940655,2.846019,-0.34452772,-0.15622866
147,1778619449.890234,0.33154374,-0.51990837,-0.27940655,2.846019,-0.34452772,-0.15622866
148,1778619449.9002347,0.33154374,-0.51990837,-0.27940655,2.846019,-0.34452772,-0.15622866
149,1778619449.910237,0.33154374,-0.51990837,-0.27940655,2.846019,-0.34452772,-0.15622866
150,1778619449.9202387,0.33154374,-0.51990837,-0.27940655,2.846019,-0.34452772,-0.15622866
151,1778619449.93024,0.22812307,-0.5477149,-0.25257573,2.6774204,-0.5503892,-0.07192933
152,1778619449.9402404,0.22812307,-0.5477149,-0.25257573,2.6774204,-0.5503892,-0.07192933
153,1778619449.950241,0.22812307,-0.5477149,-0.25257573,2.6774204,-0.5503892,-0.07192933
154,1778619449.9602423,-0.62778056,-1.0177423,-0.46966153,-0.18448116,-1.0677916,1.6048945
155,1778619449.970243,-0.62778056,-1.0177423,-0.46966153,-0.18448116,-1.0677916,1.6048945
156,1778619449.9802442,-0.62778056,-1.0177423,-0.46966153,-0.18448116,-1.0677916,1.6048945
157,1778619449.9902456,-0.62778056,-1.0177423,-0.46966153,-0.18448116,-1.0677916,1.6048945
158,1778619450.0002465,-0.62778056,-1.0177423,-0.46966153,-0.18448116,-1.0677916,1.6048945
159,1778619450.0102472,-0.43508637,-1.0833559,-0.24696562,-0.18448116,-1.0677916,1.6048945
160,1778619450.0203722,-0.43508637,-1.0833559,-0.24696562,-0.18448116,-1.0677916,1.6048945
161,1778619450.0303729,-0.43508637,-1.0833559,-0.24696562,-0.18448116,-1.0677916,1.6048945
162,1778619450.0403738,-0.22165927,-1.047744,-0.009634708,-0.32253662,-1.6065744,1.9781328
163,1778619450.050375,-0.22165927,-1.047744,-0.009634708,-0.32253662,-1.6065744,1.9781328
164,1778619450.0603755,-0.22165927,-1.047744,-0.009634708,-0.32253662,-1.6065744,1.9781328
165,1778619450.0703762,-0.22165927,-1.047744,-0.009634708,-0.32253662,-1.6065744,1.9781328
166,1778619450.0803766,-0.22165927,-1.047744,-0.009634708,-0.32253662,-1.6065744,1.9781328
167,1778619450.0903776,0.65253806,-1.0731114,-0.15622863,-2.8124216,-0.021380268,1.7276783
168,1778619450.1003785,0.8484031,-1.0494515,-0.21379296,-2.8124216,-0.021380268,1.7276783
169,1778619450.110379,0.8484031,-1.0494515,-0.21379296,-2.8124216,-0.021380268,1.7276783
170,1778619450.12038,0.8484031,-1.0494515,-0.21379296,-3.2467463,0.45326167,1.5877903
171,1778619450.130385,1.0942712,-1.0426219,-0.43136662,-3.8215702,0.69516414,1.4747803
172,1778619450.1403868,1.0942712,-1.0426219,-0.43136662,-3.8215702,0.69516414,1.4747803
173,1778619450.1503894,1.0942712,-1.0426219,-0.43136662,-3.8215702,0.69516414,1.4747803
174,1778619450.1603928,1.320138,-1.0904295,-0.53551906,-4.883253,-0.020158539,1.643379
175,1778619450.1703944,1.320138,-1.0904295,-0.53551906,-4.883253,-0.020158539,1.643379
176,1778619450.1803956,1.320138,-1.0904295,-0.53551906,-4.883253,-0.020158539,1.643379
177,1778619450.1903963,1.320138,-1.0904295,-0.53551906,-4.883253,-0.020158539,1.643379
178,1778619450.200397,2.6692412,0.60015696,0.9970094,-1.789223,0.043982264,2.1552837
179,1778619450.2103984,2.6692412,0.60015696,0.9970094,-1.789223,0.043982264,2.1552837
180,1778619450.2203996,2.6692412,0.60015696,0.9970094,-1.789223,0.043982264,2.1552837
181,1778619450.2304006,2.6692412,0.60015696,0.9970094,-1.789223,0.043982264,2.1552837
182,1778619450.240402,2.6692412,0.60015696,0.9970094,-1.789223,0.043982264,2.1552837
183,1778619450.250403,2.6692412,0.60015696,0.9970094,-1.789223,0.043982264,2.1552837
184,1778619450.2604036,1.3977034,0.7374821,0.41185328,-1.1777472,0.6359102,1.3086251
185,1778619450.2704046,1.1559821,0.72796935,0.31038398,-1.1777472,0.6359102,1.3086251
186,1778619450.2804053,1.1559821,0.72796935,0.31038398,-1.1777472,0.6359102,1.3086251
187,1778619450.2904062,1.1559821,0.72796935,0.31038398,-1.1869103,0.61147565,1.2194388
188,1778619450.300407,1.1559821,0.72796935,0.31038398,-1.1869103,0.61147565,1.2194388
189,1778619450.310408,1.1559821,0.72796935,0.31038398,-1.2119557,0.5051852,1.1302526
190,1778619450.3204088,1.1559821,0.72796935,0.31038398,-1.2119557,0.5051852,1.1302526
191,1778619450.3304093,1.1559821,0.72796935,0.31038398,-1.2119557,0.5051852,1.1302526
192,1778619450.34041,0.8005955,0.7713865,0.2652594,-1.2119557,0.5051852,1.1302526
193,1778619450.3504112,0.8005955,0.7713865,0.2652594,-1.2119557,0.35491243,1.0099123
194,1778619450.360412,0.8005955,0.7713865,0.2652594,-1.2119557,0.35491243,1.0099123
195,1778619450.3704126,0.72522527,0.83260953,0.28379703,-1.1630865,0.23457208,0.8590286
196,1778619450.380421,0.68132025,0.87919766,0.2872119,-1.1050544,0.17837252,0.73013616
197,1778619450.3904247,0.68132025,0.87919766,0.2872119,-1.1050544,0.17837252,0.73013616
198,1778619450.4004264,0.25739306,1.0045708,0.3150184,-0.5870411,0.17470732,-0.23747368
199,1778619450.4106867,0.25739306,1.0045708,0.3150184,-0.5870411,0.17470732,-0.23747368
200,1778619450.4206872,0.25739306,1.0045708,0.3150184,-0.5870411,0.17470732,-0.23747368
201,1778619450.4306974,0.25739306,1.0045708,0.3150184,-0.5870411,0.17470732,-0.23747368
202,1778619450.4407012,0.25739306,1.0045708,0.3150184,-0.5870411,0.17470732,-0.23747368
203,1778619450.4507017,0.25739306,1.0045708,0.3150184,-0.5870411,0.17470732,-0.23747368
204,1778619450.4607022,0.25739306,1.0045708,0.3150184,-0.5870411,0.17470732,-0.23747368
205,1778619450.470703,0.25739306,1.0045708,0.3150184,-0.5870411,0.17470732,-0.23747368
206,1778619450.4807036,0.1847059,0.9357863,0.3259946,-0.027488915,0.32925612,-0.8678861
207,1778619450.4907043,0.1847059,0.9357863,0.3259946,-0.027488915,0.32925612,-0.8678861
208,1778619450.5007045,0.1847059,0.9357863,0.3259946,-0.027488915,0.32925612,-0.8678861
209,1778619450.5107055,0.43472052,0.7650446,0.27916262,1.1551453,0.3536907,-1.4353795
210,1778619450.520707,0.43472052,0.7650446,0.27916262,1.1551453,0.3536907,-1.4353795
211,1778619450.5307076,0.43472052,0.7650446,0.27916262,1.1551453,0.3536907,-1.4353795
212,1778619450.540708,0.24568506,0.71943223,0.25355136,1.1551453,0.3536907,-1.4353795
213,1778619450.5507092,1.4867331,0.6411349,0.50429773,2.0665555,0.194255,-2.476904
214,1778619450.56071,1.4867331,0.6411349,0.50429773,2.0665555,0.194255,-2.476904
215,1778619450.5707104,1.4867331,0.6411349,0.50429773,1.897346,0.40989026,-2.427424
216,1778619450.5807114,1.4867331,0.6411349,0.50429773,1.897346,0.40989026,-2.427424
217,1778619450.5907118,1.4867331,0.6411349,0.50429773,1.897346,0.40989026,-2.427424
218,1778619450.6007128,1.4867331,0.6411349,0.50429773,1.897346,0.40989026,-2.427424
219,1778619450.6107135,1.4867331,0.6411349,0.50429773,1.897346,0.40989026,-2.427424
220,1778619450.6207144,1.4867331,0.6411349,0.50429773,1.897346,0.40989026,-2.427424
221,1778619450.6307156,1.4867331,0.6411349,0.50429773,1.897346,0.40989026,-2.427424
222,1778619450.6407166,1.4867331,0.6411349,0.50429773,1.897346,0.40989026,-2.427424
223,1778619450.6507173,1.4867331,0.6411349,0.50429773,1.897346,0.40989026,-2.427424
224,1778619450.6607254,2.3431246,0.6338175,0.57478964,1.8918482,0.40194902,-2.1934626
225,1778619450.6707292,2.3431246,0.6338175,0.57478964,1.8918482,0.40194902,-2.1934626
226,1778619450.6807296,2.3431246,0.6338175,0.57478964,1.8918482,0.40194902,-2.1934626
227,1778619450.6907303,2.3431246,0.6338175,0.57478964,1.8918482,0.40194902,-2.1934626
228,1778619450.7007308,3.0695083,-0.3738023,0.5389339,2.393979,0.19547673,-3.348608
229,1778619450.7107315,3.0695083,-0.3738023,0.5389339,2.393979,0.19547673,-3.348608
230,1778619450.720732,3.0695083,-0.3738023,0.5389339,2.393979,0.19547673,-3.348608
231,1778619450.7307324,2.8524225,-0.5374704,0.45307523,2.393979,0.19547673,-3.348608
232,1778619450.7407334,2.8524225,-0.5374704,0.45307523,2.393979,0.19547673,-3.348608
233,1778619450.7507353,2.8524225,-0.5374704,0.45307523,2.393979,0.19547673,-3.348608
234,1778619450.7607372,2.1592114,-0.74797046,0.32379937,1.9718715,0.5558869,-3.086547
235,1778619450.770738,2.1592114,-0.74797046,0.32379937,1.9718715,0.5558869,-3.086547
236,1778619450.780738,2.1592114,-0.74797046,0.32379937,1.9718715,0.5558869,-3.086547
237,1778619450.7907393,1.8245578,-0.7599224,0.2716012,1.9718715,0.5558869,-3.086547
238,1778619450.8007479,1.8245578,-0.7599224,0.2716012,1.9718715,0.5558869,-3.086547
239,1778619450.8107507,1.8245578,-0.7599224,0.2716012,1.9718715,0.5558869,-3.086547
240,1778619450.8207514,1.507222,-0.758215,0.21940304,1.6108505,0.93828833,-2.712087
241,1778619450.830752,1.507222,-0.758215,0.21940304,1.6108505,0.93828833,-2.712087
242,1778619450.8407528,1.507222,-0.758215,0.21940304,1.6108505,0.93828833,-2.712087
243,1778619450.8507543,1.2540365,-0.7774844,0.12720254,1.4740167,1.088561,-2.5159993
244,1778619450.860755,1.2540365,-0.7774844,0.12720254,1.4740167,1.088561,-2.5159993
245,1778619450.870756,1.2540365,-0.7774844,0.12720254,1.4740167,1.088561,-2.5159993
246,1778619450.8807635,1.0228037,-0.83090216,0.019391375,1.4740167,1.088561,-2.5159993
247,1778619450.8907645,1.0228037,-0.83090216,0.019391375,1.4740167,1.088561,-2.5159993
248,1778619450.9007657,1.0228037,-0.83090216,0.019391375,1.4740167,1.088561,-2.5159993
249,1778619450.910769,1.0228037,-0.83090216,0.019391375,1.3518437,1.1398736,-2.3217442
250,1778619450.9207706,1.0228037,-0.83090216,0.019391375,1.3518437,1.1398736,-2.3217442
251,1778619450.9307718,1.0228037,-0.83090216,0.019391375,1.3518437,1.1398736,-2.3217442
252,1778619450.9407725,0.6420496,-0.9091994,-0.14671588,1.2473859,1.0879502,-2.0987787
253,1778619450.950773,0.6420496,-0.9091994,-0.14671588,1.2473859,1.0879502,-2.0987787
254,1778619450.9607735,0.6420496,-0.9091994,-0.14671588,1.2473859,1.0879502,-2.0987787
255,1778619450.970774,0.6420496,-0.9091994,-0.14671588,1.2473859,1.0879502,-2.0987787
256,1778619450.9807749,0.3120304,-1.0053025,-0.37307054,1.0629047,0.69333154,-1.8012875
257,1778619450.9907756,0.3120304,-1.0053025,-0.37307054,1.0629047,0.69333154,-1.8012875
258,1778619451.0007763,0.3120304,-1.0053025,-0.37307054,1.0629047,0.69333154,-1.8012875
259,1778619451.010777,0.110311314,-1.0335969,-0.42551264,1.0629047,0.69333154,-1.8012875
260,1778619451.0207775,0.110311314,-1.0335969,-0.42551264,1.0629047,0.69333154,-1.8012875
261,1778619451.0307782,0.110311314,-1.0335969,-0.42551264,1.0629047,0.69333154,-1.8012875
262,1778619451.0407796,-0.30190787,-1.100674,-0.06695513,0.22296564,-0.56260645,-0.15622866
263,1778619451.050789,-0.30190787,-1.100674,-0.06695513,0.22296564,-0.56260645,-0.15622866
264,1778619451.0607927,-0.30190787,-1.100674,-0.06695513,0.22296564,-0.56260645,-0.15622866
265,1778619451.0707936,-0.30190787,-1.100674,-0.06695513,0.22296564,-0.56260645,-0.15622866
266,1778619451.0807943,-0.30190787,-1.100674,-0.06695513,0.22296564,-0.56260645,-0.15622866
267,1778619451.090795,-0.30190787,-1.100674,-0.06695513,0.22296564,-0.56260645,-0.15622866
268,1778619451.1007957,-0.30190787,-1.100674,-0.06695513,0.22296564,-0.56260645,-0.15622866
269,1778619451.111588,-0.30190787,-1.100674,-0.06695513,0.22296564,-0.56260645,-0.15622866
270,1778619451.1215951,-0.30190787,-1.100674,-0.06695513,0.22296564,-0.56260645,-0.15622866
271,1778619451.1315958,-0.30190787,-1.100674,-0.06695513,0.22296564,-0.56260645,-0.15622866
272,1778619451.1415966,-0.30190787,-1.100674,-0.06695513,0.22296564,-0.56260645,-0.15622866
273,1778619451.1515973,-0.30190787,-1.100674,-0.06695513,0.09040799,-0.4581486,0.057574004
274,1778619451.1615992,-0.38849828,-1.1221386,-0.2025728,-0.2357938,-0.4508182,0.40149087
275,1778619451.1715999,-0.38849828,-1.1221386,-0.2025728,-0.2357938,-0.4508182,0.40149087
276,1778619451.1816003,-0.38849828,-1.1221386,-0.2025728,-0.5442805,-0.6988293,0.6818778
277,1778619451.191601,-0.38849828,-1.1221386,-0.2025728,-0.5442805,-0.6988293,0.6818778
278,1778619451.201602,-0.38849828,-1.1221386,-0.2025728,-0.5442805,-0.6988293,0.6818778
279,1778619451.2116032,-0.39801103,-1.1165286,-0.32453114,-0.5442805,-0.6988293,0.6818778
280,1778619451.2216053,-0.36410663,-1.1226264,-0.30623737,-0.5442805,-0.6988293,0.6818778
281,1778619451.2316067,-0.36410663,-1.1226264,-0.30623737,-0.5442805,-0.6988293,0.6818778
282,1778619451.241608,-0.36410663,-1.1226264,-0.30623737,-0.5442805,-0.6988293,0.6818778
283,1778619451.2516086,-0.36410663,-1.1226264,-0.30623737,-0.5442805,-0.6988293,0.6818778
284,1778619451.2616096,-0.36410663,-1.1226264,-0.30623737,-0.5442805,-0.6988293,0.6818778
285,1778619451.271611,-0.36410663,-1.1226264,-0.30623737,-0.5442805,-0.6988293,0.6818778
286,1778619451.281612,-0.36410663,-1.1226264,-0.30623737,-0.5442805,-0.6988293,0.6818778
287,1778619451.2916129,-0.36410663,-1.1226264,-0.30623737,-0.5442805,-0.6988293,0.6818778
288,1778619451.3016136,-0.36410663,-1.1226264,-0.30623737,-1.0183116,-1.0366375,1.0813833
289,1778619451.311614,-0.36410663,-1.1226264,-0.30623737,-1.0183116,-1.0366375,1.0813833
290,1778619451.3216147,-0.36410663,-1.1226264,-0.30623737,-1.0183116,-1.0366375,1.0813833
291,1778619451.3316157,-0.36410663,-1.1226264,-0.30623737,-1.0183116,-1.0366375,1.0813833
292,1778619451.3416162,-0.36410663,-1.1226264,-0.30623737,-1.0183116,-1.0366375,1.0813833
293,1778619451.3516183,-0.307274,-1.1157968,-0.20037755,-1.0183116,-1.0366375,1.0813833
294,1778619451.3616195,-0.307274,-1.1157968,-0.20037755,-1.0183116,-1.0366375,1.0813833
295,1778619451.3716204,-0.2119026,-1.1336027,-0.08110229,-1.0183116,-1.0366375,1.0813833
296,1778619451.381621,-0.2119026,-1.1336027,-0.08110229,-1.0183116,-1.0366375,1.0813833
297,1778619451.3916218,-0.2119026,-1.1336027,-0.08110229,-1.0183116,-1.0366375,1.0813833
298,1778619451.4016223,-0.2119026,-1.1336027,-0.08110229,-1.0183116,-1.0366375,1.0813833
299,1778619451.411623,-0.2119026,-1.1336027,-0.08110229,-1.0183116,-1.0366375,1.0813833
300,1778619451.4216237,-0.2119026,-1.1336027,-0.08110229,-1.0183116,-1.0366375,1.0813833
301,1778619451.4316244,-0.2119026,-1.1336027,-0.08110229,-1.0183116,-1.0366375,1.0813833
302,1778619451.441625,-0.2119026,-1.1336027,-0.08110229,-1.0183116,-1.0366375,1.0813833
303,1778619451.4516265,-0.2119026,-1.1336027,-0.08110229,-1.0183116,-1.0366375,1.0813833
304,1778619451.4616284,-0.2119026,-1.1336027,-0.08110229,-1.0183116,-1.0366375,1.0813833
305,1778619451.4720483,-0.15116736,-1.1440911,-0.0045124586,-1.4312562,-0.8991929,1.4039199
306,1778619451.4820507,-0.15116736,-1.1440911,-0.0045124586,-1.4312562,-0.8991929,1.4039199
307,1778619451.4920526,-0.15116736,-1.1440911,-0.0045124586,-1.4312562,-0.8991929,1.4039199
308,1778619451.502054,-0.15116736,-1.1440911,-0.0045124586,-1.4312562,-0.8991929,1.4039199
309,1778619451.5120566,-0.15116736,-1.1440911,-0.0045124586,-1.4312562,-0.8991929,1.4039199
310,1778619451.5220768,-0.15116736,-1.1440911,-0.0045124586,-1.4312562,-0.8991929,1.4039199
311,1778619451.5320773,-0.15116736,-1.1440911,-0.0045124586,-1.4312562,-0.8991929,1.4039199
312,1778619451.5420783,-0.15116736,-1.1440911,-0.0045124586,-1.4312562,-0.8991929,1.4039199
313,1778619451.5520792,-0.087017275,-1.1155529,0.07939488,-1.4312562,-0.8991929,1.4039199
314,1778619451.5621588,-0.087017275,-1.1155529,0.07939488,-1.4312562,-0.8991929,1.4039199
315,1778619451.5721598,-0.087017275,-1.1155529,0.07939488,-1.4312562,-0.8991929,1.4039199
316,1778619451.5821621,0.08835881,-1.1021374,-0.07719963,-2.2528694,-0.018325943,2.0935862
317,1778619451.5921638,0.08835881,-1.1021374,-0.07719963,-2.2528694,-0.018325943,2.0935862
318,1778619451.602165,0.08835881,-1.1021374,-0.07719963,-2.2528694,-0.018325943,2.0935862
319,1778619451.6121745,0.7498608,-1.0384753,-0.2057437,-3.536907,-0.008552107,2.3360996
320,1778619451.6221776,0.7498608,-1.0384753,-0.2057437,-3.536907,-0.008552107,2.3360996
321,1778619451.6321785,0.7498608,-1.0384753,-0.2057437,-3.536907,-0.008552107,2.3360996
322,1778619451.6421788,0.7498608,-1.0384753,-0.2057437,-3.536907,-0.008552107,2.3360996
323,1778619451.652467,0.7498608,-1.0384753,-0.2057437,-3.536907,-0.008552107,2.3360996
324,1778619451.6624675,0.7498608,-1.0384753,-0.2057437,-3.536907,-0.008552107,2.3360996
325,1778619451.6724682,0.7498608,-1.0384753,-0.2057437,-3.536907,-0.008552107,2.3360996
326,1778619451.682469,1.194033,-1.0760384,-0.17110755,-3.839896,-0.3970621,2.5639522
327,1778619451.6924698,1.194033,-1.0760384,-0.17110755,-3.839896,-0.3970621,2.5639522
328,1778619451.7024703,1.194033,-1.0760384,-0.17110755,-3.839896,-0.3970621,2.5639522
329,1778619451.712471,1.194033,-1.0760384,-0.17110755,-3.839896,-0.3970621,2.5639522
330,1778619451.722481,2.2682421,-1.021889,0.3867299,-3.713447,-1.7189735,3.7697992
331,1778619451.7324848,2.2682421,-1.021889,0.3867299,-3.713447,-1.7189735,3.7697992
332,1778619451.7428281,2.2682421,-1.021889,0.3867299,-3.713447,-1.7189735,3.7697992
333,1778619451.752829,2.7333913,-0.81529146,0.6928453,-3.713447,-1.7189735,3.7697992
334,1778619451.76283,2.7333913,-0.81529146,0.6928453,-3.713447,-1.7189735,3.7697992
335,1778619451.7728307,2.7333913,-0.81529146,0.6928453,-3.321272,-1.7061453,4.029417
336,1778619451.7828312,2.7333913,-0.81529146,0.6928453,-3.321272,-1.7061453,4.029417
337,1778619451.792833,3.4246511,-0.071589544,1.0848193,-2.4037528,-1.2626575,3.856542
338,1778619451.8028345,3.4246511,-0.071589544,1.0848193,-2.4037528,-1.2626575,3.856542
339,1778619451.8128352,3.4246511,-0.071589544,1.0848193,-2.4037528,-1.2626575,3.856542
340,1778619451.8228364,2.549478,0.45283127,0.6918696,-2.0341797,0.1178969,3.00744
341,1778619451.833051,2.549478,0.45283127,0.6918696,-2.0341797,0.1178969,3.00744
342,1778619451.8430514,2.549478,0.45283127,0.6918696,-2.0341797,0.1178969,3.00744
343,1778619451.853053,2.549478,0.45283127,0.6918696,-2.0341797,0.1178969,3.00744
344,1778619451.8630538,2.549478,0.45283127,0.6918696,-2.0341797,0.1178969,3.00744
345,1778619451.8730543,2.549478,0.45283127,0.6918696,-2.0341797,0.1178969,3.00744
346,1778619451.8830552,2.1084766,0.5177131,0.5247867,-2.4355178,0.8949169,2.7759223
347,1778619451.8930554,2.1084766,0.5177131,0.5247867,-2.4355178,0.8949169,2.7759223
348,1778619451.9030564,2.1084766,0.5177131,0.5247867,-2.4355178,0.8949169,2.7759223
349,1778619451.9130578,2.1084766,0.5177131,0.5247867,-2.4355178,0.8949169,2.7759223
350,1778619451.9230585,2.1084766,0.5177131,0.5247867,-2.4355178,0.8949169,2.7759223
351,1778619451.9330597,0.82669455,1.0306699,0.3996575,-1.0323615,0.28710645,0.56275916
352,1778619451.9430604,0.82669455,1.0306699,0.3996575,-1.0323615,0.28710645,0.56275916
353,1778619451.9530692,0.82669455,1.0306699,0.3996575,-1.0323615,0.28710645,0.56275916
354,1778619451.9630759,0.7181517,1.0611595,0.3679483,-1.0323615,0.28710645,0.56275916
355,1778619451.9730775,0.7181517,1.0611595,0.3679483,-1.0323615,0.28710645,0.56275916
356,1778619451.983078,0.7181517,1.0611595,0.3679483,-1.0323615,0.28710645,0.56275916
357,1778619451.993079,0.7181517,1.0611595,0.3679483,-1.0323615,0.28710645,0.56275916
358,1778619452.0030797,0.7181517,1.0611595,0.3679483,-1.0323615,0.28710645,0.56275916
359,1778619452.0130806,0.7181517,1.0611595,0.3679483,-1.0323615,0.28710645,0.56275916
360,1778619452.023082,0.7181517,1.0611595,0.3679483,-0.9908227,0.32864526,0.36239552
361,1778619452.033083,0.7181517,1.0611595,0.3679483,-0.9908227,0.32864526,0.36239552
362,1778619452.0430846,0.7181517,1.0611595,0.3679483,-0.9908227,0.32864526,0.36239552
363,1778619452.053086,0.7181517,1.0611595,0.3679483,-0.9908227,0.32864526,0.36239552
364,1778619452.0630867,0.7181517,1.0611595,0.3679483,-0.9908227,0.32864526,0.36239552
365,1778619452.073088,0.62156063,1.0892099,0.36989963,-0.8374956,0.478918,-0.1385136
366,1778619452.083098,0.53009194,1.0904295,0.3574599,-0.8374956,0.478918,-0.1385136
367,1778619452.0931013,0.53009194,1.0904295,0.3574599,-0.8374956,0.478918,-0.1385136
368,1778619452.1031027,0.53009194,1.0904295,0.3574599,-0.8374956,0.478918,-0.1385136
369,1778619452.1131034,0.53009194,1.0904295,0.3574599,-0.8374956,0.478918,-0.1385136
370,1778619452.1231046,0.53009194,1.0904295,0.3574599,-0.8374956,0.478918,-0.1385136
371,1778619452.1331058,0.53009194,1.0904295,0.3574599,-0.8374956,0.478918,-0.1385136
372,1778619452.1431067,0.53009194,1.0904295,0.3574599,-0.8374956,0.478918,-0.1385136
373,1778619452.1531117,0.57302123,0.7138221,0.22111045,1.0384701,0.44470957,-1.424384
374,1778619452.1631138,0.57302123,0.7138221,0.22111045,1.0384701,0.44470957,-1.424384
375,1778619452.1731155,0.57302123,0.7138221,0.22111045,1.0384701,0.44470957,-1.424384
376,1778619452.183117,0.57302123,0.7138221,0.22111045,1.0384701,0.44470957,-1.424384
377,1778619452.193118,0.8759658,0.5764971,0.28794363,1.4086542,0.16493349,-1.5355613
378,1778619452.2031195,0.8759658,0.5764971,0.28794363,1.4086542,0.16493349,-1.5355613
379,1778619452.2131205,1.4652684,0.54259264,0.35575247,2.137416,-0.1594357,-1.5129594
380,1778619452.2231212,1.4652684,0.54259264,0.35575247,2.137416,-0.1594357,-1.5129594
381,1778619452.2331223,1.4652684,0.54259264,0.35575247,2.137416,-0.1594357,-1.5129594
382,1778619452.2431245,1.4652684,0.54259264,0.35575247,2.137416,-0.1594357,-1.5129594
383,1778619452.2531276,1.4652684,0.54259264,0.35575247,2.137416,-0.1594357,-1.5129594
384,1778619452.2631307,1.4652684,0.54259264,0.35575247,2.137416,-0.1594357,-1.5129594
385,1778619452.273132,1.4652684,0.54259264,0.35575247,2.137416,-0.1594357,-1.5129594
386,1778619452.2831333,1.4652684,0.54259264,0.35575247,2.137416,-0.1594357,-1.5129594
387,1778619452.2931345,1.4652684,0.54259264,0.35575247,2.137416,-0.1594357,-1.5129594
388,1778619452.303136,1.4652684,0.54259264,0.35575247,2.137416,-0.1594357,-1.5129594
389,1778619452.313137,1.4652684,0.54259264,0.35575247,2.137416,-0.1594357,-1.5129594
390,1778619452.323138,1.3508716,-0.8757828,0.33648303,0.78862643,0.6065887,-3.2343762
391,1778619452.3331466,1.3508716,-0.8757828,0.33648303,0.78862643,0.6065887,-3.2343762
392,1778619452.34315,1.3508716,-0.8757828,0.33648303,0.78862643,0.6065887,-3.2343762
393,1778619452.3531513,1.0815874,-0.860416,0.29550505,0.7617484,0.82344574,-3.0621123
394,1778619452.3631527,1.0815874,-0.860416,0.29550505,0.7617484,0.82344574,-3.0621123
395,1778619452.3731546,1.0815874,-0.860416,0.29550505,0.7617484,0.82344574,-3.0621123
396,1778619452.3831553,-0.38923004,-0.9228587,-0.41624376,-0.38117963,-0.2913825,-0.5923861
397,1778619452.3931563,-0.38923004,-0.9228587,-0.41624376,-0.38117963,-0.2913825,-0.5923861
398,1778619452.4031572,-0.38923004,-0.9228587,-0.41624376,-0.38117963,-0.2913825,-0.5923861
399,1778619452.4131584,-0.35776478,-0.92700535,-0.41941473,-1.0262529,-0.47586367,-0.22220206
400,1778619452.4234936,-0.35776478,-0.92700535,-0.41941473,-1.0262529,-0.47586367,-0.22220206
401,1778619452.4335103,-0.35776478,-0.92700535,-0.41941473,-1.0262529,-0.47586367,-0.22220206
402,1778619452.4435205,2.0543272,-0.71430993,0.71967614,-4.9718285,-1.8967352,2.5841107
403,1778619452.4535213,2.0543272,-0.71430993,0.71967614,-4.9718285,-1.8967352,2.5841107
404,1778619452.4635222,2.0543272,-0.71430993,0.71967614,-4.9718285,-1.8967352,2.5841107
405,1778619452.4735308,2.0543272,-0.71430993,0.71967614,-4.9718285,-1.8967352,2.5841107
406,1778619452.4835346,2.0543272,-0.71430993,0.71967614,-4.9718285,-1.8967352,2.5841107
407,1778619452.4935367,2.0543272,-0.71430993,0.71967614,-4.9718285,-1.8967352,2.5841107
408,1778619452.5035377,2.0543272,-0.71430993,0.71967614,-4.9718285,-1.8967352,2.5841107
409,1778619452.5137122,2.0543272,-0.71430993,0.71967614,-4.9718285,-1.8967352,2.5841107
410,1778619452.5237129,2.0543272,-0.71430993,0.71967614,-4.9718285,-1.8967352,2.5841107
411,1778619452.5337136,2.0543272,-0.71430993,0.71967614,-4.9718285,-1.8967352,2.5841107
412,1778619452.5437143,2.0543272,-0.71430993,0.71967614,-4.9718285,-1.8967352,2.5841107
413,1778619452.5537155,2.7675395,-0.028904125,1.5594813,-4.034762,-1.8918482,3.1088436
414,1778619452.5637162,2.7675395,-0.028904125,1.5594813,-4.034762,-1.8918482,3.1088436
415,1778619452.5737166,2.7675395,-0.028904125,1.5594813,-4.034762,-1.8918482,3.1088436
416,1778619452.583718,2.7675395,-0.028904125,1.5594813,-3.3457065,-1.5234967,3.129002
417,1778619452.5937188,2.7675395,-0.028904125,1.5594813,-3.3457065,-1.5234967,3.129002
418,1778619452.6040847,2.7597342,0.1381788,1.4706956,-3.3457065,-1.5234967,3.129002
419,1778619452.6140854,2.7597342,0.1381788,1.4706956,-3.3457065,-1.5234967,3.129002
420,1778619452.6240864,2.7597342,0.1381788,1.4706956,-3.3457065,-1.5234967,3.129002
421,1778619452.634087,2.7597342,0.1381788,1.4706956,-2.710407,-1.1490366,3.0312638
422,1778619452.6440957,2.7597342,0.1381788,1.4706956,-1.8484768,-0.5369501,2.645808
423,1778619452.6540992,2.7597342,0.1381788,1.4706956,-1.8484768,-0.5369501,2.645808
424,1778619452.6641004,2.7597342,0.1381788,1.4706956,-1.8484768,-0.5369501,2.645808
425,1778619452.6741009,2.7597342,0.1381788,1.4706956,-1.8484768,-0.5369501,2.645808
426,1778619452.6841018,2.7597342,0.1381788,1.4706956,-1.8484768,-0.5369501,2.645808
427,1778619452.6941047,2.7597342,0.1381788,1.4706956,-1.8484768,-0.5369501,2.645808
428,1778619452.7041075,2.7597342,0.1381788,1.4706956,-1.8484768,-0.5369501,2.645808
429,1778619452.7141085,2.5124028,0.3240433,1.1845813,-1.9578216,-0.67744905,2.705062
430,1778619452.7241118,2.5124028,0.3240433,1.1845813,-1.9578216,-0.67744905,2.705062
431,1778619452.7341132,2.5124028,0.3240433,1.1845813,-1.9578216,-0.67744905,2.705062
432,1778619452.7441142,2.3467832,0.41136545,1.0809166,-1.9578216,-0.67744905,2.705062
433,1778619452.754124,2.3467832,0.41136545,1.0809166,-1.9578216,-0.67744905,2.705062
434,1778619452.7641273,2.3467832,0.41136545,1.0809166,-1.9578216,-0.67744905,2.705062
435,1778619452.7741284,2.3467832,0.41136545,1.0809166,-1.9578216,-0.67744905,2.705062
436,1778619452.7841294,2.3467832,0.41136545,1.0809166,-1.7806709,-0.37201664,2.5914412
437,1778619452.79413,2.3467832,0.41136545,1.0809166,-1.7806709,-0.37201664,2.5914412
438,1778619452.804131,2.3467832,0.41136545,1.0809166,-1.7806709,-0.37201664,2.5914412
439,1778619452.8141336,2.3467832,0.41136545,1.0809166,-1.7806709,-0.37201664,2.5914412
440,1778619452.8241355,2.3467832,0.41136545,1.0809166,-1.7806709,-0.37201664,2.5914412
441,1778619452.8341367,2.090183,0.5440562,0.9750569,-1.757458,-0.10079269,2.4869833
442,1778619452.844138,2.090183,0.5440562,0.9750569,-1.757458,-0.10079269,2.4869833
443,1778619452.8541386,2.090183,0.5440562,0.9750569,-1.757458,-0.10079269,2.4869833
444,1778619452.8641396,2.090183,0.5440562,0.9750569,-1.757458,-0.10079269,2.4869833
445,1778619452.8741403,2.090183,0.5440562,0.9750569,-1.757458,-0.10079269,2.4869833
446,1778619452.8841412,2.090183,0.5440562,0.9750569,-1.757458,-0.10079269,2.4869833
447,1778619452.894142,2.090183,0.5440562,0.9750569,-1.757458,-0.10079269,2.4869833
448,1778619452.9041426,2.090183,0.5440562,0.9750569,-1.757458,-0.10079269,2.4869833
449,1778619452.9141436,2.090183,0.5440562,0.9750569,-1.8319834,0.2150244,2.3128867
450,1778619452.92418,2.090183,0.5440562,0.9750569,-1.8319834,0.2150244,2.3128867
451,1778619452.9341822,2.090183,0.5440562,0.9750569,-1.8319834,0.2150244,2.3128867
452,1778619452.9443364,2.090183,0.5440562,0.9750569,-1.8319834,0.2150244,2.3128867
453,1778619452.95446,1.7072337,0.5411291,0.72235924,-2.0164647,0.4734202,2.112523
454,1778619452.9644635,1.7072337,0.5411291,0.72235924,-2.0164647,0.4734202,2.112523
455,1778619452.9744644,1.7072337,0.5411291,0.72235924,-2.0164647,0.4734202,2.112523
456,1778619452.984465,1.7072337,0.5411291,0.72235924,-2.0164647,0.4734202,2.112523
457,1778619452.9944673,1.7072337,0.5411291,0.72235924,-2.0164647,0.4734202,2.112523
458,1778619453.0044699,1.7072337,0.5411291,0.72235924,-2.362214,0.69455326,1.8950553
459,1778619453.0144706,1.7072337,0.5411291,0.72235924,-2.362214,0.69455326,1.8950553
460,1778619453.0244713,1.7072337,0.5411291,0.72235924,-2.362214,0.69455326,1.8950553
461,1778619453.0346444,1.5240524,0.5001511,0.61674327,-2.362214,0.69455326,1.8950553
462,1778619453.044645,1.5240524,0.5001511,0.61674327,-2.362214,0.69455326,1.8950553
463,1778619453.054646,1.5240524,0.5001511,0.61674327,-2.362214,0.69455326,1.8950553
464,1778619453.064704,1.5240524,0.5001511,0.61674327,-2.362214,0.69455326,1.8950553
465,1778619453.0747077,1.5240524,0.5001511,0.61674327,-2.362214,0.69455326,1.8950553
466,1778619453.084709,1.5240524,0.5001511,0.61674327,-2.362214,0.69455326,1.8950553
467,1778619453.0947104,1.5240524,0.5001511,0.61674327,-2.362214,0.69455326,1.8950553
468,1778619453.1047115,0.36471638,0.28013828,0.4352693,-4.034762,1.4147629,0.32330018
469,1778619453.1147149,0.2566613,0.2759917,0.5013707,-4.034762,1.4147629,0.32330018
470,1778619453.1250012,0.2566613,0.2759917,0.5013707,-4.034762,1.4147629,0.32330018
471,1778619453.1350026,0.084212236,0.2711134,0.53673863,-1.2327251,0.9456187,0.36544985
472,1778619453.1450036,0.16080207,0.27355254,0.54210484,-1.2327251,0.9456187,0.36544985
473,1778619453.1550043,0.16080207,0.27355254,0.54210484,-1.2327251,0.9456187,0.36544985
474,1778619453.1650057,0.16080207,0.27355254,0.54210484,-3.108691,1.4715732,0.1375973
475,1778619453.1750093,0.16080207,0.27355254,0.54210484,-3.108691,1.4715732,0.1375973
476,1778619453.1850104,0.16080207,0.27355254,0.54210484,-3.108691,1.4715732,0.1375973
477,1778619453.1950111,0.16080207,0.27355254,0.54210484,-3.108691,1.4715732,0.1375973
478,1778619453.2050123,0.16080207,0.27355254,0.54210484,-3.108691,1.4715732,0.1375973
479,1778619453.21521,0.16080207,0.27355254,0.54210484,-3.108691,1.4715732,0.1375973
480,1778619453.2252107,0.16080207,0.27355254,0.54210484,-3.108691,1.4715732,0.1375973
481,1778619453.2352169,0.16080207,0.27355254,0.54210484,-3.108691,1.4715732,0.1375973
482,1778619453.245219,0.16080207,0.27355254,0.54210484,-3.108691,1.4715732,0.1375973
483,1778619453.2552197,0.16080207,0.27355254,0.54210484,-3.108691,1.4715732,0.1375973
484,1778619453.2653441,0.9359693,0.33989787,0.14817938,-3.108691,1.4715732,0.1375973
485,1778619453.2753463,0.9359693,0.33989787,0.14817938,-3.108691,1.4715732,0.1375973
486,1778619453.2853487,0.9359693,0.33989787,0.14817938,-3.108691,1.4715732,0.1375973
487,1778619453.2953496,0.9359693,0.33989787,0.14817938,-3.108691,1.4715732,0.1375973
488,1778619453.305351,0.9359693,0.33989787,0.14817938,-3.7733119,1.5161663,0.113162704
489,1778619453.3153522,2.7290006,0.18964522,0.40648714,0.24495678,-1.8246531,-2.3260205
490,1778619453.3253527,2.7290006,0.18964522,0.40648714,0.24495678,-1.8246531,-2.3260205
491,1778619453.3353543,2.7290006,0.18964522,0.40648714,0.24495678,-1.8246531,-2.3260205
492,1778619453.3453622,2.8992546,0.03719729,0.5142983,-0.15638138,-1.6365068,-2.6412265
493,1778619453.3553655,2.8992546,0.03719729,0.5142983,-0.15638138,-1.6365068,-2.6412265
494,1778619453.3653667,2.8992546,0.03719729,0.5142983,-0.15638138,-1.6365068,-2.6412265
495,1778619453.3753693,2.8992546,0.03719729,0.5142983,-0.15638138,-1.6365068,-2.6412265
496,1778619453.3853707,2.8992546,0.03719729,0.5142983,-0.15638138,-1.6365068,-2.6412265
497,1778619453.3953714,2.8992546,0.03719729,0.5142983,-0.15638138,-1.6365068,-2.6412265
498,1778619453.4053721,2.8992546,0.03719729,0.5142983,-0.15638138,-1.6365068,-2.6412265
499,1778619453.4153728,2.8992546,0.03719729,0.5142983,-0.15638138,-1.6365068,-2.6412265
500,1778619453.4254317,3.020481,-0.05963763,0.5791801,-0.5723803,-1.1905755,-2.7908885
501,1778619453.4354336,3.020481,-0.05963763,0.5791801,-0.5723803,-1.1905755,-2.7908885
502,1778619453.445434,3.2068334,-0.18403512,0.52405494,-1.3084724,-0.103236146,-3.1079273
503,1778619453.4554353,3.2068334,-0.18403512,0.52405494,-1.3084724,-0.103236146,-3.1079273
504,1778619453.4654362,3.2068334,-0.18403512,0.52405494,-1.3084724,-0.103236146,-3.1079273
505,1778619453.4754367,3.2068334,-0.18403512,0.52405494,-1.3084724,-0.103236146,-3.1079273
506,1778619453.4854596,3.2243955,-0.28672403,0.3694118,-1.7715079,0.67561644,-3.4671159
507,1778619453.4954631,3.2243955,-0.28672403,0.3694118,-1.7715079,0.67561644,-3.4671159
508,1778619453.5054643,3.2243955,-0.28672403,0.3694118,-1.7715079,0.67561644,-3.4671159
509,1778619453.5154648,3.2243955,-0.28672403,0.3694118,-1.7715079,0.67561644,-3.4671159
510,1778619453.525466,2.997309,-0.52064013,0.07329696,-2.398866,1.4960078,-4.2685704
511,1778619453.5354667,2.997309,-0.52064013,0.07329696,-2.398866,1.4960078,-4.2685704
512,1778619453.5454674,2.997309,-0.52064013,0.07329696,-2.398866,1.4960078,-4.2685704
513,1778619453.5556207,2.997309,-0.52064013,0.07329696,-2.398866,1.4960078,-4.2685704
514,1778619453.5656216,2.997309,-0.52064013,0.07329696,-2.398866,1.4960078,-4.2685704
515,1778619453.575622,2.997309,-0.52064013,0.07329696,-2.398866,1.4960078,-4.2685704
516,1778619453.5856233,2.997309,-0.52064013,0.07329696,-2.398866,1.4960078,-4.2685704
517,1778619453.595624,2.997309,-0.52064013,0.07329696,-2.398866,1.4960078,-4.2685704
518,1778619453.6056247,2.997309,-0.52064013,0.07329696,-2.398866,1.4960078,-4.2685704
519,1778619453.6156256,2.997309,-0.52064013,0.07329696,-2.398866,1.4960078,-4.2685704
520,1778619453.6256266,2.997309,-0.52064013,0.07329696,-2.398866,1.4960078,-4.2685704
521,1778619453.6356297,2.997309,-0.52064013,0.07329696,-2.398866,1.4960078,-4.2685704
522,1778619453.6458418,2.997309,-0.52064013,0.07329696,-2.484998,1.5442661,-4.369363
523,1778619453.6558423,2.997309,-0.52064013,0.07329696,-2.484998,1.5442661,-4.369363
524,1778619453.6658437,2.997309,-0.52064013,0.07329696,-2.484998,1.5442661,-4.369363
525,1778619453.6758475,2.997309,-0.52064013,0.07329696,-2.484998,1.5442661,-4.369363
526,1778619453.6858494,2.997309,-0.52064013,0.07329696,-2.484998,1.5442661,-4.369363
527,1778619453.6958506,2.8382754,-0.6260121,0.025489293,-2.484998,1.5442661,-4.369363
528,1778619453.705851,2.8382754,-0.6260121,0.025489293,-2.484998,1.5442661,-4.369363
529,1778619453.7158518,2.8382754,-0.6260121,0.025489293,-2.484998,1.5442661,-4.369363
530,1778619453.7258525,2.5048413,-0.74455565,0.012073875,-2.7177374,1.7501276,-4.3779154
531,1778619453.7361343,2.5048413,-0.74455565,0.012073875,-2.7177374,1.7501276,-4.3779154
532,1778619453.7461345,2.5048413,-0.74455565,0.012073875,-2.7177374,1.7501276,-4.3779154
533,1778619453.7561352,2.5048413,-0.74455565,0.012073875,-2.7177374,1.7501276,-4.3779154
534,1778619453.7661362,2.5048413,-0.74455565,0.012073875,-2.7177374,1.7501276,-4.3779154
535,1778619453.7761369,2.5048413,-0.74455565,0.012073875,-2.7177374,1.7501276,-4.3779154
536,1778619453.7861378,2.1433568,-0.7218714,0.014756958,-2.7177374,1.7501276,-4.3779154
537,1778619453.7961383,2.1433568,-0.7218714,0.014756958,-2.7177374,1.7501276,-4.3779154
538,1778619453.806139,2.1433568,-0.7218714,0.014756958,-2.8667884,1.9865322,-4.2270317
539,1778619453.81615,2.1433568,-0.7218714,0.014756958,-2.8667884,1.9865322,-4.2270317
540,1778619453.8265016,2.1433568,-0.7218714,0.014756958,-2.8667884,1.9865322,-4.2270317
541,1778619453.8365028,2.1433568,-0.7218714,0.014756958,-2.8667884,1.9865322,-4.2270317
542,1778619453.846538,2.1433568,-0.7218714,0.014756958,-2.8667884,1.9865322,-4.2270317
543,1778619453.85654,2.1433568,-0.7218714,0.014756958,-2.8667884,1.9865322,-4.2270317
544,1778619453.8665414,2.1433568,-0.7218714,0.014756958,-2.8667884,1.9865322,-4.2270317
545,1778619453.876542,2.1433568,-0.7218714,0.014756958,-2.8667884,1.9865322,-4.2270317
546,1778619453.886543,2.1433568,-0.7218714,0.014756958,-2.8667884,1.9865322,-4.2270317
547,1778619453.8965437,2.1433568,-0.7218714,0.014756958,-2.9846854,2.272417,-4.0260572
548,1778619453.9065444,2.1433568,-0.7218714,0.014756958,-2.9846854,2.272417,-4.0260572
549,1778619453.9167209,2.1433568,-0.7218714,0.014756958,-2.9846854,2.272417,-4.0260572
550,1778619453.926722,2.1433568,-0.7218714,0.014756958,-2.9846854,2.272417,-4.0260572
551,1778619453.9367228,2.1433568,-0.7218714,0.014756958,-2.9846854,2.272417,-4.0260572
552,1778619453.946724,1.8796829,-0.6438181,-0.006219875,-2.9846854,2.272417,-4.0260572
553,1778619453.9567254,0.5518005,-0.21062206,-0.23111105,-0.82161313,-0.22296564,-2.5111125
554,1778619453.9667263,0.5518005,-0.21062206,-0.23111105,-0.82161313,-0.22296564,-2.5111125
555,1778619453.9767272,0.47082013,-0.18720604,-0.20232888,-0.82161313,-0.22296564,-2.5111125
556,1778619453.986729,0.35764283,-0.17086363,-0.16232654,-0.5876519,-0.5552761,-2.3663375
557,1778619453.99673,0.35764283,-0.17086363,-0.16232654,-0.5876519,-0.5552761,-2.3663375
558,1778619454.0071,0.35764283,-0.17086363,-0.16232654,-0.5876519,-0.5552761,-2.3663375
559,1778619454.0171008,0.35764283,-0.17086363,-0.16232654,-0.5876519,-0.5552761,-2.3663375
560,1778619454.0271013,0.35764283,-0.17086363,-0.16232654,-0.5876519,-0.5552761,-2.3663375
561,1778619454.0371022,0.35764283,-0.17086363,-0.16232654,-0.5876519,-0.5552761,-2.3663375
562,1778619454.047103,0.35764283,-0.17086363,-0.16232654,-0.5876519,-0.5552761,-2.3663375
563,1778619454.0571039,0.35764283,-0.17086363,-0.16232654,-0.5876519,-0.5552761,-2.3663375
564,1778619454.067105,0.35764283,-0.17086363,-0.16232654,-0.5876519,-0.5552761,-2.3663375
565,1778619454.077106,0.35764283,-0.17086363,-0.16232654,-0.5876519,-0.5552761,-2.3663375
566,1778619454.0871074,0.35764283,-0.17086363,-0.16232654,-0.5876519,-0.5552761,-2.3663375
567,1778619454.097311,0.3339829,-0.27208906,-0.19281614,-0.4544834,-0.79290247,-2.305251
568,1778619454.1073117,0.3339829,-0.27208906,-0.19281614,-0.4544834,-0.79290247,-2.305251
569,1778619454.117313,0.3339829,-0.27208906,-0.19281614,-0.4544834,-0.79290247,-2.305251
570,1778619454.127314,0.3339829,-0.27208906,-0.19281614,-0.4544834,-0.79290247,-2.305251
571,1778619454.1373148,0.3339829,-0.27208906,-0.19281614,-0.4544834,-0.79290247,-2.305251
572,1778619454.1473157,0.3339829,-0.27208906,-0.19281614,-0.22785257,-1.170417,-2.2710426
573,1778619454.1573164,0.3339829,-0.27208906,-0.19281614,-0.22785257,-1.170417,-2.2710426
574,1778619454.1673172,0.3339829,-0.27208906,-0.19281614,-0.22785257,-1.170417,-2.2710426
575,1778619454.1773183,0.3059325,-0.3047739,-0.24623388,-0.22785257,-1.170417,-2.2710426
576,1778619454.187319,0.3059325,-0.3047739,-0.24623388,-0.22785257,-1.170417,-2.2710426
577,1778619454.19732,0.3059325,-0.3047739,-0.24623388,-0.22785257,-1.170417,-2.2710426
578,1778619454.2073212,0.3059325,-0.3047739,-0.24623388,-0.17348559,-1.5296054,-2.2563818
579,1778619454.2173219,0.3059325,-0.3047739,-0.24623388,-0.17348559,-1.5296054,-2.2563818
580,1778619454.2273228,0.3059325,-0.3047739,-0.24623388,-0.17348559,-1.5296054,-2.2563818
581,1778619454.2373238,0.3059325,-0.3047739,-0.24623388,-0.17348559,-1.5296054,-2.2563818
582,1778619454.2473245,0.3059325,-0.3047739,-0.24623388,-0.17348559,-1.5296054,-2.2563818
583,1778619454.2573254,0.18690115,-0.39599872,-0.2713573,-0.4581486,-1.9846997,-2.1494803
584,1778619454.26733,0.18690115,-0.39599872,-0.2713573,-0.4581486,-1.9846997,-2.1494803
585,1778619454.2773323,0.18690115,-0.39599872,-0.2713573,-0.4581486,-1.9846997,-2.1494803
586,1778619454.2873335,0.18690115,-0.39599872,-0.2713573,-0.4581486,-1.9846997,-2.1494803
587,1778619454.2973342,0.18690115,-0.39599872,-0.2713573,-0.4581486,-1.9846997,-2.1494803
588,1778619454.3073347,0.18690115,-0.39599872,-0.2713573,-0.4581486,-1.9846997,-2.1494803
589,1778619454.317336,0.18690115,-0.39599872,-0.2713573,-0.66706437,-2.037845,-2.1268785
590,1778619454.3273373,0.18690115,-0.39599872,-0.2713573,-0.66706437,-2.037845,-2.1268785
591,1778619454.3373384,0.18690115,-0.39599872,-0.2713573,-0.66706437,-2.037845,-2.1268785
592,1778619454.347351,0.19738956,-0.42770788,-0.26964986,-0.85459983,-2.1068726,-2.1030548
593,1778619454.3573542,0.19738956,-0.42770788,-0.26964986,-0.85459983,-2.1068726,-2.1030548
594,1778619454.3673577,0.19738956,-0.42770788,-0.26964986,-0.85459983,-2.1068726,-2.1030548
595,1778619454.3773592,0.19738956,-0.42770788,-0.26964986,-0.85459983,-2.1068726,-2.1030548
596,1778619454.38736,0.19738956,-0.42770788,-0.26964986,-0.85459983,-2.1068726,-2.1030548
597,1778619454.3973606,0.19738956,-0.42770788,-0.26964986,-0.85459983,-2.1068726,-2.1030548
598,1778619454.4073613,0.19738956,-0.42770788,-0.26964986,-0.85459983,-2.1068726,-2.1030548
599,1778619454.4173622,0.19738956,-0.42770788,-0.26964986,-0.85459983,-2.1068726,-2.1030548
600,1778619454.4273636,0.28178474,-0.5408852,-0.16818054,-2.2779148,-2.2461498,-2.0755658
601,1778619454.4378235,0.28178474,-0.5408852,-0.16818054,-2.2779148,-2.2461498,-2.0755658
602,1778619454.447826,0.28178474,-0.5408852,-0.16818054,-2.2779148,-2.2461498,-2.0755658
603,1778619454.4578269,0.28178474,-0.5408852,-0.16818054,-2.2779148,-2.2461498,-2.0755658
604,1778619454.4678278,0.28178474,-0.5408852,-0.16818054,-2.2779148,-2.2461498,-2.0755658
605,1778619454.4778285,0.28178474,-0.5408852,-0.16818054,-2.2779148,-2.2461498,-2.0755658
606,1778619454.4878294,3.13439,-0.3579477,1.9768227,-4.860651,-4.1555605,3.522399
607,1778619454.4978302,3.13439,-0.3579477,1.9768227,-4.860651,-4.1555605,3.522399
608,1778619454.5078313,3.13439,-0.3579477,1.9768227,-1.9675955,-2.7745478,4.21512
609,1778619454.5178325,3.13439,-0.3579477,1.9768227,-1.9675955,-2.7745478,4.21512
610,1778619454.5279295,3.13439,-0.3579477,1.9768227,-1.9675955,-2.7745478,4.21512
611,1778619454.537931,3.13439,-0.3579477,1.9768227,-1.9675955,-2.7745478,4.21512
612,1778619454.5479324,3.13439,-0.3579477,1.9768227,-1.9675955,-2.7745478,4.21512
613,1778619454.5579336,3.13439,-0.3579477,1.9768227,-1.9675955,-2.7745478,4.21512
614,1778619454.5679348,1.3825806,0.41429248,0.91700476,-4.553997,0.6243038,3.3220353
615,1778619454.5782487,1.0437804,0.41136545,1.0226207,-4.553997,0.6243038,3.3220353
616,1778619454.588252,1.0437804,0.41136545,1.0226207,-4.553997,0.6243038,3.3220353
617,1778619454.5982547,1.0437804,0.41136545,1.0226207,-4.553997,0.6243038,3.3220353
618,1778619454.6082559,1.0437804,0.41136545,1.0226207,-4.553997,0.6243038,3.3220353
619,1778619454.6182575,0.7827895,1.009693,0.35526463,-0.074525505,-0.40683594,0.27748534
620,1778619454.6282604,0.7827895,1.009693,0.35526463,-0.074525505,-0.40683594,0.27748534
621,1778619454.6382616,0.7827895,1.009693,0.35526463,-0.074525505,-0.40683594,0.27748534
622,1778619454.6482625,0.8730387,0.9943263,0.34306878,-0.3781253,-0.20891576,0.04046979
623,1778619454.6582634,0.8730387,0.9943263,0.34306878,-0.3781253,-0.20891576,0.04046979
624,1778619454.6682644,0.8730387,0.9943263,0.34306878,-0.3781253,-0.20891576,0.04046979
625,1778619454.6782653,0.8730387,0.9943263,0.34306878,-0.87170404,0.1838703,-0.37675086
626,1778619454.6882675,0.9588974,1.0240841,0.35087416,-0.87170404,0.1838703,-0.37675086
627,1778619454.6982682,0.9588974,1.0240841,0.35087416,-0.87170404,0.1838703,-0.37675086
628,1778619454.708595,1.0457318,1.0306699,0.33111688,-1.1575887,0.4996874,-0.7854194
629,1778619454.7185965,1.0457318,1.0306699,0.33111688,-1.291979,0.69149894,-1.0926844
630,1778619454.7285972,1.0457318,1.0306699,0.33111688,-1.291979,0.69149894,-1.0926844
631,1778619454.7385983,1.0457318,1.0306699,0.33111688,-1.291979,0.69149894,-1.0926844
632,1778619454.7486107,1.0457318,1.0306699,0.33111688,-1.291979,0.69149894,-1.0926844
633,1778619454.7586124,1.0457318,1.0306699,0.33111688,-1.291979,0.69149894,-1.0926844
634,1778619454.768613,1.2772087,0.86602616,0.25891754,-1.291979,0.69149894,-1.0926844
635,1778619454.7786138,1.2772087,0.86602616,0.25891754,-1.291979,0.69149894,-1.0926844
636,1778619454.788615,1.2772087,0.86602616,0.25891754,-1.291979,0.69149894,-1.0926844
637,1778619454.798815,1.2772087,0.86602616,0.25891754,-1.291979,0.69149894,-1.0926844
638,1778619454.8088157,1.2772087,0.86602616,0.25891754,-1.291979,0.69149894,-1.0926844
639,1778619454.8188164,1.2772087,0.86602616,0.25891754,-1.2510511,0.831387,-1.6326889
640,1778619454.8288171,1.4786838,0.7918755,0.28623623,-1.2510511,0.831387,-1.6326889
641,1778619454.8388178,1.4786838,0.7918755,0.28623623,-1.2510511,0.831387,-1.6326889
642,1778619454.8488188,1.4786838,0.7918755,0.28623623,-1.2510511,0.831387,-1.6326889
643,1778619454.8588214,1.4786838,0.7918755,0.28623623,-1.2510511,0.831387,-1.6326889
644,1778619454.8688226,1.4786838,0.7918755,0.28623623,-1.2510511,0.831387,-1.6326889
645,1778619454.8788238,1.4786838,0.7918755,0.28623623,-1.2510511,0.831387,-1.6326889
646,1778619454.8893993,1.4786838,0.7918755,0.28623623,-1.2510511,0.831387,-1.6326889
647,1778619454.8994005,1.4786838,0.7918755,0.28623623,-1.2510511,0.831387,-1.6326889
648,1778619454.9094012,1.4786838,0.7918755,0.28623623,-1.2510511,0.831387,-1.6326889
649,1778619454.919402,1.4786838,0.7918755,0.28623623,-1.2510511,0.831387,-1.6326889
650,1778619454.9294033,1.6996723,0.74114084,0.35965514,-0.96883154,0.8497129,-1.6919427
651,1778619454.9394047,1.6996723,0.74114084,0.35965514,-0.96883154,0.8497129,-1.6919427
652,1778619454.9494061,1.6996723,0.74114084,0.35965514,-0.96883154,0.8497129,-1.6919427
653,1778619454.959407,1.9184656,0.74260426,0.34526405,-0.5094612,1.0140356,-1.7664682
654,1778619454.9694076,1.9184656,0.74260426,0.34526405,-0.5094612,1.0140356,-1.7664682
655,1778619454.9794085,1.9184656,0.74260426,0.34526405,-0.5094612,1.0140356,-1.7664682
656,1778619454.9894094,1.9184656,0.74260426,0.34526405,-0.5094612,1.0140356,-1.7664682
657,1778619454.9994102,1.9184656,0.74260426,0.34526405,-0.5094612,1.0140356,-1.7664682
658,1778619455.0094109,1.9184656,0.74260426,0.34526405,-0.5094612,1.0140356,-1.7664682
659,1778619455.0194123,1.9184656,0.74260426,0.34526405,-0.5094612,1.0140356,-1.7664682
660,1778619455.0294127,1.9184656,0.74260426,0.34526405,-0.5094612,1.0140356,-1.7664682
661,1778619455.0394135,1.9184656,0.74260426,0.34526405,-0.5094612,1.0140356,-1.7664682
662,1778619455.0494149,2.157016,0.7969977,0.24477036,-0.2669479,1.0250311,-1.9057454
663,1778619455.0594158,2.157016,0.7969977,0.24477036,-0.2669479,1.0250311,-1.9057454
664,1778619455.0696907,2.157016,0.7969977,0.24477036,-0.2669479,1.0250311,-1.9057454
665,1778619455.079692,0.29934675,-0.9972533,-0.3372148,2.367101,1.3775,-3.348608
666,1778619455.0896928,0.29934675,-0.9972533,-0.3372148,2.367101,1.3775,-3.348608
667,1778619455.0996935,0.29934675,-0.9972533,-0.3372148,2.367101,1.3775,-3.348608
668,1778619455.1096983,0.29934675,-0.9972533,-0.3372148,2.367101,1.3775,-3.348608
669,1778619455.1197002,0.29934675,-0.9972533,-0.3372148,2.367101,1.3775,-3.348608
670,1778619455.1297007,0.29934675,-0.9972533,-0.3372148,2.367101,1.3775,-3.348608
671,1778619455.1397023,0.11592139,-1.0250598,-0.29721245,2.656651,0.4477639,-2.3351834
672,1778619455.149703,0.11592139,-1.0250598,-0.29721245,2.656651,0.4477639,-2.3351834
673,1778619455.1599813,0.11592139,-1.0250598,-0.29721245,2.656651,0.4477639,-2.3351834
674,1778619455.1699998,0.11592139,-1.0250598,-0.29721245,2.656651,0.4477639,-2.3351834
675,1778619455.180003,0.11592139,-1.0250598,-0.29721245,2.656651,0.4477639,-2.3351834
676,1778619455.190004,0.11592139,-1.0250598,-0.29721245,2.656651,0.4477639,-2.3351834
677,1778619455.2000115,-0.042624436,-0.9933506,-0.2086707,2.9333727,0.21624613,-1.9112432
678,1778619455.2100148,-0.042624436,-0.9933506,-0.2086707,2.9333727,0.21624613,-1.9112432
679,1778619455.2200162,-0.12067777,-0.9531044,-0.4179512,3.0885322,0.045814857,-1.5990913
680,1778619455.2301197,-0.12067777,-0.9531044,-0.4179512,3.0885322,0.045814857,-1.5990913
681,1778619455.2401204,-0.12067777,-0.9531044,-0.4179512,3.0885322,0.045814857,-1.5990913
682,1778619455.2502825,-0.12067777,-0.9531044,-0.4179512,3.0469935,-0.1545488,-1.4225514
683,1778619455.260283,-0.12067777,-0.9531044,-0.4179512,3.0469935,-0.1545488,-1.4225514
684,1778619455.270284,-0.28117493,-0.9955459,-0.573814,2.2974625,-0.48624837,-1.5581633
685,1778619455.2802844,-0.28117493,-0.9955459,-0.573814,2.2974625,-0.48624837,-1.5581633
686,1778619455.290285,-0.28117493,-0.9955459,-0.573814,2.2974625,-0.48624837,-1.5581633
687,1778619455.3002863,-0.28117493,-0.9955459,-0.573814,2.2974625,-0.48624837,-1.5581633
688,1778619455.3102958,-0.43337893,-1.0762823,-0.59747386,0.9627229,-0.5345067,-1.4677553
689,1778619455.3202999,-0.43337893,-1.0762823,-0.59747386,0.9627229,-0.5345067,-1.4677553
690,1778619455.3303006,-0.43337893,-1.0762823,-0.59747386,0.9627229,-0.5345067,-1.4677553
691,1778619455.3406978,-0.43337893,-1.0762823,-0.59747386,0.9627229,-0.5345067,-1.4677553
692,1778619455.3506997,-0.43337893,-1.0762823,-0.59747386,0.9627229,-0.5345067,-1.4677553
693,1778619455.3607008,-0.43337893,-1.0762823,-0.59747386,0.9627229,-0.5345067,-1.4677553
694,1778619455.3707016,-0.43337893,-1.0762823,-0.59747386,0.9627229,-0.5345067,-1.4677553
695,1778619455.3807025,-0.43337893,-1.0762823,-0.59747386,0.9627229,-0.5345067,-1.4677553
696,1778619455.3907104,-0.65119654,-1.258976,-0.4318545,0.2932151,-0.36835146,-1.283885
697,1778619455.4007123,-0.65119654,-1.258976,-0.4318545,0.2932151,-0.36835146,-1.283885
698,1778619455.4107134,-0.65119654,-1.258976,-0.4318545,0.2932151,-0.36835146,-1.283885
699,1778619455.4207144,-0.65119654,-1.258976,-0.4318545,0.2932151,-0.36835146,-1.283885
700,1778619455.4308662,-0.65119654,-1.258976,-0.4318545,0.2932151,-0.36835146,-1.283885
701,1778619455.4408667,-0.65119654,-1.258976,-0.4318545,0.2932151,-0.36835146,-1.283885
702,1778619455.450869,-0.69290626,-1.3216624,-0.3738023,0.2932151,-0.36835146,-1.283885
703,1778619455.4608705,-0.69290626,-1.3216624,-0.3738023,0.2932151,-0.36835146,-1.283885
704,1778619455.4708712,-0.69290626,-1.3216624,-0.3738023,0.2932151,-0.36835146,-1.283885
705,1778619455.481423,-0.69290626,-1.3216624,-0.3738023,-0.29260424,-0.14538582,-1.0053307
706,1778619455.4914255,-0.69290626,-1.3216624,-0.3738023,-0.29260424,-0.14538582,-1.0053307
707,1778619455.5014265,-0.7124196,-1.4263027,-0.36038688,-0.835663,0.06352994,-0.5319105
708,1778619455.5114272,-0.7124196,-1.4263027,-0.36038688,-0.835663,0.06352994,-0.5319105
709,1778619455.5214279,-0.7124196,-1.4263027,-0.36038688,-0.835663,0.06352994,-0.5319105
710,1778619455.531429,-0.7124196,-1.4263027,-0.36038688,-0.835663,0.06352994,-0.5319105
711,1778619455.5414298,-0.7124196,-1.4263027,-0.36038688,-0.835663,0.06352994,-0.5319105
712,1778619455.5514305,-0.7124196,-1.4263027,-0.36038688,-0.835663,0.06352994,-0.5319105
713,1778619455.561432,-0.7124196,-1.4263027,-0.36038688,-0.835663,0.06352994,-0.5319105
714,1778619455.5714324,-0.7124196,-1.4263027,-0.36038688,-0.835663,0.06352994,-0.5319105
715,1778619455.5814347,-0.7124196,-1.4263027,-0.36038688,-0.835663,0.06352994,-0.5319105
716,1778619455.5914447,-0.7124196,-1.4263027,-0.36038688,-0.835663,0.06352994,-0.5319105
717,1778619455.6014488,-0.7124196,-1.4263027,-0.36038688,-0.835663,0.06352994,-0.5319105
718,1778619455.6114502,-0.7124196,-1.4263027,-0.36038688,-0.835663,0.06352994,-0.5319105
719,1778619455.621451,-0.7124196,-1.4263027,-0.36038688,-0.835663,0.06352994,-0.5319105
720,1778619455.6314516,-0.7124196,-1.4263027,-0.36038688,-0.835663,0.06352994,-0.5319105
721,1778619455.6414561,-0.69949204,-1.483867,-0.39624262,-0.835663,0.06352994,-0.5319105
722,1778619455.6514578,-0.69949204,-1.483867,-0.39624262,-0.835663,0.06352994,-0.5319105
723,1778619455.6614585,-0.69949204,-1.483867,-0.39624262,-0.835663,0.06352994,-0.5319105
724,1778619455.6714597,1.5562494,-1.238243,-0.15110639,-4.607753,-1.0464114,2.723388
725,1778619455.6814601,1.5562494,-1.238243,-0.15110639,-4.607753,-1.0464114,2.723388
726,1778619455.6914606,1.5562494,-1.238243,-0.15110639,-4.607753,-1.0464114,2.723388
727,1778619455.701466,1.5562494,-1.238243,-0.15110639,-4.607753,-1.0464114,2.723388
728,1778619455.7114677,1.5562494,-1.238243,-0.15110639,-4.607753,-1.0464114,2.723388
729,1778619455.7214687,2.5416727,0.6018644,0.40526757,-0.053145237,-0.35857764,2.1998768
730,1778619455.7314763,1.5740552,0.70187026,0.24184339,-1.6462805,1.05252,1.7899865
731,1778619455.7414796,1.5740552,0.70187026,0.24184339,-1.6462805,1.05252,1.7899865
732,1778619455.7514806,1.5740552,0.70187026,0.24184339,-1.6462805,1.05252,1.7899865
733,1778619455.7617018,0.19934091,0.9231027,0.41526812,1.0965023,0.07208204,-1.5288419
734,1778619455.771703,0.19934091,0.9231027,0.41526812,1.0965023,0.07208204,-1.5288419
735,1778619455.7817037,0.19934091,0.9231027,0.41526812,1.0965023,0.07208204,-1.5288419
736,1778619455.7917044,0.19934091,0.9231027,0.41526812,1.0965023,0.07208204,-1.5288419
737,1778619455.8017051,0.19787739,0.7433361,0.34428838,1.2516619,0.53084147,-1.7230968
738,1778619455.811706,0.19787739,0.7433361,0.34428838,1.2516619,0.53084147,-1.7230968
739,1778619455.8217068,0.19787739,0.7433361,0.34428838,1.2516619,0.53084147,-1.7230968
740,1778619455.831708,0.19787739,0.7433361,0.34428838,1.2516619,0.53084147,-1.7230968
741,1778619455.8417091,0.19787739,0.7433361,0.34428838,1.3151919,0.5968149,-1.7145448
742,1778619455.8517096,0.19787739,0.7433361,0.34428838,1.3151919,0.5968149,-1.7145448
743,1778619455.86171,1.1076865,0.90139407,0.4352693,1.8661919,0.23151775,-2.2209516
744,1778619455.8717108,1.1076865,0.90139407,0.4352693,1.8661919,0.23151775,-2.2209516
745,1778619455.881711,1.1076865,0.90139407,0.4352693,1.8661919,0.23151775,-2.2209516
746,1778619455.8917124,1.1076865,0.90139407,0.4352693,1.8661919,0.23151775,-2.2209516
747,1778619455.901713,1.1076865,0.90139407,0.4352693,1.8661919,0.23151775,-2.2209516
748,1778619455.9117138,1.1076865,0.90139407,0.4352693,1.8661919,0.23151775,-2.2209516
749,1778619455.9217153,1.3298947,0.8862712,0.5306407,1.8661919,0.23151775,-2.2209516
750,1778619455.9317164,1.3298947,0.8862712,0.5306407,1.8661919,0.23151775,-2.2209516
751,1778619455.9417174,1.3298947,0.8862712,0.5306407,1.8661919,0.23151775,-2.2209516
752,1778619455.951723,1.3298947,0.8862712,0.5306407,1.8661919,0.23151775,-2.2209516
753,1778619455.961725,1.3298947,0.8862712,0.5306407,1.8661919,0.23151775,-2.2209516
754,1778619455.9717264,1.4891723,0.7179687,0.6282074,2.3518293,0.18631376,-2.914894
755,1778619455.9817278,1.5577128,0.6135724,0.65528214,2.4966044,0.1924224,-2.8990116
756,1778619455.9917285,1.5577128,0.6135724,0.65528214,2.4966044,0.1924224,-2.8990116
757,1778619456.0017302,1.5577128,0.6135724,0.65528214,2.4966044,0.1924224,-2.8990116
758,1778619456.0117354,2.856569,0.42063433,0.47258857,3.2809548,-0.46181378,-2.2594361
759,1778619456.0217376,2.856569,0.42063433,0.47258857,3.2809548,-0.46181378,-2.2594361
760,1778619456.031739,2.856569,0.42063433,0.47258857,3.2809548,-0.46181378,-2.2594361
761,1778619456.0417426,2.856569,0.42063433,0.47258857,3.2809548,-0.46181378,-2.2594361
762,1778619456.051746,2.856569,0.42063433,0.47258857,3.2809548,-0.46181378,-2.2594361
763,1778619456.0617473,3.5129488,-0.27038163,0.41404852,3.5265224,-1.816101,-3.7988153
764,1778619456.0717483,3.5129488,-0.27038163,0.41404852,3.5265224,-1.816101,-3.7988153
765,1778619456.0817492,3.5129488,-0.27038163,0.41404852,3.5265224,-1.816101,-3.7988153
766,1778619456.091752,3.5129488,-0.27038163,0.41404852,3.5265224,-1.816101,-3.7988153
767,1778619456.101754,3.5129488,-0.27038163,0.41404852,3.5265224,-1.816101,-3.7988153
768,1778619456.1117556,3.3668427,-0.43429363,0.3811198,3.2968373,-1.4905101,-3.9930704
769,1778619456.121763,3.3668427,-0.43429363,0.3811198,3.1319036,-1.1960733,-4.122574
770,1778619456.1317642,3.3668427,-0.43429363,0.3811198,3.1319036,-1.1960733,-4.122574
771,1778619456.141765,3.179515,-0.5577155,0.31209138,2.7495024,-0.77091134,-4.2832313
772,1778619456.1517656,3.179515,-0.5577155,0.31209138,2.7495024,-0.77091134,-4.2832313
773,1778619456.1617668,3.179515,-0.5577155,0.31209138,2.7495024,-0.77091134,-4.2832313
774,1778619456.171768,2.76071,-0.7657764,0.15647253,2.7495024,-0.77091134,-4.2832313
775,1778619456.181769,2.76071,-0.7657764,0.15647253,2.7495024,-0.77091134,-4.2832313
776,1778619456.1917698,2.76071,-0.7657764,0.15647253,2.7495024,-0.77091134,-4.2832313
777,1778619456.2018344,2.76071,-0.7657764,0.15647253,2.7495024,-0.77091134,-4.2832313
778,1778619456.2118354,2.76071,-0.7657764,0.15647253,2.7495024,-0.77091134,-4.2832313
779,1778619456.2218359,2.76071,-0.7657764,0.15647253,2.7495024,-0.77091134,-4.2832313
780,1778619456.231916,2.76071,-0.7657764,0.15647253,2.7495024,-0.77091134,-4.2832313
781,1778619456.2419167,2.76071,-0.7657764,0.15647253,2.7495024,-0.77091134,-4.2832313
782,1778619456.2519183,2.76071,-0.7657764,0.15647253,2.7495024,-0.77091134,-4.2832313
783,1778619456.2619188,2.76071,-0.7657764,0.15647253,2.7495024,-0.77091134,-4.2832313
784,1778619456.2719202,2.76071,-0.7657764,0.15647253,2.7495024,-0.77091134,-4.2832313
785,1778619456.2819207,2.76071,-0.7657764,0.15647253,2.461785,-0.72509646,-4.264294
786,1778619456.2921896,2.76071,-0.7657764,0.15647253,2.461785,-0.72509646,-4.264294
787,1778619456.30219,2.76071,-0.7657764,0.15647253,2.461785,-0.72509646,-4.264294
788,1778619456.3121915,2.76071,-0.7657764,0.15647253,2.461785,-0.72509646,-4.264294
789,1778619456.3221924,2.76071,-0.7657764,0.15647253,2.461785,-0.72509646,-4.264294
790,1778619456.3321936,-0.5665574,-1.2648299,0.04524654,-0.5870411,0.47769627,-0.62292933
791,1778619456.3421986,-0.6594897,-1.3609331,0.0074394583,-0.5393936,0.30115634,-0.42195484
792,1778619456.3522012,-0.6594897,-1.3609331,0.0074394583,-0.5393936,0.30115634,-0.42195484
793,1778619456.3622024,-0.6594897,-1.3609331,0.0074394583,-0.5393936,0.30115634,-0.42195484
794,1778619456.3722038,-0.6594897,-1.3609331,0.0074394583,-0.5393936,0.30115634,-0.42195484
795,1778619456.3822052,-0.66339236,-1.3923982,-0.012561709,-0.19364414,-0.2828304,0.35567603
796,1778619456.3922064,-0.66339236,-1.3923982,-0.012561709,-0.19364414,-0.2828304,0.35567603
797,1778619456.4022071,-0.66339236,-1.3923982,-0.012561709,-0.19364414,-0.2828304,0.35567603
798,1778619456.412208,1.7799209,-0.81431586,-0.72235924,-3.9046476,0.41294459,2.889543
799,1778619456.4222102,2.657533,-0.6257682,-0.07207738,-3.9046476,0.41294459,2.889543
800,1778619456.4322116,2.657533,-0.6257682,-0.07207738,-3.9046476,0.41294459,2.889543
801,1778619456.4422123,2.657533,-0.6257682,-0.07207738,-3.9046476,0.41294459,2.889543
802,1778619456.452213,2.657533,-0.6257682,-0.07207738,-3.9046476,0.41294459,2.889543
803,1778619456.462214,2.657533,-0.6257682,-0.07207738,-3.9046476,0.41294459,2.889543
804,1778619456.4722145,2.657533,-0.6257682,-0.07207738,-3.9046476,0.41294459,2.889543
805,1778619456.482215,2.657533,-0.6257682,-0.07207738,-3.9046476,0.41294459,2.889543
806,1778619456.4922154,3.1460981,-0.3401418,0.25477096,-3.5301876,-0.79229164,3.6256351
807,1778619456.5022156,3.1460981,-0.3401418,0.25477096,-3.5301876,-0.79229164,3.6256351
808,1778619456.512216,3.1460981,-0.3401418,0.25477096,-3.5301876,-0.79229164,3.6256351
809,1778619456.5222178,3.1460981,-0.3401418,0.25477096,-2.2217152,-1.3518437,4.309804
810,1778619456.5322194,3.769793,0.82870686,0.45819747,-1.7770057,-1.2461642,4.07401
811,1778619456.5422204,3.769793,0.82870686,0.45819747,-1.7770057,-1.2461642,4.07401
812,1778619456.5522206,3.769793,0.82870686,0.45819747,-1.7770057,-1.2461642,4.07401
813,1778619456.5622213,2.3411732,0.673088,0.34233707,-2.4501786,0.87536925,1.579849
814,1778619456.5722222,2.3411732,0.673088,0.34233707,-2.4501786,0.87536925,1.579849
815,1778619456.5822234,2.3411732,0.673088,0.34233707,-2.4501786,0.87536925,1.579849
816,1778619456.592243,1.8891957,0.66113615,0.3401418,-2.4019203,1.0067052,1.61589
817,1778619456.6022446,1.8891957,0.66113615,0.3401418,-2.4019203,1.0067052,1.61589
818,1778619456.6122456,1.8891957,0.66113615,0.3401418,-2.4019203,1.0067052,1.61589
819,1778619456.6222458,1.8891957,0.66113615,0.3401418,-2.4019203,1.0067052,1.61589
820,1778619456.6322467,1.8891957,0.66113615,0.3401418,-2.4019203,1.0067052,1.61589
821,1778619456.6422472,1.8891957,0.66113615,0.3401418,-2.4019203,1.0067052,1.61589
822,1778619456.652248,1.8891957,0.66113615,0.3401418,-2.4019203,1.0067052,1.61589
823,1778619456.6622486,1.8891957,0.66113615,0.3401418,-2.4019203,1.0067052,1.61589
824,1778619456.6722496,1.6469864,0.6572335,0.3579477,-2.2107196,1.0060943,1.611614
825,1778619456.6822503,1.6469864,0.6572335,0.3579477,-2.2107196,1.0060943,1.611614
826,1778619456.6922514,1.6469864,0.6572335,0.3579477,-2.2107196,1.0060943,1.611614
827,1778619456.7022524,1.6469864,0.6572335,0.3579477,-2.2107196,1.0060943,1.611614
828,1778619456.712253,1.3357487,0.6952845,0.34697145,-1.703091,0.86803883,1.5199842
829,1778619456.7222548,1.3357487,0.6952845,0.34697145,-1.703091,0.86803883,1.5199842
830,1778619456.7322552,1.3357487,0.6952845,0.34697145,-1.703091,0.86803883,1.5199842
831,1778619456.742256,1.3357487,0.6952845,0.34697145,-1.703091,0.86803883,1.5199842
832,1778619456.752257,1.3357487,0.6952845,0.34697145,-1.703091,0.86803883,1.5199842
833,1778619456.7622576,1.3357487,0.6952845,0.34697145,-1.703091,0.86803883,1.5199842
834,1778619456.7722585,1.3357487,0.6952845,0.34697145,-1.703091,0.86803883,1.5199842
835,1778619456.7822597,1.3357487,0.6952845,0.34697145,-1.703091,0.86803883,1.5199842
836,1778619456.7922604,1.3357487,0.6952845,0.34697145,-1.703091,0.86803883,1.5199842
837,1778619456.8022625,1.3357487,0.6952845,0.34697145,-1.703091,0.86803883,1.5199842
838,1778619456.8122635,1.3357487,0.6952845,0.34697145,-1.703091,0.86803883,1.5199842
839,1778619456.8222647,1.2681837,0.7086999,0.33648303,-1.2180644,0.6212495,1.1546872
840,1778619456.8322656,1.0523175,0.7587028,0.28867537,-1.2180644,0.6212495,1.1546872
841,1778619456.8422666,1.0523175,0.7587028,0.28867537,-1.2180644,0.6212495,1.1546872
842,1778619456.8522675,1.0523175,0.7587028,0.28867537,-1.2180644,0.6212495,1.1546872
843,1778619456.8622723,0.08591965,0.7755331,0.23598938,0.65851223,0.40866855,-1.026711
844,1778619456.8722742,0.08591965,0.7755331,0.23598938,0.65851223,0.40866855,-1.026711
845,1778619456.8824832,0.08591965,0.7755331,0.23598938,0.65851223,0.40866855,-1.026711
846,1778619456.8924901,0.1656804,0.67503935,0.21867129,1.0384701,0.3762927,-1.3632975
847,1778619456.9024932,0.1656804,0.67503935,0.21867129,1.0384701,0.3762927,-1.3632975
848,1778619456.912495,0.25739306,0.679186,0.2581858,1.0384701,0.3762927,-1.3632975
849,1778619456.9224963,0.25739306,0.679186,0.2581858,1.0384701,0.3762927,-1.3632975
850,1778619456.9324973,0.25739306,0.679186,0.2581858,1.0384701,0.3762927,-1.3632975
851,1778619456.9424982,0.25739306,0.679186,0.2581858,1.1649191,0.3262018,-1.4317143
852,1778619456.952499,0.25739306,0.679186,0.2581858,1.1649191,0.3262018,-1.4317143
853,1778619456.9625,0.25739306,0.679186,0.2581858,1.1649191,0.3262018,-1.4317143
854,1778619456.9725096,0.25739306,0.679186,0.2581858,1.314581,0.37873617,-1.5758784
855,1778619456.982513,0.25739306,0.679186,0.2581858,1.314581,0.37873617,-1.5758784
856,1778619456.9925144,0.4059383,0.72894496,0.34575188,1.314581,0.37873617,-1.5758784
857,1778619457.0025156,0.5403364,0.70357764,0.36989963,1.3829979,0.5998692,-1.8116722
858,1778619457.0125175,0.5403364,0.70357764,0.36989963,1.3829979,0.5998692,-1.8116722
859,1778619457.0225194,0.5403364,0.70357764,0.36989963,1.3829979,0.5998692,-1.8116722
860,1778619457.032522,0.5403364,0.70357764,0.36989963,1.3829979,0.5998692,-1.8116722
861,1778619457.0425396,0.5403364,0.70357764,0.36989963,1.3829979,0.5998692,-1.8116722
862,1778619457.052545,0.5403364,0.70357764,0.36989963,1.3829979,0.5998692,-1.8116722
863,1778619457.062546,0.5403364,0.70357764,0.36989963,1.3829979,0.5998692,-1.8116722
864,1778619457.0725467,0.63887876,0.6311344,0.3503863,1.27854,0.9162972,-1.988823
865,1778619457.082548,0.63887876,0.6311344,0.3503863,1.27854,0.9162972,-1.988823
866,1778619457.0925484,0.63887876,0.6311344,0.3503863,1.27854,0.9162972,-1.988823
867,1778619457.1025493,0.63887876,0.6311344,0.3503863,1.27854,0.9162972,-1.988823
868,1778619457.1125498,0.63887876,0.6311344,0.3503863,1.27854,0.9162972,-1.988823
869,1778619457.1225514,0.63887876,0.6311344,0.3503863,1.27854,0.9162972,-1.988823
870,1778619457.132553,0.73888457,0.5499101,0.36526522,0.6163626,1.3964369,-1.8703152
871,1778619457.1425545,0.73888457,0.5499101,0.36526522,0.6163626,1.3964369,-1.8703152
872,1778619457.1525552,0.73888457,0.5499101,0.36526522,0.6163626,1.3964369,-1.8703152
873,1778619457.1625562,0.73888457,0.5499101,0.36526522,0.6163626,1.3964369,-1.8703152
874,1778619457.17312,2.739733,-0.50722474,0.38770556,3.816683,-0.39522952,-2.6638286
875,1778619457.1831217,2.739733,-0.50722474,0.38770556,3.816683,-0.39522952,-2.6638286
876,1778619457.1931226,2.739733,-0.50722474,0.38770556,3.816683,-0.39522952,-2.6638286
877,1778619457.203123,2.739733,-0.50722474,0.38770556,3.816683,-0.39522952,-2.6638286
878,1778619457.213124,-0.34752026,-0.7774844,-0.20379238,1.9511021,0.023823727,-1.193477
879,1778619457.223125,-0.34752026,-0.7774844,-0.20379238,1.9511021,0.023823727,-1.193477
880,1778619457.2331254,-0.34752026,-0.7774844,-0.20379238,1.9511021,0.023823727,-1.193477
881,1778619457.243126,-0.34752026,-0.7774844,-0.20379238,1.9511021,0.023823727,-1.193477
882,1778619457.253135,-0.5024074,-0.78016746,-0.37721714,1.7134757,-0.092851445,-0.9155336
883,1778619457.2631383,-0.5024074,-0.78016746,-0.37721714,1.7134757,-0.092851445,-0.9155336
884,1778619457.2731388,-0.5024074,-0.78016746,-0.37721714,1.7134757,-0.092851445,-0.9155336
885,1778619457.283522,-0.5024074,-0.78016746,-0.37721714,1.1013892,-0.3451386,-0.68707013
886,1778619457.2935255,-0.5024074,-0.78016746,-0.37721714,1.1013892,-0.3451386,-0.68707013
887,1778619457.3035269,-0.6248535,-0.7774844,-0.54893446,1.1013892,-0.3451386,-0.68707013
888,1778619457.313528,-0.6248535,-0.7774844,-0.54893446,1.1013892,-0.3451386,-0.68707013
889,1778619457.3235288,-0.6248535,-0.7774844,-0.54893446,1.1013892,-0.3451386,-0.68707013
890,1778619457.3335302,-0.6248535,-0.7774844,-0.54893446,0.45998117,-0.7654136,-0.4317287
891,1778619457.343531,-0.6248535,-0.7774844,-0.54893446,0.45998117,-0.7654136,-0.4317287
892,1778619457.3535316,-0.6911989,-0.7591906,-0.6221095,0.45998117,-0.7654136,-0.4317287
893,1778619457.363532,-0.6911989,-0.7591906,-0.6221095,0.45998117,-0.7654136,-0.4317287
894,1778619457.3735328,-0.6911989,-0.7591906,-0.6221095,0.45998117,-0.7654136,-0.4317287
895,1778619457.3835335,-0.6775395,-0.73528683,-0.5255185,0.45998117,-0.7654136,-0.4317287
896,1778619457.3942316,-0.6775395,-0.73528683,-0.5255185,0.45998117,-0.7654136,-0.4317287
897,1778619457.4042327,-0.6775395,-0.73528683,-0.5255185,0.45998117,-0.7654136,-0.4317287
898,1778619457.4142337,-0.6775395,-0.73528683,-0.5255185,0.45998117,-0.7654136,-0.4317287
899,1778619457.4242344,-0.6775395,-0.73528683,-0.5255185,0.45998117,-0.7654136,-0.4317287
900,1778619457.434235,-0.6775395,-0.73528683,-0.5255185,0.45998117,-0.7654136,-0.4317287
901,1778619457.4442375,-0.5660696,-0.7501657,-0.21330512,-0.022601997,-1.0824524,-0.24480405
902,1778619457.454239,-0.5660696,-0.7501657,-0.21330512,-0.022601997,-1.0824524,-0.24480405
903,1778619457.4642406,-0.5660696,-0.7501657,-0.21330512,-0.68966633,-1.3048072,0.034361143
904,1778619457.4742424,-0.5660696,-0.7501657,-0.21330512,-0.68966633,-1.3048072,0.034361143
905,1778619457.4842436,-0.5660696,-0.7501657,-0.21330512,-0.68966633,-1.3048072,0.034361143
906,1778619457.4942443,-0.46850294,-0.76382506,0.007683375,-0.68966633,-1.3048072,0.034361143
907,1778619457.504245,-0.46850294,-0.76382506,0.007683375,-0.68966633,-1.3048072,0.034361143
908,1778619457.514246,1.3328216,-0.8328535,-0.14208147,-0.26816964,-0.61514086,1.9249877
909,1778619457.5242474,2.681681,-0.025733208,0.051832296,1.0506874,-0.6359102,2.6971207
910,1778619457.534248,2.681681,-0.025733208,0.051832296,1.0506874,-0.6359102,2.6971207
911,1778619457.544249,2.681681,-0.025733208,0.051832296,1.0506874,-0.6359102,2.6971207
912,1778619457.554251,2.681681,-0.025733208,0.051832296,1.0506874,-0.6359102,2.6971207
913,1778619457.564252,2.681681,-0.025733208,0.051832296,1.0506874,-0.6359102,2.6971207
914,1778619457.5742533,2.681681,-0.025733208,0.051832296,1.0005965,-0.43615746,2.6806273
915,1778619457.5842972,2.6099694,0.05549104,0.010854292,1.0005965,-0.43615746,2.6806273
916,1778619457.5942976,2.6099694,0.05549104,0.010854292,1.0005965,-0.43615746,2.6806273
917,1778619457.6042986,2.6099694,0.05549104,0.010854292,1.0005965,-0.43615746,2.6806273
918,1778619457.6146743,2.6099694,0.05549104,0.010854292,1.0005965,-0.43615746,2.6806273
919,1778619457.6246753,2.6099694,0.05549104,0.010854292,1.0005965,-0.43615746,2.6806273
920,1778619457.6346762,2.6099694,0.05549104,0.010854292,1.0005965,-0.43615746,2.6806273
921,1778619457.6446764,2.6099694,0.05549104,0.010854292,1.0005965,-0.43615746,2.6806273
922,1778619457.6546774,2.6099694,0.05549104,0.010854292,1.0005965,-0.43615746,2.6806273
923,1778619457.6646783,2.4082503,0.30696914,-0.05866196,1.0531309,-0.36224282,2.2316418
924,1778619457.6746793,2.4082503,0.30696914,-0.05866196,1.0531309,-0.36224282,2.2316418
925,1778619457.6846797,2.4082503,0.30696914,-0.05866196,1.0531309,-0.36224282,2.2316418
926,1778619457.6946812,1.522101,0.544544,0.064272046,0.962112,-0.8344413,1.6256639
927,1778619457.7046824,1.522101,0.544544,0.064272046,0.962112,-0.8344413,1.6256639
928,1778619457.7146833,1.522101,0.544544,0.064272046,0.962112,-0.8344413,1.6256639
929,1778619457.7246835,1.522101,0.544544,0.064272046,0.962112,-0.8344413,1.6256639
930,1778619457.7346845,1.522101,0.544544,0.064272046,0.9786054,-0.75869405,1.5706861
931,1778619457.744686,1.522101,0.544544,0.064272046,0.9786054,-0.75869405,1.5706861
932,1778619457.754686,1.522101,0.544544,0.064272046,0.9786054,-0.75869405,1.5706861
933,1778619457.764687,1.522101,0.544544,0.064272046,0.9786054,-0.75869405,1.5706861
934,1778619457.7746882,1.522101,0.544544,0.064272046,0.9786054,-0.75869405,1.5706861
935,1778619457.784689,1.522101,0.544544,0.064272046,0.9786054,-0.75869405,1.5706861
936,1778619457.7946901,1.522101,0.544544,0.064272046,0.9786054,-0.75869405,1.5706861
937,1778619457.8046906,1.522101,0.544544,0.064272046,0.9786054,-0.75869405,1.5706861
938,1778619457.814691,1.522101,0.544544,0.064272046,0.9786054,-0.75869405,1.5706861
939,1778619457.824692,1.4191681,0.5716187,0.08378538,0.9786054,-0.75869405,1.5706861
940,1778619457.834693,1.4191681,0.5716187,0.08378538,0.9786054,-0.75869405,1.5706861
941,1778619457.8446937,1.4191681,0.5716187,0.08378538,0.9786054,-0.75869405,1.5706861
942,1778619457.8546941,1.1208581,0.77455735,0.10037171,0.98532486,-0.44104436,1.5273147
943,1778619457.8646948,1.1208581,0.77455735,0.10037171,0.98532486,-0.44104436,1.5273147
944,1778619457.8746963,1.1208581,0.77455735,0.10037171,1.0091486,-0.3866774,1.4314089
945,1778619457.8846982,0.9728007,0.8618796,0.115250625,1.0910045,-0.42271844,1.2658645
946,1778619457.894699,0.9728007,0.8618796,0.115250625,1.0910045,-0.42271844,1.2658645
947,1778619457.9047005,0.9728007,0.8618796,0.115250625,1.0910045,-0.42271844,1.2658645
948,1778619457.914702,0.9728007,0.8618796,0.115250625,1.0910045,-0.42271844,1.2658645
949,1778619457.9247026,0.9728007,0.8618796,0.115250625,1.0910045,-0.42271844,1.2658645
950,1778619457.9347034,0.9728007,0.8618796,0.115250625,1.0910045,-0.42271844,1.2658645
951,1778619457.9447112,0.84181744,0.91724867,0.14061797,1.2657118,-0.5363393,1.0532836
952,1778619457.9547136,0.84181744,0.91724867,0.14061797,1.2657118,-0.5363393,1.0532836
953,1778619457.9647148,0.84181744,0.91724867,0.14061797,1.2657118,-0.5363393,1.0532836
954,1778619457.974715,0.84181744,0.91724867,0.14061797,1.2657118,-0.5363393,1.0532836
955,1778619457.984716,0.5752165,0.98042303,0.1820838,1.8319834,-0.6835577,0.6189587
956,1778619457.994717,0.5752165,0.98042303,0.1820838,1.8319834,-0.6835577,0.6189587
957,1778619458.0047174,0.5752165,0.98042303,0.1820838,1.8319834,-0.6835577,0.6189587
958,1778619458.0147183,0.5752165,0.98042303,0.1820838,1.8319834,-0.6835577,0.6189587
959,1778619458.0247195,0.5752165,0.98042303,0.1820838,1.8319834,-0.6835577,0.6189587
960,1778619458.03472,0.5752165,0.98042303,0.1820838,1.8319834,-0.6835577,0.6189587
961,1778619458.0447206,0.5752165,0.98042303,0.1820838,1.8319834,-0.6835577,0.6189587
962,1778619458.0547228,0.16616823,0.9479822,0.1676927,2.398255,-0.7977894,0.10399973
963,1778619458.0647237,0.16616823,0.9479822,0.1676927,2.398255,-0.7977894,0.10399973
964,1778619458.0747244,0.16616823,0.9479822,0.1676927,2.398255,-0.7977894,0.10399973
965,1778619458.084725,0.16616823,0.9479822,0.1676927,2.398255,-0.7977894,0.10399973
966,1778619458.0947256,0.16616823,0.9479822,0.1676927,2.398255,-0.7977894,0.10399973
967,1778619458.1047266,0.16616823,0.9479822,0.1676927,2.561356,-0.90835595,-0.004734202
968,1778619458.114727,0.16616823,0.9479822,0.1676927,2.561356,-0.90835595,-0.004734202
969,1778619458.1247275,0.076406896,0.91846824,0.1764737,2.561356,-0.90835595,-0.004734202
970,1778619458.1347291,0.034941066,0.8845638,0.1791568,3.2669048,-1.5577052,-0.5062542
971,1778619458.14473,0.034941066,0.8845638,0.1791568,3.2669048,-1.5577052,-0.5062542
972,1778619458.1547313,0.034941066,0.8845638,0.1791568,3.2669048,-1.5577052,-0.5062542
973,1778619458.164746,0.012012896,0.84407365,0.23135497,3.2669048,-1.5577052,-0.5062542
974,1778619458.1747584,0.012012896,0.84407365,0.23135497,3.2669048,-1.5577052,-0.5062542
975,1778619458.184759,0.012012896,0.84407365,0.23135497,3.2669048,-1.5577052,-0.5062542
976,1778619458.1947594,0.012012896,0.84407365,0.23135497,3.2669048,-1.5577052,-0.5062542
977,1778619458.2047606,0.012012896,0.84407365,0.23135497,3.2669048,-1.5577052,-0.5062542
978,1778619458.2147615,0.012012896,0.84407365,0.23135497,3.2669048,-1.5577052,-0.5062542
979,1778619458.2247624,0.012012896,0.84407365,0.23135497,3.2669048,-1.5577052,-0.5062542
980,1778619458.2347636,0.012012896,0.84407365,0.23135497,3.2669048,-1.5577052,-0.5062542
981,1778619458.244764,0.012012896,0.84407365,0.23135497,3.2669048,-1.5577052,-0.5062542
982,1778619458.2547648,0.012012896,0.84407365,0.23135497,3.2669048,-1.5577052,-0.5062542
983,1778619458.2647653,0.012012896,0.84407365,0.23135497,3.2669048,-1.5577052,-0.5062542
984,1778619458.2747667,0.012012896,0.84407365,0.23135497,3.2669048,-1.5577052,-0.5062542
985,1778619458.2847674,1.6343027,0.40624323,1.3153207,5.5820823,-2.7580545,-0.7005092
986,1778619458.2947686,1.6343027,0.40624323,1.3153207,5.5820823,-2.7580545,-0.7005092
987,1778619458.3047695,1.6343027,0.40624323,1.3153207,5.5820823,-2.7580545,-0.7005092
988,1778619458.31477,1.6343027,0.40624323,1.3153207,5.5820823,-2.7580545,-0.7005092
989,1778619458.3247714,2.1360393,0.3945352,1.5072831,5.5820823,-2.7580545,-0.7005092
990,1778619458.334772,2.1360393,0.3945352,1.5072831,5.5820823,-2.7580545,-0.7005092
991,1778619458.3447728,2.1360393,0.3945352,1.5072831,5.5820823,-2.7580545,-0.7005092
992,1778619458.3547735,2.1360393,0.3945352,1.5072831,5.5820823,-2.7580545,-0.7005092
993,1778619458.3647742,2.1360393,0.3945352,1.5072831,5.5820823,-2.7580545,-0.7005092
994,1778619458.3747754,2.1360393,0.3945352,1.5072831,5.5820823,-2.7580545,-0.7005092
995,1778619458.384777,2.593627,0.4308788,1.5963126,6.1446886,-2.494161,-0.87643826
996,1778619458.394778,2.593627,0.4308788,1.5963126,6.1446886,-2.494161,-0.87643826
997,1778619458.404779,2.593627,0.4308788,1.5963126,6.1446886,-2.494161,-0.87643826
998,1778619458.4147797,2.593627,0.4308788,1.5963126,6.1446886,-2.494161,-0.87643826
