id,timestamp,acc_x,acc_y,acc_z,gyro_x,gyro_y,gyro_z
1,1778621627.4994268,-0.51265186,-1.2660495,-0.032562874,-0.3677406,0.15256348,0.22708899
2,1778621627.509429,-0.51265186,-1.2660495,-0.032562874,-0.3677406,0.15256348,0.22708899
3,1778621627.51943,-0.51265186,-1.2660495,-0.032562874,-0.3677406,0.15256348,0.22708899
4,1778621627.5294309,-0.51265186,-1.2660495,-0.032562874,-0.3677406,0.15256348,0.22708899
5,1778621627.5394328,-0.51265186,-1.2660495,-0.032562874,-0.3677406,0.15256348,0.22708899
6,1778621627.5494342,-0.51265186,-1.2660495,-0.032562874,-0.3677406,0.15256348,0.22708899
7,1778621627.559477,-0.51265186,-1.2660495,-0.032562874,-0.3677406,0.15256348,0.22708899
8,1778621627.5694776,-0.51265186,-1.2660495,-0.032562874,1.5943571,-0.2121228,1.8544327
9,1778621627.579479,-0.51265186,-1.2660495,-0.032562874,1.5943571,-0.2121228,1.8544327
10,1778621627.58948,-0.51265186,-1.2660495,-0.032562874,1.5943571,-0.2121228,1.8544327
11,1778621627.5994806,-0.51265186,-1.2660495,-0.032562874,1.5943571,-0.2121228,1.8544327
12,1778621627.609484,-0.51265186,-1.2660495,-0.032562874,1.5943571,-0.2121228,1.8544327
13,1778621627.619486,-0.51265186,-1.2660495,-0.032562874,1.5943571,-0.2121228,1.8544327
14,1778621627.6294878,-0.51265186,-1.2660495,-0.032562874,1.5943571,-0.2121228,1.8544327
15,1778621627.6394892,-0.5689966,-1.4833792,-0.4821013,-0.2877173,-0.013591741,0.398742
16,1778621627.6496985,-0.5689966,-1.4833792,-0.4821013,-0.2877173,-0.013591741,0.398742
17,1778621627.6597013,-0.5689966,-1.4833792,-0.4821013,0.077579826,-0.34529132,0.8660535
18,1778621627.6697023,-0.5689966,-1.4833792,-0.4821013,0.077579826,-0.34529132,0.8660535
19,1778621627.6797032,-0.5689966,-1.4833792,-0.4821013,0.077579826,-0.34529132,0.8660535
20,1778621627.6897042,-0.64070815,-1.5589935,-0.54893446,0.22479823,-0.40088,0.9998329
21,1778621627.699705,-0.64070815,-1.5589935,-0.54893446,0.22479823,-0.40088,0.9998329
22,1778621627.709706,-0.64070815,-1.5589935,-0.54893446,0.22479823,-0.40088,0.9998329
23,1778621627.71979,-0.64070815,-1.5589935,-0.54893446,0.69333154,-0.41065386,1.3413063
24,1778621627.729793,-0.64070815,-1.5589935,-0.54893446,0.69333154,-0.41065386,1.3413063
25,1778621627.7399979,-0.7648617,-1.7109535,-0.62308514,0.849102,-0.37949973,1.4402665
26,1778621627.7499986,-0.7648617,-1.7109535,-0.62308514,0.849102,-0.37949973,1.4402665
27,1778621627.759999,-0.7648617,-1.7109535,-0.62308514,0.849102,-0.37949973,1.4402665
28,1778621627.77,-0.7648617,-1.7109535,-0.62308514,0.849102,-0.37949973,1.4402665
29,1778621627.7800004,-0.7648617,-1.7109535,-0.62308514,0.849102,-0.37949973,1.4402665
30,1778621627.7900012,-1.1839105,-3.448128,-0.29745638,1.3249657,-0.29092434,1.70416
31,1778621627.800002,-1.1839105,-3.448128,-0.29745638,1.3249657,-0.29092434,1.70416
32,1778621627.810003,-1.1839105,-3.448128,-0.29745638,1.3249657,-0.29092434,1.70416
33,1778621627.820004,-0.99121636,-2.8907785,-0.3445323,1.7372994,-0.093615025,1.9680536
34,1778621627.8300073,-0.99121636,-2.8907785,-0.3445323,1.7372994,-0.093615025,1.9680536
35,1778621627.8400085,-0.99121636,-2.8907785,-0.3445323,1.7372994,-0.093615025,1.9680536
36,1778621627.8500097,-0.99121636,-2.8907785,-0.3445323,1.7525711,-0.053908817,2.0004294
37,1778621627.860011,-0.99121636,-2.8907785,-0.3445323,0.767857,-2.5651739,0.87216216
38,1778621627.8700118,-0.99121636,-2.8907785,-0.3445323,0.767857,-2.5651739,0.87216216
39,1778621627.8800128,-0.99121636,-2.8907785,-0.3445323,0.767857,-2.5651739,0.87216216
40,1778621627.8900137,-0.99121636,-2.8907785,-0.3445323,0.767857,-2.5651739,0.87216216
41,1778621627.9000146,-0.99121636,-2.8907785,-0.3445323,0.767857,-2.5651739,0.87216216
42,1778621627.910016,-0.99121636,-2.8907785,-0.3445323,0.767857,-2.5651739,0.87216216
43,1778621627.920017,-0.99121636,-2.8907785,-0.3445323,0.767857,-2.5651739,0.87216216
44,1778621627.9300177,-0.99121636,-2.8907785,-0.3445323,0.767857,-2.5651739,0.87216216
45,1778621627.9400184,-0.99121636,-2.8907785,-0.3445323,0.767857,-2.5651739,0.87216216
46,1778621627.950019,-0.99121636,-2.8907785,-0.3445323,0.767857,-2.5651739,0.87216216
47,1778621627.9600198,-0.99121636,-2.8907785,-0.3445323,1.2009602,-2.4845397,0.93935734
48,1778621627.9700215,-0.99121636,-2.8907785,-0.3445323,1.2009602,-2.4845397,0.93935734
49,1778621627.9800224,-0.99121636,-2.8907785,-0.3445323,1.2009602,-2.4845397,0.93935734
50,1778621627.9900472,-0.99121636,-2.8907785,-0.3445323,1.2009602,-2.4845397,0.93935734
51,1778621628.0000482,-1.1665924,-3.629846,-0.28940713,0.95844686,-2.180329,1.0994039
52,1778621628.0100489,-1.1665924,-3.629846,-0.28940713,0.95844686,-2.180329,1.0994039
53,1778621628.0200498,-0.7004677,-2.4827058,-0.29721245,1.0769546,-2.5321872,0.9448551
54,1778621628.0300515,-0.7004677,-2.4827058,-0.29721245,1.0769546,-2.5321872,0.9448551
55,1778621628.0400527,-0.7004677,-2.4827058,-0.29721245,1.0769546,-2.5321872,0.9448551
56,1778621628.0500536,-0.66363627,-1.7363209,-0.15037462,1.5980222,-2.144288,0.7811433
57,1778621628.0600545,-0.66363627,-1.7363209,-0.15037462,1.5980222,-2.144288,0.7811433
58,1778621628.0700552,-0.7036386,-1.516308,-0.15452121,1.5980222,-2.144288,0.7811433
59,1778621628.0800567,-0.7036386,-1.516308,-0.15452121,1.5980222,-2.144288,0.7811433
60,1778621628.0900571,-0.7036386,-1.516308,-0.15452121,1.5980222,-2.144288,0.7811433
61,1778621628.1000583,-0.7036386,-1.516308,-0.15452121,1.6743803,-1.0868812,0.5184715
62,1778621628.1100614,-0.6811983,-1.2962952,-0.24111164,1.6743803,-1.0868812,0.5184715
63,1778621628.120063,-0.6811983,-1.2962952,-0.24111164,1.6743803,-1.0868812,0.5184715
64,1778621628.130064,-0.6811983,-1.2962952,-0.24111164,1.6743803,-1.0868812,0.5184715
65,1778621628.1401403,-0.6811983,-1.2962952,-0.24111164,1.6743803,-1.0868812,0.5184715
66,1778621628.1501627,-0.6811983,-1.2962952,-0.24111164,1.6743803,-1.0868812,0.5184715
67,1778621628.160164,-0.6811983,-1.2962952,-0.24111164,1.6230677,-0.95737785,0.52763444
68,1778621628.170165,-0.6811983,-1.2962952,-0.24111164,1.6230677,-0.95737785,0.52763444
69,1778621628.1801665,-0.6811983,-1.2962952,-0.24111164,1.6230677,-0.95737785,0.52763444
70,1778621628.190168,-0.6916867,-1.3599575,-0.21354906,1.7452407,-1.643379,0.57894707
71,1778621628.2001693,-0.6916867,-1.3599575,-0.21354906,1.7452407,-1.643379,0.57894707
72,1778621628.21017,-0.6916867,-1.3599575,-0.21354906,1.3127484,-0.62201303,0.6430879
73,1778621628.220171,-0.6916867,-1.3599575,-0.21354906,1.3127484,-0.62201303,0.6430879
74,1778621628.2301714,-0.6916867,-1.3599575,-0.21354906,1.3127484,-0.62201303,0.6430879
75,1778621628.2401729,-0.6916867,-1.3599575,-0.21354906,1.3127484,-0.62201303,0.6430879
76,1778621628.2501748,-0.6916867,-1.3599575,-0.21354906,1.3127484,-0.62201303,0.6430879
77,1778621628.2601793,-0.6916867,-1.3599575,-0.21354906,1.3127484,-0.62201303,0.6430879
78,1778621628.2701812,-0.62875617,-1.1170164,-0.33672696,1.0305289,-0.6330086,0.77381295
79,1778621628.2801828,-0.62875617,-1.1170164,-0.33672696,1.0305289,-0.6330086,0.77381295
80,1778621628.2901843,-0.5038709,-0.8262678,-0.45770964,1.0305289,-0.6330086,0.77381295
81,1778621628.3001854,-0.5038709,-0.8262678,-0.45770964,1.0305289,-0.6330086,0.77381295
82,1778621628.3101869,-0.5038709,-0.8262678,-0.45770964,1.0305289,-0.6330086,0.77381295
83,1778621628.3201885,-0.29751736,-0.40673104,-0.43844023,0.37873617,-1.4081961,1.166599
84,1778621628.3305395,-0.29751736,-0.40673104,-0.43844023,0.14905101,-1.7569999,1.3382521
85,1778621628.3405402,-0.29751736,-0.40673104,-0.43844023,0.14905101,-1.7569999,1.3382521
86,1778621628.3505414,-0.29751736,-0.40673104,-0.43844023,0.14905101,-1.7569999,1.3382521
87,1778621628.3605425,-0.29751736,-0.40673104,-0.43844023,-0.126449,-1.2053889,0.8513928
88,1778621628.3705437,-0.29751736,-0.40673104,-0.43844023,-0.126449,-1.2053889,0.8513928
89,1778621628.3805454,-0.29751736,-0.40673104,-0.43844023,-0.126449,-1.2053889,0.8513928
90,1778621628.3905473,-0.29751736,-0.40673104,-0.43844023,-0.126449,-1.2053889,0.8513928
91,1778621628.400549,-0.29751736,-0.40673104,-0.43844023,-0.126449,-1.2053889,0.8513928
92,1778621628.41055,-0.29751736,-0.40673104,-0.43844023,-0.126449,-1.2053889,0.8513928
93,1778621628.4205534,-0.29751736,-0.40673104,-0.43844023,-0.126449,-1.2053889,0.8513928
94,1778621628.4305563,-0.29751736,-0.40673104,-0.43844023,-0.126449,-1.2053889,0.8513928
95,1778621628.4405582,-0.29751736,-0.40673104,-0.43844023,-0.126449,-1.2053889,0.8513928
96,1778621628.4505591,-0.29751736,-0.40673104,-0.43844023,-0.126449,-1.2053889,0.8513928
97,1778621628.4605608,-0.29751736,-0.40673104,-0.43844023,-0.126449,-1.2053889,0.8513928
98,1778621628.470563,-0.29751736,-0.40673104,-0.43844023,-0.126449,-1.2053889,0.8513928
99,1778621628.4805658,-0.29751736,-0.40673104,-0.43844023,-0.126449,-1.2053889,0.8513928
100,1778621628.4905677,0.2566613,0.3503863,-0.20940247,-0.126449,-1.2053889,0.8513928
101,1778621628.5005686,0.36642382,0.39307174,-0.038172957,-0.3970621,-1.1351395,0.71089387
102,1778621628.5105698,0.36642382,0.39307174,-0.038172957,-0.3970621,-1.1351395,0.71089387
103,1778621628.520571,0.36642382,0.39307174,-0.038172957,-0.3970621,-1.1351395,0.71089387
104,1778621628.5305727,0.36642382,0.39307174,-0.038172957,-0.3970621,-1.1351395,0.71089387
105,1778621628.5405736,0.36642382,0.39307174,-0.038172957,-0.3970621,-1.1351395,0.71089387
106,1778621628.5505745,0.36642382,0.39307174,-0.038172957,-0.3970621,-1.1351395,0.71089387
107,1778621628.560575,0.36642382,0.39307174,-0.038172957,-0.3970621,-1.1351395,0.71089387
108,1778621628.5705757,0.36642382,0.39307174,-0.038172957,-0.3970621,-1.1351395,0.71089387
109,1778621628.5805788,0.4147193,0.3901447,0.023537958,-1.084285,-0.62751085,0.8526145
110,1778621628.5905898,0.4147193,0.3901447,0.023537958,-1.084285,-0.62751085,0.8526145
111,1778621628.6005921,0.4147193,0.3901447,0.023537958,-1.084285,-0.62751085,0.8526145
112,1778621628.6105938,0.37081432,0.39648655,-0.079638794,-1.084285,-0.62751085,0.8526145
113,1778621628.6205947,0.37081432,0.39648655,-0.079638794,-1.084285,-0.62751085,0.8526145
114,1778621628.6305957,0.37081432,0.39648655,-0.079638794,-0.5907062,-1.028849,0.7304416
115,1778621628.6405985,0.37081432,0.39648655,-0.079638794,-0.5907062,-1.028849,0.7304416
116,1778621628.6506002,0.37081432,0.39648655,-0.079638794,-0.5907062,-1.028849,0.7304416
117,1778621628.6606011,0.37081432,0.39648655,-0.079638794,-0.5907062,-1.028849,0.7304416
118,1778621628.670602,0.37081432,0.39648655,-0.079638794,-0.5907062,-1.028849,0.7304416
119,1778621628.6806028,0.37081432,0.39648655,-0.079638794,-0.5907062,-1.028849,0.7304416
120,1778621628.6906035,0.37081432,0.39648655,-0.079638794,-0.5253437,-1.6953025,0.44455683
121,1778621628.7006123,0.071040735,0.16720487,-0.3752658,-1.4752384,-0.3263545,0.9466877
122,1778621628.7106154,0.071040735,0.16720487,-0.3752658,-1.4752384,-0.3263545,0.9466877
123,1778621628.7206163,0.071040735,0.16720487,-0.3752658,-1.4752384,-0.3263545,0.9466877
124,1778621628.7306175,0.071040735,0.16720487,-0.3752658,-1.4752384,-0.3263545,0.9466877
125,1778621628.7406185,0.071040735,0.16720487,-0.3752658,-1.4752384,-0.3263545,0.9466877
126,1778621628.7506192,0.081773065,-0.2828214,0.21769562,-0.43127054,-1.4790564,0.46899143
127,1778621628.7606204,0.081773065,-0.2828214,0.21769562,-0.43127054,-1.4790564,0.46899143
128,1778621628.7706208,0.081773065,-0.2828214,0.21769562,-0.43127054,-1.4790564,0.46899143
129,1778621628.7806282,0.081773065,-0.2828214,0.21769562,-0.43127054,-1.4790564,0.46899143
130,1778621628.7906709,0.081773065,-0.2828214,0.21769562,-0.43127054,-1.4790564,0.46899143
131,1778621628.8006716,-0.16970502,-0.35209373,-0.32209197,-0.7202096,-1.1375829,0.30894485
132,1778621628.810681,-0.16970502,-0.35209373,-0.32209197,-0.7202096,-1.1375829,0.30894485
133,1778621628.820684,-0.16970502,-0.35209373,-0.32209197,-0.7202096,-1.1375829,0.30894485
134,1778621628.8306847,-0.18604743,0.17720546,-0.1879378,-2.9791875,0.33215773,0.73960453
135,1778621628.8406854,-0.18604743,0.17720546,-0.1879378,-2.9791875,0.33215773,0.73960453
136,1778621628.8506868,-3.190613,-2.6224701,-0.30599347,-2.1245878,2.3015857,0.8043562
137,1778621628.8606877,-3.190613,-2.6224701,-0.30599347,-2.1245878,2.3015857,0.8043562
138,1778621628.8706884,-3.190613,-2.6224701,-0.30599347,-2.1245878,2.3015857,0.8043562
139,1778621628.8806891,-0.22141537,0.051832296,-0.2172078,-2.1245878,2.3015857,0.8043562
140,1778621628.8906903,-0.22653762,-0.04036821,-0.2374529,-0.05497783,-0.9604322,0.11346813
141,1778621628.900691,-0.22653762,-0.04036821,-0.2374529,-0.05497783,-0.9604322,0.11346813
142,1778621628.9106915,-0.21556135,-0.20037755,-0.28672403,-0.32192573,-1.0074687,0.17760894
143,1778621628.9206948,-0.21556135,-0.20037755,-0.28672403,-0.32192573,-1.0074687,0.17760894
144,1778621628.9306965,-0.21556135,-0.20037755,-0.28672403,-0.32192573,-1.0074687,0.17760894
145,1778621628.940698,-0.21556135,-0.20037755,-0.28672403,-0.32192573,-1.0074687,0.17760894
146,1778621628.9506993,-0.21556135,-0.20037755,-0.28672403,-0.32192573,-1.0074687,0.17760894
147,1778621628.9607003,-0.21556135,-0.20037755,-0.28672403,-0.32192573,-1.0074687,0.17760894
148,1778621628.9707007,-0.21556135,-0.20037755,-0.28672403,-0.32192573,-1.0074687,0.17760894
149,1778621628.9807029,-0.21556135,-0.20037755,-0.28672403,-0.32192573,-1.0074687,0.17760894
150,1778621628.99071,-0.21556135,-0.20037755,-0.28672403,-0.32192573,-1.0074687,0.17760894
151,1778621629.000711,-0.21556135,-0.20037755,-0.28672403,-0.32192573,-1.0074687,0.17760894
152,1778621629.0107117,-0.21556135,-0.20037755,-0.28672403,-0.32192573,-1.0074687,0.17760894
153,1778621629.0207121,-0.21556135,-0.20037755,-0.28672403,-0.32192573,-1.0074687,0.17760894
154,1778621629.0307128,-0.11262852,-0.46331972,-0.33087295,-0.32192573,-1.0074687,0.17760894
155,1778621629.0407135,-0.11262852,-0.46331972,-0.33087295,-0.32192573,-1.0074687,0.17760894
156,1778621629.050715,-0.11262852,-0.46331972,-0.33087295,-0.32192573,-1.0074687,0.17760894
157,1778621629.0607166,-0.11262852,-0.46331972,-0.33087295,-0.32192573,-1.0074687,0.17760894
158,1778621629.0707173,-0.11262852,-0.46331972,-0.33087295,-0.32192573,-1.0074687,0.17760894
159,1778621629.0807183,-0.11262852,-0.46331972,-0.33087295,-0.32192573,-1.0074687,0.17760894
160,1778621629.090719,-0.11262852,-0.46331972,-0.33087295,-0.32192573,-1.0074687,0.17760894
161,1778621629.1007197,-0.11262852,-0.46331972,-0.33087295,-0.32192573,-1.0074687,0.17760894
162,1778621629.1107204,-0.11262852,-0.46331972,-0.33087295,-0.32192573,-1.0074687,0.17760894
163,1778621629.1207209,-0.11262852,-0.46331972,-0.33087295,-0.32192573,-1.0074687,0.17760894
164,1778621629.1307213,-0.11262852,-0.46331972,-0.33087295,-0.32192573,-1.0074687,0.17760894
165,1778621629.140722,-0.11262852,-0.46331972,-0.33087295,-0.32192573,-1.0074687,0.17760894
166,1778621629.1507227,-0.11262852,-0.46331972,-0.33087295,-0.32192573,-1.0074687,0.17760894
167,1778621629.160724,-0.023355022,-0.6708928,-0.22915971,-2.1569636,-1.0459533,0.615599
168,1778621629.170734,-0.023355022,-0.6708928,-0.22915971,-2.1569636,-1.0459533,0.615599
169,1778621629.1807368,-0.023355022,-0.6708928,-0.22915971,-2.1569636,-1.0459533,0.615599
170,1778621629.1907375,-0.023355022,-0.6708928,-0.22915971,-2.1569636,-1.0459533,0.615599
171,1778621629.2007382,-0.023355022,-0.6708928,-0.22915971,-2.1569636,-1.0459533,0.615599
172,1778621629.2107391,-0.023355022,-0.6708928,-0.22915971,-2.1569636,-1.0459533,0.615599
173,1778621629.220742,-0.023355022,-0.6708928,-0.22915971,-2.1569636,-1.0459533,0.615599
174,1778621629.230744,-0.023355022,-0.6708928,-0.22915971,-2.1569636,-1.0459533,0.615599
175,1778621629.2407444,-0.023355022,-0.6708928,-0.22915971,-2.1569636,-1.0459533,0.615599
176,1778621629.2507448,-0.0714066,-0.79553425,-0.13012955,-2.1569636,-1.0459533,0.615599
177,1778621629.2607455,-0.0714066,-0.79553425,-0.13012955,-2.1569636,-1.0459533,0.615599
178,1778621629.2707462,-0.0714066,-0.79553425,-0.13012955,-2.1569636,-1.0459533,0.615599
179,1778621629.280747,-0.6329028,-1.1162847,0.060369372,-3.139845,1.8990259,0.97295487
180,1778621629.2907474,-0.6329028,-1.1162847,0.060369372,-3.139845,1.8990259,0.97295487
181,1778621629.300748,-0.6329028,-1.1162847,0.060369372,-3.139845,1.8990259,0.97295487
182,1778621629.3107948,-0.6329028,-1.1162847,0.060369372,-3.139845,1.8990259,0.97295487
183,1778621629.3207977,-0.6329028,-1.1162847,0.060369372,-3.139845,1.8990259,0.97295487
184,1778621629.3307981,-0.6329028,-1.1162847,0.060369372,-3.139845,1.8990259,0.97295487
185,1778621629.340805,-1.7297959,-1.4994777,-0.6133285,-3.139845,1.8990259,0.97295487
186,1778621629.3508084,-1.7297959,-1.4994777,-0.6133285,-3.139845,1.8990259,0.97295487
187,1778621629.3608096,-1.7297959,-1.4994777,-0.6133285,-3.139845,1.8990259,0.97295487
188,1778621629.37081,-1.7297959,-1.4994777,-0.6133285,-3.139845,1.8990259,0.97295487
189,1778621629.3808105,-1.7297959,-1.4994777,-0.6133285,-3.139845,1.8990259,0.97295487
190,1778621629.3908112,-1.7297959,-1.4994777,-0.6133285,-3.139845,1.8990259,0.97295487
191,1778621629.4008117,-1.7297959,-1.4994777,-0.6133285,-3.139845,1.8990259,0.97295487
192,1778621629.4108129,-1.7297959,-1.4994777,-0.6133285,-2.0164647,1.8226678,0.7786999
193,1778621629.4208133,-1.7297959,-1.4994777,-0.6133285,-2.0164647,1.8226678,0.7786999
194,1778621629.4308143,-1.7297959,-1.4994777,-0.6133285,-2.0164647,1.8226678,0.7786999
195,1778621629.4408152,-1.7297959,-1.4994777,-0.6133285,-2.0164647,1.8226678,0.7786999
196,1778621629.4508257,-2.7508311,-3.263971,2.1324415,-2.7067418,-2.6885686,-0.24999641
197,1778621629.4608288,-2.7508311,-3.263971,2.1324415,-2.7067418,-2.6885686,-0.24999641
198,1778621629.4708292,-2.7508311,-3.263971,2.1324415,-2.7067418,-2.6885686,-0.24999641
199,1778621629.4808297,-1.3885566,-2.6044202,0.35648423,-2.7067418,-2.6885686,-0.24999641
200,1778621629.4908302,-1.3885566,-2.6044202,0.35648423,-2.7067418,-2.6885686,-0.24999641
201,1778621629.5008404,-1.3885566,-2.6044202,0.35648423,-2.7067418,-2.6885686,-0.24999641
202,1778621629.5108416,-1.3885566,-2.6044202,0.35648423,-2.7067418,-2.6885686,-0.24999641
203,1778621629.5208426,-1.3885566,-2.6044202,0.35648423,-2.7067418,-2.6885686,-0.24999641
204,1778621629.5308435,-3.053532,-2.1587846,-2.5812483,-2.5576909,-0.29153523,0.8153518
205,1778621629.540844,-3.053532,-2.1587846,-2.5812483,-2.5576909,-0.29153523,0.8153518
206,1778621629.550845,-3.053532,-2.1587846,-2.5812483,-2.5576909,-0.29153523,0.8153518
207,1778621629.5608487,-3.053532,-2.1587846,-2.5812483,-2.5576909,-0.29153523,0.8153518
208,1778621629.5708508,-3.053532,-2.1587846,-2.5812483,-2.5576909,-0.29153523,0.8153518
209,1778621629.5808518,-0.5687527,-2.980296,-0.8955401,1.9883648,0.8202387,0.64430964
210,1778621629.590853,-0.5687527,-2.980296,-0.8955401,1.9883648,0.8202387,0.64430964
211,1778621629.6008537,-0.5687527,-2.980296,-0.8955401,1.9883648,0.8202387,0.64430964
212,1778621629.6108608,-0.5687527,-2.980296,-0.8955401,1.7043127,-1.769828,0.22281294
213,1778621629.620863,-0.5687527,-2.980296,-0.8955401,1.7043127,-1.769828,0.22281294
214,1778621629.630864,-0.810718,-3.2605562,-0.6538186,1.5760311,-2.216981,-0.020311253
215,1778621629.6408648,-1.0339018,-3.5871603,-0.5403974,1.1710278,-2.7081163,-0.766788
216,1778621629.650866,-1.0339018,-3.5871603,-0.5403974,1.1710278,-2.7081163,-0.766788
217,1778621629.6608665,-1.0339018,-3.5871603,-0.5403974,1.1710278,-2.7081163,-0.766788
218,1778621629.6708705,-1.0339018,-3.5871603,-0.5403974,1.1710278,-2.7081163,-0.766788
219,1778621629.6808724,-1.0339018,-3.5871603,-0.5403974,1.1710278,-2.7081163,-0.766788
220,1778621629.6908734,-1.0339018,-3.5871603,-0.5403974,1.1710278,-2.7081163,-0.766788
221,1778621629.7008753,-1.0339018,-3.5871603,-0.5403974,1.1710278,-2.7081163,-0.766788
222,1778621629.7108767,-1.0339018,-3.5871603,-0.5403974,1.1710278,-2.7081163,-0.766788
223,1778621629.720878,-1.0339018,-3.5871603,-0.5403974,1.1710278,-2.7081163,-0.766788
224,1778621629.731338,-1.0339018,-3.5871603,-0.5403974,1.075122,-2.700175,-0.992808
225,1778621629.7413387,-1.0339018,-3.5871603,-0.5403974,1.075122,-2.700175,-0.992808
226,1778621629.7513397,-1.0924418,-3.6239917,-0.49332145,1.075122,-2.700175,-0.992808
227,1778621629.7613401,-1.0924418,-3.6239917,-0.49332145,1.075122,-2.700175,-0.992808
228,1778621629.771341,-1.0924418,-3.6239917,-0.49332145,1.075122,-2.700175,-0.992808
229,1778621629.781342,-1.2183027,-3.3393412,-0.36892396,1.0280855,-2.434449,-1.6781982
230,1778621629.7913427,-1.2183027,-3.3393412,-0.36892396,1.0280855,-2.434449,-1.6781982
231,1778621629.8013437,-0.48240623,-0.17574196,-0.031343292,1.8509203,2.526995,-1.6977459
232,1778621629.8113735,-0.48240623,-0.17574196,-0.031343292,1.8509203,2.526995,-1.6977459
233,1778621629.8213773,-0.48240623,-0.17574196,-0.031343292,1.8509203,2.526995,-1.6977459
234,1778621629.8313787,-0.48240623,-0.17574196,-0.031343292,1.8509203,2.526995,-1.6977459
235,1778621629.8414717,-0.48240623,-0.17574196,-0.031343292,1.8509203,2.526995,-1.6977459
236,1778621629.8514724,-0.48240623,-0.17574196,-0.031343292,1.8509203,2.526995,-1.6977459
237,1778621629.861473,-0.46606377,-0.1484233,-0.03719729,1.8277074,2.5917466,-1.6714787
238,1778621629.8715596,-0.46606377,-0.1484233,-0.03719729,1.8277074,2.5917466,-1.6714787
239,1778621629.881561,-0.46606377,-0.1484233,-0.03719729,1.8277074,2.5917466,-1.6714787
240,1778621629.891562,-0.46606377,-0.1484233,-0.03719729,1.8277074,2.5917466,-1.6714787
241,1778621629.901936,-0.39776713,-0.04914921,-0.04085604,1.8277074,2.5917466,-1.6714787
242,1778621629.9119377,-0.39776713,-0.04914921,-0.04085604,1.8277074,2.5917466,-1.6714787
243,1778621629.9219391,-0.2833702,0.08427321,-0.09012721,1.5289946,2.9607089,-1.6287183
244,1778621629.9319396,-0.2833702,0.08427321,-0.09012721,1.5289946,2.9607089,-1.6287183
245,1778621629.9419405,-0.2833702,0.08427321,-0.09012721,1.477071,2.9729261,-1.6256639
246,1778621629.9519422,-0.2833702,0.08427321,-0.09012721,1.477071,2.9729261,-1.6256639
247,1778621629.9619431,-0.2833702,0.08427321,-0.09012721,1.477071,2.9729261,-1.6256639
248,1778621629.971944,-0.014817937,0.19964579,-0.11451888,0.47647452,2.2533274,-1.4900519
249,1778621629.9819453,-0.014817937,0.19964579,-0.11451888,0.47647452,2.2533274,-1.4900519
250,1778621629.9919457,-0.014817937,0.19964579,-0.11451888,0.47647452,2.2533274,-1.4900519
251,1778621630.0019464,0.015915563,0.1718393,-0.014269125,0.47647452,2.2533274,-1.4900519
252,1778621630.0119548,0.015915563,0.1718393,-0.014269125,0.47647452,2.2533274,-1.4900519
253,1778621630.0219579,0.015915563,0.1718393,-0.014269125,0.47647452,2.2533274,-1.4900519
254,1778621630.031959,0.015915563,0.1718393,-0.014269125,0.47647452,2.2533274,-1.4900519
255,1778621630.0419881,0.015915563,0.1718393,-0.014269125,0.47647452,2.2533274,-1.4900519
256,1778621630.0519888,0.015915563,0.1718393,-0.014269125,0.47647452,2.2533274,-1.4900519
257,1778621630.0619907,-0.009695687,0.18598646,-0.081346214,0.16859868,2.128711,-1.4472914
258,1778621630.0719912,-0.009695687,0.18598646,-0.081346214,0.16859868,2.128711,-1.4472914
259,1778621630.0819921,-0.009695687,0.18598646,-0.081346214,0.16859868,2.128711,-1.4472914
260,1778621630.0919933,0.03225798,0.16354613,-0.013537374,0.16859868,2.128711,-1.4472914
261,1778621630.1019943,0.03225798,0.16354613,-0.013537374,0.16859868,2.128711,-1.4472914
262,1778621630.1119955,0.03225798,0.16354613,-0.013537374,0.16859868,2.128711,-1.4472914
263,1778621630.1219969,0.03225798,0.16354613,-0.013537374,0.16859868,2.128711,-1.4472914
264,1778621630.131998,0.03225798,0.16354613,-0.013537374,0.16859868,2.128711,-1.4472914
265,1778621630.1419988,0.03225798,0.16354613,-0.013537374,0.16859868,2.128711,-1.4472914
266,1778621630.1520069,0.0690894,0.1367153,-0.04744179,-0.21746786,1.6021456,-1.2884666
267,1778621630.16201,0.0690894,0.1367153,-0.04744179,-0.21746786,1.6021456,-1.2884666
268,1778621630.1720114,0.0690894,0.1367153,-0.04744179,-0.21746786,1.6021456,-1.2884666
269,1778621630.182015,0.0690894,0.1367153,-0.04744179,-0.21746786,1.6021456,-1.2884666
270,1778621630.1920257,0.0690894,0.1367153,-0.04744179,-0.21746786,1.6021456,-1.2884666
271,1778621630.2020266,0.0690894,0.1367153,-0.04744179,-0.21746786,1.6021456,-1.2884666
272,1778621630.2120273,0.0690894,0.1367153,-0.04744179,-0.21746786,1.6021456,-1.2884666
273,1778621630.2220275,0.0690894,0.1367153,-0.04744179,-0.21746786,1.6021456,-1.2884666
274,1778621630.2320285,0.0690894,0.1367153,-0.04744179,-0.21746786,1.6021456,-1.2884666
275,1778621630.2420287,0.0690894,0.1367153,-0.04744179,-0.21746786,1.6021456,-1.2884666
276,1778621630.2520294,0.0690894,0.1367153,-0.04744179,-0.21746786,1.6021456,-1.2884666
277,1778621630.2620301,0.1276294,0.025245376,0.004756375,-0.09468404,1.2893828,-1.1895064
278,1778621630.272031,0.1276294,0.025245376,0.004756375,-0.09468404,1.2893828,-1.1895064
279,1778621630.2820315,0.1276294,0.025245376,0.004756375,-0.09468404,1.2893828,-1.1895064
280,1778621630.2920325,0.1276294,0.025245376,0.004756375,0.116675176,1.0297652,-1.1259766
281,1778621630.302033,0.1276294,0.025245376,0.004756375,0.116675176,1.0297652,-1.1259766
282,1778621630.312034,0.1276294,0.025245376,0.004756375,0.116675176,1.0297652,-1.1259766
283,1778621630.3220434,0.1276294,0.025245376,0.004756375,0.20647229,0.9320269,-1.1033745
284,1778621630.332049,0.1276294,0.025245376,0.004756375,0.20647229,0.9320269,-1.1033745
285,1778621630.342051,0.1334834,0.028660208,0.013293459,0.20647229,0.9320269,-1.1033745
286,1778621630.3520517,0.1334834,0.028660208,0.013293459,0.20647229,0.9320269,-1.1033745
287,1778621630.3620534,0.1334834,0.028660208,0.013293459,0.20647229,0.9320269,-1.1033745
288,1778621630.3720546,0.084456146,-0.109640546,-0.4630758,-0.27855435,1.3223696,-1.5267038
289,1778621630.3820558,0.084456146,-0.109640546,-0.4630758,-0.27855435,1.3223696,-1.5267038
290,1778621630.3920565,0.084456146,-0.109640546,-0.4630758,-0.27855435,1.3223696,-1.5267038
291,1778621630.402062,0.084456146,-0.109640546,-0.4630758,-0.27855435,1.3223696,-1.5267038
292,1778621630.412064,0.084456146,-0.109640546,-0.4630758,-0.27855435,1.3223696,-1.5267038
293,1778621630.4220653,0.084456146,-0.109640546,-0.4630758,-0.27855435,1.3223696,-1.5267038
294,1778621630.4320662,0.0807974,-0.071589544,-0.46502712,-0.27855435,1.3223696,-1.5267038
295,1778621630.4420674,0.0807974,-0.071589544,-0.46502712,-0.27855435,1.3223696,-1.5267038
296,1778621630.452068,0.0807974,-0.071589544,-0.46502712,-0.27855435,1.3223696,-1.5267038
297,1778621630.4620686,0.0807974,-0.071589544,-0.46502712,-0.27855435,1.3223696,-1.5267038
298,1778621630.4720697,0.0807974,-0.071589544,-0.46502712,-0.27855435,1.3223696,-1.5267038
299,1778621630.4820704,0.0807974,-0.071589544,-0.46502712,-0.27855435,1.3223696,-1.5267038
300,1778621630.4920714,0.0807974,-0.071589544,-0.46502712,-0.27855435,1.3223696,-1.5267038
301,1778621630.5020723,-0.6621728,-1.2097048,-0.12110463,-1.4740167,-0.67699087,-0.045967575
302,1778621630.5120735,-0.027013771,-4.382085,0.18964522,1.1246021,0.9980003,-0.3110829
303,1778621630.5220745,-0.027013771,-4.382085,0.18964522,1.1246021,0.9980003,-0.3110829
304,1778621630.532075,0.14592315,-4.481603,0.32794595,1.1246021,0.9980003,-0.3110829
305,1778621630.5420804,0.14592315,-4.481603,0.32794595,1.2718204,0.98517215,-0.3092503
306,1778621630.552083,0.14592315,-4.481603,0.32794595,1.2718204,0.98517215,-0.3092503
307,1778621630.5620842,0.14592315,-4.481603,0.32794595,1.2718204,0.98517215,-0.3092503
308,1778621630.5727885,-0.8514522,-0.86334306,-0.09695688,0.014660755,-0.23594652,0.8025236
309,1778621630.582791,-0.8514522,-0.86334306,-0.09695688,0.014660755,-0.23594652,0.8025236
310,1778621630.592804,-0.8514522,-0.86334306,-0.09695688,0.014660755,-0.23594652,0.8025236
311,1778621630.6028047,-0.8514522,-0.86334306,-0.09695688,0.014660755,-0.23594652,0.8025236
312,1778621630.6128054,-0.8514522,-0.86334306,-0.09695688,0.014660755,-0.23594652,0.8025236
313,1778621630.6228073,-0.5633865,-0.46088055,-0.21110988,0.0036651888,-0.15042545,0.9973895
314,1778621630.6328087,-0.5633865,-0.46088055,-0.21110988,0.0036651888,-0.15042545,0.9973895
315,1778621630.6428103,-0.5633865,-0.46088055,-0.21110988,0.0036651888,-0.15042545,0.9973895
316,1778621630.6528118,-0.5633865,-0.46088055,-0.21110988,0.0036651888,-0.15042545,0.9973895
317,1778621630.6628127,-0.5633865,-0.46088055,-0.21110988,0.0036651888,-0.15042545,0.9973895
318,1778621630.6728141,-0.3960597,-0.34599578,-0.24428254,-0.0067195124,-0.36728245,1.2282964
319,1778621630.6828232,-0.3960597,-0.34599578,-0.24428254,-0.0067195124,-0.36728245,1.2282964
320,1778621630.6928263,-0.3960597,-0.34599578,-0.24428254,-0.0067195124,-0.36728245,1.2282964
321,1778621630.7028408,-0.3960597,-0.34599578,-0.24428254,-0.0067195124,-0.36728245,1.2282964
322,1778621630.712844,-0.3960597,-0.34599578,-0.24428254,-0.0067195124,-0.36728245,1.2282964
323,1778621630.7228448,-0.3389832,-0.30672523,-0.25135612,0.0006108648,-0.47479466,1.2875502
324,1778621630.7328458,-0.3389832,-0.30672523,-0.25135612,0.0006108648,-0.47479466,1.2875502
325,1778621630.7428465,-0.3389832,-0.30672523,-0.25135612,0.0006108648,-0.47479466,1.2875502
326,1778621630.7528477,-0.3389832,-0.30672523,-0.25135612,0.029932374,-0.7032581,1.4017819
327,1778621630.7628639,-0.3389832,-0.30672523,-0.25135612,0.029932374,-0.7032581,1.4017819
328,1778621630.772865,-0.3389832,-0.30672523,-0.25135612,0.029932374,-0.7032581,1.4017819
329,1778621630.7828658,-0.15336262,-0.2086707,-0.18988912,0.029932374,-0.7032581,1.4017819
330,1778621630.7928677,-0.099457026,-0.17964463,-0.16452178,0.06658426,-0.90484345,1.5007421
331,1778621630.8028693,-0.099457026,-0.17964463,-0.16452178,0.06658426,-0.90484345,1.5007421
332,1778621630.8128707,-0.099457026,-0.17964463,-0.16452178,0.12095123,-1.0978767,1.6155846
333,1778621630.8234205,0.043478146,-0.10061563,-0.07280912,0.12095123,-1.0978767,1.6155846
334,1778621630.8334222,0.043478146,-0.10061563,-0.07280912,0.12095123,-1.0978767,1.6155846
335,1778621630.8434238,0.043478146,-0.10061563,-0.07280912,0.12095123,-1.0978767,1.6155846
336,1778621630.8534253,0.043478146,-0.10061563,-0.07280912,0.13744457,-1.1314743,1.6406301
337,1778621630.8634262,0.043478146,-0.10061563,-0.07280912,0.13744457,-1.1314743,1.6406301
338,1778621630.8734272,0.35252056,0.41234115,-0.21354906,-0.04092794,-0.53404856,1.3486367
339,1778621630.883428,0.35252056,0.41234115,-0.21354906,-0.04092794,-0.53404856,1.3486367
340,1778621630.8934288,0.34495914,0.39551088,-0.15525296,-0.091018856,-0.5242747,1.279609
341,1778621630.9034305,0.21812248,0.24428254,-0.3418492,-0.4874701,-1.3324488,1.2337941
342,1778621630.9134314,0.21812248,0.24428254,-0.3418492,-0.4874701,-1.3324488,1.2337941
343,1778621630.9234326,0.21812248,0.24428254,-0.3418492,-0.72509646,-1.6256639,1.3272564
344,1778621630.9334338,0.21812248,0.24428254,-0.3418492,-0.72509646,-1.6256639,1.3272564
345,1778621630.943434,0.21812248,0.24428254,-0.3418492,-0.72509646,-1.6256639,1.3272564
346,1778621630.953435,0.20568272,-0.004268542,-0.3003834,-1.4141519,-1.8877249,1.451262
347,1778621630.9634383,0.20568272,-0.004268542,-0.3003834,-1.4141519,-1.8877249,1.451262
348,1778621630.9734404,0.20568272,-0.004268542,-0.3003834,-1.4141519,-1.8877249,1.451262
349,1778621630.9834414,0.20568272,-0.004268542,-0.3003834,-1.4141519,-1.8877249,1.451262
350,1778621630.993662,0.083480485,-0.10939662,-0.107933134,-1.1734712,-1.5102104,1.2221878
351,1778621631.0036654,0.083480485,-0.10939662,-0.107933134,-1.1734712,-1.5102104,1.2221878
352,1778621631.0136666,0.083480485,-0.10939662,-0.107933134,-1.1734712,-1.5102104,1.2221878
353,1778621631.0236702,0.083480485,-0.10939662,-0.107933134,-1.1734712,-1.5102104,1.2221878
354,1778621631.0336814,0.083480485,-0.10939662,-0.107933134,-1.1734712,-1.5102104,1.2221878
355,1778621631.043682,0.01981823,-0.16793664,0.028172374,-0.61086476,-1.4888302,1.0615302
356,1778621631.0536828,0.01981823,-0.16793664,0.028172374,-0.61086476,-1.4888302,1.0615302
357,1778621631.0636835,0.024696562,-0.13183697,0.13744704,-0.6835577,-1.3336705,1.0615302
358,1778621631.0736847,0.0032318959,-0.08646846,0.1574482,-0.7171553,-1.2579232,1.0615302
359,1778621631.0836854,0.0032318959,-0.08646846,0.1574482,-0.7171553,-1.2579232,1.0615302
360,1778621631.093686,0.0032318959,-0.08646846,0.1574482,-0.7171553,-1.2579232,1.0615302
361,1778621631.1036956,0.0032318959,-0.08646846,0.1574482,-0.92729276,-0.8187115,1.0609194
362,1778621631.1136985,0.0032318959,-0.08646846,0.1574482,-0.92729276,-0.8187115,1.0609194
363,1778621631.1236992,0.0032318959,-0.08646846,0.1574482,-0.92729276,-0.8187115,1.0609194
364,1778621631.1337,0.0032318959,-0.08646846,0.1574482,-0.92729276,-0.8187115,1.0609194
365,1778621631.1437008,-0.050917607,0.004268542,0.031343292,-1.2840377,-0.37766716,0.9747875
366,1778621631.1537018,-0.050917607,0.004268542,0.031343292,-1.3353504,-0.36300638,0.95585066
367,1778621631.163702,-0.050917607,0.004268542,0.031343292,-1.3353504,-0.36300638,0.95585066
368,1778621631.1737032,-0.050917607,0.004268542,0.031343292,-1.3353504,-0.36300638,0.95585066
369,1778621631.1837041,-0.07799236,-0.004024625,-0.03500204,-1.3353504,-0.36300638,0.95585066
370,1778621631.1937048,-0.07799236,-0.004024625,-0.03500204,-1.3353504,-0.36300638,0.95585066
371,1778621631.2037058,-0.07799236,-0.004024625,-0.03500204,-1.5186099,-0.45280352,0.8807143
372,1778621631.2137067,-0.07799236,-0.004024625,-0.03500204,-1.6603304,-0.60979575,0.8025236
373,1778621631.2237074,-0.07799236,-0.004024625,-0.03500204,-1.6603304,-0.60979575,0.8025236
374,1778621631.2337077,-0.07799236,-0.004024625,-0.03500204,-1.6603304,-0.60979575,0.8025236
375,1778621631.2437158,-0.0918956,-0.019391375,-0.081346214,-1.7159191,-0.68798643,0.7732021
376,1778621631.2537186,-0.0918956,-0.019391375,-0.081346214,-1.7159191,-0.68798643,0.7732021
377,1778621631.2637193,-0.0918956,-0.019391375,-0.081346214,-1.7159191,-0.68798643,0.7732021
378,1778621631.27372,-0.0918956,-0.019391375,-0.081346214,-1.7159191,-0.68798643,0.7732021
379,1778621631.283721,-0.113116354,-0.042807378,-0.09085896,-1.7159191,-0.68798643,0.7732021
380,1778621631.2937217,-0.113116354,-0.042807378,-0.09085896,-1.7159191,-0.68798643,0.7732021
381,1778621631.3037221,-0.113116354,-0.042807378,-0.09085896,-1.7159191,-0.68798643,0.7732021
382,1778621631.3137228,-0.113116354,-0.042807378,-0.09085896,-1.7159191,-0.68798643,0.7732021
383,1778621631.3237236,-0.113116354,-0.042807378,-0.09085896,-1.7159191,-0.68798643,0.7732021
384,1778621631.3337243,-0.113116354,-0.042807378,-0.09085896,-1.7159191,-0.68798643,0.7732021
385,1778621631.3437247,-0.9729226,-0.97895956,-0.36404565,-2.308458,-0.5914698,0.9100358
386,1778621631.3537285,-0.9729226,-0.97895956,-0.36404565,-2.3591597,-0.8449787,1.0688607
387,1778621631.3637304,-0.9729226,-0.97895956,-0.36404565,-2.3591597,-0.8449787,1.0688607
388,1778621631.3737314,-0.9729226,-0.97895956,-0.36404565,-2.3591597,-0.8449787,1.0688607
389,1778621631.383732,-0.9729226,-0.97895956,-0.36404565,-2.3591597,-0.8449787,1.0688607
390,1778621631.3937325,-0.9729226,-0.97895956,-0.36404565,-2.3157883,-1.0337359,1.0768019
391,1778621631.4037337,-2.0573761,-2.335868,-1.3472737,-2.3157883,-1.0337359,1.0768019
392,1778621631.4137344,-2.0573761,-2.335868,-1.3472737,-2.3157883,-1.0337359,1.0768019
393,1778621631.4237354,-2.0573761,-2.335868,-1.3472737,-2.3157883,-1.0337359,1.0768019
394,1778621631.433736,-2.0573761,-2.335868,-1.3472737,-2.3157883,-1.0337359,1.0768019
395,1778621631.4437373,-2.0573761,-2.335868,-1.3472737,-2.3157883,-1.0337359,1.0768019
396,1778621631.4537375,-2.0573761,-2.335868,-1.3472737,-2.3157883,-1.0337359,1.0768019
397,1778621631.4637382,-2.0573761,-2.335868,-1.3472737,-2.3157883,-1.0337359,1.0768019
398,1778621631.473739,-2.0573761,-2.335868,-1.3472737,-2.3157883,-1.0337359,1.0768019
399,1778621631.4837399,-2.0573761,-2.335868,-1.3472737,-2.3157883,-1.0337359,1.0768019
400,1778621631.4937403,-2.0573761,-2.335868,-1.3472737,-2.3157883,-1.0337359,1.0768019
401,1778621631.5037427,-2.0573761,-2.335868,-1.3472737,-2.3157883,-1.0337359,1.0768019
402,1778621631.5137532,-2.0573761,-2.335868,-1.3472737,-2.3139558,-2.1094687,0.91797704
403,1778621631.523754,-2.0573761,-2.335868,-1.3472737,-2.3139558,-2.1094687,0.91797704
404,1778621631.533754,-2.0573761,-2.335868,-1.3472737,-2.3139558,-2.1094687,0.91797704
405,1778621631.5438428,-2.253729,-2.670034,-1.4704516,-2.241263,-1.8272493,0.9790635
406,1778621631.5538454,-2.253729,-2.670034,-1.4704516,-2.241263,-1.8272493,0.9790635
407,1778621631.5638463,-2.253729,-2.670034,-1.4704516,-2.241263,-1.8272493,0.9790635
408,1778621631.5738468,-2.253729,-2.670034,-1.4704516,-2.241263,-1.8272493,0.9790635
409,1778621631.5838478,-2.253729,-2.670034,-1.4704516,-2.241263,-1.8272493,0.9790635
410,1778621631.5938494,-2.253729,-2.670034,-1.4704516,-2.241263,-1.8272493,0.9790635
411,1778621631.6038506,-2.253729,-2.670034,-1.4704516,-2.241263,-1.8272493,0.9790635
412,1778621631.6138515,-0.7531537,-3.0515194,-1.2245836,1.0720677,-1.6409355,-0.16569707
413,1778621631.6238627,-0.7531537,-3.0515194,-1.2245836,1.0720677,-1.6409355,-0.16569707
414,1778621631.6338665,-0.7531537,-3.0515194,-1.2245836,1.0720677,-1.6409355,-0.16569707
415,1778621631.6438682,-0.7531537,-3.0515194,-1.2245836,1.2131774,-1.7594433,-0.73013616
416,1778621631.6538692,-0.7531537,-3.0515194,-1.2245836,1.2131774,-1.7594433,-0.73013616
417,1778621631.6638696,-0.7531537,-3.0515194,-1.2245836,1.2131774,-1.7594433,-0.73013616
418,1778621631.6738706,-0.85584265,-3.5859408,-0.89261305,1.2131774,-1.7594433,-0.73013616
419,1778621631.6838713,-0.85584265,-3.5859408,-0.89261305,1.2131774,-1.7594433,-0.73013616
420,1778621631.6938722,-0.85584265,-3.5859408,-0.89261305,1.2131774,-1.7594433,-0.73013616
421,1778621631.7038736,-0.951458,-3.6432612,-0.5901564,1.350622,-1.6238313,-1.1754565
422,1778621631.7138746,-0.951458,-3.6432612,-0.5901564,1.350622,-1.6238313,-1.1754565
423,1778621631.7238753,-0.951458,-3.6432612,-0.5901564,1.350622,-1.6238313,-1.1754565
424,1778621631.7339494,-0.951458,-3.6432612,-0.5901564,1.4892883,-1.4124721,-1.5138756
425,1778621631.7439516,-0.951458,-3.6432612,-0.5901564,1.4892883,-1.4124721,-1.5138756
426,1778621631.7539525,-0.951458,-3.6432612,-0.5901564,1.4892883,-1.4124721,-1.5138756
427,1778621631.763963,-1.1868376,-1.9031597,-0.10403045,1.3695588,-1.3568834,-1.8565708
428,1778621631.7739658,-1.1868376,-1.9031597,-0.10403045,1.3695588,-1.3568834,-1.8565708
429,1778621631.7839665,-1.1868376,-1.9031597,-0.10403045,1.3695588,-1.3568834,-1.8565708
430,1778621631.793967,-1.1868376,-1.9031597,-0.10403045,1.3695588,-1.3568834,-1.8565708
431,1778621631.803968,-0.4543558,-0.42404914,0.025245376,1.8729115,1.1818706,-1.656818
432,1778621631.8139684,-0.4543558,-0.42404914,0.025245376,1.9749259,1.7347033,-1.5596905
433,1778621631.8239691,-0.4543558,-0.42404914,0.025245376,1.9749259,1.7347033,-1.5596905
434,1778621631.83397,-0.4543558,-0.42404914,0.025245376,1.9749259,1.7347033,-1.5596905
435,1778621631.8439705,-0.4543558,-0.42404914,0.025245376,1.9749259,1.7347033,-1.5596905
436,1778621631.8539712,-0.4543558,-0.42404914,0.025245376,1.9749259,1.7347033,-1.5596905
437,1778621631.8639727,-0.24702659,0.080614455,-0.050612707,1.7586797,2.0572398,-1.3312271
438,1778621631.873976,-0.24702659,0.080614455,-0.050612707,1.7586797,2.0572398,-1.3312271
439,1778621631.883978,-0.24702659,0.080614455,-0.050612707,1.7586797,2.0572398,-1.3312271
440,1778621631.8939786,-0.24702659,0.080614455,-0.050612707,1.7586797,2.0572398,-1.3312271
441,1778621631.903979,-0.24702659,0.080614455,-0.050612707,1.7586797,2.0572398,-1.3312271
442,1778621631.9139802,-0.24702659,0.080614455,-0.050612707,1.7586797,2.0572398,-1.3312271
443,1778621631.9239814,0.15275282,0.062320713,-0.35599637,-0.239459,0.54534954,-1.3648247
444,1778621631.933982,0.15275282,0.062320713,-0.35599637,-0.239459,0.54534954,-1.3648247
445,1778621631.9439828,0.14909407,0.05353971,-0.33111688,-0.3103193,0.5227475,-1.3770419
446,1778621631.9539833,0.14909407,0.05353971,-0.33111688,-0.3103193,0.5227475,-1.3770419
447,1778621631.9639838,0.14909407,0.05353971,-0.33111688,-0.3103193,0.5227475,-1.3770419
448,1778621631.9739845,0.14909407,0.05353971,-0.33111688,-0.3103193,0.5227475,-1.3770419
449,1778621631.983986,0.14909407,0.05353971,-0.33111688,-0.3103193,0.5227475,-1.3770419
450,1778621631.993987,0.14909407,0.05353971,-0.33111688,-0.3103193,0.5227475,-1.3770419
451,1778621632.0039883,0.1539724,0.03158721,-0.29916382,-0.3103193,0.5227475,-1.3770419
452,1778621632.0139892,0.1539724,0.03158721,-0.29916382,-0.3103193,0.5227475,-1.3770419
453,1778621632.0239897,0.1539724,0.03158721,-0.29916382,-0.3103193,0.5227475,-1.3770419
454,1778621632.0339906,0.1539724,0.03158721,-0.29916382,-0.3103193,0.5227475,-1.3770419
455,1778621632.043991,0.1539724,0.03158721,-0.29916382,-0.3103193,0.5227475,-1.3770419
456,1778621632.0539923,0.1539724,0.03158721,-0.29916382,-0.3103193,0.5227475,-1.3770419
457,1778621632.0639963,0.17690057,-0.009878625,-0.17525412,-0.38851,0.54290605,-1.607338
458,1778621632.073999,0.17690057,-0.009878625,-0.17525412,-0.38851,0.54290605,-1.607338
459,1778621632.0839996,0.17690057,-0.009878625,-0.17525412,-0.38851,0.54290605,-1.607338
460,1778621632.0940013,0.17690057,-0.009878625,-0.17525412,-0.38851,0.54290605,-1.607338
461,1778621632.1040022,0.17690057,-0.009878625,-0.17525412,-0.38851,0.54290605,-1.607338
462,1778621632.1140027,0.17690057,-0.009878625,-0.17525412,-0.38851,0.54290605,-1.607338
463,1778621632.124307,0.17690057,-0.009878625,-0.17525412,-0.38851,0.54290605,-1.607338
464,1778621632.1343114,0.17690057,-0.009878625,-0.17525412,-0.38851,0.54290605,-1.607338
465,1778621632.1443126,0.17690057,-0.009878625,-0.17525412,-0.38851,0.54290605,-1.607338
466,1778621632.1543128,0.17690057,-0.009878625,-0.17525412,-0.38851,0.54290605,-1.607338
467,1778621632.164314,0.17690057,-0.009878625,-0.17525412,-0.38851,0.54290605,-1.607338
468,1778621632.1743205,0.17690057,-0.009878625,-0.17525412,-0.38851,0.54290605,-1.607338
469,1778621632.184323,0.17690057,-0.009878625,-0.17525412,-0.38851,0.54290605,-1.607338
470,1778621632.1943243,0.23934323,-0.04402696,-0.24501431,0.98227054,1.5673263,-2.6250386
471,1778621632.204325,0.23934323,-0.04402696,-0.24501431,0.98227054,1.5673263,-2.6250386
472,1778621632.2143254,0.23934323,-0.04402696,-0.24501431,0.98227054,1.5673263,-2.6250386
473,1778621632.2243264,0.088114895,-0.05939371,-0.22989148,0.98227054,1.5673263,-2.6250386
474,1778621632.2343273,0.088114895,-0.05939371,-0.22989148,0.98227054,1.5673263,-2.6250386
475,1778621632.244328,-0.036770437,0.20623155,-0.33648303,-0.30482152,-0.14798199,-1.3923136
476,1778621632.2543292,0.06518673,0.17769329,-0.5655208,-0.30482152,-0.14798199,-1.3923136
477,1778621632.2643297,0.06518673,0.17769329,-0.5655208,-0.30482152,-0.14798199,-1.3923136
478,1778621632.2743304,0.06518673,0.17769329,-0.5655208,-0.30482152,-0.14798199,-1.3923136
479,1778621632.2843308,0.06518673,0.17769329,-0.5655208,-0.30482152,-0.14798199,-1.3923136
480,1778621632.2943313,0.06518673,0.17769329,-0.5655208,-0.30482152,-0.14798199,-1.3923136
481,1778621632.3043323,0.0866514,0.14817938,-0.58844894,-0.63896453,-1.0276272,-1.3660463
482,1778621632.3143332,0.0866514,0.14817938,-0.58844894,-0.63896453,-1.0276272,-1.3660463
483,1778621632.324334,0.0866514,0.14817938,-0.58844894,-0.63896453,-1.0276272,-1.3660463
484,1778621632.3343344,0.0866514,0.14817938,-0.58844894,-0.63896453,-1.0276272,-1.3660463
485,1778621632.3443356,0.06884548,0.012073875,-0.3545329,-0.8918626,-1.9243767,-1.2078323
486,1778621632.354336,0.06884548,0.012073875,-0.3545329,-0.8918626,-1.9243767,-1.2078323
487,1778621632.364337,0.06884548,0.012073875,-0.3545329,-0.8918626,-1.9243767,-1.2078323
488,1778621632.3743384,0.06884548,0.012073875,-0.3545329,-0.8918626,-1.9243767,-1.2078323
489,1778621632.3843396,-0.17165637,-0.16330221,0.08646846,-0.62857985,-1.742339,-0.5083922
490,1778621632.3943424,-0.17165637,-0.16330221,0.08646846,-0.62857985,-1.742339,-0.5083922
491,1778621632.404344,-0.17165637,-0.16330221,0.08646846,-0.62857985,-1.742339,-0.5083922
492,1778621632.414345,-0.17165637,-0.16330221,0.08646846,-0.62857985,-1.742339,-0.5083922
493,1778621632.4243462,-0.20921952,-0.13305654,0.14939895,-0.62857985,-1.742339,-0.5083922
494,1778621632.4343476,-0.20921952,-0.13305654,0.14939895,-0.62857985,-1.742339,-0.5083922
495,1778621632.4443486,-0.20921952,-0.13305654,0.14939895,-0.62857985,-1.742339,-0.5083922
496,1778621632.4543495,-0.20921952,-0.13305654,0.14939895,-0.62857985,-1.742339,-0.5083922
497,1778621632.4643502,-0.20921952,-0.13305654,0.14939895,-0.62857985,-1.742339,-0.5083922
498,1778621632.4743512,-0.21970794,-0.06500379,0.04549046,-0.750142,-1.3483313,-0.22495095
499,1778621632.484352,-0.21970794,-0.06500379,0.04549046,-0.750142,-1.3483313,-0.22495095
500,1778621632.4943523,-0.21970794,-0.06500379,0.04549046,-0.750142,-1.3483313,-0.22495095
501,1778621632.5043535,-0.21970794,-0.06500379,0.04549046,-0.750142,-1.3483313,-0.22495095
502,1778621632.5143542,-0.21970794,-0.06500379,0.04549046,-0.750142,-1.3483313,-0.22495095
503,1778621632.524355,-0.21970794,-0.06500379,0.04549046,-1.1020001,-1.2292126,-0.01847866
504,1778621632.5343559,-0.21970794,-0.06500379,0.04549046,-1.1020001,-1.2292126,-0.01847866
505,1778621632.544356,-0.21970794,-0.06500379,0.04549046,-1.1020001,-1.2292126,-0.01847866
506,1778621632.5543573,-0.21970794,-0.06500379,0.04549046,-1.1020001,-1.2292126,-0.01847866
507,1778621632.5643587,-0.21970794,-0.06500379,0.04549046,-1.1020001,-1.2292126,-0.01847866
508,1778621632.5743592,-0.21970794,-0.06500379,0.04549046,-1.1020001,-1.2292126,-0.01847866
509,1778621632.5843601,-0.21970794,-0.06500379,0.04549046,-1.1020001,-1.2292126,-0.01847866
510,1778621632.5943663,-0.21970794,-0.06500379,0.04549046,-1.1020001,-1.2292126,-0.01847866
511,1778621632.6043687,-0.21970794,-0.06500379,0.04549046,-1.1020001,-1.2292126,-0.01847866
512,1778621632.6143694,-0.21970794,-0.06500379,0.04549046,-1.1020001,-1.2292126,-0.01847866
513,1778621632.6243699,-0.21970794,-0.06500379,0.04549046,-1.1020001,-1.2292126,-0.01847866
514,1778621632.6343706,-0.21970794,-0.06500379,0.04549046,-1.265101,-1.2921318,0.034666575
515,1778621632.644371,-0.21970794,-0.06500379,0.04549046,-1.265101,-1.2921318,0.034666575
516,1778621632.6543715,-0.21970794,-0.06500379,0.04549046,-1.265101,-1.2921318,0.034666575
517,1778621632.6643724,-0.21507353,-0.056954544,-0.023537958,-1.265101,-1.2921318,0.034666575
518,1778621632.6743774,-0.21507353,-0.056954544,-0.023537958,-1.265101,-1.2921318,0.034666575
519,1778621632.684379,-0.21507353,-0.056954544,-0.023537958,-1.265101,-1.2921318,0.034666575
520,1778621632.6943798,-0.21507353,-0.056954544,-0.023537958,-1.265101,-1.2921318,0.034666575
521,1778621632.7043824,-0.21507353,-0.056954544,-0.023537958,-1.265101,-1.2921318,0.034666575
522,1778621632.7144005,-0.21507353,-0.056954544,-0.023537958,-1.265101,-1.2921318,0.034666575
523,1778621632.7244015,-0.21507353,-0.056954544,-0.023537958,-1.265101,-1.2921318,0.034666575
524,1778621632.7344017,-0.21507353,-0.056954544,-0.023537958,-1.265101,-1.2921318,0.034666575
525,1778621632.744403,-0.27678445,-0.15988737,-0.18598646,-1.265101,-1.2921318,0.034666575
526,1778621632.7544036,-0.28166276,-0.2376968,-0.2423312,-1.8777983,-1.6152792,0.22647811
527,1778621632.764404,-0.28166276,-0.2376968,-0.2423312,-1.8777983,-1.6152792,0.22647811
528,1778621632.7744055,-0.28166276,-0.2376968,-0.2423312,-1.8777983,-1.6152792,0.22647811
529,1778621632.78441,-0.48240623,-1.1601896,-0.016220458,-2.5014913,-3.0996807,1.2075269
530,1778621632.7944117,-0.48240623,-1.1601896,-0.016220458,-2.5014913,-3.0996807,1.2075269
531,1778621632.8044128,-0.48240623,-1.1601896,-0.016220458,-2.5014913,-3.0996807,1.2075269
532,1778621632.8144133,-0.48240623,-1.1601896,-0.016220458,-2.5014913,-3.0996807,1.2075269
533,1778621632.8244143,-0.48240623,-1.1601896,-0.016220458,-2.5014913,-3.0996807,1.2075269
534,1778621632.8344173,-0.48240623,-1.1601896,-0.016220458,-2.5014913,-3.0996807,1.2075269
535,1778621632.844419,-0.48240623,-1.1601896,-0.016220458,-2.5014913,-3.0996807,1.2075269
536,1778621632.8544204,-0.48240623,-1.1601896,-0.016220458,-2.5014913,-3.0996807,1.2075269
537,1778621632.8644214,-0.48240623,-1.1601896,-0.016220458,-2.5014913,-3.0996807,1.2075269
538,1778621632.874422,-0.48240623,-1.1601896,-0.016220458,-2.5014913,-3.0996807,1.2075269
539,1778621632.8844233,-0.48240623,-1.1601896,-0.016220458,-2.5014913,-3.0996807,1.2075269
540,1778621632.8944302,1.1950088,-4.0286493,-0.14086188,-2.5014913,-3.0996807,1.2075269
541,1778621632.9047496,1.1950088,-4.0286493,-0.14086188,-2.5014913,-3.0996807,1.2075269
542,1778621632.914864,-1.1314684,-1.5187472,-0.12256813,0.44348782,-1.7942625,1.2032509
543,1778621632.9248655,-1.1314684,-1.5187472,-0.12256813,0.44348782,-1.7942625,1.2032509
544,1778621632.9348664,-1.1314684,-1.5187472,-0.12256813,0.44348782,-1.7942625,1.2032509
545,1778621632.9448674,0.13104422,-0.029148044,-0.16574138,0.5809324,-2.0526583,1.8006767
546,1778621632.9548683,0.13104422,-0.029148044,-0.16574138,0.5809324,-2.0526583,1.8006767
547,1778621632.964869,0.13104422,-0.029148044,-0.16574138,0.5809324,-2.0526583,1.8006767
548,1778621632.97487,0.27861384,0.4867357,-0.044758707,0.55894125,-1.8883357,1.7273729
549,1778621632.9848707,0.27861384,0.4867357,-0.044758707,0.55894125,-1.8883357,1.7273729
550,1778621632.9948716,0.27861384,0.4867357,-0.044758707,0.55894125,-1.8883357,1.7273729
551,1778621633.0048735,0.057381395,-0.49698022,-0.34916672,0.12217296,-1.7753258,0.51053023
552,1778621633.0148752,0.057381395,-0.49698022,-0.34916672,0.12217296,-1.7753258,0.51053023
553,1778621633.0248766,0.057381395,-0.49698022,-0.34916672,0.12217296,-1.7753258,0.51053023
554,1778621633.0353084,0.057381395,-0.49698022,-0.34916672,0.12217296,-1.7753258,0.51053023
555,1778621633.0453112,0.057381395,-0.49698022,-0.34916672,0.12217296,-1.7753258,0.51053023
556,1778621633.055312,0.057381395,-0.49698022,-0.34916672,0.12217296,-1.7753258,0.51053023
557,1778621633.0653129,0.057381395,-0.49698022,-0.34916672,0.12217296,-1.7753258,0.51053023
558,1778621633.0753138,0.057381395,-0.49698022,-0.34916672,-1.6499457,0.07315106,-0.14859286
559,1778621633.0853145,0.057381395,-0.49698022,-0.34916672,-1.6499457,0.07315106,-0.14859286
560,1778621633.0953152,0.057381395,-0.49698022,-0.34916672,-1.6499457,0.07315106,-0.14859286
561,1778621633.105316,0.057381395,-0.49698022,-0.34916672,-1.6499457,0.07315106,-0.14859286
562,1778621633.1153166,0.057381395,-0.49698022,-0.34916672,-1.6499457,0.07315106,-0.14859286
563,1778621633.1253173,0.057381395,-0.49698022,-0.34916672,-1.6499457,0.07315106,-0.14859286
564,1778621633.1353178,0.057381395,-0.49698022,-0.34916672,-1.6499457,0.07315106,-0.14859286
565,1778621633.1453192,-0.9492627,-0.89163744,-0.10232304,-3.0298893,1.5935935,-0.1876882
566,1778621633.1553206,-0.9492627,-0.89163744,-0.10232304,-3.0298893,1.5935935,-0.1876882
567,1778621633.165322,-0.9492627,-0.89163744,-0.10232304,-3.0298893,1.5935935,-0.1876882
568,1778621633.175833,-0.9492627,-0.89163744,-0.10232304,-2.922988,1.5813762,-0.1913534
569,1778621633.185834,-0.9492627,-0.89163744,-0.10232304,-2.922988,1.5813762,-0.1913534
570,1778621633.1958349,-0.9492627,-0.89163744,-0.10232304,-2.922988,1.5813762,-0.1913534
571,1778621633.205836,-0.9492627,-0.89163744,-0.10232304,-2.922988,1.5813762,-0.1913534
572,1778621633.2158372,-1.4122165,-0.9843257,0.65259904,-2.922988,1.5813762,-0.1913534
573,1778621633.2258391,-1.4122165,-0.9843257,0.65259904,-2.922988,1.5813762,-0.1913534
574,1778621633.23584,-1.4122165,-0.9843257,0.65259904,-2.922988,1.5813762,-0.1913534
575,1778621633.2458425,-1.4122165,-0.9843257,0.65259904,-2.922988,1.5813762,-0.1913534
576,1778621633.255844,-0.60070574,-3.3242185,-2.086585,0.048258316,5.289936,0.5380192
577,1778621633.265845,-0.60070574,-3.3242185,-2.086585,0.048258316,5.289936,0.5380192
578,1778621633.2758465,-0.60070574,-3.3242185,-2.086585,0.048258316,5.289936,0.5380192
579,1778621633.285848,-0.60070574,-3.3242185,-2.086585,0.048258316,5.289936,0.5380192
580,1778621633.2958484,-0.60070574,-3.3242185,-2.086585,0.048258316,5.289936,0.5380192
581,1778621633.305849,-0.24434352,-3.3786118,-1.1936061,0.048258316,5.289936,0.5380192
582,1778621633.31585,-0.24434352,-3.3786118,-1.1936061,0.048258316,5.289936,0.5380192
583,1778621633.3258507,-0.24434352,-3.3786118,-1.1936061,0.048258316,5.289936,0.5380192
584,1778621633.3358529,0.06274756,0.23720895,-0.45966098,-0.29016078,-0.11804962,-1.7624977
585,1778621633.345854,0.06274756,0.23720895,-0.45966098,-0.29016078,-0.11804962,-1.7624977
586,1778621633.3558562,0.39325467,0.10842097,0.12183637,-0.4489856,-0.4405862,-1.7728823
587,1778621633.3658576,0.39325467,0.10842097,0.12183637,-0.4489856,-0.4405862,-1.7728823
588,1778621633.3758585,0.39325467,0.10842097,0.12183637,-0.4489856,-0.4405862,-1.7728823
589,1778621633.3858602,0.06104015,-0.0030489585,-0.08890763,0.650571,2.9509351,-1.8040364
590,1778621633.3958716,0.06104015,-0.0030489585,-0.08890763,0.650571,2.9509351,-1.8040364
591,1778621633.4058754,0.06104015,-0.0030489585,-0.08890763,0.650571,2.9509351,-1.8040364
592,1778621633.4158766,-0.3421541,-0.4355132,-0.23501371,-1.201571,-0.42653632,-0.45524698
593,1778621633.4258964,-0.3421541,-0.4355132,-0.23501371,-1.201571,-0.42653632,-0.45524698
594,1778621633.4359045,-0.3421541,-0.4355132,-0.23501371,-1.201571,-0.42653632,-0.45524698
595,1778621633.4459054,-0.3421541,-0.4355132,-0.23501371,-1.201571,-0.42653632,-0.45524698
596,1778621633.4559064,-0.3421541,-0.4355132,-0.23501371,-1.201571,-0.42653632,-0.45524698
597,1778621633.4659076,-0.41264603,-0.5282015,-0.50478554,-1.6120721,-0.9634865,-0.22006404
598,1778621633.4759092,-0.41264603,-0.5282015,-0.50478554,-1.6120721,-0.9634865,-0.22006404
599,1778621633.4859097,-0.41264603,-0.5282015,-0.50478554,-1.6120721,-0.9634865,-0.22006404
600,1778621633.4959111,-0.45899022,-0.66430706,-0.49722412,-2.02013,-1.6110032,-0.0001527162
601,1778621633.5059125,-0.45899022,-0.66430706,-0.49722412,-2.02013,-1.6110032,-0.0001527162
602,1778621633.5159132,-0.45899022,-0.66430706,-0.49722412,-2.02013,-1.6110032,-0.0001527162
603,1778621633.5259147,-0.45899022,-0.66430706,-0.49722412,-2.02013,-1.6110032,-0.0001527162
604,1778621633.5359159,-0.45899022,-0.66430706,-0.49722412,-2.02013,-1.6110032,-0.0001527162
605,1778621633.5459163,-0.45899022,-0.66430706,-0.49722412,-2.02013,-1.6110032,-0.0001527162
606,1778621633.5559173,-0.8058397,-7.8520436,-0.4511239,-0.03848448,2.64367,-0.110108376
607,1778621633.5659242,-0.8058397,-7.8520436,-0.4511239,-0.03848448,2.64367,-0.110108376
608,1778621633.5759265,-0.8058397,-7.8520436,-0.4511239,-0.03848448,2.64367,-0.110108376
609,1778621633.5859275,0.9808499,-3.6069179,0.23233064,0.87109315,-1.3843724,-0.13637556
610,1778621633.595928,0.9808499,-3.6069179,0.23233064,0.87109315,-1.3843724,-0.13637556
611,1778621633.6059287,0.9808499,-3.6069179,0.23233064,0.87109315,-1.3843724,-0.13637556
612,1778621633.615954,0.9808499,-3.6069179,0.23233064,0.87109315,-1.3843724,-0.13637556
613,1778621633.6259544,0.9808499,-3.6069179,0.23233064,0.87109315,-1.3843724,-0.13637556
614,1778621633.635955,0.22202514,-2.5307574,-0.27013773,0.87109315,-1.3843724,-0.13637556
615,1778621633.6459656,0.22202514,-2.5307574,-0.27013773,0.87109315,-1.3843724,-0.13637556
616,1778621633.6559684,0.22202514,-2.5307574,-0.27013773,0.87109315,-1.3843724,-0.13637556
617,1778621633.6659698,0.22202514,-2.5307574,-0.27013773,0.7715222,-1.7191262,0.15195261
618,1778621633.6759706,0.22202514,-2.5307574,-0.27013773,0.7715222,-1.7191262,0.15195261
619,1778621633.685971,0.22202514,-2.5307574,-0.27013773,0.7715222,-1.7191262,0.15195261
620,1778621633.6959717,0.22202514,-2.5307574,-0.27013773,0.7715222,-1.7191262,0.15195261
621,1778621633.7059827,-0.4938703,-2.0821946,0.07012604,0.92546016,-2.2719588,1.3730713
622,1778621633.7159867,-0.4938703,-2.0821946,0.07012604,0.92546016,-2.2719588,1.3730713
623,1778621633.7259881,-0.4938703,-2.0821946,0.07012604,0.92546016,-2.2719588,1.3730713
624,1778621633.735989,-0.4938703,-2.0821946,0.07012604,0.92546016,-2.2719588,1.3730713
625,1778621633.7459898,-0.4938703,-2.0821946,0.07012604,0.92546016,-2.2719588,1.3730713
626,1778621633.7559905,-0.4938703,-2.0821946,0.07012604,0.92546016,-2.2719588,1.3730713
627,1778621633.7659912,-0.4938703,-2.0821946,0.07012604,0.92546016,-2.2719588,1.3730713
628,1778621633.7759922,-0.5592399,-2.0034096,0.11720196,0.92546016,-2.2719588,1.3730713
629,1778621633.7859955,-0.5592399,-2.0034096,0.11720196,0.92546016,-2.2719588,1.3730713
630,1778621633.7959962,-0.5592399,-2.0034096,0.11720196,0.92546016,-2.2719588,1.3730713
631,1778621633.8059986,-0.5592399,-2.0034096,0.11720196,1.0005965,-2.0031784,1.42866
632,1778621633.816,-0.5592399,-2.0034096,0.11720196,1.0005965,-2.0031784,1.42866
633,1778621633.8260012,-0.5592399,-2.0034096,0.11720196,1.0005965,-2.0031784,1.42866
634,1778621633.8360019,-0.5592399,-2.0034096,0.11720196,1.0005965,-2.0031784,1.42866
635,1778621633.8460026,-0.5592399,-2.0034096,0.11720196,1.0005965,-2.0031784,1.42866
636,1778621633.8560033,-0.5592399,-2.0034096,0.11720196,1.0005965,-2.0031784,1.42866
637,1778621633.8660064,-0.5592399,-2.0034096,0.11720196,1.0005965,-2.0031784,1.42866
638,1778621633.8760068,-0.5592399,-2.0034096,0.11720196,1.0005965,-2.0031784,1.42866
639,1778621633.8860078,-0.5592399,-2.0034096,0.11720196,1.0005965,-2.0031784,1.42866
640,1778621633.8960125,-0.5592399,-2.0034096,0.11720196,1.0005965,-2.0031784,1.42866
641,1778621633.9060142,-0.5592399,-2.0034096,0.11720196,1.0005965,-2.0031784,1.42866
642,1778621633.916015,-0.5592399,-2.0034096,0.11720196,1.0274745,-1.386205,1.1885902
643,1778621633.9260175,-0.5592399,-2.0034096,0.11720196,1.0274745,-1.386205,1.1885902
644,1778621633.9360185,-0.5592399,-2.0034096,0.11720196,1.0274745,-1.386205,1.1885902
645,1778621633.9460196,-0.5592399,-2.0034096,0.11720196,1.0274745,-1.386205,1.1885902
646,1778621633.956309,-0.5592399,-2.0034096,0.11720196,1.0274745,-1.386205,1.1885902
647,1778621633.9663098,-0.5592399,-2.0034096,0.11720196,1.0274745,-1.386205,1.1885902
648,1778621633.976311,-0.77998453,-1.5824094,0.22428137,1.0274745,-1.386205,1.1885902
649,1778621633.9863117,-0.77998453,-1.5824094,0.22428137,1.0274745,-1.386205,1.1885902
650,1778621633.9963126,-0.77998453,-1.5824094,0.22428137,1.0274745,-1.386205,1.1885902
651,1778621634.0063136,-0.77998453,-1.5824094,0.22428137,1.0274745,-1.386205,1.1885902
652,1778621634.016314,-0.77998453,-1.5824094,0.22428137,1.0274745,-1.386205,1.1885902
653,1778621634.0263152,-0.77998453,-1.5824094,0.22428137,1.0274745,-1.386205,1.1885902
654,1778621634.036316,-0.77998453,-1.5824094,0.22428137,1.0274745,-1.386205,1.1885902
655,1778621634.0466638,-0.77998453,-1.5824094,0.22428137,1.0274745,-1.386205,1.1885902
656,1778621634.0566645,-0.73046947,-1.697782,0.21671996,1.0824524,-0.53099424,0.70600694
657,1778621634.0666735,-0.73046947,-1.697782,0.21671996,1.0824524,-0.53099424,0.70600694
658,1778621634.0766764,-0.73046947,-1.697782,0.21671996,1.0824524,-0.53099424,0.70600694
659,1778621634.0866773,-0.83169484,-1.2684886,0.09500554,1.0824524,-0.53099424,0.70600694
660,1778621634.0966785,-0.83169484,-1.2684886,0.09500554,1.0824524,-0.53099424,0.70600694
661,1778621634.1066787,-0.83169484,-1.2684886,0.09500554,1.0824524,-0.53099424,0.70600694
662,1778621634.1166797,-0.83169484,-1.2684886,0.09500554,1.0824524,-0.53099424,0.70600694
663,1778621634.1266801,-0.83169484,-1.2684886,0.09500554,1.0824524,-0.53099424,0.70600694
664,1778621634.136882,-0.83169484,-1.2684886,0.09500554,1.0824524,-0.53099424,0.70600694
665,1778621634.1468825,-0.83169484,-1.2684886,0.09500554,1.0824524,-0.53099424,0.70600694
666,1778621634.1568832,-0.83169484,-1.2684886,0.09500554,1.0824524,-0.53099424,0.70600694
667,1778621634.1668844,-0.83169484,-1.2684886,0.09500554,1.0824524,-0.53099424,0.70600694
668,1778621634.1768932,-0.83169484,-1.2684886,0.09500554,1.0824524,-0.53099424,0.70600694
669,1778621634.186896,-0.83169484,-1.2684886,0.09500554,1.0824524,-0.53099424,0.70600694
670,1778621634.196897,-0.7694961,-1.1087233,-0.010122542,1.1197151,-0.36850417,0.6809615
671,1778621634.2068977,-0.7694961,-1.1087233,-0.010122542,1.1197151,-0.36850417,0.6809615
672,1778621634.216899,-0.7694961,-1.1087233,-0.010122542,1.1197151,-0.36850417,0.6809615
673,1778621634.2269151,-0.7694961,-1.1087233,-0.010122542,1.1197151,-0.36850417,0.6809615
674,1778621634.2369235,-0.7694961,-1.1087233,-0.010122542,1.1197151,-0.36850417,0.6809615
675,1778621634.2469249,-0.013842272,0.4233174,-0.32160413,-0.7611375,-0.3678933,1.0737475
676,1778621634.2569256,-0.013842272,0.4233174,-0.32160413,-0.7611375,-0.3678933,1.0737475
677,1778621634.2669265,-0.013842272,0.4233174,-0.32160413,-0.7611375,-0.3678933,1.0737475
678,1778621634.2769272,-0.013842272,0.4233174,-0.32160413,-0.7611375,-0.3678933,1.0737475
679,1778621634.286934,-0.21141478,0.07012604,-0.042807378,-1.1630865,-0.9738712,1.8825325
680,1778621634.2969363,-0.21141478,0.07012604,-0.042807378,-1.1630865,-0.9738712,1.8825325
681,1778621634.3069377,-0.15092343,-0.04988096,0.01841571,-0.7476985,-0.44302967,2.1103852
682,1778621634.3170054,-0.15092343,-0.04988096,0.01841571,-0.7476985,-0.44302967,2.1103852
683,1778621634.327006,-0.15092343,-0.04988096,0.01841571,-0.7476985,-0.44302967,2.1103852
684,1778621634.3370068,-0.15092343,-0.04988096,0.01841571,-0.7476985,-0.44302967,2.1103852
685,1778621634.3470075,-0.15092343,-0.04988096,0.01841571,-0.7476985,-0.44302967,2.1103852
686,1778621634.357009,-0.12311694,-0.08037054,0.03744121,-0.5668825,-0.21334453,2.1568108
687,1778621634.36701,-0.12311694,-0.08037054,0.03744121,-0.5668825,-0.21334453,2.1568108
688,1778621634.3770106,-0.12311694,-0.08037054,0.03744121,-0.5668825,-0.21334453,2.1568108
689,1778621634.3870115,-0.12311694,-0.08037054,0.03744121,-0.38789913,0.03649917,2.2044582
690,1778621634.3970125,-0.12311694,-0.08037054,0.03744121,-0.38789913,0.03649917,2.2044582
691,1778621634.4070127,-0.12311694,-0.08037054,0.03744121,-0.38789913,0.03649917,2.2044582
692,1778621634.4170134,-0.12311694,-0.08037054,0.03744121,-0.38789913,0.03649917,2.2044582
693,1778621634.427022,-0.051405437,-0.1542773,0.06841862,-0.20891576,0.31994042,2.2496622
694,1778621634.4370246,-0.051405437,-0.1542773,0.06841862,-0.20891576,0.31994042,2.2496622
695,1778621634.4470258,0.01689123,-0.27208906,-0.12427554,0.12034036,0.51236284,2.4842343
696,1778621634.4570277,0.01689123,-0.27208906,-0.12427554,0.12034036,0.51236284,2.4842343
697,1778621634.4670281,0.01689123,-0.27208906,-0.12427554,0.12034036,0.51236284,2.4842343
698,1778621634.477301,0.01689123,-0.27208906,-0.12427554,0.12034036,0.51236284,2.4842343
699,1778621634.4873013,0.01689123,-0.27208906,-0.12427554,0.12034036,0.51236284,2.4842343
700,1778621634.497302,0.01689123,-0.27208906,-0.12427554,0.12034036,0.51236284,2.4842343
701,1778621634.5073035,0.15421632,-0.37990022,-0.42917135,0.106290475,0.33704466,2.4915648
702,1778621634.5173142,0.15421632,-0.37990022,-0.42917135,0.106290475,0.33704466,2.4915648
703,1778621634.5273182,0.15421632,-0.37990022,-0.42917135,0.106290475,0.33704466,2.4915648
704,1778621634.5373194,0.15421632,-0.37990022,-0.42917135,0.106290475,0.33704466,2.4915648
705,1778621634.5473201,0.15421632,-0.37990022,-0.42917135,0.106290475,0.33704466,2.4915648
706,1778621634.5573206,0.15421632,-0.37990022,-0.42917135,0.106290475,0.33704466,2.4915648
707,1778621634.5675056,0.15421632,-0.37990022,-0.42917135,0.020769402,-0.4583013,2.4781258
708,1778621634.5775063,0.15421632,-0.37990022,-0.42917135,0.020769402,-0.4583013,2.4781258
709,1778621634.5875072,-0.936579,-1.1045767,-0.69674796,-2.4770567,0.09269873,0.71089387
710,1778621634.5975084,-0.936579,-1.1045767,-0.69674796,-2.4770567,0.09269873,0.71089387
711,1778621634.6075091,-0.936579,-1.1045767,-0.69674796,-2.4770567,0.09269873,0.71089387
712,1778621634.6175098,-0.936579,-1.1045767,-0.69674796,-2.4770567,0.09269873,0.71089387
713,1778621634.62751,-0.936579,-1.1045767,-0.69674796,-2.4770567,0.09269873,0.71089387
714,1778621634.6375117,-0.936579,-1.1045767,-0.69674796,-2.4770567,0.09269873,0.71089387
715,1778621634.647513,-0.936579,-1.1045767,-0.69674796,-2.4770567,0.09269873,0.71089387
716,1778621634.6578717,-0.936579,-1.1045767,-0.69674796,-2.4770567,0.09269873,0.71089387
717,1778621634.6678746,-0.936579,-1.1045767,-0.69674796,-2.4770567,0.09269873,0.71089387
718,1778621634.6778753,-1.2002529,-1.0460366,-0.18842563,1.5473205,0.53007793,-2.1968224
719,1778621634.687876,-1.2002529,-1.0460366,-0.18842563,1.5473205,0.53007793,-2.1968224
720,1778621634.6978772,-1.2002529,-1.0460366,-0.18842563,1.5473205,0.53007793,-2.1968224
721,1778621634.7078784,-0.05652769,0.24452646,-0.21696389,0.09957096,-0.37827802,-1.7325653
722,1778621634.717879,-0.05652769,0.24452646,-0.21696389,0.09957096,-0.37827802,-1.7325653
723,1778621634.7278798,-0.05652769,0.24452646,-0.21696389,0.09957096,-0.37827802,-1.7325653
724,1778621634.7378812,0.11128698,0.07451654,-0.27355254,0.09957096,-0.37827802,-1.7325653
725,1778621634.7480886,0.11128698,0.07451654,-0.27355254,0.09957096,-0.37827802,-1.7325653
726,1778621634.7580893,0.11128698,0.07451654,-0.27355254,0.09957096,-0.37827802,-1.7325653
727,1778621634.7680912,0.16933915,0.035733793,-0.2128173,0.082466744,-0.5059488,-1.7087415
728,1778621634.7780929,0.16933915,0.035733793,-0.2128173,0.082466744,-0.5059488,-1.7087415
729,1778621634.7880943,0.16933915,0.035733793,-0.2128173,0.082466744,-0.5059488,-1.7087415
730,1778621634.7980955,0.16933915,0.035733793,-0.2128173,0.082466744,-0.5059488,-1.7087415
731,1778621634.8080962,0.16933915,0.035733793,-0.2128173,0.082466744,-0.5059488,-1.7087415
732,1778621634.818097,0.2432459,0.007683375,-0.19306004,0.25778493,-0.6354521,-1.6690353
733,1778621634.8280978,0.2432459,0.007683375,-0.19306004,0.25778493,-0.6354521,-1.6690353
734,1778621634.8380988,0.2432459,0.007683375,-0.19306004,0.40194902,-0.649502,-1.6555963
735,1778621634.848108,0.2432459,0.007683375,-0.19306004,0.40194902,-0.649502,-1.6555963
736,1778621634.8581114,0.2432459,0.007683375,-0.19306004,0.40194902,-0.649502,-1.6555963
737,1778621634.8681126,0.3234945,0.035489876,-0.124031626,0.87170404,0.3346012,-1.8926119
738,1778621634.8781137,0.3234945,0.035489876,-0.124031626,0.87170404,0.3346012,-1.8926119
739,1778621634.8881147,0.3234945,0.035489876,-0.124031626,0.87170404,0.3346012,-1.8926119
740,1778621634.8981159,0.3234945,0.035489876,-0.124031626,0.87170404,0.3346012,-1.8926119
741,1778621634.9081168,0.3234945,0.035489876,-0.124031626,0.87170404,0.3346012,-1.8926119
742,1778621634.9181173,0.3234945,0.035489876,-0.124031626,0.87170404,0.3346012,-1.8926119
743,1778621634.9281185,0.47228366,0.09817646,0.0069516255,0.87170404,0.3346012,-1.8926119
744,1778621634.938119,0.47228366,0.09817646,0.0069516255,0.87170404,0.3346012,-1.8926119
745,1778621634.9481199,0.47228366,0.09817646,0.0069516255,0.87170404,0.3346012,-1.8926119
746,1778621634.9581203,0.47228366,0.09817646,0.0069516255,0.87170404,0.3346012,-1.8926119
747,1778621634.9681213,0.47228366,0.09817646,0.0069516255,0.87170404,0.3346012,-1.8926119
748,1778621634.9781227,0.47106406,0.09159071,-0.018171793,0.87170404,0.3346012,-1.8926119
749,1778621634.9881241,0.47106406,0.09159071,-0.018171793,0.8503238,0.6797398,-1.9591961
750,1778621634.9981287,0.47106406,0.09159071,-0.018171793,0.8503238,0.6797398,-1.9591961
751,1778621635.0081298,0.28593132,-0.019391375,0.041099958,0.66706437,1.650404,-1.9872959
752,1778621635.0181386,0.28593132,-0.019391375,0.041099958,0.66706437,1.650404,-1.9872959
753,1778621635.0281413,0.28593132,-0.019391375,0.041099958,0.66706437,1.650404,-1.9872959
754,1778621635.038142,0.28593132,-0.019391375,0.041099958,0.66706437,1.650404,-1.9872959
755,1778621635.0481427,0.28593132,-0.019391375,0.041099958,0.66706437,1.650404,-1.9872959
756,1778621635.0581434,0.28593132,-0.019391375,0.041099958,0.66706437,1.650404,-1.9872959
757,1778621635.0681446,0.28593132,-0.019391375,0.041099958,0.66706437,1.650404,-1.9872959
758,1778621635.078145,0.28593132,-0.019391375,0.041099958,0.66706437,1.650404,-1.9872959
759,1778621635.0884333,0.28593132,-0.019391375,0.041099958,0.66706437,1.650404,-1.9872959
760,1778621635.0984366,0.21861032,-0.07524829,0.052076213,0.66706437,1.650404,-1.9872959
761,1778621635.108448,0.21861032,-0.07524829,0.052076213,0.66706437,1.650404,-1.9872959
762,1778621635.1184504,0.21861032,-0.07524829,0.052076213,0.66706437,1.650404,-1.9872959
763,1778621635.1284513,-0.5302139,-0.87846595,0.023050126,0.97555107,0.101250835,0.4140136
764,1778621635.138452,-0.5302139,-0.87846595,0.023050126,0.97555107,0.101250835,0.4140136
765,1778621635.1484528,-0.5302139,-0.87846595,0.023050126,0.97555107,0.101250835,0.4140136
766,1778621635.1586323,-0.5302139,-0.87846595,0.023050126,1.0103704,1.0651954,0.93996817
767,1778621635.168633,-0.5302139,-0.87846595,0.023050126,1.0103704,1.0651954,0.93996817
768,1778621635.1786354,-0.5302139,-0.87846595,0.023050126,1.0103704,1.0651954,0.93996817
769,1778621635.1886384,-0.5302139,-0.87846595,0.023050126,1.0103704,1.0651954,0.93996817
770,1778621635.1986408,-0.5302139,-0.87846595,0.023050126,1.0103704,1.0651954,0.93996817
771,1778621635.2086434,-0.4628929,-0.7987051,-0.009390792,0.85765415,1.2698351,1.3571888
772,1778621635.218645,-0.4628929,-0.7987051,-0.009390792,0.85765415,1.2698351,1.3571888
773,1778621635.228647,-0.4628929,-0.7987051,-0.009390792,0.85765415,1.2698351,1.3571888
774,1778621635.2386491,-0.4628929,-0.7987051,-0.009390792,0.85765415,1.2698351,1.3571888
775,1778621635.248652,-0.4628929,-0.7987051,-0.009390792,0.85765415,1.2698351,1.3571888
776,1778621635.258654,-0.4628929,-0.7987051,-0.009390792,0.85765415,1.2698351,1.3571888
777,1778621635.2686558,-0.4628929,-0.7987051,-0.009390792,0.85765415,1.2698351,1.3571888
778,1778621635.2786584,-0.4628929,-0.7987051,-0.009390792,0.85765415,1.2698351,1.3571888
779,1778621635.2886603,-0.4628929,-0.7987051,-0.009390792,0.85765415,1.2698351,1.3571888
780,1778621635.2992058,-0.3726437,-0.6133285,-0.07719963,0.85765415,1.2698351,1.3571888
781,1778621635.3092096,-0.3726437,-0.6133285,-0.07719963,0.85765415,1.2698351,1.3571888
782,1778621635.3192108,-0.3726437,-0.6133285,-0.07719963,0.85765415,1.2698351,1.3571888
783,1778621635.3292115,-0.3726437,-0.6133285,-0.07719963,0.85765415,1.2698351,1.3571888
784,1778621635.3392131,-0.3726437,-0.6133285,-0.07719963,0.85765415,1.2698351,1.3571888
785,1778621635.3492148,-0.3726437,-0.6133285,-0.07719963,0.85765415,1.2698351,1.3571888
786,1778621635.3593802,-0.3726437,-0.6133285,-0.07719963,0.85765415,1.2698351,1.3571888
787,1778621635.3693826,-0.3726437,-0.6133285,-0.07719963,0.85765415,1.2698351,1.3571888
788,1778621635.3793843,-0.3726437,-0.6133285,-0.07719963,0.85765415,1.2698351,1.3571888
789,1778621635.3893857,-0.3726437,-0.6133285,-0.07719963,0.85765415,1.2698351,1.3571888
790,1778621635.3993866,-0.3726437,-0.6133285,-0.07719963,0.85765415,1.2698351,1.3571888
791,1778621635.40939,-0.3726437,-0.6133285,-0.07719963,0.85765415,1.2698351,1.3571888
792,1778621635.4193914,-0.3726437,-0.6133285,-0.07719963,0.85765415,1.2698351,1.3571888
793,1778621635.4293923,-0.33459267,-0.5511297,-0.10207913,0.82588917,1.2197442,1.4213296
794,1778621635.4394042,-0.33459267,-0.5511297,-0.10207913,0.82588917,1.2197442,1.4213296
795,1778621635.449596,-0.33459267,-0.5511297,-0.10207913,0.82588917,1.2197442,1.4213296
796,1778621635.459597,0.08835881,0.22013481,-0.34380054,0.68050337,-0.8352049,1.8147266
797,1778621635.469602,0.10445731,-0.20159712,-0.012561709,0.68050337,-0.8352049,1.8147266
798,1778621635.4796038,0.10445731,-0.20159712,-0.012561709,0.68050337,-0.8352049,1.8147266
799,1778621635.4896052,0.10445731,-0.20159712,-0.012561709,0.68050337,-0.8352049,1.8147266
800,1778621635.4996066,0.10445731,-0.20159712,-0.012561709,0.68050337,-0.8352049,1.8147266
801,1778621635.5096078,-0.16653411,-0.095493376,0.10476221,-0.39828384,-2.7655375,0.63209236
802,1778621635.519609,-0.16653411,-0.095493376,0.10476221,-0.39828384,-2.7655375,0.63209236
803,1778621635.5296104,-0.16653411,-0.095493376,0.10476221,-0.39828384,-2.7655375,0.63209236
804,1778621635.5396109,-0.16653411,-0.095493376,0.10476221,-0.44104436,-2.7417138,0.6388118
805,1778621635.5496118,-0.16653411,-0.095493376,0.10476221,-0.44104436,-2.7417138,0.6388118
806,1778621635.5596125,-0.16653411,-0.095493376,0.10476221,-0.44104436,-2.7417138,0.6388118
807,1778621635.569614,-0.16653411,-0.095493376,0.10476221,-0.44104436,-2.7417138,0.6388118
808,1778621635.5798993,-0.6724173,-0.547227,-0.07524829,-1.7043127,-1.2750275,1.4384339
809,1778621635.5899003,-0.6724173,-0.547227,-0.07524829,-1.7043127,-1.2750275,1.4384339
810,1778621635.5999017,-0.6724173,-0.547227,-0.07524829,-1.7043127,-1.2750275,1.4384339
811,1778621635.6099026,-0.6724173,-0.547227,-0.07524829,-1.7043127,-1.2750275,1.4384339
812,1778621635.6199043,-0.6724173,-0.547227,-0.07524829,-1.7043127,-1.2750275,1.4384339
813,1778621635.6302614,-0.6724173,-0.547227,-0.07524829,-1.7043127,-1.2750275,1.4384339
814,1778621635.6402621,-0.6724173,-0.547227,-0.07524829,-1.7043127,-1.2750275,1.4384339
815,1778621635.650263,-0.68680835,-0.9223709,0.11890938,-1.7440189,-0.79122263,1.7047709
816,1778621635.660264,-0.68680835,-0.9223709,0.11890938,-1.7440189,-0.79122263,1.7047709
817,1778621635.6702647,-0.68680835,-0.9223709,0.11890938,-1.7440189,-0.79122263,1.7047709
818,1778621635.680266,-0.68680835,-0.9223709,0.11890938,-1.7440189,-0.79122263,1.7047709
819,1778621635.6902668,-1.800532,-3.0100536,-1.2494631,-1.0971131,0.23686282,1.686445
820,1778621635.7002676,-1.800532,-3.0100536,-1.2494631,-1.0971131,0.23686282,1.686445
821,1778621635.7102685,-1.800532,-3.0100536,-1.2494631,-1.0971131,0.23686282,1.686445
822,1778621635.7202787,-2.4988654,-4.4628215,-0.20037755,-1.0971131,0.23686282,1.686445
823,1778621635.7302825,-2.4988654,-4.4628215,-0.20037755,-1.0971131,0.23686282,1.686445
824,1778621635.740284,-2.4988654,-4.4628215,-0.20037755,-1.0971131,0.23686282,1.686445
825,1778621635.750289,-2.4988654,-4.4628215,-0.20037755,-1.9718715,-0.65866494,1.2649482
826,1778621635.7602906,-2.4988654,-4.4628215,-0.20037755,-1.9718715,-0.65866494,1.2649482
827,1778621635.7702918,-2.4988654,-4.4628215,-0.20037755,-1.9718715,-0.65866494,1.2649482
828,1778621635.7802923,-2.4988654,-4.4628215,-0.20037755,-1.9718715,-0.65866494,1.2649482
829,1778621635.7902932,-2.4988654,-4.4628215,-0.20037755,-1.9718715,-0.65866494,1.2649482
830,1778621635.800294,-2.4988654,-4.4628215,-0.20037755,0.082466744,2.8819072,0.47571096
831,1778621635.8102946,-2.4988654,-4.4628215,-0.20037755,0.082466744,2.8819072,0.47571096
832,1778621635.8202953,-2.4988654,-4.4628215,-0.20037755,0.082466744,2.8819072,0.47571096
833,1778621635.8302958,-2.4988654,-4.4628215,-0.20037755,0.082466744,2.8819072,0.47571096
834,1778621635.8402965,-2.4988654,-4.4628215,-0.20037755,0.082466744,2.8819072,0.47571096
835,1778621635.8502977,-0.25239277,-3.5759401,-0.56771606,1.4220932,-1.5028801,-1.8162537
836,1778621635.8602984,-0.25239277,-3.5759401,-0.56771606,1.4220932,-1.5028801,-1.8162537
837,1778621635.870299,-0.25239277,-3.5759401,-0.56771606,1.4220932,-1.5028801,-1.8162537
838,1778621635.8803022,-0.25239277,-3.5759401,-0.56771606,1.4220932,-1.5028801,-1.8162537
839,1778621635.8909428,-0.54631233,-3.5776477,-0.42112213,1.4220932,-1.5028801,-1.8162537
840,1778621635.9010525,-0.54631233,-3.5776477,-0.42112213,1.4220932,-1.5028801,-1.8162537
841,1778621635.9110534,-0.54631233,-3.5776477,-0.42112213,1.4220932,-1.5028801,-1.8162537
842,1778621635.9214025,-0.54631233,-3.5776477,-0.42112213,1.590081,-1.9182681,-2.235307
843,1778621635.9314039,-0.54631233,-3.5776477,-0.42112213,1.590081,-1.9182681,-2.235307
844,1778621635.9414046,-0.54631233,-3.5776477,-0.42112213,1.590081,-1.9182681,-2.235307
845,1778621635.9514048,-0.54631233,-3.5776477,-0.42112213,1.590081,-1.9182681,-2.235307
846,1778621635.961406,-1.5085636,-2.4841692,-0.14159364,1.3866631,-2.0465498,-2.3043346
847,1778621635.9714077,-1.5085636,-2.4841692,-0.14159364,1.3866631,-2.0465498,-2.3043346
848,1778621635.9814084,-1.5085636,-2.4841692,-0.14159364,1.3866631,-2.0465498,-2.3043346
849,1778621635.991442,-1.5085636,-2.4841692,-0.14159364,1.3866631,-2.0465498,-2.3043346
850,1778621636.001443,-1.5085636,-2.4841692,-0.14159364,1.3866631,-2.0465498,-2.3043346
851,1778621636.0114439,-1.5085636,-2.4841692,-0.14159364,1.3866631,-2.0465498,-2.3043346
852,1778621636.0214443,-1.4473405,-2.0453632,-0.11207971,1.3933825,-1.3324488,-2.2157593
853,1778621636.0314548,-1.4473405,-2.0453632,-0.11207971,1.3933825,-1.3324488,-2.2157593
854,1778621636.0414581,-1.4473405,-2.0453632,-0.11207971,1.3933825,-1.3324488,-2.2157593
855,1778621636.0514596,-1.4473405,-2.0453632,-0.11207971,1.3933825,-1.3324488,-2.2157593
856,1778621636.0614598,-1.4473405,-2.0453632,-0.11207971,1.3933825,-1.3324488,-2.2157593
857,1778621636.071461,-1.4473405,-2.0453632,-0.11207971,1.3933825,-1.3324488,-2.2157593
858,1778621636.0816476,-1.4473405,-2.0453632,-0.11207971,1.3933825,-1.3324488,-2.2157593
859,1778621636.091648,-1.4473405,-2.0453632,-0.11207971,1.3933825,-1.3324488,-2.2157593
860,1778621636.1016498,-1.4473405,-2.0453632,-0.11207971,1.3933825,-1.3324488,-2.2157593
861,1778621636.1116536,-1.4473405,-2.0453632,-0.11207971,1.3933825,-1.3324488,-2.2157593
862,1778621636.1216564,-1.4473405,-2.0453632,-0.11207971,1.3933825,-1.3324488,-2.2157593
863,1778621636.1316571,-1.4473405,-2.0453632,-0.11207971,1.3933825,-1.3324488,-2.2157593
864,1778621636.1416578,-1.4473405,-2.0453632,-0.11207971,1.3933825,-1.3324488,-2.2157593
865,1778621636.1516585,-1.4473405,-2.0453632,-0.11207971,1.3933825,-1.3324488,-2.2157593
866,1778621636.1616592,-1.3139181,-1.6216799,-0.06695513,1.3933825,-1.3324488,-2.2157593
867,1778621636.1719465,-1.3139181,-1.6216799,-0.06695513,1.3933825,-1.3324488,-2.2157593
868,1778621636.181947,-1.3139181,-1.6216799,-0.06695513,1.3933825,-1.3324488,-2.2157593
869,1778621636.191948,-1.3139181,-1.6216799,-0.06695513,1.400102,-0.77839446,-2.1387904
870,1778621636.2019484,-1.3139181,-1.6216799,-0.06695513,1.400102,-0.77839446,-2.1387904
871,1778621636.2119493,-1.3139181,-1.6216799,-0.06695513,1.400102,-0.77839446,-2.1387904
872,1778621636.2219517,-1.2368405,-1.5036243,-0.051588375,1.400102,-0.77839446,-2.1387904
873,1778621636.2319534,-1.2368405,-1.5036243,-0.051588375,1.400102,-0.77839446,-2.1387904
874,1778621636.241955,-1.2368405,-1.5036243,-0.051588375,1.400102,-0.77839446,-2.1387904
875,1778621636.2519565,-0.17872995,-0.13305654,-0.004024625,1.3897173,1.5306745,-1.6366595
876,1778621636.261958,-0.17872995,-0.13305654,-0.004024625,1.3897173,1.5306745,-1.6366595
877,1778621636.2719598,-0.17872995,-0.13305654,-0.004024625,1.3897173,1.5306745,-1.6366595
878,1778621636.281961,-0.17872995,-0.13305654,-0.004024625,1.3897173,1.5306745,-1.6366595
879,1778621636.2919621,-0.17872995,-0.13305654,-0.004024625,1.3897173,1.5306745,-1.6366595
880,1778621636.301963,-0.17872995,-0.13305654,-0.004024625,1.3897173,1.5306745,-1.6366595
881,1778621636.311965,-0.17872995,-0.13305654,-0.004024625,1.3897173,1.5306745,-1.6366595
882,1778621636.3219662,-0.17872995,-0.13305654,-0.004024625,1.3897173,1.5306745,-1.6366595
883,1778621636.3319676,0.09811548,0.15110639,-0.25257573,-0.3604102,-0.57925254,-1.4906628
884,1778621636.3419683,0.09811548,0.15110639,-0.25257573,-0.3604102,-0.57925254,-1.4906628
885,1778621636.3519688,0.09811548,0.15110639,-0.25257573,-0.3604102,-0.57925254,-1.4906628
886,1778621636.36197,0.09811548,0.15110639,-0.25257573,-0.3604102,-0.57925254,-1.4906628
887,1778621636.3719704,0.09811548,0.15110639,-0.25257573,-0.3604102,-0.57925254,-1.4906628
888,1778621636.3819711,0.09811548,0.15110639,-0.25257573,-0.3604102,-0.57925254,-1.4906628
889,1778621636.3919723,0.09811548,0.15110639,-0.25257573,-0.3604102,-0.57925254,-1.4906628
890,1778621636.4019728,0.09811548,0.15110639,-0.25257573,-0.3604102,-0.57925254,-1.4906628
891,1778621636.4119737,0.10714039,0.1220803,-0.22403745,-0.31398448,-0.75701416,-1.4906628
892,1778621636.422056,0.10714039,0.1220803,-0.22403745,-0.31398448,-0.75701416,-1.4906628
893,1778621636.432057,0.10714039,0.1220803,-0.22403745,-0.31398448,-0.75701416,-1.4906628
894,1778621636.4420576,0.10714039,0.1220803,-0.22403745,-0.31398448,-0.75701416,-1.4906628
895,1778621636.4520586,0.10714039,0.1220803,-0.22403745,-0.31398448,-0.75701416,-1.4906628
896,1778621636.4620593,0.10714039,0.1220803,-0.22403745,-0.31398448,-0.75701416,-1.4906628
897,1778621636.4720612,0.12348281,0.1308613,-0.21647604,-0.31398448,-0.75701416,-1.4906628
898,1778621636.482062,0.12348281,0.1308613,-0.21647604,-0.31398448,-0.75701416,-1.4906628
899,1778621636.492063,0.12348281,0.1308613,-0.21647604,-0.31398448,-0.75701416,-1.4906628
900,1778621636.502074,0.12348281,0.1308613,-0.21647604,-0.31398448,-0.75701416,-1.4906628
901,1778621636.512352,0.12348281,0.1308613,-0.21647604,-0.31398448,-0.75701416,-1.4906628
902,1778621636.5223536,0.12348281,0.1308613,-0.21647604,-0.31398448,-0.75701416,-1.4906628
903,1778621636.532355,0.12348281,0.1308613,-0.21647604,-0.31398448,-0.75701416,-1.4906628
904,1778621636.5423565,0.12348281,0.1308613,-0.21647604,-0.31398448,-0.75701416,-1.4906628
905,1778621636.5523577,0.12348281,0.1308613,-0.21647604,-0.31398448,-0.75701416,-1.4906628
906,1778621636.5623586,0.12348281,0.1308613,-0.21647604,-0.31398448,-0.75701416,-1.4906628
907,1778621636.5723596,0.12348281,0.1308613,-0.21647604,-0.31398448,-0.75701416,-1.4906628
908,1778621636.5823603,0.12348281,0.1308613,-0.21647604,-0.2791652,-0.7490729,-1.4992149
909,1778621636.592361,0.12348281,0.1308613,-0.21647604,-0.2791652,-0.7490729,-1.4992149
910,1778621636.602564,0.12348281,0.1308613,-0.21647604,-0.2791652,-0.7490729,-1.4992149
911,1778621636.6125648,0.12348281,0.1308613,-0.21647604,-0.16554436,-0.6159044,-1.5627449
912,1778621636.6225653,0.12348281,0.1308613,-0.21647604,-0.16554436,-0.6159044,-1.5627449
913,1778621636.6325662,0.12348281,0.1308613,-0.21647604,-0.16554436,-0.6159044,-1.5627449
914,1778621636.642569,0.13201989,0.22037871,-0.100127794,-0.16554436,-0.6159044,-1.5627449
915,1778621636.6525712,0.13201989,0.22037871,-0.100127794,-0.16554436,-0.6159044,-1.5627449
916,1778621636.6625724,0.13201989,0.22037871,-0.100127794,-0.07208204,-0.25671592,-1.6745331
917,1778621636.672575,0.1290929,0.22769623,-0.06646729,-0.055588696,-0.081397735,-1.715461
918,1778621636.6825762,0.1290929,0.22769623,-0.06646729,-0.055588696,-0.081397735,-1.715461
919,1778621636.6929245,0.1290929,0.22769623,-0.06646729,-0.055588696,-0.081397735,-1.715461
920,1778621636.7031393,0.1290929,0.22769623,-0.06646729,-0.055588696,-0.081397735,-1.715461
921,1778621636.71314,0.1290929,0.22769623,-0.06646729,-0.055588696,-0.081397735,-1.715461
922,1778621636.7231412,0.1290929,0.22769623,-0.06646729,-0.02687805,0.5893318,-1.8278601
923,1778621636.733142,0.1290929,0.22769623,-0.06646729,-0.02687805,0.5893318,-1.8278601
924,1778621636.7431424,0.1290929,0.22769623,-0.06646729,-0.02687805,0.5893318,-1.8278601
925,1778621636.7531435,0.1290929,0.22769623,-0.06646729,-0.02687805,0.5893318,-1.8278601
926,1778621636.7631443,0.1290929,0.22769623,-0.06646729,-0.02687805,0.5893318,-1.8278601
927,1778621636.7731452,0.1290929,0.22769623,-0.06646729,-0.02687805,0.5893318,-1.8278601
928,1778621636.7831511,1.4033136,-3.152501,-0.9709103,0.68111426,-0.6678279,-0.91706073
929,1778621636.793154,1.4033136,-3.152501,-0.9709103,0.68111426,-0.6678279,-0.91706073
930,1778621636.8031554,1.4033136,-3.152501,-0.9709103,0.38789913,-1.2536472,-0.77839446
931,1778621636.8131564,1.141591,-3.100303,-0.6916257,0.38789913,-1.2536472,-0.77839446
932,1778621636.823157,1.141591,-3.100303,-0.6916257,0.38789913,-1.2536472,-0.77839446
933,1778621636.8331578,-0.71290743,-1.5936296,0.08012662,0.5076286,0.15134175,0.5441278
934,1778621636.8431633,-0.71290743,-1.5936296,0.08012662,0.5076286,0.15134175,0.5441278
935,1778621636.8531654,-0.71290743,-1.5936296,0.08012662,0.5076286,0.15134175,0.5441278
936,1778621636.863167,-0.71290743,-1.5936296,0.08012662,0.5076286,0.15134175,0.5441278
937,1778621636.8737843,0.12640981,0.5918638,-0.2084268,-0.045814857,-0.9121738,1.5263984
938,1778621636.8837857,0.12640981,0.5918638,-0.2084268,-0.045814857,-0.9121738,1.5263984
939,1778621636.893787,-1.4170948,-1.6492425,2.3612354,-1.3713914,-0.9818124,-0.38744098
940,1778621636.9037876,-1.4170948,-1.6492425,2.3612354,-1.3713914,-0.9818124,-0.38744098
941,1778621636.9137895,0.009817646,0.12622687,0.67479545,-1.0274745,-0.21517712,-0.4637991
942,1778621636.9237912,0.037136313,0.11720196,0.6169872,-0.92118406,0.059712034,-0.5187769
943,1778621636.933792,0.037136313,0.11720196,0.6169872,-0.92118406,0.059712034,-0.5187769
944,1778621636.9437926,0.037136313,0.11720196,0.6169872,-0.92118406,0.059712034,-0.5187769
945,1778621636.9537997,0.037136313,0.11720196,0.6169872,-0.92118406,0.059712034,-0.5187769
946,1778621636.9638023,0.037136313,0.11720196,0.6169872,-0.92118406,0.059712034,-0.5187769
947,1778621636.9738033,0.037136313,0.11720196,0.6169872,-0.92118406,0.059712034,-0.5187769
948,1778621636.9838042,0.049576063,-0.019879209,0.28867537,-0.92118406,0.059712034,-0.5187769
949,1778621636.9938052,0.049576063,-0.019879209,0.28867537,-0.92118406,0.059712034,-0.5187769
950,1778621637.003806,0.049576063,-0.019879209,0.28867537,-0.92118406,0.059712034,-0.5187769
951,1778621637.0148544,0.049576063,-0.019879209,0.28867537,-0.6175843,0.59605134,-0.67943436
952,1778621637.024856,0.049576063,-0.019879209,0.28867537,-0.6175843,0.59605134,-0.67943436
953,1778621637.0348573,0.049576063,-0.019879209,0.28867537,-0.6175843,0.59605134,-0.67943436
954,1778621637.0448585,0.049576063,-0.019879209,0.28867537,-0.6175843,0.59605134,-0.67943436
955,1778621637.054859,0.049576063,-0.019879209,0.28867537,-0.6175843,0.59605134,-0.67943436
956,1778621637.0648615,0.049576063,-0.019879209,0.28867537,-0.6175843,0.59605134,-0.67943436
957,1778621637.074863,0.049576063,-0.019879209,0.28867537,-0.6175843,0.59605134,-0.67943436
958,1778621637.0848637,0.03445323,-0.072321296,0.16086306,-0.49357873,0.6498074,-0.73868823
959,1778621637.0948646,0.01396423,-0.16354613,-0.072565205,-0.3695732,0.25030184,-0.7698423
960,1778621637.1048653,0.01396423,-0.16354613,-0.072565205,-0.3695732,0.25030184,-0.7698423
961,1778621637.1148663,-0.922188,-1.4145948,-0.18598646,0.8918626,0.81901693,2.0224206
962,1778621637.124868,-0.922188,-1.4145948,-0.18598646,0.8918626,0.81901693,2.0224206
963,1778621637.1348686,-0.922188,-1.4145948,-0.18598646,0.8918626,0.81901693,2.0224206
964,1778621637.144869,-0.922188,-1.4145948,-0.18598646,0.8918626,0.81901693,2.0224206
965,1778621637.1548696,-0.922188,-1.4145948,-0.18598646,0.8918626,0.81901693,2.0224206
966,1778621637.1651337,0.30959123,0.17427845,-0.21671996,0.6200278,0.15439607,2.3742788
967,1778621637.1751347,0.31739658,0.3094083,-0.26599112,0.6200278,0.15439607,2.3742788
968,1778621637.1851356,0.31739658,0.3094083,-0.26599112,0.6200278,0.15439607,2.3742788
969,1778621637.1951368,0.31739658,0.3094083,-0.26599112,0.6200278,0.15439607,2.3742788
970,1778621637.205138,0.31739658,0.3094083,-0.26599112,0.6200278,0.15439607,2.3742788
971,1778621637.2151387,0.31739658,0.3094083,-0.26599112,0.6200278,0.15439607,2.3742788
972,1778621637.2251396,0.31739658,0.3094083,-0.26599112,0.6200278,0.15439607,2.3742788
973,1778621637.2351506,0.31739658,0.3094083,-0.26599112,0.6200278,0.15439607,2.3742788
974,1778621637.2451625,0.31739658,0.3094083,-0.26599112,0.6200278,0.15439607,2.3742788
975,1778621637.2554467,0.31739658,0.3094083,-0.26599112,0.6200278,0.15439607,2.3742788
976,1778621637.2654471,0.31739658,0.3094083,-0.26599112,0.6200278,0.15439607,2.3742788
977,1778621637.2754478,0.31739658,0.3094083,-0.26599112,0.6200278,0.15439607,2.3742788
978,1778621637.2854486,0.3105669,0.33965397,-0.2762356,0.6200278,0.15439607,2.3742788
979,1778621637.295449,0.3105669,0.33965397,-0.2762356,0.6200278,0.15439607,2.3742788
980,1778621637.30545,0.3105669,0.33965397,-0.2762356,0.6200278,0.15439607,2.3742788
981,1778621637.3154507,0.3105669,0.33965397,-0.2762356,0.6200278,0.15439607,2.3742788
982,1778621637.325451,0.3105669,0.33965397,-0.2762356,0.6200278,0.15439607,2.3742788
983,1778621637.3354518,0.3105669,0.33965397,-0.2762356,0.6200278,0.15439607,2.3742788
984,1778621637.3458042,0.3105669,0.33965397,-0.2762356,0.5705477,0.12996148,2.350455
985,1778621637.3558052,0.3105669,0.33965397,-0.2762356,0.5705477,0.12996148,2.350455
986,1778621637.3658059,0.3105669,0.33965397,-0.2762356,0.5705477,0.12996148,2.350455
987,1778621637.3758113,-0.006524771,0.106957465,-0.13305654,-1.0054834,-1.1528546,1.3913972
988,1778621637.385814,-0.006524771,0.106957465,-0.13305654,-1.0054834,-1.1528546,1.3913972
989,1778621637.3958147,-0.006524771,0.106957465,-0.13305654,-1.0054834,-1.1528546,1.3913972
990,1778621637.405823,-0.006524771,0.106957465,-0.13305654,-0.8063415,-0.6837104,1.4842488
991,1778621637.4158258,-0.006524771,0.106957465,-0.13305654,-0.8063415,-0.6837104,1.4842488
992,1778621637.4258268,-0.07799236,0.12012896,0.058174126,0.31703883,3.8892233,-0.9952514
993,1778621637.4362338,-0.07799236,0.12012896,0.058174126,0.31703883,3.8892233,-0.9952514
994,1778621637.4462345,-0.07799236,0.12012896,0.058174126,0.31703883,3.8892233,-0.9952514
995,1778621637.4562352,-0.014574022,0.17842504,0.058418043,0.31703883,3.8892233,-0.9952514
996,1778621637.4662356,-0.014574022,0.17842504,0.058418043,0.31703883,3.8892233,-0.9952514
997,1778621637.4762363,-0.014574022,0.17842504,0.058418043,0.31703883,3.8892233,-0.9952514
998,1778621637.4862373,-0.014574022,0.17842504,0.058418043,0.31703883,3.8892233,-0.9952514
999,1778621637.496238,-0.014574022,0.17842504,0.058418043,0.31703883,3.8892233,-0.9952514
