id,timestamp,acc_x,acc_y,acc_z,gyro_x,gyro_y,gyro_z
1,1778621657.9238203,-0.15702136,-0.85383034,-0.1837912,-1.9101741,-0.13209951,-1.182787
2,1778621657.933829,-0.15702136,-0.85383034,-0.1837912,-1.3072506,-0.59391326,-0.7166971
3,1778621657.9438326,-0.15702136,-0.85383034,-0.1837912,-1.3072506,-0.59391326,-0.7166971
4,1778621657.9538345,-0.15702136,-0.85383034,-0.1837912,-1.3072506,-0.59391326,-0.7166971
5,1778621657.9638362,-0.15702136,-0.85383034,-0.1837912,-1.3072506,-0.59391326,-0.7166971
6,1778621657.9742732,-0.2967856,-0.8204137,-0.51673746,-1.0177007,-0.50961393,-0.49739665
7,1778621657.9842746,-0.68193007,-0.96749544,1.0079857,-0.5430588,-0.3678933,-0.11255184
8,1778621657.994275,-0.68193007,-0.96749544,1.0079857,-0.5430588,-0.3678933,-0.11255184
9,1778621658.0042765,-0.68193007,-0.96749544,1.0079857,-0.5430588,-0.3678933,-0.11255184
10,1778621658.0142777,-0.7243715,-1.1287243,1.036036,-0.0097738365,0.04138609,0.40668324
11,1778621658.0242786,-0.7243715,-1.1287243,1.036036,-0.0097738365,0.04138609,0.40668324
12,1778621658.0342793,-0.7243715,-1.1287243,1.036036,-0.0097738365,0.04138609,0.40668324
13,1778621658.0442872,-0.8577939,-1.8307165,0.63479316,0.5852085,0.7188351,1.022435
14,1778621658.0542908,-0.8577939,-1.8307165,0.63479316,0.5852085,0.7188351,1.022435
15,1778621658.0644348,-0.8577939,-1.8307165,0.63479316,0.5852085,0.7188351,1.022435
16,1778621658.0744405,-0.8577939,-1.8307165,0.63479316,0.5852085,0.7188351,1.022435
17,1778621658.0844429,-0.8577939,-1.8307165,0.63479316,0.5852085,0.7188351,1.022435
18,1778621658.0944438,-0.77632576,-1.3914226,0.8938326,0.5852085,0.7188351,1.022435
19,1778621658.1044445,-0.77632576,-1.3914226,0.8938326,0.5852085,0.7188351,1.022435
20,1778621658.114445,-0.77632576,-1.3914226,0.8938326,0.5852085,0.7188351,1.022435
21,1778621658.1244457,-0.77632576,-1.3914226,0.8938326,0.5852085,0.7188351,1.022435
22,1778621658.1344461,-0.77632576,-1.3914226,0.8938326,0.5852085,0.7188351,1.022435
23,1778621658.1444466,-0.77632576,-1.3914226,0.8938326,0.5852085,0.7188351,1.022435
24,1778621658.1547318,-0.77632576,-1.3914226,0.8938326,0.5852085,0.7188351,1.022435
25,1778621658.1647327,-0.77632576,-1.3914226,0.8938326,0.5852085,0.7188351,1.022435
26,1778621658.1747339,-0.78657025,-1.4719151,0.83675617,0.5852085,0.7188351,1.022435
27,1778621658.1847389,-0.78657025,-1.4719151,0.83675617,0.7715222,0.85750145,1.1867576
28,1778621658.194741,-0.78657025,-1.4719151,0.83675617,0.7715222,0.85750145,1.1867576
29,1778621658.2047422,-0.82949966,-1.7341255,0.676259,1.9700389,1.134834,1.9643884
30,1778621658.2147431,-0.82949966,-1.7341255,0.676259,1.9700389,1.134834,1.9643884
31,1778621658.2247446,-0.97487396,-2.2629368,0.54844666,2.9559746,1.2313507,2.4793475
32,1778621658.2347457,-0.97487396,-2.2629368,0.54844666,2.9559746,1.2313507,2.4793475
33,1778621658.244747,-0.97487396,-2.2629368,0.54844666,2.9559746,1.2313507,2.4793475
34,1778621658.2547486,-0.97487396,-2.2629368,0.54844666,2.9559746,1.2313507,2.4793475
35,1778621658.2647495,-0.97487396,-2.2629368,0.54844666,2.9559746,1.2313507,2.4793475
36,1778621658.2747502,-0.97487396,-2.2629368,0.54844666,2.9559746,1.2313507,2.4793475
37,1778621658.284751,-0.97487396,-2.2629368,0.54844666,2.9559746,1.2313507,2.4793475
38,1778621658.294752,-0.97487396,-2.2629368,0.54844666,3.4361143,1.5435026,2.7010913
39,1778621658.3047528,-0.97487396,-2.2629368,0.54844666,3.4361143,1.5435026,2.7010913
40,1778621658.3147535,-0.97487396,-2.2629368,0.54844666,3.4361143,1.5435026,2.7010913
41,1778621658.3247583,-0.97487396,-2.2629368,0.54844666,3.4361143,1.5435026,2.7010913
42,1778621658.3347602,-0.97487396,-2.2629368,0.54844666,3.4361143,1.5435026,2.7010913
43,1778621658.344761,-0.97487396,-2.2629368,0.54844666,3.4361143,1.5435026,2.7010913
44,1778621658.3550477,-0.53143346,-4.79528,-0.4077067,1.7189735,0.5874992,0.7854194
45,1778621658.3650491,-0.53143346,-4.79528,-0.4077067,1.7189735,0.5874992,0.7854194
46,1778621658.3750503,-0.53143346,-4.79528,-0.4077067,1.7189735,0.5874992,0.7854194
47,1778621658.3850513,-0.53143346,-4.79528,-0.4077067,1.7189735,0.5874992,0.7854194
48,1778621658.3950517,-0.53143346,-4.79528,-0.4077067,1.7189735,0.5874992,0.7854194
49,1778621658.405053,-0.14482552,-4.1576815,-0.44697732,1.4068216,-0.8822415,0.2509127
50,1778621658.4150534,-0.14482552,-4.1576815,-0.44697732,1.4068216,-0.8822415,0.2509127
51,1778621658.4250546,-0.14482552,-4.1576815,-0.44697732,1.4068216,-0.8822415,0.2509127
52,1778621658.4350574,-0.027501604,-3.720339,-0.47673512,1.4068216,-0.8822415,0.2509127
53,1778621658.4450593,-0.027501604,-3.720339,-0.47673512,1.4068216,-0.8822415,0.2509127
54,1778621658.4550605,-0.027501604,-3.720339,-0.47673512,1.4068216,-0.8822415,0.2509127
55,1778621658.46507,-0.027501604,-3.720339,-0.47673512,1.4068216,-0.8822415,0.2509127
56,1778621658.4750733,-0.027501604,-3.720339,-0.47673512,1.4068216,-0.8822415,0.2509127
57,1778621658.4850745,-0.027501604,-3.720339,-0.47673512,1.9230024,-1.3043491,0.53252137
58,1778621658.4951456,-0.027501604,-3.720339,-0.47673512,1.9230024,-1.3043491,0.53252137
59,1778621658.5051467,0.07226031,-2.5944197,-0.3740462,1.9230024,-1.3043491,0.53252137
60,1778621658.5151474,0.07226031,-2.5944197,-0.3740462,1.9230024,-1.3043491,0.53252137
61,1778621658.5251482,0.07226031,-2.5944197,-0.3740462,1.9230024,-1.3043491,0.53252137
62,1778621658.5351493,0.07226031,-2.5944197,-0.3740462,1.9230024,-1.3043491,0.53252137
63,1778621658.5451508,0.07226031,-2.5944197,-0.3740462,1.9230024,-1.3043491,0.53252137
64,1778621658.5551517,0.07226031,-2.5944197,-0.3740462,1.9230024,-1.3043491,0.53252137
65,1778621658.565163,0.07226031,-2.5944197,-0.3740462,1.9230024,-1.3043491,0.53252137
66,1778621658.575166,-0.11384811,-1.8497422,-0.24184339,2.1789546,-0.41798422,0.6149881
67,1778621658.5851667,-0.11384811,-1.8497422,-0.24184339,2.1789546,-0.41798422,0.6149881
68,1778621658.5951676,-0.11384811,-1.8497422,-0.24184339,2.1789546,-0.41798422,0.6149881
69,1778621658.6051748,-0.11384811,-1.8497422,-0.24184339,2.1789546,-0.41798422,0.6149881
70,1778621658.6151783,-0.11384811,-1.8497422,-0.24184339,2.1789546,-0.41798422,0.6149881
71,1778621658.62518,-0.11384811,-1.8497422,-0.24184339,2.1789546,-0.41798422,0.6149881
72,1778621658.635181,-0.11384811,-1.8497422,-0.24184339,2.1789546,-0.41798422,0.6149881
73,1778621658.6451817,-0.11384811,-1.8497422,-0.24184339,2.1331398,-0.19746204,0.59910566
74,1778621658.6551824,-0.11384811,-1.8497422,-0.24184339,2.1331398,-0.19746204,0.59910566
75,1778621658.6651828,-0.11384811,-1.8497422,-0.24184339,2.1331398,-0.19746204,0.59910566
76,1778621658.6751838,-0.18775485,-1.7363209,-0.24818522,2.1331398,-0.19746204,0.59910566
77,1778621658.68519,-0.33069003,-1.4445965,-0.34941062,1.7611232,0.3498728,0.4555524
78,1778621658.6951926,-0.33069003,-1.4445965,-0.34941062,1.7611232,0.3498728,0.4555524
79,1778621658.7051938,-0.33069003,-1.4445965,-0.34941062,1.7611232,0.3498728,0.4555524
80,1778621658.7151954,-0.5372875,-1.150433,-0.5245428,1.3854413,0.3639227,0.4262309
81,1778621658.725196,-0.5372875,-1.150433,-0.5245428,1.3854413,0.3639227,0.4262309
82,1778621658.7351966,-0.5372875,-1.150433,-0.5245428,1.3854413,0.3639227,0.4262309
83,1778621658.7451992,-0.5372875,-1.150433,-0.5245428,0.77946347,0.16355905,0.58994263
84,1778621658.7552016,-0.5372875,-1.150433,-0.5245428,0.77946347,0.16355905,0.58994263
85,1778621658.765203,-0.5372875,-1.150433,-0.5245428,0.77946347,0.16355905,0.58994263
86,1778621658.775204,-0.5372875,-1.150433,-0.5245428,0.77946347,0.16355905,0.58994263
87,1778621658.7852044,-0.2248302,-0.23476979,-0.41721946,-0.38056874,-0.55787224,1.4708097
88,1778621658.7952054,-0.2248302,-0.23476979,-0.41721946,-0.3744601,-0.5505419,1.4903574
89,1778621658.805206,-0.2248302,-0.23476979,-0.41721946,-0.3744601,-0.5505419,1.4903574
90,1778621658.8152075,0.02713573,-0.11720196,-0.2728208,-0.3744601,-0.5505419,1.4903574
91,1778621658.8252087,0.46667355,0.035489876,-0.123055965,-0.5082395,0.29550585,1.1562144
92,1778621658.8352091,0.46667355,0.035489876,-0.123055965,-0.5082395,0.29550585,1.1562144
93,1778621658.845212,0.4964314,0.102566965,-0.13939838,-0.5082395,0.29550585,1.1562144
94,1778621658.855214,0.4964314,0.102566965,-0.13939838,-0.5082395,0.29550585,1.1562144
95,1778621658.865215,0.4964314,0.102566965,-0.13939838,-0.5082395,0.29550585,1.1562144
96,1778621658.8752167,0.4964314,0.102566965,-0.13939838,-0.61330825,0.2509127,1.0743585
97,1778621658.885218,0.4964314,0.102566965,-0.13939838,-0.61330825,0.2509127,1.0743585
98,1778621658.8952188,0.4964314,0.102566965,-0.13939838,-0.61330825,0.2509127,1.0743585
99,1778621658.9052198,0.2639788,0.30257863,-0.2511122,-1.7861686,-1.1406373,1.2374593
100,1778621658.9152203,0.2639788,0.30257863,-0.2511122,-1.7861686,-1.1406373,1.2374593
101,1778621658.9252212,0.2639788,0.30257863,-0.2511122,-1.7861686,-1.1406373,1.2374593
102,1778621658.935222,0.15616766,0.13525179,-0.18964522,-2.073886,-1.3507748,1.388343
103,1778621658.9452229,0.15616766,0.13525179,-0.18964522,-2.073886,-1.3507748,1.388343
104,1778621658.9552279,0.15616766,0.13525179,-0.18964522,-2.073886,-1.3507748,1.388343
105,1778621658.965231,0.15616766,0.13525179,-0.18964522,-2.073886,-1.3507748,1.388343
106,1778621658.9752326,0.15616766,0.13525179,-0.18964522,-2.073886,-1.3507748,1.388343
107,1778621658.9852335,0.14324006,-0.24696562,-0.010610376,-0.478918,-2.048993,1.0108285
108,1778621658.9952424,0.14324006,-0.24696562,-0.010610376,-0.478918,-2.048993,1.0108285
109,1778621659.0052595,0.14324006,-0.24696562,-0.010610376,-0.478918,-2.048993,1.0108285
110,1778621659.015261,0.14324006,-0.24696562,-0.010610376,-0.478918,-2.048993,1.0108285
111,1778621659.0252614,0.14324006,-0.24696562,-0.010610376,-0.478918,-2.048993,1.0108285
112,1778621659.0352619,0.14324006,-0.24696562,-0.010610376,-0.478918,-2.048993,1.0108285
113,1778621659.0452626,0.14324006,-0.24696562,-0.010610376,-0.478918,-2.048993,1.0108285
114,1778621659.055263,0.14324006,-0.24696562,-0.010610376,-0.478918,-2.048993,1.0108285
115,1778621659.0652635,0.14324006,-0.24696562,-0.010610376,-0.478918,-2.048993,1.0108285
116,1778621659.075268,0.26910108,-0.24818522,0.13012955,-0.25228715,-1.8956661,1.0981822
117,1778621659.0852702,0.26910108,-0.24818522,0.13012955,-0.25228715,-1.8956661,1.0981822
118,1778621659.095271,0.26910108,-0.24818522,0.13012955,-0.5619956,-1.7050763,1.0969604
119,1778621659.1052723,0.28739482,-0.014756958,0.07915096,-0.5619956,-1.7050763,1.0969604
120,1778621659.1152728,0.28739482,-0.014756958,0.07915096,-0.5619956,-1.7050763,1.0969604
121,1778621659.1252737,0.14177656,0.024025792,0.09695688,-0.83688474,-1.7857105,0.045662142
122,1778621659.1352744,0.14177656,0.024025792,0.09695688,-0.83688474,-1.7857105,0.045662142
123,1778621659.1452754,0.14177656,0.024025792,0.09695688,-0.83688474,-1.7857105,0.045662142
124,1778621659.1552763,-2.0376189,-1.4824035,0.82773125,-4.70427,-0.5548179,0.5355757
125,1778621659.1652765,-2.0376189,-1.4824035,0.82773125,-4.70427,-0.5548179,0.5355757
126,1778621659.1752791,-1.9693222,-1.4941115,1.2753183,-1.467908,-0.65683234,0.21303909
127,1778621659.1852887,-1.9693222,-1.4941115,1.2753183,-1.467908,-0.65683234,0.21303909
128,1778621659.195292,-1.9693222,-1.4941115,1.2753183,-1.467908,-0.65683234,0.21303909
129,1778621659.2052975,-1.9693222,-1.4941115,1.2753183,-1.467908,-0.65683234,0.21303909
130,1778621659.2153175,-1.9693222,-1.4941115,1.2753183,-1.467908,-0.65683234,0.21303909
131,1778621659.2253184,-1.9693222,-1.4941115,1.2753183,-1.467908,-0.65683234,0.21303909
132,1778621659.2353194,-4.1179843,-2.7056456,-2.268059,-1.0775654,-0.7362448,0.06093376
133,1778621659.2453218,-4.1179843,-2.7056456,-2.268059,-1.8729115,-2.2524111,-0.108886644
134,1778621659.2553227,-4.1179843,-2.7056456,-2.268059,-1.8729115,-2.2524111,-0.108886644
135,1778621659.2653239,-4.1179843,-2.7056456,-2.268059,-1.8729115,-2.2524111,-0.108886644
136,1778621659.2753246,-4.1179843,-2.7056456,-2.268059,-1.8729115,-2.2524111,-0.108886644
137,1778621659.2853255,-4.1179843,-2.7056456,-2.268059,-1.8729115,-2.2524111,-0.108886644
138,1778621659.2953265,-4.1179843,-2.7056456,-2.268059,-1.8729115,-2.2524111,-0.108886644
139,1778621659.305328,-4.1179843,-2.7056456,-2.268059,-1.8729115,-2.2524111,-0.108886644
140,1778621659.315329,-4.1179843,-2.7056456,-2.268059,-2.950477,-3.2194102,0.27107126
141,1778621659.3253305,-4.1179843,-2.7056456,-2.268059,-3.2968373,-2.502255,0.9460768
142,1778621659.335332,-4.1179843,-2.7056456,-2.268059,-3.2968373,-2.502255,0.9460768
143,1778621659.345333,-4.1179843,-2.7056456,-2.268059,-3.2968373,-2.502255,0.9460768
144,1778621659.3553343,-0.717054,-2.8719969,0.71992004,-0.44715303,4.292394,1.7548618
145,1778621659.3653357,-0.717054,-2.8719969,0.71992004,-0.44715303,4.292394,1.7548618
146,1778621659.3753364,-0.07360186,-2.4280684,-1.8651088,1.2553271,7.4438453,0.4176788
147,1778621659.3853374,-0.07360186,-2.4280684,-1.8651088,1.3805544,7.0192943,0.114079
148,1778621659.395338,-0.07360186,-2.4280684,-1.8651088,1.3805544,7.0192943,0.114079
149,1778621659.4053476,-0.07360186,-2.4280684,-1.8651088,1.3805544,7.0192943,0.114079
150,1778621659.4153502,-0.07360186,-2.4280684,-1.8651088,1.3805544,7.0192943,0.114079
151,1778621659.4253511,-0.07360186,-2.4280684,-1.8651088,1.3805544,7.0192943,0.114079
152,1778621659.4353526,-0.07360186,-2.4280684,-1.8651088,1.3805544,7.0192943,0.114079
153,1778621659.445353,-0.07360186,-2.4280684,-1.8651088,1.3805544,7.0192943,0.114079
154,1778621659.4553535,-0.07360186,-2.4280684,-1.8651088,1.3805544,7.0192943,0.114079
155,1778621659.465354,-0.07360186,-2.4280684,-1.8651088,1.3805544,7.0192943,0.114079
156,1778621659.4753547,-0.07360186,-2.4280684,-1.8651088,1.3805544,7.0192943,0.114079
157,1778621659.4853556,-0.07360186,-2.4280684,-1.8651088,0.98776835,3.222159,-0.16875139
158,1778621659.4953566,-0.07360186,-2.4280684,-1.8651088,0.98776835,3.222159,-0.16875139
159,1778621659.505357,-0.07360186,-2.4280684,-1.8651088,0.98776835,3.222159,-0.16875139
160,1778621659.515358,-0.6841253,-3.2615318,-3.4195898,0.98776835,3.222159,-0.16875139
161,1778621659.5253668,-0.6841253,-3.2615318,-3.4195898,0.98776835,3.222159,-0.16875139
162,1778621659.5354147,-0.6841253,-3.2615318,-3.4195898,0.98776835,3.222159,-0.16875139
163,1778621659.5454166,-0.6841253,-3.2615318,-3.4195898,0.98776835,3.222159,-0.16875139
164,1778621659.5554183,-0.6841253,-3.2615318,-3.4195898,0.98776835,3.222159,-0.16875139
165,1778621659.5654192,-0.6841253,-3.2615318,-3.4195898,0.98776835,3.222159,-0.16875139
166,1778621659.5754204,-0.6841253,-3.2615318,-3.4195898,0.98776835,3.222159,-0.16875139
167,1778621659.5854208,-0.6841253,-3.2615318,-3.4195898,0.98776835,3.222159,-0.16875139
168,1778621659.5954218,-0.6841253,-3.2615318,-3.4195898,0.98776835,3.222159,-0.16875139
169,1778621659.6054225,-0.77583796,-3.5735013,-3.1846979,0.695775,1.5722132,-0.05818487
170,1778621659.6154232,-0.77583796,-3.5735013,-3.1846979,0.695775,1.5722132,-0.05818487
171,1778621659.6254241,-0.77583796,-3.5735013,-3.1846979,0.695775,1.5722132,-0.05818487
172,1778621659.635425,-0.2948343,-3.793758,-1.2140952,-0.092851445,-2.0221152,0.4415025
173,1778621659.6454287,-0.2948343,-3.793758,-1.2140952,-0.092851445,-2.0221152,0.4415025
174,1778621659.6554303,-0.2948343,-3.793758,-1.2140952,-0.092851445,-2.0221152,0.4415025
175,1778621659.665431,-0.2948343,-3.793758,-1.2140952,-0.092851445,-2.0221152,0.4415025
176,1778621659.6754315,-0.2948343,-3.793758,-1.2140952,-0.092851445,-2.0221152,0.4415025
177,1778621659.6854324,-0.0075004376,-3.3332434,0.01841571,0.18814635,-1.7050763,-0.052687086
178,1778621659.6954331,-0.0075004376,-3.3332434,0.01841571,0.18814635,-1.7050763,-0.052687086
179,1778621659.7054336,-0.0075004376,-3.3332434,0.01841571,0.18814635,-1.7050763,-0.052687086
180,1778621659.7154346,-0.1694611,-3.070301,-0.009390792,0.18814635,-1.7050763,-0.052687086
181,1778621659.7254348,-0.1694611,-3.070301,-0.009390792,0.18814635,-1.7050763,-0.052687086
182,1778621659.7354355,-0.1694611,-3.070301,-0.009390792,0.18814635,-1.7050763,-0.052687086
183,1778621659.745436,-0.1694611,-3.070301,-0.009390792,0.18814635,-1.7050763,-0.052687086
184,1778621659.755437,-0.1694611,-3.070301,-0.009390792,0.18814635,-1.7050763,-0.052687086
185,1778621659.7654374,-0.1694611,-3.070301,-0.009390792,0.18814635,-1.7050763,-0.052687086
186,1778621659.775438,-0.1694611,-3.070301,-0.009390792,0.18814635,-1.7050763,-0.052687086
187,1778621659.7854388,-0.1694611,-3.070301,-0.009390792,1.3267983,-2.1723878,-1.5315907
188,1778621659.7954392,-0.78022844,-1.3441027,-0.1574482,2.385427,1.9943208,-1.8003712
189,1778621659.8054402,-0.78022844,-1.3441027,-0.1574482,2.385427,1.9943208,-1.8003712
190,1778621659.8154407,-0.78022844,-1.3441027,-0.1574482,2.385427,1.9943208,-1.8003712
191,1778621659.8254414,-0.78022844,-1.3441027,-0.1574482,2.385427,1.9943208,-1.8003712
192,1778621659.835442,-0.78022844,-1.3441027,-0.1574482,2.385427,1.9943208,-1.8003712
193,1778621659.8454428,-0.5263112,-1.1657997,-0.09768862,2.385427,1.9943208,-1.8003712
194,1778621659.8554437,-0.5263112,-1.1657997,-0.09768862,2.385427,1.9943208,-1.8003712
195,1778621659.8654442,-0.5263112,-1.1657997,-0.09768862,2.385427,1.9943208,-1.8003712
196,1778621659.8754456,-0.5263112,-1.1657997,-0.09768862,2.4526222,2.1158829,-1.688583
197,1778621659.8854473,-0.5263112,-1.1657997,-0.09768862,2.4526222,2.1158829,-1.688583
198,1778621659.895448,-0.5263112,-1.1657997,-0.09768862,2.4526222,2.1158829,-1.688583
199,1778621659.905449,-0.4502092,-1.1009179,-0.07573613,2.4526222,2.1158829,-1.688583
200,1778621659.9154499,-0.4502092,-1.1009179,-0.07573613,2.4526222,2.1158829,-1.688583
201,1778621659.925453,-0.4502092,-1.1009179,-0.07573613,2.4526222,2.1158829,-1.688583
202,1778621659.9354625,-0.26629603,-0.9262736,-0.009634708,2.3695445,1.9778274,-1.4698933
203,1778621659.9457226,-0.26629603,-0.9262736,-0.009634708,2.3695445,1.9778274,-1.4698933
204,1778621659.9557228,-0.26629603,-0.9262736,-0.009634708,2.3695445,1.9778274,-1.4698933
205,1778621659.9657238,-0.21043912,-0.869197,0.014756958,2.3695445,1.9778274,-1.4698933
206,1778621659.9757247,-0.21043912,-0.869197,0.014756958,2.3695445,1.9778274,-1.4698933
207,1778621659.9857252,-0.21043912,-0.869197,0.014756958,2.3212862,1.9216279,-1.4081961
208,1778621659.995726,-0.06823569,-0.6852839,0.06988213,2.3212862,1.9216279,-1.4081961
209,1778621660.0057268,-0.06823569,-0.6852839,0.06988213,2.3212862,1.9216279,-1.4081961
210,1778621660.0157278,-0.010671355,-0.585522,0.08890763,2.0622795,1.6461278,-1.2108867
211,1778621660.0257308,-0.010671355,-0.585522,0.08890763,2.0622795,1.6461278,-1.2108867
212,1778621660.0357325,-0.010671355,-0.585522,0.08890763,2.0622795,1.6461278,-1.2108867
213,1778621660.0457335,-0.010671355,-0.585522,0.08890763,2.0622795,1.6461278,-1.2108867
214,1778621660.0557356,-0.010671355,-0.585522,0.08890763,2.0622795,1.6461278,-1.2108867
215,1778621660.0657365,-0.010671355,-0.585522,0.08890763,2.0622795,1.6461278,-1.2108867
216,1778621660.0757377,-0.010671355,-0.585522,0.08890763,2.0622795,1.6461278,-1.2108867
217,1778621660.0857387,-0.010671355,-0.585522,0.08890763,2.0622795,1.6461278,-1.2108867
218,1778621660.095739,-0.010671355,-0.585522,0.08890763,2.0622795,1.6461278,-1.2108867
219,1778621660.1057396,-0.010671355,-0.585522,0.08890763,2.0622795,1.6461278,-1.2108867
220,1778621660.11574,-0.010671355,-0.585522,0.08890763,2.0622795,1.6461278,-1.2108867
221,1778621660.125741,-0.010671355,-0.585522,0.08890763,2.0622795,1.6461278,-1.2108867
222,1778621660.135751,0.021525647,-0.3913643,0.10134738,2.0622795,1.6461278,-1.2108867
223,1778621660.1457539,0.021525647,-0.3913643,0.10134738,2.0622795,1.6461278,-1.2108867
224,1778621660.1557548,0.021525647,-0.3913643,0.10134738,1.8423681,1.4592032,-1.1406373
225,1778621660.165763,0.025184397,-0.30672523,0.099152125,1.6053526,1.2337941,-1.1632392
226,1778621660.1757658,0.025184397,-0.30672523,0.099152125,1.6053526,1.2337941,-1.1632392
227,1778621660.1857693,-0.00798827,-0.117689796,0.102566965,1.7745622,1.3993385,-1.132696
228,1778621660.1957703,-0.00798827,-0.117689796,0.102566965,1.7745622,1.3993385,-1.132696
229,1778621660.205771,-0.00798827,-0.117689796,0.102566965,1.7745622,1.3993385,-1.132696
230,1778621660.215772,-0.027013771,-0.06256463,0.08622454,1.7745622,1.3993385,-1.132696
231,1778621660.2257729,-0.027013771,-0.06256463,0.08622454,1.7745622,1.3993385,-1.132696
232,1778621660.2357733,-0.027013771,-0.06256463,0.08622454,1.7745622,1.3993385,-1.132696
233,1778621660.245776,-0.027013771,-0.06256463,0.08622454,1.5125012,1.1543818,-1.2169954
234,1778621660.2557771,-0.027013771,-0.06256463,0.08622454,1.5125012,1.1543818,-1.2169954
235,1778621660.2657778,-0.027013771,-0.06256463,0.08622454,1.5125012,1.1543818,-1.2169954
236,1778621660.275781,-0.027013771,-0.06256463,0.08622454,1.5125012,1.1543818,-1.2169954
237,1778621660.2857826,-0.027013771,-0.06256463,0.08622454,1.5125012,1.1543818,-1.2169954
238,1778621660.295784,-0.027013771,-0.06256463,0.08622454,1.5125012,1.1543818,-1.2169954
239,1778621660.305855,-0.027013771,-0.06256463,0.08622454,1.5125012,1.1543818,-1.2169954
240,1778621660.315856,-0.027013771,-0.06256463,0.08622454,1.5125012,1.1543818,-1.2169954
241,1778621660.325857,-0.027013771,-0.06256463,0.08622454,1.5125012,1.1543818,-1.2169954
242,1778621660.3358574,-0.027013771,-0.06256463,0.08622454,1.5125012,1.1543818,-1.2169954
243,1778621660.3458583,-0.08165111,0.055247124,0.046710044,1.5125012,1.1543818,-1.2169954
244,1778621660.355859,-0.08165111,0.055247124,0.046710044,1.5125012,1.1543818,-1.2169954
245,1778621660.3658597,-0.08165111,0.055247124,0.046710044,1.5125012,1.1543818,-1.2169954
246,1778621660.3758605,-0.08165111,0.055247124,0.046710044,1.4391974,1.090241,-1.2854122
247,1778621660.3858614,-0.08165111,0.055247124,0.046710044,1.4391974,1.090241,-1.2854122
248,1778621660.395862,-0.08165111,0.055247124,0.046710044,1.4391974,1.090241,-1.2854122
249,1778621660.4058628,-0.08165111,0.055247124,0.046710044,1.4391974,1.090241,-1.2854122
250,1778621660.4158654,-0.08165111,0.055247124,0.046710044,1.4391974,1.090241,-1.2854122
251,1778621660.425867,-0.08165111,0.055247124,0.046710044,1.4391974,1.090241,-1.2854122
252,1778621660.4358678,-0.09896919,0.085004956,0.042319544,1.4391974,1.090241,-1.2854122
253,1778621660.4458687,-0.09896919,0.085004956,0.042319544,1.4391974,1.090241,-1.2854122
254,1778621660.4558692,-0.09896919,0.085004956,0.042319544,1.4391974,1.090241,-1.2854122
255,1778621660.46587,-0.09896919,0.085004956,0.042319544,1.4391974,1.090241,-1.2854122
256,1778621660.4758706,-0.09896919,0.085004956,0.042319544,1.4391974,1.090241,-1.2854122
257,1778621660.4858716,-0.09896919,0.085004956,0.042319544,1.4391974,1.090241,-1.2854122
258,1778621660.495873,-0.09896919,0.085004956,0.042319544,1.4129303,1.0596976,-1.322064
259,1778621660.5058737,-0.09896919,0.085004956,0.042319544,1.4129303,1.0596976,-1.322064
260,1778621660.5158749,-0.10604277,0.19574313,-0.05110054,1.3585633,0.90759236,-1.5358667
261,1778621660.5258758,-0.10604277,0.19574313,-0.05110054,1.3585633,0.90759236,-1.5358667
262,1778621660.5358763,-0.10604277,0.19574313,-0.05110054,1.3585633,0.90759236,-1.5358667
263,1778621660.545877,-0.10604277,0.19574313,-0.05110054,1.3524547,0.80741054,-1.6391029
264,1778621660.5558774,-0.10604277,0.19574313,-0.05110054,1.3524547,0.80741054,-1.6391029
265,1778621660.565878,-0.10604277,0.19574313,-0.05110054,1.3524547,0.80741054,-1.6391029
266,1778621660.5758789,-0.10604277,0.19574313,-0.05110054,1.3524547,0.80741054,-1.6391029
267,1778621660.5858803,-0.09921311,0.23452587,-0.14525238,1.3524547,0.80741054,-1.6391029
268,1778621660.595882,-0.09921311,0.23452587,-0.14525238,1.3524547,0.80741054,-1.6391029
269,1778621660.605891,-0.09921311,0.23452587,-0.14525238,1.3524547,0.80741054,-1.6391029
270,1778621660.615893,-0.09921311,0.23452587,-0.14525238,1.3524547,0.80741054,-1.6391029
271,1778621660.6258943,-0.044331856,0.23720895,-0.33819047,1.1753038,0.41706792,-1.945757
272,1778621660.6358953,-0.014086187,0.20696329,-0.51015174,0.8509346,0.20815217,-2.0557127
273,1778621660.645896,-0.014086187,0.20696329,-0.51015174,0.8509346,0.20815217,-2.0557127
274,1778621660.655897,-0.014086187,0.20696329,-0.51015174,0.8509346,0.20815217,-2.0557127
275,1778621660.665898,-0.014086187,0.20696329,-0.51015174,0.8509346,0.20815217,-2.0557127
276,1778621660.6758988,-0.014086187,0.20696329,-0.51015174,0.8509346,0.20815217,-2.0557127
277,1778621660.6858997,-0.014086187,0.20696329,-0.51015174,0.8509346,0.20815217,-2.0557127
278,1778621660.6959004,-0.004817354,0.15354554,-0.53551906,0.8509346,0.20815217,-2.0557127
279,1778621660.7059014,-0.004817354,0.15354554,-0.53551906,0.8509346,0.20815217,-2.0557127
280,1778621660.7159016,-0.004817354,0.15354554,-0.53551906,0.8509346,0.20815217,-2.0557127
281,1778621660.725902,-0.004817354,0.15354554,-0.53551906,0.8509346,0.20815217,-2.0557127
282,1778621660.7359028,-0.004817354,0.15354554,-0.53551906,0.8509346,0.20815217,-2.0557127
283,1778621660.7459042,-0.004817354,0.15354554,-0.53551906,0.2932151,-0.060017463,-2.1106906
284,1778621660.7559054,-0.004817354,0.15354554,-0.53551906,0.2932151,-0.060017463,-2.1106906
285,1778621660.765906,-0.004817354,0.15354554,-0.53551906,0.17104214,-0.11988221,-2.1070254
286,1778621660.7759097,-0.004817354,0.15354554,-0.53551906,0.17104214,-0.11988221,-2.1070254
287,1778621660.7859113,-0.004817354,0.15354554,-0.53551906,0.17104214,-0.11988221,-2.1070254
288,1778621660.7959123,-0.005061271,0.06768687,-0.47063723,0.17104214,-0.11988221,-2.1070254
289,1778621660.8059134,-0.0043295207,0.020854875,-0.43478146,0.0030543238,-0.5719221,-1.9109378
290,1778621660.8159142,-0.0043295207,0.020854875,-0.43478146,0.0030543238,-0.5719221,-1.9109378
291,1778621660.825915,-0.0043295207,0.020854875,-0.43478146,0.0030543238,-0.5719221,-1.9109378
292,1778621660.8359396,-0.0043295207,0.020854875,-0.43478146,0.2083049,-0.65683234,-1.8858923
293,1778621660.8459413,-0.0043295207,0.020854875,-0.43478146,0.2083049,-0.65683234,-1.8858923
294,1778621660.8559418,-0.0043295207,0.020854875,-0.43478146,0.2083049,-0.65683234,-1.8858923
295,1778621660.865942,-0.0043295207,0.020854875,-0.43478146,0.2083049,-0.65683234,-1.8858923
296,1778621660.8759427,-0.039209604,-0.016708292,-0.39648655,0.2083049,-0.65683234,-1.8858923
297,1778621660.885944,-0.039209604,-0.016708292,-0.39648655,0.2083049,-0.65683234,-1.8858923
298,1778621660.8959446,-0.039209604,-0.016708292,-0.39648655,0.2083049,-0.65683234,-1.8858923
299,1778621660.9059448,-0.039209604,-0.016708292,-0.39648655,0.2083049,-0.65683234,-1.8858923
300,1778621660.9159458,-0.039209604,-0.016708292,-0.39648655,0.2083049,-0.65683234,-1.8858923
301,1778621660.9259467,-0.039209604,-0.016708292,-0.39648655,0.2083049,-0.65683234,-1.8858923
302,1778621660.935948,-0.039209604,-0.016708292,-0.39648655,0.2083049,-0.65683234,-1.8858923
303,1778621660.9459496,0.100554645,0.16818054,-0.07719963,0.49357873,-0.34712392,-1.950644
304,1778621660.9559507,0.100554645,0.16818054,-0.07719963,0.49357873,-0.34712392,-1.950644
305,1778621660.965952,0.100554645,0.16818054,-0.07719963,0.49357873,-0.34712392,-1.950644
306,1778621660.9759526,0.100554645,0.16818054,-0.07719963,0.49357873,-0.34712392,-1.950644
307,1778621660.9859533,0.100554645,0.16818054,-0.07719963,0.49357873,-0.34712392,-1.950644
308,1778621660.9959543,0.18226673,0.16183871,0.09183463,0.6236929,0.47204575,-2.0569344
309,1778621661.005967,0.18226673,0.16183871,0.09183463,0.6236929,0.47204575,-2.0569344
310,1778621661.0159714,0.18226673,0.16183871,0.09183463,0.6236929,0.47204575,-2.0569344
311,1778621661.025973,0.18226673,0.16183871,0.09183463,0.6236929,0.47204575,-2.0569344
312,1778621661.0359747,0.18226673,0.16183871,0.09183463,0.6236929,0.47204575,-2.0569344
313,1778621661.045976,0.18397415,0.14183754,0.11183579,1.0317506,1.6613995,-2.094808
314,1778621661.0559766,0.18397415,0.14183754,0.11183579,1.0317506,1.6613995,-2.094808
315,1778621661.0659773,0.18397415,0.14183754,0.11183579,1.0317506,1.6613995,-2.094808
316,1778621661.0759783,0.09128582,0.20598765,-0.072321296,-1.0293071,-1.7912083,-1.1632392
317,1778621661.0859795,0.09128582,0.20598765,-0.072321296,-1.0293071,-1.7912083,-1.1632392
318,1778621661.09598,-0.3272752,-0.6760151,-0.21501255,-1.508836,0.5361866,-0.46318823
319,1778621661.1059809,-0.3272752,-0.6760151,-0.21501255,-1.508836,0.5361866,-0.46318823
320,1778621661.1159813,-0.3272752,-0.6760151,-0.21501255,-1.508836,0.5361866,-0.46318823
321,1778621661.1259818,-0.33483663,-0.7311402,-0.3050178,-1.7195843,0.5215258,-0.36911505
322,1778621661.1359825,-0.33483663,-0.7311402,-0.3050178,-1.7195843,0.5215258,-0.36911505
323,1778621661.145983,-0.33483663,-0.7311402,-0.3050178,-1.7195843,0.5215258,-0.36911505
324,1778621661.1559837,-1.3314801,-4.1254845,0.94944566,0.16737695,0.46105018,1.9680536
325,1778621661.1659846,-1.3314801,-4.1254845,0.94944566,0.16737695,0.46105018,1.9680536
326,1778621661.1759853,-1.3314801,-4.1254845,0.94944566,0.16737695,0.46105018,1.9680536
327,1778621661.1859858,-1.3314801,-4.1254845,0.94944566,0.16737695,0.46105018,1.9680536
328,1778621661.1959865,-1.3314801,-4.1254845,0.94944566,0.16737695,0.46105018,1.9680536
329,1778621661.205987,-1.3314801,-4.1254845,0.94944566,0.16737695,0.46105018,1.9680536
330,1778621661.2159882,-0.6199752,-4.115972,0.46283188,0.7440333,2.6955936,0.7866411
331,1778621661.2259886,-0.6199752,-4.115972,0.46283188,0.7440333,2.6955936,0.7866411
332,1778621661.2359898,-0.6199752,-4.115972,0.46283188,0.7440333,2.6955936,0.7866411
333,1778621661.245991,-0.6199752,-4.115972,0.46283188,0.7440333,2.6955936,0.7866411
334,1778621661.2559912,-0.6199752,-4.115972,0.46283188,0.7440333,2.6955936,0.7866411
335,1778621661.2659922,0.104945146,-3.8647377,0.06695513,0.7440333,2.6955936,0.7866411
336,1778621661.2759929,0.104945146,-3.8647377,0.06695513,0.7440333,2.6955936,0.7866411
337,1778621661.2859938,0.104945146,-3.8647377,0.06695513,0.7440333,2.6955936,0.7866411
338,1778621661.2959952,0.7905949,-4.34501,-0.29330978,1.4080433,2.6448917,-0.45707956
339,1778621661.3059957,0.7905949,-4.34501,-0.29330978,1.4080433,2.6448917,-0.45707956
340,1778621661.3159964,0.7905949,-4.34501,-0.29330978,1.4080433,2.6448917,-0.45707956
341,1778621661.3259974,0.7905949,-4.34501,-0.29330978,1.9822562,1.5752676,-1.0068579
342,1778621661.3359983,0.7905949,-4.34501,-0.29330978,1.9822562,1.5752676,-1.0068579
343,1778621661.3459997,0.7905949,-4.34501,-0.29330978,1.9822562,1.5752676,-1.0068579
344,1778621661.3560007,0.775716,-4.1671944,-0.25306356,1.8949026,1.356578,-1.0404555
345,1778621661.3660016,0.775716,-4.1671944,-0.25306356,1.8949026,1.356578,-1.0404555
346,1778621661.3760023,0.775716,-4.1671944,-0.25306356,1.6139047,1.0981822,-0.79427695
347,1778621661.3860033,0.775716,-4.1671944,-0.25306356,1.6139047,1.0981822,-0.79427695
348,1778621661.3960044,0.775716,-4.1671944,-0.25306356,1.6139047,1.0981822,-0.79427695
349,1778621661.4060056,0.9347496,-4.3196425,-0.29111454,1.6139047,1.0981822,-0.79427695
350,1778621661.4160063,0.9347496,-4.3196425,-0.29111454,1.6139047,1.0981822,-0.79427695
351,1778621661.4260068,0.9347496,-4.3196425,-0.29111454,1.6139047,1.0981822,-0.79427695
352,1778621661.436008,0.9347496,-4.3196425,-0.29111454,1.5491531,0.93752474,-0.59757847
353,1778621661.4460115,0.9347496,-4.3196425,-0.29111454,1.5491531,0.93752474,-0.59757847
354,1778621661.4560225,0.9347496,-4.3196425,-0.29111454,1.5491531,0.93752474,-0.59757847
355,1778621661.466023,0.9347496,-4.3196425,-0.29111454,1.5491531,0.93752474,-0.59757847
356,1778621661.4760234,0.9347496,-4.3196425,-0.29111454,1.5491531,0.93752474,-0.59757847
357,1778621661.4860249,0.9347496,-4.3196425,-0.29111454,1.5491531,0.93752474,-0.59757847
358,1778621661.4960358,0.24592897,-3.2068944,-0.1820838,1.5491531,0.93752474,-0.59757847
359,1778621661.5060396,0.24592897,-3.2068944,-0.1820838,1.5491531,0.93752474,-0.59757847
360,1778621661.51604,0.24592897,-3.2068944,-0.1820838,1.5491531,0.93752474,-0.59757847
361,1778621661.526041,0.24592897,-3.2068944,-0.1820838,1.4721841,0.26740605,0.24358234
362,1778621661.536042,0.24592897,-3.2068944,-0.1820838,1.4721841,0.26740605,0.24358234
363,1778621661.5460427,0.24592897,-3.2068944,-0.1820838,1.4721841,0.26740605,0.24358234
364,1778621661.5560431,0.24592897,-3.2068944,-0.1820838,1.3158027,-0.32696536,1.0114393
365,1778621661.5660443,0.24592897,-3.2068944,-0.1820838,1.3158027,-0.32696536,1.0114393
366,1778621661.5760453,0.24592897,-3.2068944,-0.1820838,1.3158027,-0.32696536,1.0114393
367,1778621661.586046,0.24592897,-3.2068944,-0.1820838,1.3158027,-0.32696536,1.0114393
368,1778621661.5960472,0.24592897,-3.2068944,-0.1820838,1.3158027,-0.32696536,1.0114393
369,1778621661.606049,0.24592897,-3.2068944,-0.1820838,1.3158027,-0.32696536,1.0114393
370,1778621661.6160502,0.24592897,-3.2068944,-0.1820838,1.3158027,-0.32696536,1.0114393
371,1778621661.6260517,0.24592897,-3.2068944,-0.1820838,1.3158027,-0.32696536,1.0114393
372,1778621661.6360528,0.24592897,-3.2068944,-0.1820838,1.3158027,-0.32696536,1.0114393
373,1778621661.6460536,0.24592897,-3.2068944,-0.1820838,1.3158027,-0.32696536,1.0114393
374,1778621661.6560547,-0.2294646,-2.4668512,-0.30599347,1.2516619,-0.42959064,1.1097885
375,1778621661.666066,-0.6119259,-1.4731348,-0.28135788,0.68905544,-1.457676,0.75976306
376,1778621661.67607,-0.6119259,-1.4731348,-0.28135788,0.68905544,-1.457676,0.75976306
377,1778621661.686072,-0.6119259,-1.4731348,-0.28135788,0.6646209,-1.3507748,0.84100807
378,1778621661.6960733,-0.6119259,-1.4731348,-0.28135788,0.6646209,-1.3507748,0.84100807
379,1778621661.7060738,-0.6119259,-1.4731348,-0.28135788,0.6646209,-1.3507748,0.84100807
380,1778621661.7160745,-0.2775162,-0.9096872,-0.12793429,0.58154327,-1.1345286,1.0199915
381,1778621661.7260754,-0.2775162,-0.9096872,-0.12793429,0.58154327,-1.1345286,1.0199915
382,1778621661.7360766,-0.3172746,-0.9794474,-0.1411058,0.58154327,-1.1345286,1.0199915
383,1778621661.7460775,-0.3172746,-0.9794474,-0.1411058,0.58154327,-1.1345286,1.0199915
384,1778621661.7560785,-0.3172746,-0.9794474,-0.1411058,0.58154327,-1.1345286,1.0199915
385,1778621661.7660792,-0.3172746,-0.9794474,-0.1411058,0.58154327,-1.1345286,1.0199915
386,1778621661.7760808,-0.3172746,-0.9794474,-0.1411058,0.58154327,-1.1345286,1.0199915
387,1778621661.7860818,-0.3172746,-0.9794474,-0.1411058,0.58154327,-1.1345286,1.0199915
388,1778621661.7960827,-0.3172746,-0.9794474,-0.1411058,0.58154327,-1.1345286,1.0199915
389,1778621661.806084,-0.3172746,-0.9794474,-0.1411058,0.58154327,-1.1345286,1.0199915
390,1778621661.8160863,-0.3172746,-0.9794474,-0.1411058,0.58154327,-1.1345286,1.0199915
391,1778621661.82609,-0.3172746,-0.9794474,-0.1411058,0.58154327,-1.1345286,1.0199915
392,1778621661.8360922,-0.3172746,-0.9794474,-0.1411058,0.58154327,-1.1345286,1.0199915
393,1778621661.8460934,-0.3172746,-0.9794474,-0.1411058,0.45142907,-0.7673989,1.2258528
394,1778621661.8560944,-0.3172746,-0.9794474,-0.1411058,0.45142907,-0.7673989,1.2258528
395,1778621661.8660948,-0.3172746,-0.9794474,-0.1411058,0.45142907,-0.7673989,1.2258528
396,1778621661.8760955,-0.047746688,-0.3594112,-0.13061738,0.4734202,-0.38866273,1.2472332
397,1778621661.8860962,-0.047746688,-0.3594112,-0.13061738,0.4734202,-0.38866273,1.2472332
398,1778621661.896097,-0.047746688,-0.3594112,-0.13061738,0.4734202,-0.38866273,1.2472332
399,1778621661.906098,-0.047746688,-0.3594112,-0.13061738,0.4734202,-0.38866273,1.2472332
400,1778621661.9160986,-0.047746688,-0.3594112,-0.13061738,0.4734202,-0.38866273,1.2472332
401,1778621661.9261022,-0.047746688,-0.3594112,-0.13061738,0.4734202,-0.38866273,1.2472332
402,1778621661.9361193,-0.047746688,-0.3594112,-0.13061738,0.4734202,-0.38866273,1.2472332
403,1778621661.9461203,-0.047746688,-0.3594112,-0.13061738,0.4734202,-0.38866273,1.2472332
404,1778621661.9561217,-0.0043295207,-0.18135203,-0.15964346,0.52839804,-0.4094321,1.2203552
405,1778621661.966123,-0.0043295207,-0.18135203,-0.15964346,0.52839804,-0.4094321,1.2203552
406,1778621661.9761233,-0.0043295207,-0.18135203,-0.15964346,0.52839804,-0.4094321,1.2203552
407,1778621661.9861248,0.029574897,0.09500554,-0.17061971,0.66339916,-0.5853612,1.1513274
408,1778621661.9961264,0.029574897,0.09500554,-0.17061971,0.66339916,-0.5853612,1.1513274
409,1778621662.0061274,0.029574897,0.09500554,-0.17061971,0.66339916,-0.5853612,1.1513274
410,1778621662.0161283,0.024696562,0.22794013,-0.18549863,0.65851223,-0.5584831,1.1152864
411,1778621662.0261292,0.024696562,0.22794013,-0.18549863,0.65851223,-0.5584831,1.1152864
412,1778621662.0361297,0.024696562,0.22794013,-0.18549863,0.65851223,-0.5584831,1.1152864
413,1778621662.0461307,0.024696562,0.22794013,-0.18549863,0.65851223,-0.5584831,1.1152864
414,1778621662.0561311,0.024696562,0.22794013,-0.18549863,0.65851223,-0.5584831,1.1152864
415,1778621662.0661318,0.024696562,0.22794013,-0.18549863,0.65851223,-0.5584831,1.1152864
416,1778621662.0761328,0.024696562,0.22794013,-0.18549863,0.65851223,-0.5584831,1.1152864
417,1778621662.0861335,0.024696562,0.22794013,-0.18549863,0.65851223,-0.5584831,1.1152864
418,1778621662.0961344,0.031038398,0.35526463,-0.19184047,0.5583304,-0.42959064,1.1165081
419,1778621662.1061354,0.117384896,0.44063547,-0.117689796,-0.45509425,0.13790272,1.0303762
420,1778621662.1161358,0.117384896,0.44063547,-0.117689796,-0.45509425,0.13790272,1.0303762
421,1778621662.1261363,0.117384896,0.44063547,-0.117689796,-0.45509425,0.13790272,1.0303762
422,1778621662.1361375,0.117384896,0.44063547,-0.117689796,-0.45509425,0.13790272,1.0303762
423,1778621662.1461382,0.117384896,0.44063547,-0.117689796,-0.45509425,0.13790272,1.0303762
424,1778621662.1561396,-0.028233355,-0.11012838,-0.010122542,-0.38789913,-1.1131483,1.3406955
425,1778621662.1661403,-0.028233355,-0.11012838,-0.010122542,-0.38789913,-1.1131483,1.3406955
426,1778621662.1761408,-0.028233355,-0.11012838,-0.010122542,-0.38789913,-1.1131483,1.3406955
427,1778621662.1861417,-0.0006707709,-0.17769329,0.0140252095,-0.38789913,-1.1131483,1.3406955
428,1778621662.1961422,-0.0006707709,-0.17769329,0.0140252095,-0.38789913,-1.1131483,1.3406955
429,1778621662.206143,0.011281146,-0.20647547,-0.004268542,-0.32131487,-1.0716095,1.3486367
430,1778621662.2161438,0.011281146,-0.20647547,-0.004268542,-0.32131487,-1.0716095,1.3486367
431,1778621662.2261446,0.011281146,-0.20647547,-0.004268542,-0.32131487,-1.0716095,1.3486367
432,1778621662.236146,0.03152623,-0.28623623,-0.08329754,-0.2254091,-1.0044144,1.4359903
433,1778621662.2461476,0.03152623,-0.28623623,-0.08329754,-0.2254091,-1.0044144,1.4359903
434,1778621662.2561486,0.03152623,-0.28623623,-0.08329754,-0.2254091,-1.0044144,1.4359903
435,1778621662.2661495,0.03152623,-0.28623623,-0.08329754,-0.2254091,-1.0044144,1.4359903
436,1778621662.2761505,0.03152623,-0.28623623,-0.08329754,-0.2254091,-1.0044144,1.4359903
437,1778621662.286151,0.03152623,-0.28623623,-0.08329754,-0.2254091,-1.0044144,1.4359903
438,1778621662.2961519,0.047868647,-0.31184745,-0.107933134,-0.22846343,-1.01541,1.5373939
439,1778621662.3061528,0.047868647,-0.31184745,-0.107933134,-0.22846343,-1.01541,1.5373939
440,1778621662.3161535,0.047868647,-0.31184745,-0.107933134,-0.22846343,-1.01541,1.5373939
441,1778621662.3261561,0.047868647,-0.31184745,-0.107933134,-0.28954992,-1.1198678,1.7035491
442,1778621662.3361578,0.047868647,-0.31184745,-0.107933134,-0.28954992,-1.1198678,1.7035491
443,1778621662.3461587,0.047868647,-0.31184745,-0.107933134,-0.28954992,-1.1198678,1.7035491
444,1778621662.3561602,0.25397822,-0.30428603,-0.038904708,-0.5998692,-1.7710497,1.550833
445,1778621662.3661609,0.25397822,-0.30428603,-0.038904708,-0.5998692,-1.7710497,1.550833
446,1778621662.3761618,-0.06286953,-0.2303793,-0.37502187,-1.9089525,-0.9304998,0.4641045
447,1778621662.3863149,-0.06286953,-0.2303793,-0.37502187,-1.9089525,-0.9304998,0.4641045
448,1778621662.3963165,-0.06286953,-0.2303793,-0.37502187,-1.9089525,-0.9304998,0.4641045
449,1778621662.4063177,-0.06286953,-0.2303793,-0.37502187,-1.9089525,-0.9304998,0.4641045
450,1778621662.416321,-0.06286953,-0.2303793,-0.37502187,-2.6377141,-1.2298235,0.36086836
451,1778621662.4263222,-0.06286953,-0.2303793,-0.37502187,-2.6377141,-1.2298235,0.36086836
452,1778621662.4363234,-0.06286953,-0.2303793,-0.37502187,-2.6377141,-1.2298235,0.36086836
453,1778621662.446324,-0.06286953,-0.2303793,-0.37502187,-2.6377141,-1.2298235,0.36086836
454,1778621662.4563253,-0.049454104,-0.3635578,-0.5899125,-2.9278748,-1.2988513,0.3260491
455,1778621662.4663267,-0.049454104,-0.3635578,-0.5899125,-2.9278748,-1.2988513,0.3260491
456,1778621662.4763274,-0.049454104,-0.3635578,-0.5899125,-2.9278748,-1.2988513,0.3260491
457,1778621662.4863372,-0.049454104,-0.3635578,-0.5899125,-2.9278748,-1.2988513,0.3260491
458,1778621662.49634,-0.13116619,-0.54844666,-0.91919994,-2.9278748,-1.2988513,0.3260491
459,1778621662.5063405,-0.13116619,-0.54844666,-0.91919994,-2.9278748,-1.2988513,0.3260491
460,1778621662.516559,-0.13116619,-0.54844666,-0.91919994,-3.9419105,-1.5083779,0.2753473
461,1778621662.5265605,-0.13116619,-0.54844666,-0.91919994,-3.9419105,-1.5083779,0.2753473
462,1778621662.5365615,-0.13116619,-0.54844666,-0.91919994,-3.9419105,-1.5083779,0.2753473
463,1778621662.5465622,-0.13116619,-0.54844666,-0.91919994,-3.9419105,-1.5083779,0.2753473
464,1778621662.5565627,-0.13116619,-0.54844666,-0.91919994,-4.3102617,-1.5981749,0.28084508
465,1778621662.5665636,-0.13116619,-0.54844666,-0.91919994,-4.3102617,-1.5981749,0.28084508
466,1778621662.5765643,-0.13116619,-0.54844666,-0.91919994,-4.3102617,-1.5981749,0.28084508
467,1778621662.5865648,-0.13116619,-0.54844666,-0.91919994,-4.3102617,-1.5981749,0.28084508
468,1778621662.5965655,0.47545454,-2.1273193,0.746507,0.46792242,8.352201,1.383456
469,1778621662.606567,0.6266829,-2.157077,-0.9206634,-2.4795,-3.9548912,2.977813
470,1778621662.6165674,0.6266829,-2.157077,-0.9206634,-2.4795,-3.9548912,2.977813
471,1778621662.626568,0.6266829,-2.157077,-0.9206634,-2.4795,-3.9548912,2.977813
472,1778621662.6365716,-0.94365263,-3.416175,-2.2104948,0.06475167,-3.6415176,0.7243329
473,1778621662.6465733,-0.94365263,-3.416175,-2.2104948,0.06475167,-3.6415176,0.7243329
474,1778621662.6565742,-0.94365263,-3.416175,-2.2104948,0.06475167,-3.6415176,0.7243329
475,1778621662.666575,-0.94365263,-3.416175,-2.2104948,0.06475167,-3.6415176,0.7243329
476,1778621662.6765757,-0.94365263,-3.416175,-2.2104948,0.06475167,-3.6415176,0.7243329
477,1778621662.6865766,-0.94365263,-3.416175,-2.2104948,0.06475167,-3.6415176,0.7243329
478,1778621662.6965778,-0.94365263,-3.416175,-2.2104948,0.06475167,-3.6415176,0.7243329
479,1778621662.7065787,-0.94365263,-3.416175,-2.2104948,0.06475167,-3.6415176,0.7243329
480,1778621662.7165797,-0.94365263,-3.416175,-2.2104948,0.06475167,-3.6415176,0.7243329
481,1778621662.7265801,-0.94365263,-3.416175,-2.2104948,0.06475167,-3.6415176,0.7243329
482,1778621662.7365808,-0.94365263,-3.416175,-2.2104948,-0.1423315,-3.6647305,0.41279188
483,1778621662.7465818,-0.94365263,-3.416175,-2.2104948,-0.1423315,-3.6647305,0.41279188
484,1778621662.7565825,-0.94365263,-3.416175,-2.2104948,-0.1423315,-3.6647305,0.41279188
485,1778621662.7665832,-0.9802401,-3.761805,-1.3594695,-0.1423315,-3.6647305,0.41279188
486,1778621662.776584,-0.9802401,-3.761805,-1.3594695,-0.1423315,-3.6647305,0.41279188
487,1778621662.7865849,-0.9980461,-2.686376,-0.4852722,0.7819069,-0.90545434,-1.317788
488,1778621662.7965856,-0.9980461,-2.686376,-0.4852722,0.7819069,-0.90545434,-1.317788
489,1778621662.806586,-0.9980461,-2.686376,-0.4852722,0.7819069,-0.90545434,-1.317788
490,1778621662.8165867,-0.9980461,-2.686376,-0.4852722,0.7819069,-0.90545434,-1.317788
491,1778621662.8265874,-0.9980461,-2.686376,-0.4852722,0.7819069,-0.90545434,-1.317788
492,1778621662.8365884,-0.9980461,-2.686376,-0.4852722,0.7819069,-0.90545434,-1.317788
493,1778621662.846589,-1.2597686,-1.8182768,-0.054515377,1.5851941,-2.6635232,-1.9292637
494,1778621662.8569822,-1.2597686,-1.8182768,-0.054515377,1.5851941,-2.6635232,-1.9292637
495,1778621662.8669834,-1.2597686,-1.8182768,-0.054515377,1.5851941,-2.6635232,-1.9292637
496,1778621662.8769844,-0.0582351,-0.34355664,0.16037522,2.2980733,1.8654283,-1.9017748
497,1778621662.8869858,-0.0582351,-0.34355664,0.16037522,2.2980733,1.8654283,-1.9017748
498,1778621662.896986,-0.0582351,-0.34355664,0.16037522,2.2980733,1.8654283,-1.9017748
499,1778621662.906987,-0.0582351,-0.34355664,0.16037522,2.1838417,1.8208352,-1.9378158
500,1778621662.9169877,-0.0582351,-0.34355664,0.16037522,2.1838417,1.8208352,-1.9378158
501,1778621662.9269884,-0.0582351,-0.34355664,0.16037522,2.1838417,1.8208352,-1.9378158
502,1778621662.9369888,-0.0582351,-0.27721128,0.16330221,2.1838417,1.8208352,-1.9378158
503,1778621662.9469893,-0.0582351,-0.27721128,0.16330221,2.1838417,1.8208352,-1.9378158
504,1778621662.9569905,-0.0582351,-0.27721128,0.16330221,2.1838417,1.8208352,-1.9378158
505,1778621662.9669914,-0.0582351,-0.27721128,0.16330221,2.1838417,1.8208352,-1.9378158
506,1778621662.976992,-0.0582351,-0.27721128,0.16330221,2.1838417,1.8208352,-1.9378158
507,1778621662.986993,-0.0582351,-0.27721128,0.16330221,2.1838417,1.8208352,-1.9378158
508,1778621662.9969966,-0.0582351,-0.27721128,0.16330221,2.1838417,1.8208352,-1.9378158
509,1778621663.0069988,-0.0582351,-0.27721128,0.16330221,2.1838417,1.8208352,-1.9378158
510,1778621663.0169997,-0.0582351,-0.27721128,0.16330221,2.1838417,1.8208352,-1.9378158
511,1778621663.02701,-0.18921836,0.11671413,0.008171208,1.748295,1.6559017,-2.1571162
512,1778621663.0370135,-0.18921836,0.11671413,0.008171208,1.748295,1.6559017,-2.1571162
513,1778621663.0470145,-0.18921836,0.11671413,0.008171208,1.6890411,1.6009239,-2.1956007
514,1778621663.0570152,-0.18921836,0.11671413,0.008171208,1.6890411,1.6009239,-2.1956007
515,1778621663.0670156,-0.18921836,0.11671413,0.008171208,1.6890411,1.6009239,-2.1956007
516,1778621663.0770192,-0.18921836,0.11671413,0.008171208,1.6890411,1.6009239,-2.1956007
517,1778621663.0870209,-0.18921836,0.11671413,0.008171208,1.6890411,1.6009239,-2.1956007
518,1778621663.097022,-0.18921836,0.11671413,0.008171208,1.6890411,1.6009239,-2.1956007
519,1778621663.1070237,-0.25678328,0.17842504,-0.06768687,1.3762784,1.161712,-2.4857614
520,1778621663.1170244,-0.25678328,0.17842504,-0.06768687,1.3762784,1.161712,-2.4857614
521,1778621663.1270278,-0.25678328,0.17842504,-0.06768687,1.3762784,1.161712,-2.4857614
522,1778621663.1370523,-0.25678328,0.17842504,-0.06768687,1.3762784,1.161712,-2.4857614
523,1778621663.1470559,-0.25678328,0.17842504,-0.06768687,1.3762784,1.161712,-2.4857614
524,1778621663.157057,-0.09287128,-0.20915854,-0.6116211,-0.3188714,-1.5651883,-2.2750132
525,1778621663.1670578,-0.09287128,-0.20915854,-0.6116211,-0.3188714,-1.5651883,-2.2750132
526,1778621663.177059,-0.095066525,-0.23403804,-0.5947908,-0.7195987,-1.9347615,-2.0111196
527,1778621663.18706,-0.087992944,-0.28672403,-0.5628377,-0.7195987,-1.9347615,-2.0111196
528,1778621663.1972177,-0.087992944,-0.28672403,-0.5628377,-0.7195987,-1.9347615,-2.0111196
529,1778621663.207219,-0.07994369,-0.29599288,-0.5540567,-0.77824175,-2.0013456,-1.9469788
530,1778621663.217229,0.016403396,-0.23672113,-0.51039565,-0.86131936,-2.11741,-1.7502803
531,1778621663.2272303,0.016403396,-0.23672113,-0.51039565,-0.86131936,-2.11741,-1.7502803
532,1778621663.237231,0.016403396,-0.23672113,-0.51039565,-0.86131936,-2.11741,-1.7502803
533,1778621663.2472317,0.016403396,-0.23672113,-0.51039565,-0.86131936,-2.11741,-1.7502803
534,1778621663.2572327,0.07762648,-0.17135146,-0.4223417,-0.80389804,-1.8657337,-1.7453934
535,1778621663.2672336,0.07762648,-0.17135146,-0.4223417,-0.80389804,-1.8657337,-1.7453934
536,1778621663.277234,0.07762648,-0.17135146,-0.4223417,-0.80389804,-1.8657337,-1.7453934
537,1778621663.2875178,0.07762648,-0.17135146,-0.4223417,-0.80389804,-1.8657337,-1.7453934
538,1778621663.2975185,0.07762648,-0.17135146,-0.4223417,-0.80389804,-1.8657337,-1.7453934
539,1778621663.3075192,0.07762648,-0.17135146,-0.4223417,-0.80389804,-1.8657337,-1.7453934
540,1778621663.31752,0.07762648,-0.17135146,-0.4223417,-0.80389804,-1.8657337,-1.7453934
541,1778621663.3275213,0.07762648,-0.17135146,-0.4223417,-0.80389804,-1.8657337,-1.7453934
542,1778621663.3375223,0.07762648,-0.17135146,-0.4223417,-0.80389804,-1.8657337,-1.7453934
543,1778621663.3475227,0.07762648,-0.17135146,-0.4223417,-0.80389804,-1.8657337,-1.7453934
544,1778621663.3575234,0.07762648,-0.17135146,-0.4223417,-0.80389804,-1.8657337,-1.7453934
545,1778621663.3675241,0.07762648,-0.17135146,-0.4223417,-0.72509646,-1.3831506,-1.8095342
546,1778621663.377894,0.07762648,-0.17135146,-0.4223417,-0.72509646,-1.3831506,-1.8095342
547,1778621663.3878946,0.07762648,-0.17135146,-0.4223417,-0.72509646,-1.3831506,-1.8095342
548,1778621663.3978953,0.14299615,-0.08159013,-0.25403923,-0.72509646,-1.3831506,-1.8095342
549,1778621663.407904,0.20031658,0.1074453,0.33916613,0.21258095,1.934456,-2.0434954
550,1778621663.4179075,0.20031658,0.1074453,0.33916613,0.21258095,1.934456,-2.0434954
551,1778621663.4279091,0.20031658,0.1074453,0.33916613,0.21258095,1.934456,-2.0434954
552,1778621663.43791,0.20031658,0.1074453,0.33916613,0.21258095,1.934456,-2.0434954
553,1778621663.447911,0.20031658,0.1074453,0.33916613,0.21258095,1.934456,-2.0434954
554,1778621663.4579117,0.20031658,0.1074453,0.33916613,0.21258095,1.934456,-2.0434954
555,1778621663.4679122,0.15324064,0.08695629,0.36404565,0.21258095,1.934456,-2.0434954
556,1778621663.4779127,0.15324064,0.08695629,0.36404565,0.21258095,1.934456,-2.0434954
557,1778621663.487914,0.15324064,0.08695629,0.36404565,0.21258095,1.934456,-2.0434954
558,1778621663.4979148,0.15324064,0.08695629,0.36404565,0.21258095,1.934456,-2.0434954
559,1778621663.5079157,0.15324064,0.08695629,0.36404565,0.21258095,1.934456,-2.0434954
560,1778621663.5179167,0.15324064,0.08695629,0.36404565,0.21258095,1.934456,-2.0434954
561,1778621663.5279174,0.15324064,0.08695629,0.36404565,0.21258095,1.934456,-2.0434954
562,1778621663.5379188,0.15324064,0.08695629,0.36404565,0.5668825,2.4604106,-1.9634721
563,1778621663.5479195,0.15324064,0.08695629,0.36404565,0.5668825,2.4604106,-1.9634721
564,1778621663.5579205,0.15324064,0.08695629,0.36404565,0.5668825,2.4604106,-1.9634721
565,1778621663.5679212,0.15324064,0.08695629,0.36404565,0.5668825,2.4604106,-1.9634721
566,1778621663.577923,0.04006331,0.08256579,0.46136835,0.5668825,2.4604106,-1.9634721
567,1778621663.5879245,0.04006331,0.08256579,0.46136835,0.5668825,2.4604106,-1.9634721
568,1778621663.5979254,0.04006331,0.08256579,0.46136835,0.5668825,2.4604106,-1.9634721
569,1778621663.6079261,0.04006331,0.08256579,0.46136835,0.5668825,2.4604106,-1.9634721
570,1778621663.6179266,0.0127446465,0.07817529,0.46600276,1.3139701,2.9436047,-1.6953025
571,1778621663.6279302,0.0127446465,0.07817529,0.46600276,1.3139701,2.9436047,-1.6953025
572,1778621663.6379304,0.0127446465,0.07817529,0.46600276,1.3139701,2.9436047,-1.6953025
573,1778621663.6479325,0.0127446465,0.07817529,0.46600276,1.3139701,2.9436047,-1.6953025
574,1778621663.6579335,0.0127446465,0.07817529,0.46600276,1.3139701,2.9436047,-1.6953025
575,1778621663.6679342,0.0127446465,0.07817529,0.46600276,1.3139701,2.9436047,-1.6953025
576,1778621663.6779363,0.0127446465,0.07817529,0.46600276,1.3139701,2.9436047,-1.6953025
577,1778621663.6879382,0.0127446465,0.07817529,0.46600276,1.5955788,2.811047,-1.4503458
578,1778621663.6979394,0.0127446465,0.07817529,0.46600276,1.5955788,2.811047,-1.4503458
579,1778621663.70794,0.0127446465,0.07817529,0.46600276,1.5955788,2.811047,-1.4503458
580,1778621663.717941,-0.021159772,0.08768804,0.4091702,1.5955788,2.811047,-1.4503458
581,1778621663.7279427,-0.021159772,0.08768804,0.4091702,1.5955788,2.811047,-1.4503458
582,1778621663.737944,-0.021159772,0.08768804,0.4091702,1.5955788,2.811047,-1.4503458
583,1778621663.7479444,-0.021159772,0.08768804,0.4091702,1.5955788,2.811047,-1.4503458
584,1778621663.7579458,-0.023355022,0.09622513,0.37794888,1.6224569,2.7352998,-1.394757
585,1778621663.767947,-0.023355022,0.09622513,0.37794888,1.6224569,2.7352998,-1.394757
586,1778621663.777948,-0.023355022,0.09622513,0.37794888,1.6224569,2.7352998,-1.394757
587,1778621663.7879488,-0.030428605,0.11378712,0.29696855,1.6224569,2.7352998,-1.394757
588,1778621663.79795,-0.030428605,0.11378712,0.29696855,1.6224569,2.7352998,-1.394757
589,1778621663.8079507,-0.030428605,0.11378712,0.29696855,1.6224569,2.7352998,-1.394757
590,1778621663.8179514,-0.030428605,0.11378712,0.29696855,1.6230677,2.4799583,-1.2426517
591,1778621663.8279526,-0.030428605,0.11378712,0.29696855,1.599244,2.386496,-1.1919498
592,1778621663.837953,-0.030428605,0.11378712,0.29696855,1.599244,2.386496,-1.1919498
593,1778621663.8479629,-0.030428605,0.11378712,0.29696855,1.599244,2.386496,-1.1919498
594,1778621663.8584342,-0.030428605,0.11378712,0.29696855,1.599244,2.386496,-1.1919498
595,1778621663.8684363,-0.030428605,0.11378712,0.29696855,1.599244,2.386496,-1.1919498
596,1778621663.8784373,-0.030428605,0.11378712,0.29696855,1.599244,2.386496,-1.1919498
597,1778621663.888438,-0.030428605,0.11378712,0.29696855,1.599244,2.386496,-1.1919498
598,1778621663.8987217,-0.030428605,0.11378712,0.29696855,1.599244,2.386496,-1.1919498
599,1778621663.9087224,-0.030428605,0.11378712,0.29696855,1.599244,2.386496,-1.1919498
600,1778621663.918723,-0.030428605,0.11378712,0.29696855,1.599244,2.386496,-1.1919498
601,1778621663.9287238,-0.02774552,0.117689796,0.26501545,1.599244,2.386496,-1.1919498
602,1778621663.9387255,-0.00798827,-0.37477797,-0.19135264,-1.1954623,-1.0147991,-0.636063
603,1778621663.9487262,-0.00798827,-0.37477797,-0.19135264,-1.1954623,-1.0147991,-0.636063
604,1778621663.9587271,-0.00798827,-0.37477797,-0.19135264,-1.1954623,-1.0147991,-0.636063
605,1778621663.968729,-0.016281437,-0.43575716,-0.16208263,-1.1954623,-1.0147991,-0.636063
606,1778621663.978731,-0.016281437,-0.43575716,-0.16208263,-1.1954623,-1.0147991,-0.636063
607,1778621663.989041,-0.016281437,-0.43575716,-0.16208263,-1.282816,-0.5688678,-0.72769266
608,1778621663.9990454,-0.23190376,-1.1601896,-0.4601488,-2.118479,-0.297033,-0.5383246
609,1778621664.0090468,-0.23190376,-1.1601896,-0.4601488,-2.118479,-0.297033,-0.5383246
610,1778621664.0190477,-0.24531919,-1.2923925,-0.46990547,-2.118479,-0.297033,-0.5383246
611,1778621664.0294282,-0.28556544,-1.484355,-0.023537958,-2.2705843,-1.223104,-0.21334453
612,1778621664.0394292,-0.28556544,-1.484355,-0.023537958,-2.2705843,-1.223104,-0.21334453
613,1778621664.0494304,-0.28556544,-1.484355,-0.023537958,-2.2705843,-1.223104,-0.21334453
614,1778621664.059431,-0.28556544,-1.484355,-0.023537958,-2.2705843,-1.223104,-0.21334453
615,1778621664.0694318,0.2154394,-5.028708,-0.26428372,1.341459,2.9900303,1.6021456
616,1778621664.0794327,0.2154394,-5.028708,-0.26428372,1.341459,2.9900303,1.6021456
617,1778621664.0894332,0.2154394,-5.028708,-0.26428372,1.341459,2.9900303,1.6021456
618,1778621664.0994346,0.2154394,-5.028708,-0.26428372,1.341459,2.9900303,1.6021456
619,1778621664.1094353,-0.59021735,-4.9613867,0.1293978,1.341459,2.9900303,1.6021456
620,1778621664.119436,-0.59021735,-4.9613867,0.1293978,1.341459,2.9900303,1.6021456
621,1778621664.129437,-0.59021735,-4.9613867,0.1293978,1.486234,2.77073,1.2851068
622,1778621664.1394382,0.84157354,-4.0796285,-0.46990547,1.8057163,1.3950624,-0.00076358096
623,1778621664.1494386,0.84157354,-4.0796285,-0.46990547,1.8057163,1.3950624,-0.00076358096
624,1778621664.1594398,0.84157354,-4.0796285,-0.46990547,1.8057163,1.3950624,-0.00076358096
625,1778621664.1696136,0.84157354,-4.0796285,-0.46990547,1.8057163,1.3950624,-0.00076358096
626,1778621664.1796143,0.84157354,-4.0796285,-0.46990547,1.8057163,1.3950624,-0.00076358096
627,1778621664.1896157,0.3778879,-3.2007964,-0.06402813,1.4404192,0.31199917,0.43783733
628,1778621664.1996253,0.33569032,-3.0481048,-0.04036821,1.4404192,0.31199917,0.43783733
629,1778621664.2096279,0.33569032,-3.0481048,-0.04036821,1.4404192,0.31199917,0.43783733
630,1778621664.219629,0.33569032,-3.0481048,-0.04036821,1.4404192,0.31199917,0.43783733
631,1778621664.2296388,0.13104422,-2.5353918,-0.20330454,1.1942407,0.37003133,0.95279634
632,1778621664.2396417,0.13104422,-2.5353918,-0.20330454,1.1942407,0.37003133,0.95279634
633,1778621664.2496426,0.13104422,-2.5353918,-0.20330454,1.1942407,0.37003133,0.95279634
634,1778621664.2606971,0.13104422,-2.5353918,-0.20330454,1.1942407,0.37003133,0.95279634
635,1778621664.2706988,0.13104422,-2.5353918,-0.20330454,1.1942407,0.37003133,0.95279634
636,1778621664.2807322,-0.14945993,-1.5314308,-0.28038222,0.87170404,-0.33001968,0.48365217
637,1778621664.2907329,-0.14945993,-1.5314308,-0.28038222,0.87170404,-0.33001968,0.48365217
638,1778621664.3007345,-0.14945993,-1.5314308,-0.28038222,0.87170404,-0.33001968,0.48365217
639,1778621664.310736,0.20056048,0.06890646,0.050856624,-0.3090976,-0.6146827,-1.688583
640,1778621664.3207374,0.20056048,0.06890646,0.050856624,-0.3090976,-0.6146827,-1.688583
641,1778621664.330738,0.20056048,0.06890646,0.050856624,-0.3090976,-0.6146827,-1.688583
642,1778621664.3407393,0.1861694,-0.014756958,-0.22208612,-0.46059203,-0.54260063,-1.6995785
643,1778621664.3507404,0.1861694,-0.014756958,-0.22208612,-0.46059203,-0.54260063,-1.6995785
644,1778621664.360741,0.1861694,-0.014756958,-0.22208612,-0.46059203,-0.54260063,-1.6995785
645,1778621664.3707428,0.1861694,-0.014756958,-0.22208612,-0.46059203,-0.54260063,-1.6995785
646,1778621664.380744,0.1861694,-0.014756958,-0.22208612,-0.46059203,-0.54260063,-1.6995785
647,1778621664.390745,0.1861694,-0.014756958,-0.22208612,-0.46059203,-0.54260063,-1.6995785
648,1778621664.4007456,0.1861694,-0.014756958,-0.22208612,-0.46059203,-0.54260063,-1.6995785
649,1778621664.4107466,0.1861694,-0.014756958,-0.22208612,-0.46059203,-0.54260063,-1.6995785
650,1778621664.420747,0.1861694,-0.014756958,-0.22208612,-0.46059203,-0.54260063,-1.6995785
651,1778621664.4307477,0.1861694,-0.014756958,-0.22208612,-0.46059203,-0.54260063,-1.6995785
652,1778621664.4407487,0.10689648,0.07012604,0.3006273,0.46731156,1.7322598,-1.846186
653,1778621664.4507499,0.10689648,0.07012604,0.3006273,0.46731156,1.7322598,-1.846186
654,1778621664.4607506,0.10689648,0.07012604,0.3006273,0.46731156,1.7322598,-1.846186
655,1778621664.4707515,0.10689648,0.07012604,0.3006273,0.46731156,1.7322598,-1.846186
656,1778621664.4807599,0.10689648,0.07012604,0.3006273,0.6169734,1.9698862,-1.8083124
657,1778621664.4907625,0.10689648,0.07012604,0.3006273,0.6169734,1.9698862,-1.8083124
658,1778621664.5007634,0.10689648,0.07012604,0.3006273,0.6169734,1.9698862,-1.8083124
659,1778621664.5107677,0.08299265,0.061101127,0.28696796,0.6169734,1.9698862,-1.8083124
660,1778621664.5207694,0.08299265,0.061101127,0.28696796,0.6169734,1.9698862,-1.8083124
661,1778621664.5307724,0.08299265,0.061101127,0.28696796,0.6169734,1.9698862,-1.8083124
662,1778621664.540888,0.08299265,0.061101127,0.28696796,0.6169734,1.9698862,-1.8083124
663,1778621664.5508888,0.08299265,0.061101127,0.28696796,0.6169734,1.9698862,-1.8083124
664,1778621664.5608892,-0.7353478,-2.2302523,-0.2598932,-1.1545345,-0.025809037,1.7829616
665,1778621664.57089,-0.7353478,-2.2302523,-0.2598932,-1.1545345,-0.025809037,1.7829616
666,1778621664.5808907,-0.7353478,-2.2302523,-0.2598932,-1.1545345,-0.025809037,1.7829616
667,1778621664.5908918,-0.74095786,-2.6561306,0.026221042,-1.1545345,-0.025809037,1.7829616
668,1778621664.6008923,-0.74095786,-2.6561306,0.026221042,-1.1545345,-0.025809037,1.7829616
669,1778621664.6108937,-0.11945819,-6.215606,0.09598121,0.7476985,0.075594515,1.193477
670,1778621664.621071,0.15933856,-0.5128348,-0.3225798,-0.5729912,-1.0746639,1.9252931
671,1778621664.6310716,0.15933856,-0.5128348,-0.3225798,-0.5729912,-1.0746639,1.9252931
672,1778621664.6410723,0.15933856,-0.5128348,-0.3225798,-0.5729912,-1.0746639,1.9252931
673,1778621664.6511004,0.15933856,-0.5128348,-0.3225798,-0.5729912,-1.0746639,1.9252931
674,1778621664.6611145,0.15933856,-0.5128348,-0.3225798,-0.5729912,-1.0746639,1.9252931
675,1778621664.6711159,0.32471406,-0.47966215,-0.15866779,-0.75747234,-2.6525276,1.1140647
676,1778621664.6811168,0.32471406,-0.47966215,-0.15866779,-0.75747234,-2.6525276,1.1140647
677,1778621664.691118,0.32471406,-0.47966215,-0.15866779,-0.75747234,-2.6525276,1.1140647
678,1778621664.7011187,0.5410682,0.11988505,0.1864743,-0.88880825,-1.6818634,0.4641045
679,1778621664.7124043,0.50423676,0.17086363,0.20086539,-1.0005965,-1.38987,0.1763872
680,1778621664.7224057,0.50423676,0.17086363,0.20086539,-1.0005965,-1.38987,0.1763872
681,1778621664.7324066,0.50423676,0.17086363,0.20086539,-1.0005965,-1.38987,0.1763872
682,1778621664.7424073,0.50423676,0.17086363,0.20086539,-1.0005965,-1.38987,0.1763872
683,1778621664.752408,0.50423676,0.17086363,0.20086539,-1.0005965,-1.38987,0.1763872
684,1778621664.7624087,-4.126521,-2.9939551,-1.966822,-1.138652,0.31444263,0.51541716
685,1778621664.7724092,-4.126521,-2.9939551,-1.966822,-1.138652,0.31444263,0.51541716
686,1778621664.78241,-4.126521,-2.9939551,-1.966822,-1.138652,0.31444263,0.51541716
687,1778621664.792411,-4.126521,-2.9939551,-1.966822,-1.138652,0.31444263,0.51541716
688,1778621664.8024116,-4.126521,-2.9939551,-1.966822,-1.138652,0.31444263,0.51541716
689,1778621664.8124125,-4.126521,-2.9939551,-1.966822,-1.138652,0.31444263,0.51541716
690,1778621664.822418,-4.126521,-2.9939551,-1.966822,-1.6273438,-2.0660975,0.8477276
691,1778621664.83242,-4.126521,-2.9939551,-1.966822,-1.6273438,-2.0660975,0.8477276
692,1778621664.8424206,-4.161645,-4.136461,0.12793429,-2.1361942,-4.3757772,1.5624394
693,1778621664.8525906,-4.161645,-4.136461,0.12793429,-2.1361942,-4.3757772,1.5624394
694,1778621664.862594,-4.161645,-4.136461,0.12793429,-2.1361942,-4.3757772,1.5624394
695,1778621664.8725953,-4.161645,-4.136461,0.12793429,-2.1361942,-4.3757772,1.5624394
696,1778621664.8825955,-4.161645,-4.136461,0.12793429,-2.1361942,-4.3757772,1.5624394
697,1778621664.8925965,-4.161645,-4.136461,0.12793429,-2.1361942,-4.3757772,1.5624394
698,1778621664.902598,-4.161645,-4.136461,0.12793429,-2.1361942,-4.3757772,1.5624394
699,1778621664.9128578,-4.161645,-4.136461,0.12793429,-2.1361942,-4.3757772,1.5624394
700,1778621664.9228587,-3.849188,-4.2201242,0.43258622,-2.1361942,-4.3757772,1.5624394
701,1778621664.9328597,0.1890964,-0.14378887,-0.39746222,-0.24129158,-0.41065386,-1.7679954
702,1778621664.9428604,0.1890964,-0.14378887,-0.39746222,-0.24129158,-0.41065386,-1.7679954
703,1778621664.952861,-0.10482319,0.031831127,-0.6150359,-0.07086031,0.19532402,-1.0276272
704,1778621664.9628649,-0.18263261,-0.047197875,-0.6052792,-1.4459169,-3.0734134,-0.4809033
705,1778621664.9728665,-0.18263261,-0.047197875,-0.6052792,-1.4459169,-3.0734134,-0.4809033
706,1778621664.9828672,-0.18263261,-0.047197875,-0.6052792,-1.4459169,-3.0734134,-0.4809033
707,1778621664.9928763,-0.15067953,-0.08183405,-0.12012896,-1.4459169,-3.0734134,-0.4809033
708,1778621665.0028799,-0.15067953,-0.08183405,-0.12012896,-1.4459169,-3.0734134,-0.4809033
709,1778621665.0128806,-0.15067953,-0.08183405,-0.12012896,-1.4459169,-3.0734134,-0.4809033
710,1778621665.022881,-0.15067953,-0.08183405,-0.12012896,-1.4459169,-3.0734134,-0.4809033
711,1778621665.0328822,-0.43337893,-0.86431867,0.013537374,-0.5998692,-0.34162614,-0.19685118
712,1778621665.0428832,-0.43337893,-0.86431867,0.013537374,-0.5998692,-0.34162614,-0.19685118
713,1778621665.0528839,-0.43337893,-0.86431867,0.013537374,-0.5998692,-0.34162614,-0.19685118
714,1778621665.0628853,-0.39776713,-0.7650446,0.13695921,-0.5998692,-0.34162614,-0.19685118
715,1778621665.0728865,-0.39776713,-0.7650446,0.13695921,-0.5998692,-0.34162614,-0.19685118
716,1778621665.082887,-0.39776713,-0.7650446,0.13695921,-0.5998692,-0.34162614,-0.19685118
717,1778621665.0928879,-0.48265013,-1.249951,-0.096469045,0.37018406,0.41462448,0.59544045
718,1778621665.102889,-0.48265013,-1.249951,-0.096469045,0.37018406,0.41462448,0.59544045
719,1778621665.1128898,-0.48265013,-1.249951,-0.096469045,0.37018406,0.41462448,0.59544045
720,1778621665.122891,-0.48265013,-1.249951,-0.096469045,0.63224506,-0.9268346,0.4085158
721,1778621665.132902,-0.48265013,-1.249951,-0.096469045,0.8643737,-0.04535671,0.60949033
722,1778621665.1429033,-0.48265013,-1.249951,-0.096469045,0.8643737,-0.04535671,0.60949033
723,1778621665.1529043,-0.48265013,-1.249951,-0.096469045,0.8643737,-0.04535671,0.60949033
724,1778621665.1629045,-0.48265013,-1.249951,-0.096469045,0.8643737,-0.04535671,0.60949033
725,1778621665.1729052,-0.48265013,-1.249951,-0.096469045,1.3078614,0.1348484,0.9882265
726,1778621665.182906,-0.48265013,-1.249951,-0.096469045,1.3078614,0.1348484,0.9882265
727,1778621665.1929064,-0.48265013,-1.249951,-0.096469045,1.3078614,0.1348484,0.9882265
728,1778621665.2029076,-0.2704426,-0.08646846,-0.28233355,1.3451242,0.114079,1.057865
729,1778621665.212911,-0.2704426,-0.08646846,-0.28233355,1.3451242,0.114079,1.057865
730,1778621665.2229125,-0.2704426,-0.08646846,-0.28233355,1.3451242,0.114079,1.057865
731,1778621665.2329135,-0.2704426,-0.08646846,-0.28233355,1.3451242,0.114079,1.057865
732,1778621665.242914,-0.23726994,-0.046953958,-0.3033104,1.3451242,0.114079,1.057865
733,1778621665.2531102,-0.23726994,-0.046953958,-0.3033104,1.3451242,0.114079,1.057865
734,1778621665.2631109,0.18714507,-0.31526232,-0.23623328,-2.6682575,-1.3776528,0.54290605
735,1778621665.2731113,0.18714507,-0.31526232,-0.23623328,-2.6682575,-1.3776528,0.54290605
736,1778621665.283112,0.18714507,-0.31526232,-0.23623328,-2.6682575,-1.3776528,0.54290605
737,1778621665.2931128,-2.8310797,-2.4827058,-0.73431116,-1.1759146,1.415221,2.2264495
738,1778621665.3036058,-3.8452854,-2.7480872,-2.1214652,-2.0433426,0.5404626,2.7737842
739,1778621665.313608,-3.8452854,-2.7480872,-2.1214652,-2.0433426,0.5404626,2.7737842
740,1778621665.3236089,-0.057503358,-2.2265935,-1.3970327,0.8167262,4.627759,0.076816246
741,1778621665.3336096,-0.057503358,-2.2265935,-1.3970327,0.8167262,4.627759,0.076816246
742,1778621665.3436105,-0.057503358,-2.2265935,-1.3970327,0.8167262,4.627759,0.076816246
743,1778621665.353614,-0.42606148,-2.8627279,-1.7368087,1.0103704,0.27595815,0.434783
744,1778621665.3636155,-0.42606148,-2.8627279,-1.7368087,1.0103704,0.27595815,0.434783
745,1778621665.3736162,-0.42606148,-2.8627279,-1.7368087,1.0103704,0.27595815,0.434783
746,1778621665.3836188,-0.42606148,-2.8627279,-1.7368087,1.0103704,0.27595815,0.434783
747,1778621665.3936198,-0.42606148,-2.8627279,-1.7368087,1.0103704,0.27595815,0.434783
748,1778621665.4036212,-0.44947743,-2.9512699,-1.5711893,0.8472695,-3.5236208,0.07131846
749,1778621665.413622,-0.44947743,-2.9512699,-1.5711893,0.8472695,-3.5236208,0.07131846
750,1778621665.4236228,-0.44947743,-2.9512699,-1.5711893,0.8472695,-3.5236208,0.07131846
751,1778621665.4336243,-0.44947743,-2.9512699,-1.5711893,0.8472695,-3.5236208,0.07131846
752,1778621665.4436255,-0.44947743,-2.9512699,-1.5711893,0.8472695,-3.5236208,0.07131846
753,1778621665.4536257,-0.44947743,-2.9512699,-1.5711893,0.8472695,-3.5236208,0.07131846
754,1778621665.463627,-0.37410718,-3.2747033,-0.96944684,0.8472695,-3.5236208,0.07131846
755,1778621665.473628,-0.37410718,-3.2747033,-0.96944684,0.8472695,-3.5236208,0.07131846
756,1778621665.4836292,-0.37410718,-3.2747033,-0.96944684,0.8472695,-3.5236208,0.07131846
757,1778621665.49363,-0.37410718,-3.2747033,-0.96944684,0.8472695,-3.5236208,0.07131846
758,1778621665.5036304,-0.37410718,-3.2747033,-0.96944684,0.8472695,-3.5236208,0.07131846
759,1778621665.5136309,-0.37557068,-3.37788,-0.8396832,0.8472695,-3.5236208,0.07131846
760,1778621665.5236318,-0.37557068,-3.37788,-0.8396832,0.8472695,-3.5236208,0.07131846
761,1778621665.5336409,-0.37557068,-3.37788,-0.8396832,0.8472695,-3.5236208,0.07131846
762,1778621665.5436506,-0.37557068,-3.37788,-0.8396832,0.8472695,-3.5236208,0.07131846
763,1778621665.55367,-0.013842272,0.024757542,-0.19306004,0.7147118,1.6711733,-1.223104
764,1778621665.5636714,-0.013842272,0.024757542,-0.19306004,0.7147118,1.6711733,-1.223104
765,1778621665.5736723,-0.013842272,0.024757542,-0.19306004,0.7147118,1.6711733,-1.223104
766,1778621665.583673,-0.013842272,0.024757542,-0.19306004,0.7147118,1.6711733,-1.223104
767,1778621665.593674,-0.013842272,0.024757542,-0.19306004,0.7147118,1.6711733,-1.223104
768,1778621665.603675,-0.013842272,0.024757542,-0.19306004,0.7147118,1.6711733,-1.223104
769,1778621665.6136758,-0.013842272,0.024757542,-0.19306004,0.7147118,1.6711733,-1.223104
770,1778621665.623677,-0.13750802,0.14354497,0.0032928751,-0.64568406,-2.749655,-0.7362448
771,1778621665.6336777,-0.13750802,0.14354497,0.0032928751,-0.64568406,-2.749655,-0.7362448
772,1778621665.6436787,-0.13750802,0.14354497,0.0032928751,-0.64568406,-2.749655,-0.7362448
773,1778621665.6536794,-0.40069413,-0.37599754,0.22281788,-0.94073176,0.44516772,-0.47174034
774,1778621665.6636817,-0.40069413,-0.37599754,0.22281788,-0.94073176,0.44516772,-0.47174034
775,1778621665.6736827,-0.40069413,-0.37599754,0.22281788,-0.94073176,0.44516772,-0.47174034
776,1778621665.6837444,-0.40069413,-0.37599754,0.22281788,-0.94073176,0.44516772,-0.47174034
777,1778621665.693751,-0.40069413,-0.37599754,0.22281788,-0.94073176,0.44516772,-0.47174034
778,1778621665.7037528,-0.40069413,-0.37599754,0.22281788,-0.94073176,0.44516772,-0.47174034
779,1778621665.713754,-0.40069413,-0.37599754,0.22281788,-1.0421354,0.6168207,-0.2102902
780,1778621665.7237544,-0.40069413,-0.37599754,0.22281788,-1.0421354,0.6168207,-0.2102902
781,1778621665.733755,-0.40069413,-0.37599754,0.22281788,-1.0421354,0.6168207,-0.2102902
782,1778621665.7437565,-0.40069413,-0.37599754,0.22281788,-1.0421354,0.6168207,-0.2102902
783,1778621665.7537575,-0.40069413,-0.37599754,0.22281788,-1.0421354,0.6168207,-0.2102902
784,1778621665.7637584,-0.40069413,-0.37599754,0.22281788,-1.0421354,0.6168207,-0.2102902
785,1778621665.7741184,-0.45801452,-0.51600575,-0.028904125,-1.1007783,0.5734493,-0.12049308
786,1778621665.784119,-0.45801452,-0.51600575,-0.028904125,-1.1007783,0.5734493,-0.12049308
787,1778621665.7941196,-0.45801452,-0.51600575,-0.028904125,-1.3035854,0.16905683,0.082924895
788,1778621665.8041203,-0.45801452,-0.51600575,-0.028904125,-1.3035854,0.16905683,0.082924895
789,1778621665.8141208,-0.45801452,-0.51600575,-0.028904125,-1.3035854,0.16905683,0.082924895
790,1778621665.8241217,-0.46899077,-0.61674327,-0.2128173,-1.3035854,0.16905683,0.082924895
791,1778621665.8341222,-0.46899077,-0.61674327,-0.2128173,-1.3035854,0.16905683,0.082924895
792,1778621665.8441226,-0.46899077,-0.61674327,-0.2128173,-1.3035854,0.16905683,0.082924895
793,1778621665.8541236,-0.46899077,-0.61674327,-0.2128173,-1.3035854,0.16905683,0.082924895
794,1778621665.864133,-0.46899077,-0.61674327,-0.2128173,-1.3872739,-0.066736974,0.12812889
795,1778621665.8741362,-0.46899077,-0.61674327,-0.2128173,-1.3872739,-0.066736974,0.12812889
796,1778621665.8841374,-0.46899077,-0.61674327,-0.2128173,-1.3872739,-0.066736974,0.12812889
797,1778621665.894138,-0.46899077,-0.61674327,-0.2128173,-1.3872739,-0.066736974,0.12812889
798,1778621665.9041386,-0.46899077,-0.61674327,-0.2128173,-1.3872739,-0.066736974,0.12812889
799,1778621665.914141,-0.46899077,-0.61674327,-0.2128173,-1.3872739,-0.066736974,0.12812889
800,1778621665.924142,-0.46899077,-0.61674327,-0.2128173,-1.3872739,-0.066736974,0.12812889
801,1778621665.9341428,-0.46899077,-0.61674327,-0.2128173,-1.6560544,-0.9964732,0.21426082
802,1778621665.9441438,-0.46899077,-0.61674327,-0.2128173,-1.6560544,-0.9964732,0.21426082
803,1778621665.9541445,-0.46899077,-0.61674327,-0.2128173,-1.6560544,-0.9964732,0.21426082
804,1778621665.9641452,-0.40801162,-0.8230968,-0.24525821,-1.6560544,-0.9964732,0.21426082
805,1778621665.9741461,-0.40801162,-0.8230968,-0.24525821,-1.6560544,-0.9964732,0.21426082
806,1778621665.9841468,-0.40801162,-0.8230968,-0.24525821,-1.6560544,-0.9964732,0.21426082
807,1778621665.9941485,-0.40801162,-0.8230968,-0.24525821,-1.6560544,-0.9964732,0.21426082
808,1778621666.0041497,-0.40801162,-0.8230968,-0.24525821,-1.6560544,-0.9964732,0.21426082
809,1778621666.0141501,-0.40801162,-0.8230968,-0.24525821,-1.6560544,-0.9964732,0.21426082
810,1778621666.024168,-0.4036211,-0.9018819,-0.1703758,-1.6560544,-0.9964732,0.21426082
811,1778621666.0341687,-0.4036211,-0.9018819,-0.1703758,-1.6560544,-0.9964732,0.21426082
812,1778621666.0441697,-0.4036211,-0.9018819,-0.1703758,-1.6560544,-0.9964732,0.21426082
813,1778621666.0541708,-0.4036211,-0.9018819,-0.1703758,-1.6560544,-0.9964732,0.21426082
814,1778621666.0641718,-0.4036211,-0.9018819,-0.1703758,-1.6560544,-0.9964732,0.21426082
815,1778621666.0741723,-0.4036211,-0.9018819,-0.1703758,-1.6560544,-0.9964732,0.21426082
816,1778621666.0841732,-0.4036211,-0.9018819,-0.1703758,-1.6560544,-0.9964732,0.21426082
817,1778621666.0941737,-0.4036211,-0.9018819,-0.1703758,-1.6560544,-0.9964732,0.21426082
818,1778621666.1041744,-0.4036211,-0.9018819,-0.1703758,-1.6560544,-0.9964732,0.21426082
819,1778621666.1141853,-0.4036211,-0.9018819,-0.1703758,-1.6560544,-0.9964732,0.21426082
820,1778621666.124188,-0.4036211,-0.9018819,-0.1703758,-1.6560544,-0.9964732,0.21426082
821,1778621666.1341894,-0.4036211,-0.9018819,-0.1703758,-1.6560544,-0.9964732,0.21426082
822,1778621666.1441898,-0.4036211,-0.9018819,-0.1703758,-1.6560544,-0.9964732,0.21426082
823,1778621666.154191,-0.36874104,-1.2089729,-0.22501312,-1.7678427,-1.9970697,0.32788166
824,1778621666.1641917,-0.36874104,-1.2089729,-0.22501312,-1.7678427,-1.9970697,0.32788166
825,1778621666.1741922,-0.36874104,-1.2089729,-0.22501312,-1.7678427,-1.9970697,0.32788166
826,1778621666.1841931,-0.36874104,-1.2089729,-0.22501312,-1.7678427,-1.9970697,0.32788166
827,1778621666.1941953,-0.36874104,-1.2089729,-0.22501312,-1.7727296,-2.1656682,0.38347036
828,1778621666.2041967,-0.36874104,-1.2089729,-0.22501312,-1.7727296,-2.1656682,0.38347036
829,1778621666.2141972,-0.36874104,-1.2089729,-0.22501312,-1.7727296,-2.1656682,0.38347036
830,1778621666.224198,-0.36874104,-1.2089729,-0.22501312,-1.7727296,-2.1656682,0.38347036
831,1778621666.2341986,-0.36874104,-1.2089729,-0.22501312,-1.7727296,-2.1656682,0.38347036
832,1778621666.2441998,-0.31507936,-2.2646444,-1.0377434,-1.9205588,-2.4949245,1.1708751
833,1778621666.254201,-0.31507936,-2.2646444,-1.0377434,-1.9205588,-2.4949245,1.1708751
834,1778621666.2642026,-0.45972195,-3.1939669,-0.28257746,-1.1300999,-1.0001384,1.5404483
835,1778621666.274204,-0.45972195,-3.1939669,-0.28257746,-1.1300999,-1.0001384,1.5404483
836,1778621666.2842047,-0.45972195,-3.1939669,-0.28257746,-1.1300999,-1.0001384,1.5404483
837,1778621666.2942057,-0.6329028,-4.350132,0.3150184,-1.1300999,-1.0001384,1.5404483
838,1778621666.3042066,-0.6329028,-4.350132,0.3150184,-1.1300999,-1.0001384,1.5404483
839,1778621666.3142073,-0.6329028,-4.350132,0.3150184,-1.1300999,-1.0001384,1.5404483
840,1778621666.324208,-0.6329028,-4.350132,0.3150184,-1.1300999,-1.0001384,1.5404483
841,1778621666.3342173,-0.6329028,-4.350132,0.3150184,-1.1300999,-1.0001384,1.5404483
842,1778621666.3442202,-0.6329028,-4.350132,0.3150184,-1.1300999,-1.0001384,1.5404483
843,1778621666.3542213,-0.6555871,-5.4694657,1.2465361,-1.1300999,-1.0001384,1.5404483
844,1778621666.3644183,-0.6555871,-5.4694657,1.2465361,-1.1300999,-1.0001384,1.5404483
845,1778621666.3744202,-0.6555871,-5.4694657,1.2465361,-1.1300999,-1.0001384,1.5404483
846,1778621666.384421,-0.6555871,-5.4694657,1.2465361,-1.1300999,-1.0001384,1.5404483
847,1778621666.3944216,-0.6555871,-5.4694657,1.2465361,-1.1300999,-1.0001384,1.5404483
848,1778621666.4044232,-0.6555871,-5.4694657,1.2465361,-1.1300999,-1.0001384,1.5404483
849,1778621666.4144244,-0.6555871,-5.4694657,1.2465361,0.96516633,-0.3715585,0.7035635
850,1778621666.4244251,-0.6555871,-5.4694657,1.2465361,0.96516633,-0.3715585,0.7035635
851,1778621666.4344258,-0.6555871,-5.4694657,1.2465361,0.96516633,-0.3715585,0.7035635
852,1778621666.444427,-0.6555871,-5.4694657,1.2465361,1.1349868,-0.10399973,1.0725259
853,1778621666.4547126,-0.6555871,-5.4694657,1.2465361,1.1349868,-0.10399973,1.0725259
854,1778621666.4647136,-0.6555871,-5.4694657,1.2465361,1.1349868,-0.10399973,1.0725259
855,1778621666.4747245,-0.6555871,-5.4694657,1.2465361,1.1349868,-0.10399973,1.0725259
856,1778621666.4847283,-0.6555871,-5.4694657,1.2465361,1.1349868,-0.10399973,1.0725259
857,1778621666.4947298,0.095920235,-1.3458103,-0.19501138,1.6548327,0.62842715,0.83856463
858,1778621666.5047305,0.095920235,-1.3458103,-0.19501138,1.6548327,0.62842715,0.83856463
859,1778621666.5147312,0.14860623,-1.074087,-0.23135497,1.6548327,0.62842715,0.83856463
860,1778621666.5247324,0.14860623,-1.074087,-0.23135497,1.6548327,0.62842715,0.83856463
861,1778621666.534736,0.14860623,-1.074087,-0.23135497,1.6548327,0.62842715,0.83856463
862,1778621666.5450845,0.14860623,-1.074087,-0.23135497,1.6548327,0.62842715,0.83856463
863,1778621666.5550861,0.14860623,-1.074087,-0.23135497,1.6548327,0.62842715,0.83856463
864,1778621666.5650885,0.14860623,-1.074087,-0.23135497,1.6548327,0.62842715,0.83856463
865,1778621666.575091,0.14860623,-1.074087,-0.23135497,1.6548327,0.62842715,0.83856463
866,1778621666.585092,0.14860623,-1.074087,-0.23135497,1.6548327,0.62842715,0.83856463
867,1778621666.595093,0.14860623,-1.074087,-0.23135497,1.6548327,0.62842715,0.83856463
868,1778621666.6050944,0.14860623,-1.074087,-0.23135497,1.6548327,0.62842715,0.83856463
869,1778621666.6150959,0.14860623,-1.074087,-0.23135497,1.6548327,0.62842715,0.83856463
870,1778621666.6251874,0.14860623,-1.074087,-0.23135497,1.6548327,0.62842715,0.83856463
871,1778621666.6352916,0.14860623,-1.074087,-0.23135497,1.6548327,0.62842715,0.83856463
872,1778621666.6452925,-0.11799469,0.16988796,-0.37209487,-1.6878194,0.10674862,1.5343397
873,1778621666.6552932,-0.11799469,0.16988796,-0.37209487,-1.6878194,0.10674862,1.5343397
874,1778621666.6652942,-0.22531801,-3.3644645,-1.6897327,1.8478659,3.019352,0.033444848
875,1778621666.6752946,-0.22531801,-3.3644645,-1.6897327,1.8478659,3.019352,0.033444848
876,1778621666.6852963,-0.22531801,-3.3644645,-1.6897327,1.8478659,3.019352,0.033444848
877,1778621666.6952977,-0.3126402,-3.5198398,-1.5094783,1.8478659,3.019352,0.033444848
878,1778621666.7052987,-0.3126402,-3.5198398,-1.5094783,1.8478659,3.019352,0.033444848
879,1778621666.7152994,-0.3126402,-3.5198398,-1.5094783,1.8478659,3.019352,0.033444848
880,1778621666.7255778,-0.55777645,-3.9444983,-1.0672574,0.980438,-2.1607814,-1.1125375
881,1778621666.7355785,-0.55777645,-3.9444983,-1.0672574,0.980438,-2.1607814,-1.1125375
882,1778621666.7455795,-0.55777645,-3.9444983,-1.0672574,0.980438,-2.1607814,-1.1125375
883,1778621666.7555804,-0.55777645,-3.9444983,-1.0672574,0.980438,-2.1607814,-1.1125375
884,1778621666.765581,-0.55777645,-3.9444983,-1.0672574,0.980438,-2.1607814,-1.1125375
885,1778621666.7755818,-0.55777645,-3.9444983,-1.0672574,0.980438,-2.1607814,-1.1125375
886,1778621666.785585,-0.58241206,-3.658872,-0.6916257,0.7385355,-2.822959,-1.810145
887,1778621666.7955866,-0.58241206,-3.658872,-0.6916257,0.7385355,-2.822959,-1.810145
888,1778621666.8055878,-0.58241206,-3.658872,-0.6916257,0.7385355,-2.822959,-1.810145
889,1778621666.816408,-0.58241206,-3.658872,-0.6916257,0.7385355,-2.822959,-1.810145
890,1778621666.8264122,-0.58241206,-3.658872,-0.6916257,0.7385355,-2.822959,-1.810145
891,1778621666.836715,-0.58241206,-3.658872,-0.6916257,0.77274394,-2.9023712,-1.9952371
892,1778621666.8467155,-0.58241206,-3.658872,-0.6916257,0.77274394,-2.9023712,-1.9952371
893,1778621666.8567166,-0.58241206,-3.658872,-0.6916257,0.77274394,-2.9023712,-1.9952371
894,1778621666.8667173,-0.58241206,-3.658872,-0.6916257,0.77274394,-2.9023712,-1.9952371
895,1778621666.876718,-0.58241206,-3.658872,-0.6916257,0.77274394,-2.9023712,-1.9952371
896,1778621666.886719,-0.72705466,-3.1539645,-0.4877114,0.77274394,-2.9023712,-1.9952371
897,1778621666.89672,-0.72705466,-3.1539645,-0.4877114,0.77274394,-2.9023712,-1.9952371
898,1778621666.9067204,-0.72705466,-3.1539645,-0.4877114,0.77274394,-2.9023712,-1.9952371
899,1778621666.916721,-0.72705466,-3.1539645,-0.4877114,1.0848958,-2.835787,-2.4258966
900,1778621666.9267297,-0.72705466,-3.1539645,-0.4877114,1.0848958,-2.835787,-2.4258966
901,1778621666.936733,-0.72705466,-3.1539645,-0.4877114,1.0848958,-2.835787,-2.4258966
902,1778621666.9467337,-0.72705466,-3.1539645,-0.4877114,1.0848958,-2.835787,-2.4258966
903,1778621666.956738,-0.72705466,-3.1539645,-0.4877114,1.0848958,-2.835787,-2.4258966
904,1778621666.9667401,-0.72705466,-3.1539645,-0.4877114,1.0848958,-2.835787,-2.4258966
905,1778621666.9767408,-0.72705466,-3.1539645,-0.4877114,1.0848958,-2.835787,-2.4258966
906,1778621666.9867415,-0.72705466,-3.1539645,-0.4877114,1.0848958,-2.835787,-2.4258966
907,1778621666.9967425,-0.9368229,-3.0098097,-0.42551264,1.2082906,-2.7288857,-2.5334089
908,1778621667.0067432,-0.9368229,-3.0098097,-0.42551264,1.2082906,-2.7288857,-2.5334089
909,1778621667.0167437,-0.9368229,-3.0098097,-0.42551264,1.2082906,-2.7288857,-2.5334089
910,1778621667.0267446,-0.9368229,-3.0098097,-0.42551264,1.2082906,-2.7288857,-2.5334089
911,1778621667.0367458,-0.9368229,-3.0098097,-0.42551264,1.2082906,-2.7288857,-2.5334089
912,1778621667.0467467,-0.9368229,-3.0098097,-0.42551264,1.2082906,-2.7288857,-2.5334089
913,1778621667.0567472,-0.9368229,-3.0098097,-0.42551264,1.2082906,-2.7288857,-2.5334089
914,1778621667.066752,-1.2514755,-2.953221,-0.3869738,1.5076143,-2.180329,-2.6647449
915,1778621667.0767536,-1.2514755,-2.953221,-0.3869738,1.5076143,-2.180329,-2.6647449
916,1778621667.0867543,-1.2514755,-2.953221,-0.3869738,1.5076143,-2.180329,-2.6647449
917,1778621667.0967553,-1.6256436,-2.9076085,-0.37038746,1.5711442,-1.913992,-2.6293147
918,1778621667.1067562,-1.6256436,-2.9076085,-0.37038746,1.5711442,-1.913992,-2.6293147
919,1778621667.1167583,-1.6256436,-2.9076085,-0.37038746,1.5711442,-1.913992,-2.6293147
920,1778621667.1267595,-1.6256436,-2.9076085,-0.37038746,1.5711442,-1.913992,-2.6293147
921,1778621667.1367605,-1.6256436,-2.9076085,-0.37038746,1.5961896,-1.033125,-2.34343
922,1778621667.1467614,-1.6256436,-2.9076085,-0.37038746,1.5961896,-1.033125,-2.34343
923,1778621667.1567621,-1.6256436,-2.9076085,-0.37038746,1.5961896,-1.033125,-2.34343
924,1778621667.166763,-1.6256436,-2.9076085,-0.37038746,1.2730422,0.16966769,-1.819308
925,1778621667.1767642,-1.6256436,-2.9076085,-0.37038746,1.2730422,0.16966769,-1.819308
926,1778621667.186765,-1.6256436,-2.9076085,-0.37038746,1.2730422,0.16966769,-1.819308
927,1778621667.1967661,-1.2134244,-0.89188135,-0.0023172083,1.2938116,-0.003817905,-1.864512
928,1778621667.2067666,-1.2134244,-0.89188135,-0.0023172083,1.2938116,-0.003817905,-1.864512
929,1778621667.2167675,-1.2134244,-0.89188135,-0.0023172083,1.2938116,-0.003817905,-1.864512
930,1778621667.2267687,-1.2134244,-0.89188135,-0.0023172083,-0.82405657,-1.3959787,-2.140012
931,1778621667.2367692,-1.2134244,-0.89188135,-0.0023172083,-0.82405657,-1.3959787,-2.140012
932,1778621667.24677,-1.2134244,-0.89188135,-0.0023172083,-0.82405657,-1.3959787,-2.140012
933,1778621667.2567706,-1.2134244,-0.89188135,-0.0023172083,-0.82405657,-1.3959787,-2.140012
934,1778621667.2667718,-1.2134244,-0.89188135,-0.0023172083,-0.82405657,-1.3959787,-2.140012
935,1778621667.2767725,-1.2134244,-0.89188135,-0.0023172083,-1.2583815,-1.4057525,-2.24447
936,1778621667.2867754,0.40154782,-0.19330397,-0.5145422,-1.2583815,-1.4057525,-2.24447
937,1778621667.2967765,0.40154782,-0.19330397,-0.5145422,-1.2583815,-1.4057525,-2.24447
938,1778621667.3067777,0.40154782,-0.19330397,-0.5145422,-1.2583815,-1.4057525,-2.24447
939,1778621667.316782,0.40154782,-0.19330397,-0.5145422,-1.2583815,-1.4057525,-2.24447
940,1778621667.326784,0.40154782,-0.19330397,-0.5145422,-1.2583815,-1.4057525,-2.24447
941,1778621667.3367853,0.40154782,-0.19330397,-0.5145422,-1.2583815,-1.4057525,-2.24447
942,1778621667.346786,0.40154782,-0.19330397,-0.5145422,-1.2583815,-1.4057525,-2.24447
943,1778621667.356787,0.40154782,-0.19330397,-0.5145422,-1.2541054,-0.8462004,-2.4350598
944,1778621667.366788,0.40154782,-0.19330397,-0.5145422,-1.2541054,-0.8462004,-2.4350598
945,1778621667.3767889,0.40154782,-0.19330397,-0.5145422,-1.2541054,-0.8462004,-2.4350598
946,1778621667.38679,0.40154782,-0.19330397,-0.5145422,-1.2541054,-0.8462004,-2.4350598
947,1778621667.3968046,-0.15385045,0.011586042,0.53551906,-1.2541054,-0.8462004,-2.4350598
948,1778621667.4068053,-0.15385045,0.011586042,0.53551906,-1.2541054,-0.8462004,-2.4350598
949,1778621667.4168062,-0.15385045,0.011586042,0.53551906,-1.2541054,-0.8462004,-2.4350598
950,1778621667.426833,-0.15385045,0.011586042,0.53551906,-1.2541054,-0.8462004,-2.4350598
951,1778621667.436836,-0.15385045,0.011586042,0.53551906,-1.2541054,-0.8462004,-2.4350598
952,1778621667.446837,-0.1999507,-0.048661377,-0.68357646,-0.8600976,-3.906633,-0.8688024
953,1778621667.4568374,-0.1999507,-0.048661377,-0.68357646,-0.8600976,-3.906633,-0.8688024
954,1778621667.4668384,-0.72803026,-2.3827,-1.1157968,-0.007941242,-1.0343468,-0.99830574
955,1778621667.4768395,0.6740027,-0.04329521,-0.20720722,-0.56443906,-0.9286672,0.9472986
956,1778621667.48684,0.6740027,-0.04329521,-0.20720722,-0.56443906,-0.9286672,0.9472986
957,1778621667.4968407,0.6149749,-0.10110346,-0.22428137,-1.3164136,-1.4912736,0.038331766
958,1778621667.5068414,0.48838213,-0.16866837,-0.2598932,-1.3164136,-1.4912736,0.038331766
959,1778621667.5168421,0.48838213,-0.16866837,-0.2598932,-1.3164136,-1.4912736,0.038331766
960,1778621667.526843,0.48838213,-0.16866837,-0.2598932,-1.3164136,-1.4912736,0.038331766
961,1778621667.5368443,0.48838213,-0.16866837,-0.2598932,-1.6169591,-1.5957315,-0.084452055
962,1778621667.5468447,0.48838213,-0.16866837,-0.2598932,-1.6169591,-1.5957315,-0.084452055
963,1778621667.5568454,0.48838213,-0.16866837,-0.2598932,-1.6169591,-1.5957315,-0.084452055
964,1778621667.5668461,0.48838213,-0.16866837,-0.2598932,-1.6169591,-1.5957315,-0.084452055
965,1778621667.5768473,0.48838213,-0.16866837,-0.2598932,-1.6169591,-1.5957315,-0.084452055
966,1778621667.5868483,0.48838213,-0.16866837,-0.2598932,-1.6169591,-1.5957315,-0.084452055
967,1778621667.596849,0.48838213,-0.16866837,-0.2598932,-1.6169591,-1.5957315,-0.084452055
968,1778621667.6068501,-1.8046786,-1.639242,3.8396144,-0.11178826,5.4212723,2.7139194
969,1778621667.6168518,-1.8046786,-1.639242,3.8396144,-0.11178826,5.4212723,2.7139194
970,1778621667.6268528,-1.8046786,-1.639242,3.8396144,-0.11178826,5.4212723,2.7139194
971,1778621667.6368535,-1.8046786,-1.639242,3.8396144,-0.11178826,5.4212723,2.7139194
972,1778621667.6468542,-1.9059039,-2.4139214,-0.3545329,1.536325,2.1409283,-2.551735
973,1778621667.6568654,-1.9059039,-2.4139214,-0.3545329,1.536325,2.1409283,-2.551735
974,1778621667.6668785,-1.9059039,-2.4139214,-0.3545329,1.6194025,2.676046,-2.4484987
975,1778621667.6770706,-1.9059039,-2.4139214,-0.3545329,1.6194025,2.676046,-2.4484987
976,1778621667.687071,-1.9059039,-2.4139214,-0.3545329,1.6194025,2.676046,-2.4484987
977,1778621667.6970723,-1.9059039,-2.4139214,-0.3545329,1.6194025,2.676046,-2.4484987
978,1778621667.7070732,-1.9059039,-2.4139214,-0.3545329,1.6194025,2.676046,-2.4484987
979,1778621667.717074,-0.5904613,-0.7367503,0.07036996,1.6194025,2.676046,-2.4484987
980,1778621667.7270749,-0.5904613,-0.7367503,0.07036996,1.6194025,2.676046,-2.4484987
981,1778621667.7370758,-0.5904613,-0.7367503,0.07036996,1.6194025,2.676046,-2.4484987
982,1778621667.7470765,-0.5904613,-0.7367503,0.07036996,1.6194025,2.676046,-2.4484987
983,1778621667.7570775,-0.35191077,-0.6221095,0.1367153,1.6487241,2.8281512,-2.3440409
984,1778621667.7670784,-0.35191077,-0.6221095,0.1367153,1.6487241,2.8281512,-2.3440409
985,1778621667.777079,-0.35191077,-0.6221095,0.1367153,1.6487241,2.8281512,-2.3440409
986,1778621667.787085,-0.35191077,-0.6221095,0.1367153,1.6291764,2.9350526,-2.1864378
987,1778621667.797087,-0.35191077,-0.6221095,0.1367153,1.6291764,2.9350526,-2.1864378
988,1778621667.807088,-0.35191077,-0.6221095,0.1367153,1.6291764,2.9350526,-2.1864378
989,1778621667.8173122,-0.35191077,-0.6221095,0.1367153,1.6291764,2.9350526,-2.1864378
990,1778621667.8273137,-0.35191077,-0.6221095,0.1367153,1.6291764,2.9350526,-2.1864378
991,1778621667.8373144,-0.35191077,-0.6221095,0.1367153,1.6291764,2.9350526,-2.1864378
992,1778621667.8473241,-0.35191077,-0.6221095,0.1367153,1.6291764,2.9350526,-2.1864378
993,1778621667.8573277,-0.35191077,-0.6221095,0.1367153,1.6291764,2.9350526,-2.1864378
994,1778621667.867329,-0.35191077,-0.6221095,0.1367153,1.6291764,2.9350526,-2.1864378
995,1778621667.8773296,-0.35191077,-0.6221095,0.1367153,1.6291764,2.9350526,-2.1864378
996,1778621667.8873305,-0.14897211,0.111591876,-0.0898833,1.0470222,2.4390304,-2.2866197
997,1778621667.8973315,-0.14897211,0.111591876,-0.0898833,1.0470222,2.4390304,-2.2866197
998,1778621667.9073322,-0.14897211,0.111591876,-0.0898833,1.0470222,2.4390304,-2.2866197
999,1778621667.917333,-0.20995127,0.11695804,-0.19135264,0.8649845,1.9350669,-2.4191773
