id,timestamp,acc_x,acc_y,acc_z,gyro_x,gyro_y,gyro_z
1,1778625209.7688909,0.43000000,0.36000000,-0.31000000,4.52000000,-105.29000000,-50.29000000
2,1778625209.7794292,0.43000000,0.36000000,-0.31000000,4.52000000,-105.29000000,-50.29000000
3,1778625209.790333,0.43000000,0.36000000,-0.31000000,4.52000000,-105.29000000,-50.29000000
4,1778625209.7995331,0.43000000,0.36000000,-0.31000000,4.52000000,-105.29000000,-50.29000000
5,1778625209.809529,0.43000000,0.36000000,-0.31000000,4.52000000,-105.29000000,-50.29000000
6,1778625209.8190038,0.33000000,0.51000000,-0.09000000,34.61000000,-20.87000000,26.37000000
7,1778625209.829939,0.33000000,0.51000000,-0.09000000,34.61000000,-20.87000000,26.37000000
8,1778625209.8407118,0.25000000,1.26000000,0.15000000,65.12000000,-9.89000000,55.11000000
9,1778625209.848963,0.25000000,1.26000000,0.15000000,65.12000000,-9.89000000,55.11000000
10,1778625209.860311,0.25000000,1.26000000,0.15000000,65.12000000,-9.89000000,55.11000000
11,1778625209.868973,0.25000000,1.26000000,0.15000000,65.12000000,-9.89000000,55.11000000
12,1778625209.879061,-0.08000000,2.52000000,0.24000000,30.46000000,-17.70000000,86.18000000
13,1778625209.8901079,-0.08000000,2.52000000,0.24000000,30.46000000,-17.70000000,86.18000000
14,1778625209.900182,-0.08000000,2.52000000,0.24000000,30.46000000,-17.70000000,86.18000000
15,1778625209.9089642,-0.08000000,2.52000000,0.24000000,30.46000000,-17.70000000,86.18000000
16,1778625209.91989,-0.35000000,3.22000000,0.31000000,80.38000000,3.91000000,145.08000000
17,1778625209.929051,-0.35000000,3.22000000,0.31000000,80.38000000,3.91000000,145.08000000
18,1778625209.93906,-0.35000000,3.22000000,0.31000000,80.38000000,3.91000000,145.08000000
19,1778625209.950193,-0.35000000,3.22000000,0.31000000,80.38000000,3.91000000,145.08000000
20,1778625209.9589472,-0.43000000,2.46000000,0.33000000,80.38000000,3.91000000,145.08000000
21,1778625209.969024,-0.43000000,2.46000000,0.33000000,74.46000000,48.03000000,187.99000000
22,1778625209.980863,-0.43000000,2.46000000,0.33000000,74.46000000,48.03000000,187.99000000
23,1778625209.989553,-0.30000000,2.00000000,0.26000000,35.16000000,56.70000000,165.71000000
24,1778625210.0003688,-0.30000000,2.00000000,0.26000000,35.16000000,56.70000000,165.71000000
25,1778625210.0089579,-0.30000000,2.00000000,0.26000000,35.16000000,56.70000000,165.71000000
26,1778625210.018961,-0.30000000,2.00000000,0.26000000,35.16000000,56.70000000,165.71000000
27,1778625210.031425,-0.16000000,1.23000000,0.28000000,20.26000000,73.97000000,149.41000000
28,1778625210.0402482,-0.16000000,1.23000000,0.28000000,20.26000000,73.97000000,149.41000000
29,1778625210.0498219,-0.16000000,1.23000000,0.28000000,20.26000000,73.97000000,149.41000000
30,1778625210.061161,-0.16000000,1.23000000,0.28000000,20.26000000,73.97000000,149.41000000
31,1778625210.068945,0.00000000,0.51000000,0.30000000,3.85000000,76.78000000,113.10000000
32,1778625210.07912,0.00000000,0.51000000,0.30000000,3.85000000,76.78000000,113.10000000
33,1778625210.0904698,0.00000000,0.51000000,0.30000000,3.85000000,76.78000000,113.10000000
34,1778625210.1010299,0.00000000,0.51000000,0.30000000,3.85000000,76.78000000,113.10000000
35,1778625210.108951,0.00000000,0.07000000,0.25000000,-36.80000000,48.34000000,51.88000000
36,1778625210.120078,0.00000000,0.07000000,0.25000000,-36.80000000,48.34000000,51.88000000
37,1778625210.129285,0.00000000,0.07000000,0.25000000,-36.80000000,48.34000000,51.88000000
38,1778625210.141161,-0.11000000,-0.11000000,0.21000000,-36.80000000,48.34000000,51.88000000
39,1778625210.149625,-0.11000000,-0.11000000,0.21000000,-35.03000000,43.82000000,13.31000000
40,1778625210.161227,-0.11000000,-0.11000000,0.21000000,-35.03000000,43.82000000,13.31000000
41,1778625210.168957,-0.11000000,-0.11000000,0.21000000,-35.03000000,43.82000000,13.31000000
42,1778625210.179712,-0.22000000,-0.24000000,0.22000000,-35.64000000,13.73000000,-18.55000000
43,1778625210.1891031,-0.22000000,-0.24000000,0.22000000,-35.64000000,13.73000000,-18.55000000
44,1778625210.198994,-0.22000000,-0.24000000,0.22000000,-35.64000000,13.73000000,-18.55000000
45,1778625210.210578,-0.22000000,-0.24000000,0.22000000,-35.64000000,13.73000000,-18.55000000
46,1778625210.219563,-0.30000000,-0.22000000,0.27000000,-46.33000000,-28.44000000,-14.59000000
47,1778625210.231328,-0.30000000,-0.22000000,0.27000000,-46.33000000,-28.44000000,-14.59000000
48,1778625210.2393239,-0.30000000,-0.22000000,0.27000000,-46.33000000,-28.44000000,-14.59000000
49,1778625210.2497659,-0.30000000,-0.22000000,0.27000000,-46.33000000,-28.44000000,-14.59000000
50,1778625210.258954,-0.27000000,-0.31000000,0.25000000,-16.05000000,-50.96000000,-45.72000000
51,1778625210.268932,-0.27000000,-0.31000000,0.25000000,-16.05000000,-50.96000000,-45.72000000
52,1778625210.2814028,-0.27000000,-0.31000000,0.25000000,-16.05000000,-50.96000000,-45.72000000
53,1778625210.289196,-0.27000000,-0.31000000,0.25000000,-16.05000000,-50.96000000,-45.72000000
54,1778625210.300259,-0.34000000,0.04000000,0.37000000,-4.39000000,-76.97000000,-100.34000000
55,1778625210.308934,-0.34000000,0.04000000,0.37000000,-4.39000000,-76.97000000,-100.34000000
56,1778625210.318977,-0.34000000,0.04000000,0.37000000,-4.39000000,-76.97000000,-100.34000000
57,1778625210.331399,-0.34000000,0.04000000,0.37000000,-4.39000000,-76.97000000,-100.34000000
58,1778625210.3406029,-0.53000000,1.05000000,0.52000000,-51.09000000,-123.96000000,-143.49000000
59,1778625210.3510132,-0.53000000,1.05000000,0.52000000,-51.09000000,-123.96000000,-143.49000000
60,1778625210.358968,-0.53000000,1.05000000,0.52000000,-51.09000000,-123.96000000,-143.49000000
61,1778625210.369592,-0.69000000,2.37000000,0.31000000,-93.69000000,-198.79000000,-236.88000000
62,1778625210.3790238,-0.69000000,2.37000000,0.31000000,-93.69000000,-198.79000000,-236.88000000
63,1778625210.389638,-0.69000000,2.37000000,0.31000000,-93.69000000,-198.79000000,-236.88000000
64,1778625210.399127,-0.69000000,2.37000000,0.31000000,-93.69000000,-198.79000000,-236.88000000
65,1778625210.4089658,-0.57000000,2.86000000,-0.02000000,62.26000000,-195.50000000,-276.67000000
66,1778625210.4189088,-0.57000000,2.86000000,-0.02000000,62.26000000,-195.50000000,-276.67000000
67,1778625210.4314182,-0.57000000,2.86000000,-0.02000000,62.26000000,-195.50000000,-276.67000000
68,1778625210.440785,-0.57000000,2.86000000,-0.02000000,62.26000000,-195.50000000,-276.67000000
69,1778625210.449311,-0.22000000,2.37000000,-0.11000000,62.26000000,-195.50000000,-276.67000000
70,1778625210.4610019,-0.22000000,2.37000000,-0.11000000,-42.79000000,-129.82000000,-151.86000000
71,1778625210.468931,-0.22000000,2.37000000,-0.11000000,-42.79000000,-129.82000000,-151.86000000
72,1778625210.481371,0.04000000,1.74000000,0.01000000,-42.79000000,-129.82000000,-151.86000000
73,1778625210.490768,0.04000000,1.74000000,0.01000000,-101.07000000,-85.45000000,-82.34000000
74,1778625210.500848,0.04000000,1.74000000,0.01000000,-101.07000000,-85.45000000,-82.34000000
75,1778625210.509875,0.04000000,1.74000000,0.01000000,-101.07000000,-85.45000000,-82.34000000
76,1778625210.518959,0.04000000,1.74000000,0.01000000,-101.07000000,-85.45000000,-82.34000000
77,1778625210.531397,0.15000000,1.22000000,0.05000000,-26.86000000,-79.96000000,-84.41000000
78,1778625210.538989,0.15000000,1.22000000,0.05000000,-26.86000000,-79.96000000,-84.41000000
79,1778625210.5505972,0.15000000,1.22000000,0.05000000,-26.86000000,-79.96000000,-84.41000000
80,1778625210.559818,0.23000000,1.01000000,-0.01000000,18.80000000,-98.57000000,-75.93000000
81,1778625210.569015,0.23000000,1.01000000,-0.01000000,18.80000000,-98.57000000,-75.93000000
82,1778625210.581046,0.23000000,1.01000000,-0.01000000,18.80000000,-98.57000000,-75.93000000
83,1778625210.590911,0.23000000,1.01000000,-0.01000000,18.80000000,-98.57000000,-75.93000000
84,1778625210.600204,0.34000000,0.83000000,-0.20000000,9.40000000,-90.27000000,-31.56000000
85,1778625210.608913,0.34000000,0.83000000,-0.20000000,9.40000000,-90.27000000,-31.56000000
86,1778625210.619338,0.34000000,0.83000000,-0.20000000,9.40000000,-90.27000000,-31.56000000
87,1778625210.629388,0.34000000,0.83000000,-0.20000000,9.40000000,-90.27000000,-31.56000000
88,1778625210.640107,0.43000000,0.60000000,-0.35000000,36.44000000,-59.51000000,4.39000000
89,1778625210.6511202,0.43000000,0.60000000,-0.35000000,36.44000000,-59.51000000,4.39000000
90,1778625210.659264,0.43000000,0.60000000,-0.35000000,36.44000000,-59.51000000,4.39000000
91,1778625210.669004,0.43000000,0.60000000,-0.35000000,36.44000000,-59.51000000,4.39000000
92,1778625210.679615,0.43000000,0.60000000,-0.35000000,36.44000000,-59.51000000,4.39000000
93,1778625210.6894798,0.43000000,0.60000000,-0.35000000,36.44000000,-59.51000000,4.39000000
94,1778625210.6998389,0.43000000,0.60000000,-0.35000000,36.44000000,-59.51000000,4.39000000
95,1778625210.709376,0.43000000,0.60000000,-0.35000000,36.44000000,-59.51000000,4.39000000
96,1778625210.718967,0.43000000,0.60000000,-0.35000000,36.44000000,-59.51000000,4.39000000
97,1778625210.729964,0.40000000,0.54000000,-0.30000000,30.82000000,-29.36000000,47.91000000
98,1778625210.740116,0.40000000,0.54000000,-0.30000000,30.82000000,-29.36000000,47.91000000
99,1778625210.7510989,0.08000000,2.07000000,0.21000000,91.80000000,33.45000000,103.70000000
100,1778625210.76035,0.08000000,2.07000000,0.21000000,91.80000000,33.45000000,103.70000000
101,1778625210.7689621,0.08000000,2.07000000,0.21000000,91.80000000,33.45000000,103.70000000
102,1778625210.781327,0.08000000,2.07000000,0.21000000,91.80000000,33.45000000,103.70000000
103,1778625210.789075,0.08000000,2.07000000,0.21000000,91.80000000,33.45000000,103.70000000
104,1778625210.799551,0.08000000,2.07000000,0.21000000,91.80000000,33.45000000,103.70000000
105,1778625210.808971,0.08000000,2.07000000,0.21000000,91.80000000,33.45000000,103.70000000
106,1778625210.818961,0.08000000,2.07000000,0.21000000,91.80000000,33.45000000,103.70000000
107,1778625210.831404,0.08000000,2.07000000,0.21000000,91.80000000,33.45000000,103.70000000
108,1778625210.84018,0.08000000,2.07000000,0.21000000,91.80000000,33.45000000,103.70000000
109,1778625210.850629,0.08000000,2.07000000,0.21000000,91.80000000,33.45000000,103.70000000
110,1778625210.859543,-0.52000000,2.12000000,0.53000000,73.97000000,34.12000000,206.12000000
111,1778625210.869036,-0.52000000,2.12000000,0.53000000,73.97000000,34.12000000,206.12000000
112,1778625210.881106,-0.52000000,2.12000000,0.53000000,73.97000000,34.12000000,206.12000000
113,1778625210.889672,-0.52000000,2.12000000,0.53000000,73.97000000,34.12000000,206.12000000
114,1778625210.9000452,-0.35000000,1.30000000,0.30000000,59.08000000,24.41000000,181.40000000
115,1778625210.908947,-0.35000000,1.30000000,0.30000000,59.08000000,24.41000000,181.40000000
116,1778625210.918914,-0.35000000,1.30000000,0.30000000,59.08000000,24.41000000,181.40000000
117,1778625210.931427,-0.13000000,0.47000000,0.26000000,55.66000000,25.15000000,147.77000000
118,1778625210.939918,-0.13000000,0.47000000,0.26000000,55.66000000,25.15000000,147.77000000
119,1778625210.950927,-0.13000000,0.47000000,0.26000000,55.66000000,25.15000000,147.77000000
120,1778625210.960342,-0.13000000,0.47000000,0.26000000,55.66000000,25.15000000,147.77000000
121,1778625210.971084,-0.02000000,0.03000000,0.25000000,10.07000000,3.11000000,90.09000000
122,1778625210.9808698,-0.02000000,0.03000000,0.25000000,10.07000000,3.11000000,90.09000000
123,1778625210.989334,-0.02000000,0.03000000,0.25000000,10.07000000,3.11000000,90.09000000
124,1778625210.998917,-0.02000000,0.03000000,0.25000000,10.07000000,3.11000000,90.09000000
125,1778625211.0097861,-0.11000000,-0.17000000,0.16000000,-21.91000000,-13.61000000,35.46000000
126,1778625211.0196,-0.11000000,-0.17000000,0.16000000,-21.91000000,-13.61000000,35.46000000
127,1778625211.031241,-0.11000000,-0.17000000,0.16000000,-21.91000000,-13.61000000,35.46000000
128,1778625211.0408268,-0.26000000,-0.24000000,0.15000000,-31.01000000,-38.70000000,-6.59000000
129,1778625211.049035,-0.26000000,-0.24000000,0.15000000,-31.01000000,-38.70000000,-6.59000000
130,1778625211.060009,-0.26000000,-0.24000000,0.15000000,-31.01000000,-38.70000000,-6.59000000
131,1778625211.069149,-0.26000000,-0.24000000,0.15000000,-31.01000000,-38.70000000,-6.59000000
132,1778625211.079125,-0.31000000,-0.26000000,0.16000000,-52.55000000,-47.30000000,-31.49000000
133,1778625211.0913548,-0.31000000,-0.26000000,0.16000000,-52.55000000,-47.30000000,-31.49000000
134,1778625211.099898,-0.31000000,-0.26000000,0.16000000,-52.55000000,-47.30000000,-31.49000000
135,1778625211.108918,-0.31000000,-0.26000000,0.16000000,-52.55000000,-47.30000000,-31.49000000
136,1778625211.1190379,-0.25000000,-0.25000000,0.16000000,-30.94000000,-64.88000000,-68.54000000
137,1778625211.12989,-0.25000000,-0.25000000,0.16000000,-30.94000000,-64.88000000,-68.54000000
138,1778625211.139576,-0.25000000,-0.25000000,0.16000000,-30.94000000,-64.88000000,-68.54000000
139,1778625211.150371,-0.25000000,-0.25000000,0.16000000,-30.94000000,-64.88000000,-68.54000000
140,1778625211.16061,-0.23000000,-0.04000000,0.28000000,-24.35000000,-84.11000000,-104.86000000
141,1778625211.168993,-0.23000000,-0.04000000,0.28000000,-24.35000000,-84.11000000,-104.86000000
142,1778625211.179908,-0.23000000,-0.04000000,0.28000000,-24.35000000,-84.11000000,-104.86000000
143,1778625211.190764,-0.17000000,0.80000000,0.49000000,-24.35000000,-84.11000000,-104.86000000
144,1778625211.198956,-0.17000000,0.80000000,0.49000000,-54.93000000,-85.33000000,-151.67000000
145,1778625211.210755,-0.17000000,0.80000000,0.49000000,-54.93000000,-85.33000000,-151.67000000
146,1778625211.219295,-0.17000000,0.80000000,0.49000000,-54.93000000,-85.33000000,-151.67000000
147,1778625211.231329,-0.55000000,2.10000000,0.68000000,-122.68000000,-188.54000000,-188.17000000
148,1778625211.239678,-0.55000000,2.10000000,0.68000000,-122.68000000,-188.54000000,-188.17000000
149,1778625211.249019,-0.55000000,2.10000000,0.68000000,-122.68000000,-188.54000000,-188.17000000
150,1778625211.2591739,-0.55000000,2.10000000,0.68000000,-122.68000000,-188.54000000,-188.17000000
151,1778625211.26894,-0.78000000,3.15000000,0.24000000,16.60000000,-212.77000000,-247.07000000
152,1778625211.2814138,-0.78000000,3.15000000,0.24000000,16.60000000,-212.77000000,-247.07000000
153,1778625211.2908092,-0.78000000,3.15000000,0.24000000,16.60000000,-212.77000000,-247.07000000
154,1778625211.3007941,-0.78000000,3.15000000,0.24000000,16.60000000,-212.77000000,-247.07000000
155,1778625211.310645,-0.78000000,3.15000000,0.24000000,16.60000000,-212.77000000,-247.07000000
156,1778625211.319189,-0.78000000,3.15000000,0.24000000,16.60000000,-212.77000000,-247.07000000
157,1778625211.331358,-0.78000000,3.15000000,0.24000000,16.60000000,-212.77000000,-247.07000000
158,1778625211.3406348,-0.78000000,3.15000000,0.24000000,16.60000000,-212.77000000,-247.07000000
159,1778625211.351007,-0.78000000,3.15000000,0.24000000,16.60000000,-212.77000000,-247.07000000
160,1778625211.359005,-0.78000000,3.15000000,0.24000000,16.60000000,-212.77000000,-247.07000000
161,1778625211.369195,-0.78000000,3.15000000,0.24000000,16.60000000,-212.77000000,-247.07000000
162,1778625211.381366,-0.78000000,3.15000000,0.24000000,16.60000000,-212.77000000,-247.07000000
163,1778625211.389181,-0.42000000,2.85000000,-0.10000000,16.60000000,-212.77000000,-247.07000000
164,1778625211.399203,-0.05000000,2.11000000,0.04000000,8.97000000,-83.68000000,-50.05000000
165,1778625211.41136,-0.05000000,2.11000000,0.04000000,8.97000000,-83.68000000,-50.05000000
166,1778625211.4192991,0.38000000,0.63000000,-0.14000000,38.27000000,-76.54000000,-44.43000000
167,1778625211.429279,0.38000000,0.63000000,-0.14000000,38.27000000,-76.54000000,-44.43000000
168,1778625211.4389381,0.38000000,0.63000000,-0.14000000,38.27000000,-76.54000000,-44.43000000
169,1778625211.4489331,0.38000000,0.63000000,-0.14000000,38.27000000,-76.54000000,-44.43000000
170,1778625211.4589791,0.46000000,0.31000000,-0.16000000,-8.67000000,-80.87000000,-44.68000000
171,1778625211.470037,0.46000000,0.31000000,-0.16000000,-8.67000000,-80.87000000,-44.68000000
172,1778625211.481156,0.46000000,0.31000000,-0.16000000,-8.67000000,-80.87000000,-44.68000000
173,1778625211.490876,0.46000000,0.31000000,-0.16000000,-8.67000000,-80.87000000,-44.68000000
174,1778625211.499187,0.48000000,0.31000000,-0.22000000,-0.31000000,-56.40000000,-26.73000000
175,1778625211.509009,0.48000000,0.31000000,-0.22000000,-0.31000000,-56.40000000,-26.73000000
176,1778625211.5192351,0.48000000,0.31000000,-0.22000000,-0.31000000,-56.40000000,-26.73000000
177,1778625211.5289972,0.48000000,0.31000000,-0.22000000,-0.31000000,-56.40000000,-26.73000000
178,1778625211.541385,0.52000000,0.11000000,-0.16000000,1.34000000,-20.20000000,7.75000000
179,1778625211.550797,0.52000000,0.11000000,-0.16000000,1.34000000,-20.20000000,7.75000000
180,1778625211.560941,0.52000000,0.11000000,-0.16000000,1.34000000,-20.20000000,7.75000000
181,1778625211.569976,0.42000000,0.45000000,-0.05000000,-2.69000000,-28.20000000,28.99000000
182,1778625211.579493,0.42000000,0.45000000,-0.05000000,-2.69000000,-28.20000000,28.99000000
183,1778625211.589241,0.42000000,0.45000000,-0.05000000,-2.69000000,-28.20000000,28.99000000
184,1778625211.599134,0.42000000,0.45000000,-0.05000000,-2.69000000,-28.20000000,28.99000000
185,1778625211.609847,0.35000000,1.03000000,0.03000000,95.58000000,-4.15000000,43.40000000
186,1778625211.6191301,0.35000000,1.03000000,0.03000000,95.58000000,-4.15000000,43.40000000
187,1778625211.629823,0.35000000,1.03000000,0.03000000,95.58000000,-4.15000000,43.40000000
188,1778625211.6412008,0.35000000,1.03000000,0.03000000,95.58000000,-4.15000000,43.40000000
189,1778625211.650083,0.15000000,2.39000000,0.09000000,-23.07000000,-18.55000000,67.93000000
190,1778625211.659008,0.15000000,2.39000000,0.09000000,-23.07000000,-18.55000000,67.93000000
191,1778625211.6690612,0.15000000,2.39000000,0.09000000,-23.07000000,-18.55000000,67.93000000
192,1778625211.680752,0.15000000,2.39000000,0.09000000,-23.07000000,-18.55000000,67.93000000
193,1778625211.688973,-0.45000000,3.30000000,0.13000000,47.73000000,-21.91000000,160.28000000
194,1778625211.701399,-0.45000000,3.30000000,0.13000000,47.73000000,-21.91000000,160.28000000
195,1778625211.708958,-0.45000000,3.30000000,0.13000000,47.73000000,-21.91000000,160.28000000
196,1778625211.7189388,-0.45000000,3.30000000,0.13000000,47.73000000,-21.91000000,160.28000000
197,1778625211.7314281,-0.45000000,3.30000000,0.13000000,47.73000000,-21.91000000,160.28000000
198,1778625211.741784,-0.45000000,3.30000000,0.13000000,47.73000000,-21.91000000,160.28000000
199,1778625211.750711,-0.45000000,3.30000000,0.13000000,47.73000000,-21.91000000,160.28000000
200,1778625211.759846,-0.45000000,3.30000000,0.13000000,47.73000000,-21.91000000,160.28000000
201,1778625211.771168,-0.45000000,3.30000000,0.13000000,47.73000000,-21.91000000,160.28000000
202,1778625211.780225,-0.51000000,2.01000000,0.21000000,3.36000000,18.49000000,161.32000000
203,1778625211.788977,-0.51000000,2.01000000,0.21000000,3.36000000,18.49000000,161.32000000
204,1778625211.800941,-0.43000000,1.38000000,0.24000000,3.36000000,18.49000000,161.32000000
205,1778625211.8109171,-0.43000000,1.38000000,0.24000000,68.36000000,53.16000000,136.17000000
206,1778625211.818905,-0.43000000,1.38000000,0.24000000,68.36000000,53.16000000,136.17000000
207,1778625211.8290172,-0.43000000,1.38000000,0.24000000,68.36000000,53.16000000,136.17000000
208,1778625211.839734,-0.43000000,1.38000000,0.24000000,68.36000000,53.16000000,136.17000000
209,1778625211.8489118,-0.43000000,1.38000000,0.24000000,68.36000000,53.16000000,136.17000000
210,1778625211.859379,-0.43000000,1.38000000,0.24000000,68.36000000,53.16000000,136.17000000
211,1778625211.868972,-0.43000000,1.38000000,0.24000000,68.36000000,53.16000000,136.17000000
212,1778625211.881403,-0.43000000,1.38000000,0.24000000,68.36000000,53.16000000,136.17000000
213,1778625211.890798,-0.43000000,1.38000000,0.24000000,68.36000000,53.16000000,136.17000000
214,1778625211.899612,-0.43000000,1.38000000,0.24000000,68.36000000,53.16000000,136.17000000
215,1778625211.909143,-0.07000000,-0.22000000,0.20000000,-39.25000000,11.17000000,60.61000000
216,1778625211.919258,-0.07000000,-0.22000000,0.20000000,-52.61000000,-14.53000000,11.11000000
217,1778625211.928968,-0.07000000,-0.22000000,0.20000000,-52.61000000,-14.53000000,11.11000000
218,1778625211.939738,-0.14000000,-0.28000000,0.24000000,-57.86000000,-36.38000000,-13.55000000
219,1778625211.950492,-0.14000000,-0.28000000,0.24000000,-57.86000000,-36.38000000,-13.55000000
220,1778625211.959166,-0.14000000,-0.28000000,0.24000000,-57.86000000,-36.38000000,-13.55000000
221,1778625211.968948,-0.14000000,-0.28000000,0.24000000,-57.86000000,-36.38000000,-13.55000000
222,1778625211.98086,-0.08000000,-0.33000000,0.17000000,-55.48000000,-33.63000000,-44.92000000
223,1778625211.9895182,-0.08000000,-0.33000000,0.17000000,-55.48000000,-33.63000000,-44.92000000
224,1778625211.9989061,-0.08000000,-0.33000000,0.17000000,-55.48000000,-33.63000000,-44.92000000
225,1778625212.0102699,-0.08000000,-0.33000000,0.17000000,-55.48000000,-33.63000000,-44.92000000
226,1778625212.018975,-0.08000000,-0.33000000,0.17000000,-55.48000000,-33.63000000,-44.92000000
227,1778625212.030129,-0.06000000,-0.27000000,0.26000000,-20.94000000,-59.94000000,-75.07000000
228,1778625212.039399,-0.06000000,-0.27000000,0.26000000,-20.94000000,-59.94000000,-75.07000000
229,1778625212.051309,-0.05000000,-0.11000000,0.30000000,-43.52000000,-77.88000000,-93.63000000
230,1778625212.059168,-0.05000000,-0.11000000,0.30000000,-43.52000000,-77.88000000,-93.63000000
231,1778625212.07137,-0.05000000,-0.11000000,0.30000000,-43.52000000,-77.88000000,-93.63000000
232,1778625212.079154,-0.05000000,-0.11000000,0.30000000,-43.52000000,-77.88000000,-93.63000000
233,1778625212.089175,-0.23000000,0.46000000,0.48000000,-43.52000000,-77.88000000,-93.63000000
234,1778625212.099184,-0.23000000,0.46000000,0.48000000,-50.66000000,-86.67000000,-142.27000000
235,1778625212.108971,-0.23000000,0.46000000,0.48000000,-50.66000000,-86.67000000,-142.27000000
236,1778625212.118952,-0.23000000,0.46000000,0.48000000,-50.66000000,-86.67000000,-142.27000000
237,1778625212.128932,-0.80000000,2.08000000,0.42000000,-7.63000000,-132.32000000,-225.95000000
238,1778625212.140836,-0.80000000,2.08000000,0.42000000,-7.63000000,-132.32000000,-225.95000000
239,1778625212.14924,-0.80000000,2.08000000,0.42000000,-7.63000000,-132.32000000,-225.95000000
240,1778625212.1592362,-0.80000000,2.08000000,0.42000000,-7.63000000,-132.32000000,-225.95000000
241,1778625212.1697652,-0.98000000,3.16000000,0.11000000,-42.18000000,-178.47000000,-215.76000000
242,1778625212.1794078,-0.98000000,3.16000000,0.11000000,-42.18000000,-178.47000000,-215.76000000
243,1778625212.188994,-0.98000000,3.16000000,0.11000000,-42.18000000,-178.47000000,-215.76000000
244,1778625212.199181,-0.98000000,3.16000000,0.11000000,-42.18000000,-178.47000000,-215.76000000
245,1778625212.2113411,-0.50000000,2.96000000,-0.02000000,29.36000000,-110.23000000,-109.56000000
246,1778625212.219486,-0.50000000,2.96000000,-0.02000000,29.36000000,-110.23000000,-109.56000000
247,1778625212.229562,-0.50000000,2.96000000,-0.02000000,29.36000000,-110.23000000,-109.56000000
248,1778625212.241014,-0.50000000,2.96000000,-0.02000000,29.36000000,-110.23000000,-109.56000000
249,1778625212.2509089,0.11000000,1.69000000,0.00000000,51.27000000,-78.49000000,-48.10000000
250,1778625212.2600331,0.11000000,1.69000000,0.00000000,51.27000000,-78.49000000,-48.10000000
251,1778625212.2702248,0.11000000,1.69000000,0.00000000,51.27000000,-78.49000000,-48.10000000
252,1778625212.2791748,0.11000000,1.69000000,0.00000000,51.27000000,-78.49000000,-48.10000000
253,1778625212.291362,0.24000000,1.26000000,-0.06000000,2.38000000,-98.82000000,-35.34000000
254,1778625212.29925,0.24000000,1.26000000,-0.06000000,2.38000000,-98.82000000,-35.34000000
255,1778625212.3113332,0.24000000,1.26000000,-0.06000000,2.38000000,-98.82000000,-35.34000000
256,1778625212.319453,0.39000000,0.91000000,-0.13000000,44.56000000,-88.75000000,-34.12000000
257,1778625212.3312051,0.39000000,0.91000000,-0.13000000,44.56000000,-88.75000000,-34.12000000
258,1778625212.3392692,0.39000000,0.91000000,-0.13000000,44.56000000,-88.75000000,-34.12000000
259,1778625212.349633,0.50000000,0.59000000,-0.15000000,44.56000000,-88.75000000,-34.12000000
260,1778625212.360932,0.50000000,0.59000000,-0.15000000,44.56000000,-88.75000000,-34.12000000
261,1778625212.369472,0.50000000,0.59000000,-0.15000000,44.56000000,-88.75000000,-34.12000000
262,1778625212.3803048,0.50000000,0.59000000,-0.15000000,44.56000000,-88.75000000,-34.12000000
263,1778625212.389726,0.50000000,0.59000000,-0.15000000,44.56000000,-88.75000000,-34.12000000
264,1778625212.399225,0.50000000,0.59000000,-0.15000000,44.56000000,-88.75000000,-34.12000000
265,1778625212.409984,0.50000000,0.59000000,-0.15000000,44.56000000,-88.75000000,-34.12000000
266,1778625212.4189508,0.50000000,0.59000000,-0.15000000,44.56000000,-88.75000000,-34.12000000
267,1778625212.429121,0.50000000,0.59000000,-0.15000000,44.56000000,-88.75000000,-34.12000000
268,1778625212.439738,0.46000000,0.27000000,-0.02000000,17.40000000,-51.88000000,13.43000000
269,1778625212.449239,0.46000000,0.27000000,-0.02000000,17.40000000,-51.88000000,13.43000000
270,1778625212.461344,0.39000000,0.30000000,0.08000000,63.11000000,-52.55000000,11.41000000
271,1778625212.468978,0.39000000,0.30000000,0.08000000,63.11000000,-52.55000000,11.41000000
272,1778625212.479168,0.39000000,0.30000000,0.08000000,63.11000000,-52.55000000,11.41000000
273,1778625212.490421,0.27000000,0.88000000,0.28000000,17.82000000,-58.35000000,52.92000000
274,1778625212.4993489,0.27000000,0.88000000,0.28000000,17.82000000,-58.35000000,52.92000000
275,1778625212.5093849,0.27000000,0.88000000,0.28000000,17.82000000,-58.35000000,52.92000000
276,1778625212.518992,0.27000000,0.88000000,0.28000000,17.82000000,-58.35000000,52.92000000
277,1778625212.530297,-0.14000000,2.11000000,0.56000000,4.76000000,-51.39000000,97.78000000
278,1778625212.5391018,-0.14000000,2.11000000,0.56000000,4.76000000,-51.39000000,97.78000000
279,1778625212.54928,-0.14000000,2.11000000,0.56000000,4.76000000,-51.39000000,97.78000000
280,1778625212.5589209,-0.14000000,2.11000000,0.56000000,4.76000000,-51.39000000,97.78000000
281,1778625212.5689669,-0.14000000,2.11000000,0.56000000,4.76000000,-51.39000000,97.78000000
282,1778625212.5803132,-0.36000000,2.73000000,0.53000000,85.88000000,-72.14000000,103.52000000
283,1778625212.591095,-0.36000000,2.73000000,0.53000000,85.88000000,-72.14000000,103.52000000
284,1778625212.600288,-0.36000000,2.73000000,0.53000000,85.88000000,-72.14000000,103.52000000
285,1778625212.6105301,-0.39000000,2.38000000,0.41000000,27.28000000,-52.06000000,148.93000000
286,1778625212.619006,-0.39000000,2.38000000,0.41000000,27.28000000,-52.06000000,148.93000000
287,1778625212.629073,-0.39000000,2.38000000,0.41000000,27.28000000,-52.06000000,148.93000000
288,1778625212.6392078,-0.39000000,2.38000000,0.41000000,27.28000000,-52.06000000,148.93000000
289,1778625212.651189,-0.34000000,1.95000000,0.29000000,64.45000000,-15.99000000,110.96000000
290,1778625212.66084,-0.34000000,1.95000000,0.29000000,64.45000000,-15.99000000,110.96000000
291,1778625212.6695402,-0.34000000,1.95000000,0.29000000,64.45000000,-15.99000000,110.96000000
292,1778625212.6789382,-0.34000000,1.95000000,0.29000000,64.45000000,-15.99000000,110.96000000
293,1778625212.691247,-0.18000000,1.46000000,0.24000000,18.68000000,13.00000000,96.13000000
294,1778625212.6998248,-0.18000000,1.46000000,0.24000000,18.68000000,13.00000000,96.13000000
295,1778625212.7092,-0.18000000,1.46000000,0.24000000,18.68000000,13.00000000,96.13000000
296,1778625212.719019,-0.12000000,0.89000000,0.22000000,-0.61000000,18.92000000,85.51000000
297,1778625212.731401,-0.12000000,0.89000000,0.22000000,-0.61000000,18.92000000,85.51000000
298,1778625212.740077,-0.12000000,0.89000000,0.22000000,-0.61000000,18.92000000,85.51000000
299,1778625212.7492769,-0.12000000,0.89000000,0.22000000,-0.61000000,18.92000000,85.51000000
300,1778625212.760406,-0.12000000,0.89000000,0.22000000,-0.61000000,18.92000000,85.51000000
301,1778625212.768948,-0.12000000,0.89000000,0.22000000,-0.61000000,18.92000000,85.51000000
302,1778625212.779687,-0.12000000,0.89000000,0.22000000,-0.61000000,18.92000000,85.51000000
303,1778625212.789759,-0.12000000,0.89000000,0.22000000,-0.61000000,18.92000000,85.51000000
304,1778625212.800201,-0.12000000,0.89000000,0.22000000,-0.61000000,18.92000000,85.51000000
305,1778625212.8110878,-0.12000000,0.89000000,0.22000000,-0.61000000,18.92000000,85.51000000
306,1778625212.819263,-0.12000000,0.89000000,0.22000000,-0.61000000,18.92000000,85.51000000
307,1778625212.8313012,-0.22000000,-0.16000000,0.13000000,-74.65000000,-31.43000000,26.61000000
308,1778625212.839242,-0.22000000,-0.16000000,0.13000000,-74.65000000,-31.43000000,26.61000000
309,1778625212.851976,-0.22000000,-0.16000000,0.13000000,-74.65000000,-31.43000000,26.61000000
310,1778625212.859016,-0.22000000,-0.16000000,0.13000000,-74.65000000,-31.43000000,26.61000000
311,1778625212.8694148,-0.22000000,-0.16000000,0.13000000,-74.65000000,-31.43000000,26.61000000
312,1778625212.880125,-0.22000000,-0.28000000,0.11000000,-55.91000000,-42.97000000,1.04000000
313,1778625212.8911202,-0.22000000,-0.28000000,0.11000000,-55.91000000,-42.97000000,1.04000000
314,1778625212.898936,-0.22000000,-0.28000000,0.11000000,-55.91000000,-42.97000000,1.04000000
315,1778625212.9091048,-0.22000000,-0.28000000,0.11000000,-55.91000000,-42.97000000,1.04000000
316,1778625212.9189491,-0.22000000,-0.28000000,0.11000000,-55.91000000,-42.97000000,1.04000000
317,1778625212.9305742,-0.22000000,-0.28000000,0.11000000,-55.91000000,-42.97000000,1.04000000
318,1778625212.939185,-0.22000000,-0.28000000,0.11000000,-55.91000000,-42.97000000,1.04000000
319,1778625212.951363,-0.22000000,-0.28000000,0.11000000,-55.91000000,-42.97000000,1.04000000
320,1778625212.958997,-0.23000000,-0.12000000,0.35000000,-34.00000000,-102.48000000,-101.87000000
321,1778625212.9689689,-0.23000000,-0.12000000,0.35000000,-34.00000000,-102.48000000,-101.87000000
322,1778625212.981421,-0.23000000,-0.12000000,0.35000000,-34.00000000,-102.48000000,-101.87000000
323,1778625212.989416,-0.58000000,0.97000000,0.58000000,-34.00000000,-102.48000000,-101.87000000
324,1778625213.029166,-0.58000000,0.97000000,0.58000000,-57.43000000,-103.45000000,-190.67000000
325,1778625213.0291898,-0.58000000,0.97000000,0.58000000,-57.43000000,-103.45000000,-190.67000000
326,1778625213.0291939,-0.58000000,0.97000000,0.58000000,-57.43000000,-103.45000000,-190.67000000
327,1778625213.029197,-0.58000000,0.97000000,0.58000000,-57.43000000,-103.45000000,-190.67000000
328,1778625213.040661,-1.04000000,2.67000000,0.74000000,-129.46000000,-197.02000000,-193.54000000
329,1778625213.050098,-1.04000000,2.67000000,0.74000000,-129.46000000,-197.02000000,-193.54000000
330,1778625213.067033,-1.04000000,2.67000000,0.74000000,-129.46000000,-197.02000000,-193.54000000
331,1778625213.069379,-0.77000000,2.99000000,0.25000000,115.72000000,-221.98000000,-214.36000000
332,1778625213.0803351,-0.77000000,2.99000000,0.25000000,115.72000000,-221.98000000,-214.36000000
333,1778625213.0889559,-0.77000000,2.99000000,0.25000000,115.72000000,-221.98000000,-214.36000000
334,1778625213.099966,-0.22000000,2.23000000,-0.11000000,53.71000000,-144.04000000,-106.45000000
335,1778625213.109146,-0.22000000,2.23000000,-0.11000000,53.71000000,-144.04000000,-106.45000000
336,1778625213.11933,-0.22000000,2.23000000,-0.11000000,53.71000000,-144.04000000,-106.45000000
337,1778625213.128952,-0.22000000,2.23000000,-0.11000000,53.71000000,-144.04000000,-106.45000000
338,1778625213.139976,0.13000000,1.45000000,0.02000000,53.71000000,-144.04000000,-106.45000000
339,1778625213.1493602,0.13000000,1.45000000,0.02000000,-27.34000000,-107.06000000,-68.54000000
340,1778625213.158966,0.13000000,1.45000000,0.02000000,-27.34000000,-107.06000000,-68.54000000
341,1778625213.168968,0.13000000,1.45000000,0.02000000,-27.34000000,-107.06000000,-68.54000000
342,1778625213.178964,0.26000000,1.07000000,-0.05000000,-1.16000000,-120.97000000,-65.00000000
343,1778625213.190202,0.26000000,1.07000000,-0.05000000,-1.16000000,-120.97000000,-65.00000000
344,1778625213.200997,0.26000000,1.07000000,-0.05000000,-1.16000000,-120.97000000,-65.00000000
345,1778625213.209273,0.40000000,0.75000000,-0.21000000,-1.16000000,-120.97000000,-65.00000000
346,1778625213.219085,0.40000000,0.75000000,-0.21000000,25.57000000,-112.06000000,-48.71000000
347,1778625213.231358,0.40000000,0.75000000,-0.21000000,25.57000000,-112.06000000,-48.71000000
348,1778625213.240844,0.40000000,0.75000000,-0.21000000,25.57000000,-112.06000000,-48.71000000
349,1778625213.249313,0.42000000,0.52000000,-0.24000000,12.15000000,-99.12000000,-22.46000000
350,1778625213.2591271,0.42000000,0.52000000,-0.24000000,12.15000000,-99.12000000,-22.46000000
351,1778625213.268929,0.42000000,0.52000000,-0.24000000,12.15000000,-99.12000000,-22.46000000
352,1778625213.279527,0.42000000,0.52000000,-0.24000000,12.15000000,-99.12000000,-22.46000000
353,1778625213.2890198,0.36000000,0.34000000,-0.25000000,12.15000000,-99.12000000,-22.46000000
354,1778625213.299835,0.36000000,0.34000000,-0.25000000,18.25000000,-82.52000000,-5.49000000
355,1778625213.310624,0.36000000,0.34000000,-0.25000000,18.25000000,-82.52000000,-5.49000000
356,1778625213.31915,0.36000000,0.34000000,-0.25000000,18.25000000,-82.52000000,-5.49000000
357,1778625213.331399,0.31000000,0.30000000,-0.10000000,28.93000000,-52.31000000,4.46000000
358,1778625213.339226,0.31000000,0.30000000,-0.10000000,28.93000000,-52.31000000,4.46000000
359,1778625213.349352,0.31000000,0.30000000,-0.10000000,28.93000000,-52.31000000,4.46000000
360,1778625213.359004,0.25000000,0.99000000,0.22000000,28.93000000,-52.31000000,4.46000000
361,1778625213.369004,0.25000000,0.99000000,0.22000000,5.37000000,-59.81000000,13.37000000
362,1778625213.3795872,0.25000000,0.99000000,0.22000000,5.37000000,-59.81000000,13.37000000
363,1778625213.389235,0.25000000,0.99000000,0.22000000,5.37000000,-59.81000000,13.37000000
364,1778625213.3993511,0.25000000,0.99000000,0.22000000,5.37000000,-59.81000000,13.37000000
365,1778625213.410843,0.25000000,0.99000000,0.22000000,5.37000000,-59.81000000,13.37000000
366,1778625213.418934,0.25000000,0.99000000,0.22000000,5.37000000,-59.81000000,13.37000000
367,1778625213.428982,0.25000000,0.99000000,0.22000000,5.37000000,-59.81000000,13.37000000
368,1778625213.441451,0.25000000,0.99000000,0.22000000,5.37000000,-59.81000000,13.37000000
369,1778625213.4493482,0.25000000,0.99000000,0.22000000,5.37000000,-59.81000000,13.37000000
370,1778625213.4589682,0.25000000,0.99000000,0.22000000,5.37000000,-59.81000000,13.37000000
371,1778625213.4689522,0.25000000,0.99000000,0.22000000,5.37000000,-59.81000000,13.37000000
372,1778625213.481384,0.25000000,0.99000000,0.22000000,5.37000000,-59.81000000,13.37000000
373,1778625213.489362,-0.46000000,2.20000000,0.47000000,47.18000000,8.30000000,150.76000000
374,1778625213.499734,-0.46000000,2.20000000,0.47000000,47.18000000,8.30000000,150.76000000
375,1778625213.511082,-0.29000000,2.02000000,0.34000000,21.55000000,31.01000000,115.11000000
376,1778625213.51933,-0.29000000,2.02000000,0.34000000,21.55000000,31.01000000,115.11000000
377,1778625213.530112,-0.29000000,2.02000000,0.34000000,21.55000000,31.01000000,115.11000000
378,1778625213.540946,-0.29000000,2.02000000,0.34000000,21.55000000,31.01000000,115.11000000
379,1778625213.549737,-0.20000000,1.64000000,0.26000000,-12.15000000,40.22000000,131.23000000
380,1778625213.560884,-0.20000000,1.64000000,0.26000000,-12.15000000,40.22000000,131.23000000
381,1778625213.56981,-0.20000000,1.64000000,0.26000000,-12.15000000,40.22000000,131.23000000
382,1778625213.5812328,-0.08000000,1.10000000,0.28000000,2.14000000,48.71000000,121.58000000
383,1778625213.590862,-0.08000000,1.10000000,0.28000000,2.14000000,48.71000000,121.58000000
384,1778625213.599416,-0.08000000,1.10000000,0.28000000,2.14000000,48.71000000,121.58000000
385,1778625213.6089249,-0.08000000,1.10000000,0.28000000,2.14000000,48.71000000,121.58000000
386,1778625213.619095,-0.11000000,0.59000000,0.19000000,14.47000000,24.54000000,94.24000000
387,1778625213.630399,-0.11000000,0.59000000,0.19000000,14.47000000,24.54000000,94.24000000
388,1778625213.6390898,-0.11000000,0.59000000,0.19000000,14.47000000,24.54000000,94.24000000
389,1778625213.649416,-0.11000000,0.59000000,0.19000000,14.47000000,24.54000000,94.24000000
390,1778625213.659014,-0.23000000,0.10000000,0.10000000,-33.08000000,19.59000000,78.80000000
391,1778625213.670163,-0.23000000,0.10000000,0.10000000,-33.08000000,19.59000000,78.80000000
392,1778625213.679065,-0.23000000,0.10000000,0.10000000,-33.08000000,19.59000000,78.80000000
393,1778625213.689265,-0.30000000,-0.08000000,0.10000000,-25.21000000,8.00000000,65.73000000
394,1778625213.700546,-0.30000000,-0.08000000,0.10000000,-25.21000000,8.00000000,65.73000000
395,1778625213.70897,-0.30000000,-0.08000000,0.10000000,-25.21000000,8.00000000,65.73000000
396,1778625213.718904,-0.25000000,-0.37000000,0.10000000,38.09000000,-2.26000000,45.17000000
397,1778625213.731312,-0.25000000,-0.37000000,0.10000000,38.09000000,-2.26000000,45.17000000
398,1778625213.739795,-0.25000000,-0.37000000,0.10000000,38.09000000,-2.26000000,45.17000000
399,1778625213.750837,-0.25000000,-0.37000000,0.10000000,38.09000000,-2.26000000,45.17000000
400,1778625213.759434,-0.16000000,-0.50000000,0.06000000,9.64000000,4.88000000,5.86000000
401,1778625213.7689788,-0.16000000,-0.50000000,0.06000000,9.64000000,4.88000000,5.86000000
402,1778625213.780121,-0.16000000,-0.50000000,0.06000000,9.64000000,4.88000000,5.86000000
403,1778625213.791133,-0.16000000,-0.50000000,0.06000000,9.64000000,4.88000000,5.86000000
404,1778625213.799437,-0.16000000,-0.50000000,0.06000000,9.64000000,4.88000000,5.86000000
405,1778625213.808979,-0.16000000,-0.50000000,0.06000000,9.64000000,4.88000000,5.86000000
406,1778625213.819057,-0.16000000,-0.50000000,0.06000000,9.64000000,4.88000000,5.86000000
407,1778625213.829005,-0.16000000,-0.50000000,0.06000000,9.64000000,4.88000000,5.86000000
408,1778625213.841425,-0.16000000,-0.50000000,0.06000000,9.64000000,4.88000000,5.86000000
409,1778625213.849395,-0.16000000,-0.50000000,0.06000000,9.64000000,4.88000000,5.86000000
410,1778625213.8606,-0.16000000,-0.50000000,0.06000000,9.64000000,4.88000000,5.86000000
411,1778625213.868934,-0.16000000,-0.50000000,0.06000000,9.64000000,4.88000000,5.86000000
412,1778625213.88007,-0.03000000,-0.37000000,0.20000000,9.64000000,4.88000000,5.86000000
413,1778625213.8911638,-0.38000000,1.98000000,0.39000000,-129.03000000,-111.57000000,-200.13000000
414,1778625213.900873,-0.38000000,1.98000000,0.39000000,-129.03000000,-111.57000000,-200.13000000
415,1778625213.90899,-0.48000000,2.61000000,0.42000000,-129.03000000,-111.57000000,-200.13000000
416,1778625213.919151,-0.48000000,2.61000000,0.42000000,-10.19000000,-131.59000000,-194.89000000
417,1778625213.931029,-0.48000000,2.61000000,0.42000000,-10.19000000,-131.59000000,-194.89000000
418,1778625213.940158,-0.48000000,2.61000000,0.42000000,-10.19000000,-131.59000000,-194.89000000
419,1778625213.9501429,-0.48000000,2.61000000,0.42000000,-10.19000000,-131.59000000,-194.89000000
420,1778625213.9596422,-0.48000000,2.61000000,0.42000000,-10.19000000,-131.59000000,-194.89000000
421,1778625213.9692311,-0.48000000,2.61000000,0.42000000,-10.19000000,-131.59000000,-194.89000000
422,1778625213.981355,-0.48000000,2.61000000,0.42000000,-10.19000000,-131.59000000,-194.89000000
423,1778625213.990813,-0.48000000,2.61000000,0.42000000,-10.19000000,-131.59000000,-194.89000000
424,1778625213.998973,-0.48000000,2.61000000,0.42000000,-10.19000000,-131.59000000,-194.89000000
425,1778625214.009094,-0.17000000,1.88000000,-0.19000000,-46.57000000,-92.96000000,-85.94000000
426,1778625214.01927,-0.17000000,1.88000000,-0.19000000,-46.57000000,-92.96000000,-85.94000000
427,1778625214.029397,0.07000000,1.30000000,-0.12000000,0.73000000,-58.17000000,-75.99000000
428,1778625214.041326,0.07000000,1.30000000,-0.12000000,0.73000000,-58.17000000,-75.99000000
429,1778625214.049401,0.07000000,1.30000000,-0.12000000,0.73000000,-58.17000000,-75.99000000
430,1778625214.0592651,0.08000000,0.93000000,-0.14000000,-19.04000000,-88.38000000,-67.75000000
431,1778625214.0690198,0.08000000,0.93000000,-0.14000000,-19.04000000,-88.38000000,-67.75000000
432,1778625214.0814059,0.08000000,0.93000000,-0.14000000,-19.04000000,-88.38000000,-67.75000000
433,1778625214.089479,0.10000000,0.67000000,-0.17000000,-21.42000000,-68.60000000,-47.55000000
434,1778625214.0998569,0.10000000,0.67000000,-0.17000000,-21.42000000,-68.60000000,-47.55000000
435,1778625214.109887,0.10000000,0.67000000,-0.17000000,-21.42000000,-68.60000000,-47.55000000
436,1778625214.1189592,0.10000000,0.67000000,-0.17000000,-21.42000000,-68.60000000,-47.55000000
437,1778625214.131437,0.29000000,0.32000000,-0.01000000,-38.27000000,-18.98000000,-18.98000000
438,1778625214.140099,0.29000000,0.32000000,-0.01000000,-38.27000000,-18.98000000,-18.98000000
439,1778625214.1507132,0.29000000,0.32000000,-0.01000000,-38.27000000,-18.98000000,-18.98000000
440,1778625214.158941,0.29000000,0.32000000,-0.01000000,-38.27000000,-18.98000000,-18.98000000
441,1778625214.171411,0.34000000,0.37000000,-0.13000000,-60.12000000,-48.65000000,-38.64000000
442,1778625214.179169,0.34000000,0.37000000,-0.13000000,-60.12000000,-48.65000000,-38.64000000
443,1778625214.190218,0.34000000,0.37000000,-0.13000000,-60.12000000,-48.65000000,-38.64000000
444,1778625214.19945,0.34000000,0.37000000,-0.13000000,-60.12000000,-48.65000000,-38.64000000
445,1778625214.209172,0.31000000,0.84000000,-0.38000000,13.12000000,-5.07000000,-17.21000000
446,1778625214.2203279,0.31000000,0.84000000,-0.38000000,13.12000000,-5.07000000,-17.21000000
447,1778625214.230596,0.31000000,0.84000000,-0.38000000,13.12000000,-5.07000000,-17.21000000
448,1778625214.2392461,0.27000000,1.00000000,-0.28000000,44.62000000,35.64000000,14.89000000
449,1778625214.2490392,0.27000000,1.00000000,-0.28000000,44.62000000,35.64000000,14.89000000
450,1778625214.259136,0.27000000,1.00000000,-0.28000000,44.62000000,35.64000000,14.89000000
451,1778625214.271126,0.27000000,1.00000000,-0.28000000,44.62000000,35.64000000,14.89000000
452,1778625214.280869,-0.00000000,1.88000000,-0.20000000,25.51000000,61.46000000,60.55000000
453,1778625214.290925,-0.00000000,1.88000000,-0.20000000,25.51000000,61.46000000,60.55000000
454,1778625214.2994199,-0.00000000,1.88000000,-0.20000000,25.51000000,61.46000000,60.55000000
455,1778625214.309862,-0.00000000,1.88000000,-0.20000000,25.51000000,61.46000000,60.55000000
456,1778625214.319305,-0.28000000,2.49000000,-0.03000000,28.69000000,106.63000000,99.18000000
457,1778625214.329833,-0.28000000,2.49000000,-0.03000000,28.69000000,106.63000000,99.18000000
458,1778625214.340297,-0.28000000,2.49000000,-0.03000000,28.69000000,106.63000000,99.18000000
459,1778625214.349097,-0.28000000,2.49000000,-0.03000000,28.69000000,106.63000000,99.18000000
460,1778625214.360403,-0.50000000,2.61000000,0.37000000,6.16000000,90.45000000,151.06000000
461,1778625214.369177,-0.50000000,2.61000000,0.37000000,6.16000000,90.45000000,151.06000000
462,1778625214.3791401,-0.50000000,2.61000000,0.37000000,6.16000000,90.45000000,151.06000000
463,1778625214.389696,-0.50000000,2.61000000,0.37000000,6.16000000,90.45000000,151.06000000
464,1778625214.3994172,-0.55000000,2.23000000,0.24000000,86.49000000,62.38000000,158.63000000
465,1778625214.409882,-0.55000000,2.23000000,0.24000000,86.49000000,62.38000000,158.63000000
466,1778625214.4196758,-0.55000000,2.23000000,0.24000000,86.49000000,62.38000000,158.63000000
467,1778625214.428977,-0.46000000,2.00000000,0.22000000,86.49000000,62.38000000,158.63000000
468,1778625214.4413812,-0.46000000,2.00000000,0.22000000,34.36000000,56.27000000,149.60000000
469,1778625214.449507,-0.46000000,2.00000000,0.22000000,34.36000000,56.27000000,149.60000000
470,1778625214.461271,-0.46000000,2.00000000,0.22000000,34.36000000,56.27000000,149.60000000
471,1778625214.4701529,-0.46000000,2.00000000,0.22000000,34.36000000,56.27000000,149.60000000
472,1778625214.48113,-0.46000000,2.00000000,0.22000000,34.36000000,56.27000000,149.60000000
473,1778625214.490873,-0.46000000,2.00000000,0.22000000,34.36000000,56.27000000,149.60000000
474,1778625214.4995341,-0.46000000,2.00000000,0.22000000,34.36000000,56.27000000,149.60000000
475,1778625214.511254,-0.46000000,2.00000000,0.22000000,34.36000000,56.27000000,149.60000000
476,1778625214.519692,-0.46000000,2.00000000,0.22000000,34.36000000,56.27000000,149.60000000
477,1778625214.531151,-0.46000000,2.00000000,0.22000000,34.36000000,56.27000000,149.60000000
478,1778625214.540755,-0.25000000,0.60000000,0.22000000,34.91000000,26.79000000,102.29000000
479,1778625214.549887,-0.25000000,0.60000000,0.22000000,34.91000000,26.79000000,102.29000000
480,1778625214.559995,-0.25000000,0.60000000,0.22000000,34.91000000,26.79000000,102.29000000
481,1778625214.568994,-0.25000000,0.60000000,0.22000000,34.91000000,26.79000000,102.29000000
482,1778625214.5803251,-0.18000000,-0.26000000,0.19000000,-19.90000000,22.52000000,81.36000000
483,1778625214.59106,-0.18000000,-0.26000000,0.19000000,-19.90000000,22.52000000,81.36000000
484,1778625214.600885,-0.27000000,-0.29000000,0.26000000,-15.44000000,-0.61000000,65.49000000
485,1778625214.609038,-0.27000000,-0.29000000,0.26000000,-15.44000000,-0.61000000,65.49000000
486,1778625214.620419,-0.27000000,-0.29000000,0.26000000,-15.44000000,-0.61000000,65.49000000
487,1778625214.6310349,-0.27000000,-0.29000000,0.26000000,-15.44000000,-0.61000000,65.49000000
488,1778625214.640872,-0.27000000,-0.32000000,0.22000000,-16.17000000,-27.10000000,23.07000000
489,1778625214.649496,-0.27000000,-0.32000000,0.22000000,-16.17000000,-27.10000000,23.07000000
490,1778625214.65987,-0.27000000,-0.32000000,0.22000000,-16.17000000,-27.10000000,23.07000000
491,1778625214.669037,-0.27000000,-0.32000000,0.22000000,-16.17000000,-27.10000000,23.07000000
492,1778625214.679281,-0.17000000,-0.23000000,0.25000000,-13.92000000,-54.81000000,-0.18000000
493,1778625214.6890602,-0.17000000,-0.23000000,0.25000000,-13.92000000,-54.81000000,-0.18000000
494,1778625214.700777,-0.17000000,-0.23000000,0.25000000,-13.92000000,-54.81000000,-0.18000000
495,1778625214.7101839,-0.17000000,-0.23000000,0.25000000,-13.92000000,-54.81000000,-0.18000000
496,1778625214.719001,-0.08000000,0.01000000,0.47000000,-51.94000000,-54.99000000,-38.76000000
497,1778625214.731366,-0.08000000,0.01000000,0.47000000,-51.94000000,-54.99000000,-38.76000000
498,1778625214.740801,-0.08000000,0.01000000,0.47000000,-51.94000000,-54.99000000,-38.76000000
499,1778625214.749727,-0.08000000,0.01000000,0.47000000,-51.94000000,-54.99000000,-38.76000000
500,1778625214.759549,-0.44000000,1.13000000,0.45000000,-54.20000000,-105.04000000,-188.78000000
501,1778625214.7701702,-0.44000000,1.13000000,0.45000000,-54.20000000,-105.04000000,-188.78000000
502,1778625214.780096,-0.44000000,1.13000000,0.45000000,-54.20000000,-105.04000000,-188.78000000
503,1778625214.791153,-0.69000000,1.95000000,0.17000000,-54.20000000,-105.04000000,-188.78000000
504,1778625214.800887,-0.69000000,1.95000000,0.17000000,53.89000000,-140.38000000,-198.97000000
505,1778625214.810616,-0.69000000,1.95000000,0.17000000,53.89000000,-140.38000000,-198.97000000
506,1778625214.819369,-0.69000000,1.95000000,0.17000000,53.89000000,-140.38000000,-198.97000000
507,1778625214.831311,-0.55000000,2.21000000,0.12000000,-83.50000000,-79.10000000,-186.83000000
508,1778625214.840844,-0.55000000,2.21000000,0.12000000,-83.50000000,-79.10000000,-186.83000000
509,1778625214.858159,-0.55000000,2.21000000,0.12000000,-83.50000000,-79.10000000,-186.83000000
510,1778625214.859294,-0.55000000,2.21000000,0.12000000,-83.50000000,-79.10000000,-186.83000000
511,1778625214.8693938,-0.55000000,2.21000000,0.12000000,-83.50000000,-79.10000000,-186.83000000
512,1778625214.879871,-0.55000000,2.21000000,0.12000000,-83.50000000,-79.10000000,-186.83000000
513,1778625214.890754,-0.55000000,2.21000000,0.12000000,-83.50000000,-79.10000000,-186.83000000
514,1778625214.899132,-0.55000000,2.21000000,0.12000000,-83.50000000,-79.10000000,-186.83000000
515,1778625214.91136,-0.55000000,2.21000000,0.12000000,-83.50000000,-79.10000000,-186.83000000
516,1778625214.919643,-0.55000000,2.21000000,0.12000000,-83.50000000,-79.10000000,-186.83000000
517,1778625214.929108,-0.03000000,1.64000000,0.09000000,-5.74000000,-78.37000000,-112.06000000
518,1778625214.9413178,-0.03000000,1.64000000,0.09000000,-5.74000000,-78.37000000,-112.06000000
519,1778625214.950081,0.09000000,1.19000000,-0.07000000,-21.61000000,-85.88000000,-100.83000000
520,1778625214.958953,0.09000000,1.19000000,-0.07000000,-21.61000000,-85.88000000,-100.83000000
521,1778625214.970229,0.09000000,1.19000000,-0.07000000,-21.61000000,-85.88000000,-100.83000000
522,1778625214.979937,0.09000000,1.19000000,-0.07000000,-21.61000000,-85.88000000,-100.83000000
523,1778625214.991158,0.09000000,1.19000000,-0.07000000,-21.61000000,-85.88000000,-100.83000000
524,1778625215.000106,0.09000000,1.19000000,-0.07000000,-21.61000000,-85.88000000,-100.83000000
525,1778625215.010606,0.09000000,1.19000000,-0.07000000,-21.61000000,-85.88000000,-100.83000000
526,1778625215.0195048,0.09000000,1.19000000,-0.07000000,-21.61000000,-85.88000000,-100.83000000
527,1778625215.0312479,0.09000000,1.19000000,-0.07000000,-21.61000000,-85.88000000,-100.83000000
528,1778625215.0398688,0.09000000,1.19000000,-0.07000000,-21.61000000,-85.88000000,-100.83000000
529,1778625215.0499232,0.09000000,1.19000000,-0.07000000,-21.61000000,-85.88000000,-100.83000000
530,1778625215.05896,0.38000000,0.50000000,-0.33000000,1.28000000,-24.72000000,-32.90000000
531,1778625215.0698,0.38000000,0.50000000,-0.33000000,1.28000000,-24.72000000,-32.90000000
532,1778625215.079106,0.38000000,0.50000000,-0.33000000,1.28000000,-24.72000000,-32.90000000
533,1778625215.089152,0.37000000,0.60000000,-0.15000000,1.28000000,-24.72000000,-32.90000000
534,1778625215.099755,0.37000000,0.60000000,-0.15000000,4.58000000,-8.97000000,21.18000000
535,1778625215.111186,0.37000000,0.60000000,-0.15000000,4.58000000,-8.97000000,21.18000000
536,1778625215.1189299,0.37000000,0.60000000,-0.15000000,4.58000000,-8.97000000,21.18000000
537,1778625215.129677,0.28000000,0.60000000,-0.09000000,13.00000000,-6.71000000,35.28000000
538,1778625215.1398091,0.28000000,0.60000000,-0.09000000,13.00000000,-6.71000000,35.28000000
539,1778625215.148957,0.28000000,0.60000000,-0.09000000,13.00000000,-6.71000000,35.28000000
540,1778625215.159018,-0.00000000,1.27000000,0.12000000,28.20000000,3.78000000,27.59000000
541,1778625215.169763,-0.00000000,1.27000000,0.12000000,28.20000000,3.78000000,27.59000000
542,1778625215.178976,-0.00000000,1.27000000,0.12000000,28.20000000,3.78000000,27.59000000
543,1778625215.188936,-0.58000000,2.67000000,0.45000000,28.20000000,3.78000000,27.59000000
544,1778625215.200628,-0.58000000,2.67000000,0.45000000,25.27000000,-32.96000000,74.83000000
545,1778625215.2104268,-0.58000000,2.67000000,0.45000000,25.27000000,-32.96000000,74.83000000
546,1778625215.24015,-0.60000000,2.50000000,0.55000000,90.82000000,8.06000000,133.18000000
547,1778625215.2401721,-0.60000000,2.50000000,0.55000000,90.82000000,8.06000000,133.18000000
548,1778625215.2401762,-0.60000000,2.50000000,0.55000000,90.82000000,8.06000000,133.18000000
549,1778625215.250898,-0.60000000,2.50000000,0.55000000,90.82000000,8.06000000,133.18000000
550,1778625215.259145,-0.60000000,2.50000000,0.55000000,90.82000000,8.06000000,133.18000000
551,1778625215.270158,-0.60000000,2.50000000,0.55000000,90.82000000,8.06000000,133.18000000
552,1778625215.2794409,-0.37000000,2.15000000,0.43000000,69.95000000,0.67000000,124.76000000
553,1778625215.291296,-0.37000000,2.15000000,0.43000000,69.95000000,0.67000000,124.76000000
554,1778625215.300821,-0.37000000,2.15000000,0.43000000,69.95000000,0.67000000,124.76000000
555,1778625215.3089879,-0.24000000,2.01000000,0.47000000,-32.47000000,44.13000000,137.82000000
556,1778625215.319979,-0.24000000,2.01000000,0.47000000,-32.47000000,44.13000000,137.82000000
557,1778625215.328948,-0.24000000,2.01000000,0.47000000,-32.47000000,44.13000000,137.82000000
558,1778625215.340527,-0.12000000,1.57000000,0.57000000,-32.47000000,44.13000000,137.82000000
559,1778625215.3501198,-0.12000000,1.57000000,0.57000000,39.49000000,18.37000000,130.55000000
560,1778625215.359024,-0.12000000,1.57000000,0.57000000,39.49000000,18.37000000,130.55000000
561,1778625215.370399,-0.12000000,1.57000000,0.57000000,39.49000000,18.37000000,130.55000000
562,1778625215.379591,-0.10000000,0.74000000,0.34000000,39.92000000,-11.11000000,126.22000000
563,1778625215.390777,-0.10000000,0.74000000,0.34000000,39.92000000,-11.11000000,126.22000000
564,1778625215.400351,-0.10000000,0.74000000,0.34000000,39.92000000,-11.11000000,126.22000000
565,1778625215.409819,-0.10000000,0.74000000,0.34000000,39.92000000,-11.11000000,126.22000000
566,1778625215.419528,-0.09000000,0.13000000,0.21000000,-21.67000000,4.58000000,126.10000000
567,1778625215.4312692,-0.09000000,0.13000000,0.21000000,-21.67000000,4.58000000,126.10000000
568,1778625215.440852,-0.09000000,0.13000000,0.21000000,-21.67000000,4.58000000,126.10000000
569,1778625215.449606,-0.09000000,0.13000000,0.21000000,-21.67000000,4.58000000,126.10000000
570,1778625215.458957,-0.19000000,-0.15000000,0.20000000,-65.86000000,-11.35000000,101.01000000
571,1778625215.471426,-0.19000000,-0.15000000,0.20000000,-65.86000000,-11.35000000,101.01000000
572,1778625215.479418,-0.19000000,-0.15000000,0.20000000,-65.86000000,-11.35000000,101.01000000
573,1778625215.491283,-0.34000000,-0.24000000,0.13000000,-65.86000000,-11.35000000,101.01000000
574,1778625215.500841,-0.34000000,-0.24000000,0.13000000,-65.86000000,-11.35000000,101.01000000
575,1778625215.509871,-0.34000000,-0.24000000,0.13000000,-65.86000000,-11.35000000,101.01000000
576,1778625215.519403,-0.34000000,-0.24000000,0.13000000,-65.86000000,-11.35000000,101.01000000
577,1778625215.531209,-0.34000000,-0.24000000,0.13000000,-65.86000000,-11.35000000,101.01000000
578,1778625215.540837,-0.34000000,-0.24000000,0.13000000,-65.86000000,-11.35000000,101.01000000
579,1778625215.5496352,-0.34000000,-0.24000000,0.13000000,-65.86000000,-11.35000000,101.01000000
580,1778625215.5589492,-0.34000000,-0.24000000,0.13000000,-65.86000000,-11.35000000,101.01000000
581,1778625215.569491,-0.34000000,-0.24000000,0.13000000,-65.86000000,-11.35000000,101.01000000
582,1778625215.579499,-0.34000000,-0.24000000,0.13000000,-65.86000000,-11.35000000,101.01000000
583,1778625215.59127,-0.29000000,-0.14000000,0.14000000,-18.01000000,-55.54000000,-2.81000000
584,1778625215.599044,-0.29000000,-0.14000000,0.14000000,-18.01000000,-55.54000000,-2.81000000
585,1778625215.6090891,-0.19000000,0.20000000,0.28000000,-14.71000000,-64.82000000,-43.82000000
586,1778625215.620533,-0.19000000,0.20000000,0.28000000,-14.71000000,-64.82000000,-43.82000000
587,1778625215.630691,-0.21000000,0.63000000,0.35000000,-19.59000000,-91.13000000,-117.13000000
588,1778625215.639202,-0.21000000,0.63000000,0.35000000,-19.59000000,-91.13000000,-117.13000000
589,1778625215.657005,-0.21000000,0.63000000,0.35000000,-19.59000000,-91.13000000,-117.13000000
590,1778625215.73119,-0.45000000,2.10000000,0.76000000,-19.59000000,-91.13000000,-117.13000000
591,1778625215.731216,-0.45000000,2.10000000,0.76000000,-19.59000000,-91.13000000,-117.13000000
592,1778625215.7312949,-0.45000000,2.10000000,0.76000000,-19.59000000,-91.13000000,-117.13000000
593,1778625215.731303,-0.45000000,2.10000000,0.76000000,-19.59000000,-91.13000000,-117.13000000
594,1778625215.7313101,-0.45000000,2.10000000,0.76000000,-19.59000000,-91.13000000,-117.13000000
595,1778625215.731313,-0.45000000,2.10000000,0.76000000,-19.59000000,-91.13000000,-117.13000000
596,1778625215.7313159,-0.45000000,2.10000000,0.76000000,-19.59000000,-91.13000000,-117.13000000
597,1778625215.7313201,-0.45000000,2.10000000,0.76000000,-19.59000000,-91.13000000,-117.13000000
598,1778625215.740389,-0.39000000,1.88000000,0.04000000,11.05000000,-179.87000000,-216.06000000
599,1778625215.7510421,-0.39000000,1.88000000,0.04000000,11.05000000,-179.87000000,-216.06000000
600,1778625215.7634308,-0.39000000,1.88000000,0.04000000,11.05000000,-179.87000000,-216.06000000
601,1778625215.7702909,-0.39000000,1.88000000,0.04000000,11.05000000,-179.87000000,-216.06000000
602,1778625215.78106,-0.14000000,2.11000000,0.21000000,-128.17000000,-141.60000000,-112.06000000
603,1778625215.790883,-0.14000000,2.11000000,0.21000000,-128.17000000,-141.60000000,-112.06000000
604,1778625215.799592,-0.14000000,2.11000000,0.21000000,-128.17000000,-141.60000000,-112.06000000
605,1778625215.811233,-0.14000000,2.11000000,0.21000000,-128.17000000,-141.60000000,-112.06000000
606,1778625215.819412,-0.07000000,1.43000000,-0.01000000,44.68000000,-153.93000000,-108.76000000
607,1778625215.8289301,-0.07000000,1.43000000,-0.01000000,44.68000000,-153.93000000,-108.76000000
608,1778625215.8389199,-0.07000000,1.43000000,-0.01000000,44.68000000,-153.93000000,-108.76000000
609,1778625215.850071,-0.07000000,1.43000000,-0.01000000,44.68000000,-153.93000000,-108.76000000
610,1778625215.859815,0.14000000,0.84000000,-0.16000000,-6.96000000,-107.18000000,-94.30000000
611,1778625215.869899,0.14000000,0.84000000,-0.16000000,-6.96000000,-107.18000000,-94.30000000
612,1778625215.879991,0.14000000,0.84000000,-0.16000000,-6.96000000,-107.18000000,-94.30000000
613,1778625215.890032,0.14000000,0.84000000,-0.16000000,-6.96000000,-107.18000000,-94.30000000
614,1778625215.900254,0.14000000,0.84000000,-0.16000000,-6.96000000,-107.18000000,-94.30000000
615,1778625215.908931,0.14000000,0.84000000,-0.16000000,-6.96000000,-107.18000000,-94.30000000
616,1778625215.919446,0.14000000,0.84000000,-0.16000000,-6.96000000,-107.18000000,-94.30000000
617,1778625215.930239,0.14000000,0.84000000,-0.16000000,-6.96000000,-107.18000000,-94.30000000
618,1778625215.939011,0.14000000,0.84000000,-0.16000000,-6.96000000,-107.18000000,-94.30000000
619,1778625215.949698,0.14000000,0.84000000,-0.16000000,-6.96000000,-107.18000000,-94.30000000
620,1778625215.9590578,0.14000000,0.84000000,-0.16000000,-6.96000000,-107.18000000,-94.30000000
621,1778625215.969504,0.39000000,0.75000000,-0.25000000,29.17000000,-72.75000000,-6.53000000
622,1778625215.980275,0.39000000,0.75000000,-0.25000000,29.17000000,-72.75000000,-6.53000000
623,1778625215.9910772,0.39000000,0.75000000,-0.25000000,29.17000000,-72.75000000,-6.53000000
624,1778625215.99968,0.39000000,0.75000000,-0.25000000,29.17000000,-72.75000000,-6.53000000
625,1778625216.0091531,0.29000000,0.43000000,-0.13000000,59.81000000,-62.50000000,30.70000000
626,1778625216.0190809,0.29000000,0.43000000,-0.13000000,59.81000000,-62.50000000,30.70000000
627,1778625216.0291042,0.29000000,0.43000000,-0.13000000,59.81000000,-62.50000000,30.70000000
628,1778625216.03894,0.29000000,0.43000000,-0.13000000,59.81000000,-62.50000000,30.70000000
629,1778625216.0489972,0.29000000,0.43000000,-0.13000000,59.81000000,-62.50000000,30.70000000
630,1778625216.0589812,0.29000000,0.43000000,-0.13000000,59.81000000,-62.50000000,30.70000000
631,1778625216.0691042,0.29000000,0.43000000,-0.13000000,59.81000000,-62.50000000,30.70000000
632,1778625216.08026,0.29000000,0.43000000,-0.13000000,59.81000000,-62.50000000,30.70000000
633,1778625216.0895202,0.29000000,0.43000000,-0.13000000,59.81000000,-62.50000000,30.70000000
634,1778625216.1012669,0.29000000,0.43000000,-0.13000000,59.81000000,-62.50000000,30.70000000
635,1778625216.108953,-0.40000000,2.61000000,0.45000000,62.32000000,-20.51000000,85.21000000
636,1778625216.118931,-0.40000000,2.61000000,0.45000000,62.32000000,-20.51000000,85.21000000
637,1778625216.130185,-0.50000000,2.35000000,0.59000000,62.32000000,-20.51000000,85.21000000
638,1778625216.138923,-0.50000000,2.35000000,0.59000000,56.95000000,-9.52000000,116.76000000
639,1778625216.1489642,-0.50000000,2.35000000,0.59000000,56.95000000,-9.52000000,116.76000000
640,1778625216.1589692,-0.50000000,2.35000000,0.59000000,56.95000000,-9.52000000,116.76000000
641,1778625216.1697228,-0.41000000,2.16000000,0.41000000,97.60000000,-15.38000000,94.30000000
642,1778625216.179508,-0.41000000,2.16000000,0.41000000,97.60000000,-15.38000000,94.30000000
643,1778625216.19008,-0.41000000,2.16000000,0.41000000,97.60000000,-15.38000000,94.30000000
644,1778625216.199307,-0.41000000,2.16000000,0.41000000,97.60000000,-15.38000000,94.30000000
645,1778625216.211359,-0.19000000,1.86000000,0.24000000,46.39000000,19.23000000,110.11000000
646,1778625216.220844,-0.19000000,1.86000000,0.24000000,46.39000000,19.23000000,110.11000000
647,1778625216.2309692,-0.19000000,1.86000000,0.24000000,46.39000000,19.23000000,110.11000000
648,1778625216.239082,-0.19000000,1.86000000,0.24000000,46.39000000,19.23000000,110.11000000
649,1778625216.249082,-0.01000000,1.19000000,0.32000000,-3.97000000,17.88000000,129.76000000
650,1778625216.25963,-0.01000000,1.19000000,0.32000000,-3.97000000,17.88000000,129.76000000
651,1778625216.2700002,-0.01000000,1.19000000,0.32000000,-3.97000000,17.88000000,129.76000000
652,1778625216.279071,-0.01000000,1.19000000,0.32000000,-3.97000000,17.88000000,129.76000000
653,1778625216.2890291,0.03000000,0.51000000,0.19000000,41.93000000,-0.61000000,94.97000000
654,1778625216.299069,0.03000000,0.51000000,0.19000000,41.93000000,-0.61000000,94.97000000
655,1778625216.309132,0.03000000,0.51000000,0.19000000,41.93000000,-0.61000000,94.97000000
656,1778625216.318937,0.03000000,0.51000000,0.19000000,41.93000000,-0.61000000,94.97000000
657,1778625216.329553,-0.03000000,0.02000000,0.19000000,12.82000000,6.84000000,75.26000000
658,1778625216.3393521,-0.03000000,0.02000000,0.19000000,12.82000000,6.84000000,75.26000000
659,1778625216.349241,-0.03000000,0.02000000,0.19000000,12.82000000,6.84000000,75.26000000
660,1778625216.3589172,-0.15000000,-0.16000000,0.21000000,-53.77000000,-12.45000000,49.93000000
661,1778625216.369577,-0.15000000,-0.16000000,0.21000000,-53.77000000,-12.45000000,49.93000000
662,1778625216.381217,-0.15000000,-0.16000000,0.21000000,-53.77000000,-12.45000000,49.93000000
663,1778625216.3890529,-0.15000000,-0.16000000,0.21000000,-53.77000000,-12.45000000,49.93000000
664,1778625216.400255,-0.38000000,-0.12000000,0.12000000,2.14000000,-31.25000000,28.93000000
665,1778625216.409003,-0.38000000,-0.12000000,0.12000000,2.14000000,-31.25000000,28.93000000
666,1778625216.4189491,-0.38000000,-0.12000000,0.12000000,2.14000000,-31.25000000,28.93000000
667,1778625216.429558,-0.38000000,-0.12000000,0.12000000,2.14000000,-31.25000000,28.93000000
668,1778625216.441351,-0.30000000,-0.14000000,0.17000000,-21.12000000,-38.51000000,41.08000000
669,1778625216.450845,-0.30000000,-0.14000000,0.17000000,-21.12000000,-38.51000000,41.08000000
670,1778625216.459779,-0.30000000,-0.14000000,0.17000000,-21.12000000,-38.51000000,41.08000000
671,1778625216.469695,-0.30000000,-0.14000000,0.17000000,-21.12000000,-38.51000000,41.08000000
672,1778625216.479033,-0.29000000,0.17000000,0.28000000,-41.02000000,-86.30000000,6.59000000
673,1778625216.489195,-0.29000000,0.17000000,0.28000000,-41.02000000,-86.30000000,6.59000000
674,1778625216.499069,-0.29000000,0.17000000,0.28000000,-41.02000000,-86.30000000,6.59000000
675,1778625216.5089548,-0.29000000,0.17000000,0.28000000,-41.02000000,-86.30000000,6.59000000
676,1778625216.519645,-0.26000000,0.61000000,0.28000000,-27.53000000,-99.73000000,-37.17000000
677,1778625216.5298932,-0.26000000,0.61000000,0.28000000,-27.53000000,-99.73000000,-37.17000000
678,1778625216.540392,-0.26000000,0.61000000,0.28000000,-27.53000000,-99.73000000,-37.17000000
679,1778625216.548954,-0.26000000,0.61000000,0.28000000,-27.53000000,-99.73000000,-37.17000000
680,1778625216.558943,-0.26000000,0.61000000,0.28000000,-27.53000000,-99.73000000,-37.17000000
681,1778625216.56898,-0.26000000,0.61000000,0.28000000,-27.53000000,-99.73000000,-37.17000000
682,1778625216.578943,-0.26000000,0.61000000,0.28000000,-27.53000000,-99.73000000,-37.17000000
683,1778625216.588918,-0.26000000,0.61000000,0.28000000,-27.53000000,-99.73000000,-37.17000000
684,1778625216.599832,-0.26000000,0.61000000,0.28000000,-27.53000000,-99.73000000,-37.17000000
685,1778625216.610668,-0.26000000,0.61000000,0.28000000,-27.53000000,-99.73000000,-37.17000000
686,1778625216.618989,-0.26000000,0.61000000,0.28000000,-27.53000000,-99.73000000,-37.17000000
687,1778625216.631329,-0.26000000,0.61000000,0.28000000,-27.53000000,-99.73000000,-37.17000000
688,1778625216.638952,-0.38000000,1.62000000,0.00000000,-28.99000000,-169.31000000,-180.91000000
689,1778625216.649706,-0.38000000,1.62000000,0.00000000,-28.99000000,-169.31000000,-180.91000000
690,1778625216.658977,-0.38000000,1.62000000,0.00000000,-28.99000000,-169.31000000,-180.91000000
691,1778625216.669021,-0.32000000,1.50000000,0.11000000,-79.28000000,-117.19000000,-120.30000000
692,1778625216.6791239,-0.32000000,1.50000000,0.11000000,-79.28000000,-117.19000000,-120.30000000
693,1778625216.689111,-0.32000000,1.50000000,0.11000000,-79.28000000,-117.19000000,-120.30000000
694,1778625216.700119,-0.24000000,1.08000000,0.04000000,15.56000000,-149.96000000,-157.17000000
695,1778625216.708986,-0.24000000,1.08000000,0.04000000,15.56000000,-149.96000000,-157.17000000
696,1778625216.720473,-0.24000000,1.08000000,0.04000000,15.56000000,-149.96000000,-157.17000000
697,1778625216.728998,-0.24000000,1.08000000,0.04000000,15.56000000,-149.96000000,-157.17000000
698,1778625216.738931,-0.03000000,1.17000000,-0.14000000,-97.72000000,-90.82000000,-126.46000000
699,1778625216.750129,-0.03000000,1.17000000,-0.14000000,-97.72000000,-90.82000000,-126.46000000
700,1778625216.758938,-0.03000000,1.17000000,-0.14000000,-97.72000000,-90.82000000,-126.46000000
701,1778625216.769115,-0.03000000,1.17000000,-0.14000000,-97.72000000,-90.82000000,-126.46000000
702,1778625216.779095,0.23000000,0.88000000,-0.15000000,96.37000000,-121.03000000,-93.32000000
703,1778625216.79138,0.23000000,0.88000000,-0.15000000,96.37000000,-121.03000000,-93.32000000
704,1778625216.79977,0.23000000,0.88000000,-0.15000000,96.37000000,-121.03000000,-93.32000000
705,1778625216.8089862,0.23000000,0.88000000,-0.15000000,96.37000000,-121.03000000,-93.32000000
706,1778625216.8190012,0.25000000,0.86000000,-0.34000000,48.95000000,-97.35000000,-93.02000000
707,1778625216.8313909,0.25000000,0.86000000,-0.34000000,48.95000000,-97.35000000,-93.02000000
708,1778625216.838944,0.25000000,0.86000000,-0.34000000,48.95000000,-97.35000000,-93.02000000
709,1778625216.850174,0.25000000,0.86000000,-0.34000000,48.95000000,-97.35000000,-93.02000000
710,1778625216.859788,0.33000000,1.15000000,-0.25000000,14.89000000,-45.29000000,-0.37000000
711,1778625216.8689349,0.33000000,1.15000000,-0.25000000,14.89000000,-45.29000000,-0.37000000
712,1778625216.88013,0.33000000,1.15000000,-0.25000000,14.89000000,-45.29000000,-0.37000000
713,1778625216.889033,0.11000000,1.30000000,-0.13000000,57.68000000,-22.64000000,18.19000000
714,1778625216.89972,0.11000000,1.30000000,-0.13000000,57.68000000,-22.64000000,18.19000000
715,1778625216.90896,0.11000000,1.30000000,-0.13000000,57.68000000,-22.64000000,18.19000000
716,1778625216.91903,0.11000000,1.30000000,-0.13000000,57.68000000,-22.64000000,18.19000000
717,1778625216.9296699,-0.14000000,2.32000000,0.28000000,4.27000000,-0.55000000,91.55000000
718,1778625216.940334,-0.14000000,2.32000000,0.28000000,4.27000000,-0.55000000,91.55000000
719,1778625216.9489548,-0.14000000,2.32000000,0.28000000,4.27000000,-0.55000000,91.55000000
720,1778625216.959028,-0.14000000,2.32000000,0.28000000,4.27000000,-0.55000000,91.55000000
721,1778625216.970141,-0.14000000,2.32000000,0.28000000,4.27000000,-0.55000000,91.55000000
722,1778625216.981034,-0.14000000,2.32000000,0.28000000,4.27000000,-0.55000000,91.55000000
723,1778625216.989187,-0.14000000,2.32000000,0.28000000,4.27000000,-0.55000000,91.55000000
724,1778625216.9998798,-0.14000000,2.32000000,0.28000000,4.27000000,-0.55000000,91.55000000
725,1778625217.010577,-0.14000000,2.32000000,0.28000000,4.27000000,-0.55000000,91.55000000
726,1778625217.018933,-0.61000000,2.32000000,0.52000000,17.82000000,-14.40000000,118.10000000
727,1778625217.0312629,-0.61000000,2.45000000,0.29000000,50.60000000,-14.47000000,132.51000000
728,1778625217.0397298,-0.61000000,2.45000000,0.29000000,50.60000000,-14.47000000,132.51000000
729,1778625217.0491211,-0.61000000,2.45000000,0.29000000,50.60000000,-14.47000000,132.51000000
730,1778625217.059128,-0.50000000,1.85000000,0.28000000,71.59000000,18.01000000,149.35000000
731,1778625217.069765,-0.50000000,1.85000000,0.28000000,71.59000000,18.01000000,149.35000000
732,1778625217.0789928,-0.50000000,1.85000000,0.28000000,71.59000000,18.01000000,149.35000000
733,1778625217.089979,-0.50000000,1.85000000,0.28000000,71.59000000,18.01000000,149.35000000
734,1778625217.101132,-0.50000000,1.85000000,0.28000000,71.59000000,18.01000000,149.35000000
735,1778625217.108989,-0.50000000,1.85000000,0.28000000,71.59000000,18.01000000,149.35000000
736,1778625217.119773,-0.50000000,1.85000000,0.28000000,71.59000000,18.01000000,149.35000000
737,1778625217.129618,-0.50000000,1.85000000,0.28000000,71.59000000,18.01000000,149.35000000
738,1778625217.139072,-0.50000000,1.85000000,0.28000000,71.59000000,18.01000000,149.35000000
739,1778625217.149389,-0.26000000,0.51000000,0.22000000,51.45000000,10.31000000,112.98000000
740,1778625217.1601799,-0.21000000,0.05000000,0.19000000,51.45000000,10.31000000,112.98000000
741,1778625217.168949,-0.21000000,0.05000000,0.19000000,24.05000000,5.92000000,101.38000000
742,1778625217.179633,-0.21000000,0.05000000,0.19000000,24.05000000,5.92000000,101.38000000
743,1778625217.188919,-0.21000000,0.05000000,0.19000000,24.05000000,5.92000000,101.38000000
744,1778625217.198953,-0.25000000,-0.14000000,0.20000000,24.05000000,5.92000000,101.38000000
745,1778625217.209003,-0.25000000,-0.14000000,0.20000000,-46.63000000,22.34000000,64.39000000
746,1778625217.2190468,-0.25000000,-0.14000000,0.20000000,-46.63000000,22.34000000,64.39000000
747,1778625217.229384,-0.25000000,-0.14000000,0.20000000,-46.63000000,22.34000000,64.39000000
748,1778625217.239327,-0.26000000,-0.24000000,0.29000000,-17.94000000,4.94000000,44.98000000
749,1778625217.248937,-0.26000000,-0.24000000,0.29000000,-17.94000000,4.94000000,44.98000000
750,1778625217.258968,-0.26000000,-0.24000000,0.29000000,-17.94000000,4.94000000,44.98000000
751,1778625217.268935,-0.26000000,-0.24000000,0.29000000,-17.94000000,4.94000000,44.98000000
752,1778625217.2789419,-0.28000000,-0.21000000,0.18000000,-12.70000000,-25.51000000,5.19000000
753,1778625217.289483,-0.28000000,-0.21000000,0.18000000,-12.70000000,-25.51000000,5.19000000
754,1778625217.3005629,-0.28000000,-0.21000000,0.18000000,-12.70000000,-25.51000000,5.19000000
755,1778625217.3089988,-0.28000000,-0.21000000,0.18000000,-12.70000000,-25.51000000,5.19000000
756,1778625217.3191192,-0.06000000,0.32000000,0.20000000,-50.23000000,-35.64000000,-22.22000000
757,1778625217.329035,-0.06000000,0.32000000,0.20000000,-50.23000000,-35.64000000,-22.22000000
758,1778625217.3390331,-0.06000000,0.32000000,0.20000000,-50.23000000,-35.64000000,-22.22000000
759,1778625217.350301,-0.06000000,0.32000000,0.20000000,-50.23000000,-35.64000000,-22.22000000
760,1778625217.3589702,-0.12000000,0.44000000,0.29000000,16.66000000,-97.66000000,0.24000000
761,1778625217.370197,-0.12000000,0.44000000,0.29000000,16.66000000,-97.66000000,0.24000000
762,1778625217.378939,-0.12000000,0.44000000,0.29000000,16.66000000,-97.66000000,0.24000000
763,1778625217.390504,-0.31000000,1.45000000,0.17000000,-88.50000000,-152.04000000,-152.53000000
764,1778625217.3989508,-0.31000000,1.45000000,0.17000000,-88.50000000,-152.04000000,-152.53000000
765,1778625217.409017,-0.31000000,1.45000000,0.17000000,-88.50000000,-152.04000000,-152.53000000
766,1778625217.419063,-0.31000000,1.45000000,0.17000000,-88.50000000,-152.04000000,-152.53000000
767,1778625217.428928,-0.16000000,1.58000000,0.28000000,7.93000000,-130.43000000,-96.80000000
768,1778625217.439008,-0.16000000,1.58000000,0.28000000,7.93000000,-130.43000000,-96.80000000
769,1778625217.449188,-0.16000000,1.58000000,0.28000000,7.93000000,-130.43000000,-96.80000000
770,1778625217.458946,-0.16000000,1.58000000,0.28000000,7.93000000,-130.43000000,-96.80000000
771,1778625217.469277,-0.37000000,1.59000000,0.18000000,-42.24000000,-152.16000000,-193.66000000
772,1778625217.4804878,-0.37000000,1.59000000,0.18000000,-42.24000000,-152.16000000,-193.66000000
773,1778625217.488986,-0.37000000,1.59000000,0.18000000,-42.24000000,-152.16000000,-193.66000000
774,1778625217.498951,-0.37000000,1.59000000,0.18000000,-42.24000000,-152.16000000,-193.66000000
775,1778625217.508957,-0.32000000,1.73000000,0.24000000,-78.31000000,-107.24000000,-141.91000000
776,1778625217.5209658,-0.32000000,1.73000000,0.24000000,-78.31000000,-107.24000000,-141.91000000
777,1778625217.529044,-0.32000000,1.73000000,0.24000000,-78.31000000,-107.24000000,-141.91000000
778,1778625217.541367,-0.20000000,1.10000000,0.00000000,-78.31000000,-107.24000000,-141.91000000
779,1778625217.548954,-0.20000000,1.10000000,0.00000000,-2.87000000,-129.88000000,-152.95000000
780,1778625217.559047,-0.20000000,1.10000000,0.00000000,-2.87000000,-129.88000000,-152.95000000
781,1778625217.569037,-0.20000000,1.10000000,0.00000000,-2.87000000,-129.88000000,-152.95000000
782,1778625217.578915,-0.16000000,1.12000000,0.01000000,-2.87000000,-129.88000000,-152.95000000
783,1778625217.590081,-0.16000000,1.12000000,0.01000000,-121.22000000,-67.69000000,-161.44000000
784,1778625217.599005,-0.16000000,1.12000000,0.01000000,-121.22000000,-67.69000000,-161.44000000
785,1778625217.609091,-0.16000000,1.12000000,0.01000000,-121.22000000,-67.69000000,-161.44000000
786,1778625217.618953,-0.16000000,1.12000000,0.01000000,-121.22000000,-67.69000000,-161.44000000
787,1778625217.628978,-0.16000000,1.12000000,0.01000000,-121.22000000,-67.69000000,-161.44000000
788,1778625217.6389272,-0.16000000,1.12000000,0.01000000,-121.22000000,-67.69000000,-161.44000000
789,1778625217.651264,-0.16000000,1.12000000,0.01000000,-121.22000000,-67.69000000,-161.44000000
790,1778625217.659029,-0.16000000,1.12000000,0.01000000,-121.22000000,-67.69000000,-161.44000000
791,1778625217.668938,-0.16000000,1.12000000,0.01000000,-121.22000000,-67.69000000,-161.44000000
792,1778625217.678923,-0.16000000,1.12000000,0.01000000,-121.22000000,-67.69000000,-161.44000000
793,1778625217.6890361,0.29000000,0.67000000,-0.38000000,56.64000000,-49.99000000,-70.13000000
794,1778625217.700018,0.35000000,0.87000000,-0.21000000,24.23000000,-40.59000000,2.69000000
795,1778625217.709208,0.35000000,0.87000000,-0.21000000,24.23000000,-40.59000000,2.69000000
796,1778625217.72048,0.35000000,0.87000000,-0.21000000,24.23000000,-40.59000000,2.69000000
797,1778625217.7290308,0.35000000,0.87000000,-0.21000000,24.23000000,-40.59000000,2.69000000
798,1778625217.738959,0.21000000,0.79000000,-0.14000000,64.21000000,-14.53000000,22.09000000
799,1778625217.74896,0.21000000,0.79000000,-0.14000000,64.21000000,-14.53000000,22.09000000
800,1778625217.759114,0.21000000,0.79000000,-0.14000000,64.21000000,-14.53000000,22.09000000
801,1778625217.769006,0.21000000,0.79000000,-0.14000000,64.21000000,-14.53000000,22.09000000
802,1778625217.779656,-0.03000000,1.49000000,0.11000000,-17.58000000,12.94000000,52.98000000
803,1778625217.788928,-0.03000000,1.49000000,0.11000000,-17.58000000,12.94000000,52.98000000
804,1778625217.798931,-0.03000000,1.49000000,0.11000000,-17.58000000,12.94000000,52.98000000
805,1778625217.808914,-0.46000000,2.56000000,0.36000000,-7.08000000,-6.59000000,103.09000000
806,1778625217.820051,-0.46000000,2.56000000,0.36000000,-7.08000000,-6.59000000,103.09000000
807,1778625217.828919,-0.46000000,2.56000000,0.36000000,-7.08000000,-6.59000000,103.09000000
808,1778625217.838928,-0.46000000,2.56000000,0.36000000,-7.08000000,-6.59000000,103.09000000
809,1778625217.8510652,-0.64000000,2.35000000,0.37000000,94.97000000,15.08000000,119.38000000
810,1778625217.8591402,-0.64000000,2.35000000,0.37000000,94.97000000,15.08000000,119.38000000
811,1778625217.871337,-0.64000000,2.35000000,0.37000000,94.97000000,15.08000000,119.38000000
812,1778625217.8789241,-0.64000000,2.35000000,0.37000000,94.97000000,15.08000000,119.38000000
813,1778625217.8889668,-0.66000000,2.21000000,0.37000000,15.99000000,24.78000000,153.14000000
814,1778625217.899046,-0.66000000,2.21000000,0.37000000,15.99000000,24.78000000,153.14000000
815,1778625217.909088,-0.66000000,2.21000000,0.37000000,15.99000000,24.78000000,153.14000000
816,1778625217.918934,-0.59000000,1.72000000,0.35000000,37.72000000,28.14000000,124.27000000
817,1778625217.928944,-0.59000000,1.72000000,0.35000000,37.72000000,28.14000000,124.27000000
818,1778625217.938967,-0.59000000,1.72000000,0.35000000,37.72000000,28.14000000,124.27000000
819,1778625217.949007,-0.59000000,1.72000000,0.35000000,37.72000000,28.14000000,124.27000000
820,1778625217.959445,-0.46000000,1.23000000,0.30000000,37.72000000,28.14000000,124.27000000
821,1778625217.9712799,-0.46000000,1.23000000,0.30000000,40.95000000,32.04000000,112.18000000
822,1778625217.979062,-0.46000000,1.23000000,0.30000000,40.95000000,32.04000000,112.18000000
823,1778625217.9898582,-0.46000000,1.23000000,0.30000000,40.95000000,32.04000000,112.18000000
824,1778625218.000677,-0.46000000,1.23000000,0.30000000,40.95000000,32.04000000,112.18000000
825,1778625218.00898,-0.46000000,1.23000000,0.30000000,40.95000000,32.04000000,112.18000000
826,1778625218.019176,-0.46000000,1.23000000,0.30000000,40.95000000,32.04000000,112.18000000
827,1778625218.030025,-0.46000000,1.23000000,0.30000000,40.95000000,32.04000000,112.18000000
828,1778625218.0390148,-0.46000000,1.23000000,0.30000000,40.95000000,32.04000000,112.18000000
829,1778625218.050656,-0.46000000,1.23000000,0.30000000,40.95000000,32.04000000,112.18000000
830,1778625218.059254,-0.46000000,1.23000000,0.30000000,40.95000000,32.04000000,112.18000000
831,1778625218.068931,-0.16000000,0.21000000,0.22000000,28.93000000,19.23000000,76.72000000
832,1778625218.078975,-0.15000000,-0.04000000,0.20000000,-21.42000000,14.53000000,78.25000000
833,1778625218.0893922,-0.15000000,-0.04000000,0.20000000,-21.42000000,14.53000000,78.25000000
834,1778625218.098968,-0.15000000,-0.04000000,0.20000000,-21.42000000,14.53000000,78.25000000
835,1778625218.109211,-0.15000000,-0.04000000,0.20000000,-21.42000000,14.53000000,78.25000000
836,1778625218.1205409,-0.22000000,-0.19000000,0.17000000,-29.48000000,5.74000000,67.63000000
837,1778625218.129607,-0.22000000,-0.19000000,0.17000000,-29.48000000,5.74000000,67.63000000
838,1778625218.139342,-0.22000000,-0.19000000,0.17000000,-29.48000000,5.74000000,67.63000000
839,1778625218.1490119,-0.22000000,-0.19000000,0.17000000,-29.48000000,5.74000000,67.63000000
840,1778625218.161398,-0.22000000,-0.19000000,0.17000000,-29.48000000,5.74000000,67.63000000
841,1778625218.1694279,-0.22000000,-0.19000000,0.17000000,-29.48000000,5.74000000,67.63000000
842,1778625218.1790981,-0.22000000,-0.19000000,0.17000000,-29.48000000,5.74000000,67.63000000
843,1778625218.1905138,-0.22000000,-0.19000000,0.17000000,-29.48000000,5.74000000,67.63000000
844,1778625218.199496,-0.20000000,-0.12000000,0.30000000,18.92000000,-34.30000000,-10.93000000
845,1778625218.2089732,-0.20000000,-0.12000000,0.30000000,18.92000000,-34.30000000,-10.93000000
846,1778625218.21893,-0.20000000,-0.12000000,0.30000000,18.92000000,-34.30000000,-10.93000000
847,1778625218.231403,0.12000000,0.31000000,0.52000000,-12.76000000,-114.01000000,-67.93000000
848,1778625218.2408059,0.12000000,0.31000000,0.52000000,-12.76000000,-114.01000000,-67.93000000
849,1778625218.2505522,0.12000000,0.31000000,0.52000000,-12.76000000,-114.01000000,-67.93000000
850,1778625218.258962,0.12000000,0.31000000,0.52000000,-12.76000000,-114.01000000,-67.93000000
851,1778625218.2689762,-0.45000000,1.56000000,0.38000000,-106.14000000,-157.35000000,-138.24000000
852,1778625218.28141,-0.45000000,1.56000000,0.38000000,-106.14000000,-157.35000000,-138.24000000
853,1778625218.288995,-0.45000000,1.56000000,0.38000000,-106.14000000,-157.35000000,-138.24000000
854,1778625218.300677,-0.73000000,1.61000000,0.13000000,117.80000000,-181.76000000,-205.51000000
855,1778625218.309265,-0.73000000,1.61000000,0.13000000,117.80000000,-181.76000000,-205.51000000
856,1778625218.318957,-0.73000000,1.61000000,0.13000000,117.80000000,-181.76000000,-205.51000000
857,1778625218.328955,-0.73000000,1.61000000,0.13000000,117.80000000,-181.76000000,-205.51000000
858,1778625218.339286,-0.72000000,1.94000000,-0.22000000,8.00000000,-135.07000000,-211.24000000
859,1778625218.3506901,-0.72000000,1.94000000,-0.22000000,8.00000000,-135.07000000,-211.24000000
860,1778625218.3593159,-0.72000000,1.94000000,-0.22000000,8.00000000,-135.07000000,-211.24000000
861,1778625218.368973,-0.72000000,1.94000000,-0.22000000,8.00000000,-135.07000000,-211.24000000
862,1778625218.379987,-0.50000000,1.86000000,0.23000000,-44.37000000,-82.76000000,-116.70000000
863,1778625218.3894,-0.50000000,1.86000000,0.23000000,-44.37000000,-82.76000000,-116.70000000
864,1778625218.399649,-0.50000000,1.86000000,0.23000000,-44.37000000,-82.76000000,-116.70000000
865,1778625218.4089751,-0.50000000,1.86000000,0.23000000,-44.37000000,-82.76000000,-116.70000000
866,1778625218.419443,-0.24000000,1.38000000,0.12000000,52.25000000,-108.64000000,-136.23000000
867,1778625218.430352,-0.24000000,1.38000000,0.12000000,52.25000000,-108.64000000,-136.23000000
868,1778625218.4389179,-0.24000000,1.38000000,0.12000000,52.25000000,-108.64000000,-136.23000000
869,1778625218.449318,-0.24000000,1.38000000,0.12000000,52.25000000,-108.64000000,-136.23000000
870,1778625218.459296,0.01000000,1.15000000,-0.06000000,12.33000000,-91.31000000,-101.07000000
871,1778625218.4689438,0.01000000,1.15000000,-0.06000000,12.33000000,-91.31000000,-101.07000000
872,1778625218.479101,0.01000000,1.15000000,-0.06000000,12.33000000,-91.31000000,-101.07000000
873,1778625218.489045,0.01000000,1.15000000,-0.06000000,12.33000000,-91.31000000,-101.07000000
874,1778625218.5006971,0.23000000,0.81000000,-0.11000000,58.90000000,-92.77000000,-62.13000000
875,1778625218.509485,0.23000000,0.81000000,-0.11000000,58.90000000,-92.77000000,-62.13000000
876,1778625218.5201962,0.23000000,0.81000000,-0.11000000,58.90000000,-92.77000000,-62.13000000
877,1778625218.530082,0.23000000,0.81000000,-0.11000000,58.90000000,-92.77000000,-62.13000000
878,1778625218.53909,0.29000000,0.55000000,-0.19000000,38.82000000,-81.54000000,-29.54000000
879,1778625218.5489972,0.29000000,0.55000000,-0.19000000,38.82000000,-81.54000000,-29.54000000
880,1778625218.5593338,0.29000000,0.55000000,-0.19000000,38.82000000,-81.54000000,-29.54000000
881,1778625218.570378,0.27000000,0.71000000,-0.18000000,21.67000000,-49.80000000,13.06000000
882,1778625218.579885,0.27000000,0.71000000,-0.18000000,21.67000000,-49.80000000,13.06000000
883,1778625218.588947,0.27000000,0.71000000,-0.18000000,21.67000000,-49.80000000,13.06000000
884,1778625218.6007318,0.27000000,0.71000000,-0.18000000,21.67000000,-49.80000000,13.06000000
885,1778625218.609416,0.07000000,1.08000000,-0.14000000,37.96000000,-26.43000000,61.83000000
886,1778625218.6202009,0.07000000,1.08000000,-0.14000000,37.96000000,-26.43000000,61.83000000
887,1778625218.629845,0.07000000,1.08000000,-0.14000000,37.96000000,-26.43000000,61.83000000
888,1778625218.639057,0.07000000,1.08000000,-0.14000000,37.96000000,-26.43000000,61.83000000
889,1778625218.650752,0.07000000,1.08000000,-0.14000000,37.96000000,-26.43000000,61.83000000
890,1778625218.6590788,0.07000000,1.08000000,-0.14000000,37.96000000,-26.43000000,61.83000000
891,1778625218.670304,0.07000000,1.08000000,-0.14000000,37.96000000,-26.43000000,61.83000000
892,1778625218.6797912,0.07000000,1.08000000,-0.14000000,37.96000000,-26.43000000,61.83000000
893,1778625218.688973,0.07000000,1.08000000,-0.14000000,37.96000000,-26.43000000,61.83000000
894,1778625218.700738,0.07000000,1.08000000,-0.14000000,37.96000000,-26.43000000,61.83000000
895,1778625218.709424,0.07000000,1.08000000,-0.14000000,37.96000000,-26.43000000,61.83000000
896,1778625218.720512,0.07000000,1.08000000,-0.14000000,37.96000000,-26.43000000,61.83000000
897,1778625218.728958,-0.54000000,2.47000000,0.13000000,-44.62000000,9.52000000,123.41000000
898,1778625218.740083,-0.54000000,2.47000000,0.13000000,-44.62000000,9.52000000,123.41000000
899,1778625218.750741,-0.54000000,2.47000000,0.13000000,-44.62000000,9.52000000,123.41000000
900,1778625218.759635,-0.54000000,2.47000000,0.13000000,-44.62000000,9.52000000,123.41000000
901,1778625218.770238,-0.55000000,2.31000000,0.12000000,54.75000000,1.65000000,113.16000000
902,1778625218.778941,-0.55000000,2.31000000,0.12000000,54.75000000,1.65000000,113.16000000
903,1778625218.78895,-0.55000000,2.31000000,0.12000000,54.75000000,1.65000000,113.16000000
904,1778625218.8007522,-0.36000000,1.86000000,0.00000000,43.40000000,27.83000000,98.21000000
905,1778625218.809477,-0.36000000,1.86000000,0.00000000,43.40000000,27.83000000,98.21000000
906,1778625218.820255,-0.36000000,1.86000000,0.00000000,43.40000000,27.83000000,98.21000000
907,1778625218.829154,-0.36000000,1.86000000,0.00000000,43.40000000,27.83000000,98.21000000
908,1778625218.838916,-0.18000000,1.43000000,0.08000000,36.32000000,43.27000000,105.16000000
909,1778625218.8510349,-0.18000000,1.43000000,0.08000000,36.32000000,43.27000000,105.16000000
910,1778625218.861881,-0.18000000,1.43000000,0.08000000,36.32000000,43.27000000,105.16000000
911,1778625218.86911,-0.18000000,1.43000000,0.08000000,36.32000000,43.27000000,105.16000000
912,1778625218.8789499,-0.06000000,0.65000000,0.15000000,36.38000000,42.36000000,94.54000000
913,1778625218.8889332,-0.06000000,0.65000000,0.15000000,36.38000000,42.36000000,94.54000000
914,1778625218.8989482,-0.06000000,0.65000000,0.15000000,36.38000000,42.36000000,94.54000000
915,1778625218.9098089,-0.07000000,0.26000000,0.18000000,6.96000000,43.03000000,87.83000000
916,1778625218.919219,-0.07000000,0.26000000,0.18000000,6.96000000,43.03000000,87.83000000
917,1778625218.9310222,-0.07000000,0.26000000,0.18000000,6.96000000,43.03000000,87.83000000
918,1778625218.9393432,-0.08000000,-0.07000000,0.25000000,-32.41000000,40.22000000,80.20000000
919,1778625218.950782,-0.08000000,-0.07000000,0.25000000,-32.41000000,40.22000000,80.20000000
920,1778625218.9595048,-0.08000000,-0.07000000,0.25000000,-32.41000000,40.22000000,80.20000000
921,1778625218.969145,-0.08000000,-0.07000000,0.25000000,-32.41000000,40.22000000,80.20000000
922,1778625218.979219,-0.20000000,-0.23000000,0.26000000,-43.09000000,11.41000000,75.20000000
923,1778625218.98897,-0.20000000,-0.23000000,0.26000000,-43.09000000,11.41000000,75.20000000
924,1778625219.00087,-0.20000000,-0.23000000,0.26000000,-43.09000000,11.41000000,75.20000000
925,1778625219.010019,-0.20000000,-0.23000000,0.26000000,-43.09000000,11.41000000,75.20000000
926,1778625219.019049,-0.22000000,-0.27000000,0.18000000,-37.54000000,-21.67000000,59.57000000
927,1778625219.029196,-0.22000000,-0.27000000,0.18000000,-37.54000000,-21.67000000,59.57000000
928,1778625219.0392058,-0.22000000,-0.27000000,0.18000000,-37.54000000,-21.67000000,59.57000000
929,1778625219.050884,-0.22000000,-0.27000000,0.18000000,-37.54000000,-21.67000000,59.57000000
930,1778625219.0594518,-0.22000000,-0.27000000,0.18000000,-37.54000000,-21.67000000,59.57000000
931,1778625219.069133,-0.22000000,-0.27000000,0.18000000,-37.54000000,-21.67000000,59.57000000
932,1778625219.0801878,-0.22000000,-0.27000000,0.18000000,-37.54000000,-21.67000000,59.57000000
933,1778625219.0889568,-0.22000000,-0.27000000,0.18000000,-37.54000000,-21.67000000,59.57000000
934,1778625219.100804,-0.22000000,-0.27000000,0.18000000,-37.54000000,-21.67000000,59.57000000
935,1778625219.10992,-0.22000000,-0.27000000,0.18000000,-37.54000000,-21.67000000,59.57000000
936,1778625219.119186,-0.16000000,-0.06000000,0.13000000,-15.32000000,-35.83000000,9.89000000
937,1778625219.128951,-0.32000000,1.19000000,0.27000000,-15.32000000,-35.83000000,9.89000000
938,1778625219.1389859,-0.32000000,1.19000000,0.27000000,-89.23000000,-123.23000000,-119.38000000
939,1778625219.150793,-0.32000000,1.19000000,0.27000000,-89.23000000,-123.23000000,-119.38000000
940,1778625219.1601899,-0.32000000,1.19000000,0.27000000,-89.23000000,-123.23000000,-119.38000000
941,1778625219.168969,-0.32000000,1.19000000,0.27000000,-89.23000000,-123.23000000,-119.38000000
942,1778625219.1803021,-0.32000000,1.19000000,0.27000000,-89.23000000,-123.23000000,-119.38000000
943,1778625219.189004,-0.32000000,1.19000000,0.27000000,-89.23000000,-123.23000000,-119.38000000
944,1778625219.2012181,-0.32000000,1.19000000,0.27000000,-89.23000000,-123.23000000,-119.38000000
945,1778625219.209522,-0.32000000,1.19000000,0.27000000,-89.23000000,-123.23000000,-119.38000000
946,1778625219.218936,-0.32000000,1.19000000,0.27000000,-89.23000000,-123.23000000,-119.38000000
947,1778625219.229066,-0.32000000,1.19000000,0.27000000,-89.23000000,-123.23000000,-119.38000000
948,1778625219.23893,-0.32000000,1.19000000,0.27000000,-89.23000000,-123.23000000,-119.38000000
949,1778625219.250808,-0.51000000,2.07000000,-0.05000000,-111.57000000,-132.93000000,-183.29000000
950,1778625219.259528,-0.51000000,2.07000000,-0.05000000,-111.57000000,-132.93000000,-183.29000000
951,1778625219.2696588,-0.51000000,2.07000000,-0.05000000,-111.57000000,-132.93000000,-183.29000000
952,1778625219.278951,-0.51000000,2.07000000,-0.05000000,-111.57000000,-132.93000000,-183.29000000
953,1778625219.289393,-0.22000000,1.72000000,0.07000000,-13.06000000,-90.27000000,-129.94000000
954,1778625219.300801,-0.22000000,1.72000000,0.07000000,-13.06000000,-90.27000000,-129.94000000
955,1778625219.3095412,-0.22000000,1.72000000,0.07000000,-13.06000000,-90.27000000,-129.94000000
956,1778625219.319029,-0.14000000,1.03000000,-0.17000000,-13.06000000,-90.27000000,-129.94000000
957,1778625219.3289878,-0.14000000,1.03000000,-0.17000000,40.89000000,-124.33000000,-122.13000000
958,1778625219.338995,-0.14000000,1.03000000,-0.17000000,40.89000000,-124.33000000,-122.13000000
959,1778625219.3489301,-0.14000000,1.03000000,-0.17000000,40.89000000,-124.33000000,-122.13000000
960,1778625219.3596811,0.04000000,0.89000000,-0.20000000,-2.08000000,-95.95000000,-91.25000000
961,1778625219.36894,0.04000000,0.89000000,-0.20000000,-2.08000000,-95.95000000,-91.25000000
962,1778625219.379041,0.04000000,0.89000000,-0.20000000,-2.08000000,-95.95000000,-91.25000000
963,1778625219.388952,0.04000000,0.89000000,-0.20000000,-2.08000000,-95.95000000,-91.25000000
964,1778625219.400836,0.23000000,0.70000000,-0.19000000,33.63000000,-89.17000000,-49.32000000
965,1778625219.409641,0.23000000,0.70000000,-0.19000000,33.63000000,-89.17000000,-49.32000000
966,1778625219.418957,0.23000000,0.70000000,-0.19000000,33.63000000,-89.17000000,-49.32000000
967,1778625219.429932,0.23000000,0.70000000,-0.19000000,33.63000000,-89.17000000,-49.32000000
968,1778625219.439072,0.27000000,0.53000000,-0.19000000,49.93000000,-73.12000000,-29.36000000
969,1778625219.4508579,0.27000000,0.53000000,-0.19000000,49.93000000,-73.12000000,-29.36000000
970,1778625219.459585,0.27000000,0.53000000,-0.19000000,49.93000000,-73.12000000,-29.36000000
971,1778625219.469148,0.27000000,0.53000000,-0.19000000,49.93000000,-73.12000000,-29.36000000
972,1778625219.4789948,0.28000000,0.60000000,-0.10000000,67.02000000,-63.29000000,-2.75000000
973,1778625219.488946,0.28000000,0.60000000,-0.10000000,67.02000000,-63.29000000,-2.75000000
974,1778625219.500819,0.28000000,0.60000000,-0.10000000,67.02000000,-63.29000000,-2.75000000
975,1778625219.5102139,0.16000000,0.90000000,0.06000000,23.62000000,-54.08000000,45.72000000
976,1778625219.52099,0.16000000,0.90000000,0.06000000,23.62000000,-54.08000000,45.72000000
977,1778625219.530545,0.16000000,0.90000000,0.06000000,23.62000000,-54.08000000,45.72000000
978,1778625219.539285,0.16000000,0.90000000,0.06000000,23.62000000,-54.08000000,45.72000000
979,1778625219.550833,-0.18000000,1.65000000,0.13000000,68.73000000,-40.28000000,29.72000000
980,1778625219.559884,-0.18000000,1.65000000,0.13000000,68.73000000,-40.28000000,29.72000000
981,1778625219.569591,-0.18000000,1.65000000,0.13000000,68.73000000,-40.28000000,29.72000000
982,1778625219.5793421,-0.18000000,1.65000000,0.13000000,68.73000000,-40.28000000,29.72000000
983,1778625219.589474,-0.57000000,2.73000000,0.25000000,41.81000000,-38.82000000,71.53000000
984,1778625219.600867,-0.57000000,2.73000000,0.25000000,41.81000000,-38.82000000,71.53000000
985,1778625219.609813,-0.57000000,2.73000000,0.25000000,41.81000000,-38.82000000,71.53000000
986,1778625219.619621,-0.57000000,2.73000000,0.25000000,41.81000000,-38.82000000,71.53000000
987,1778625219.631062,-0.65000000,2.53000000,0.17000000,72.51000000,-12.70000000,128.91000000
988,1778625219.639165,-0.65000000,2.53000000,0.17000000,72.51000000,-12.70000000,128.91000000
989,1778625219.6508532,-0.65000000,2.53000000,0.17000000,72.51000000,-12.70000000,128.91000000
990,1778625219.6599581,-0.66000000,2.28000000,0.15000000,72.51000000,-12.70000000,128.91000000
991,1778625219.668968,-0.66000000,2.28000000,0.15000000,50.60000000,4.94000000,119.57000000
992,1778625219.679014,-0.66000000,2.28000000,0.15000000,50.60000000,4.94000000,119.57000000
993,1778625219.689177,-0.66000000,2.28000000,0.15000000,50.60000000,4.94000000,119.57000000
994,1778625219.700845,-0.66000000,2.28000000,0.15000000,50.60000000,4.94000000,119.57000000
995,1778625219.709723,-0.66000000,2.28000000,0.15000000,50.60000000,4.94000000,119.57000000
996,1778625219.718922,-0.66000000,2.28000000,0.15000000,50.60000000,4.94000000,119.57000000
997,1778625219.72912,-0.66000000,2.28000000,0.15000000,50.60000000,4.94000000,119.57000000
998,1778625219.73904,-0.66000000,2.28000000,0.15000000,50.60000000,4.94000000,119.57000000
999,1778625219.7508302,-0.66000000,2.28000000,0.15000000,50.60000000,4.94000000,119.57000000
1000,1778625219.759774,-0.66000000,2.28000000,0.15000000,50.60000000,4.94000000,119.57000000
