id,timestamp,acc_x,acc_y,acc_z,gyro_x,gyro_y,gyro_z
1,1778625476.938546,-0.95000000,1.21000000,-0.68000000,45.04000000,-116.21000000,-46.45000000
2,1778625476.950538,1.20000000,2.01000000,-0.64000000,77.03000000,-92.96000000,-63.42000000
3,1778625476.958689,1.20000000,2.01000000,-0.64000000,77.03000000,-92.96000000,-63.42000000
4,1778625476.972451,1.20000000,2.01000000,-0.64000000,77.03000000,-92.96000000,-63.42000000
5,1778625476.978584,1.20000000,2.01000000,-0.64000000,77.03000000,-92.96000000,-63.42000000
6,1778625476.988796,0.47000000,1.37000000,-0.30000000,102.29000000,-57.68000000,-15.26000000
7,1778625477.00139,0.47000000,1.37000000,-0.30000000,102.29000000,-57.68000000,-15.26000000
8,1778625477.008636,0.47000000,1.37000000,-0.30000000,102.29000000,-57.68000000,-15.26000000
9,1778625477.021788,0.14000000,1.47000000,0.02000000,106.81000000,-3.36000000,-19.59000000
10,1778625477.031626,0.14000000,1.47000000,0.02000000,106.81000000,-3.36000000,-19.59000000
11,1778625477.040457,0.14000000,1.47000000,0.02000000,106.81000000,-3.36000000,-19.59000000
12,1778625477.052084,0.14000000,1.47000000,0.02000000,106.81000000,-3.36000000,-19.59000000
13,1778625477.058593,0.14000000,1.47000000,0.02000000,106.81000000,-3.36000000,-19.59000000
14,1778625477.0716128,0.14000000,1.47000000,0.02000000,106.81000000,-3.36000000,-19.59000000
15,1778625477.0800052,0.14000000,1.47000000,0.02000000,106.81000000,-3.36000000,-19.59000000
16,1778625477.0927548,0.14000000,1.47000000,0.02000000,106.81000000,-3.36000000,-19.59000000
17,1778625477.099225,0.14000000,1.47000000,0.02000000,106.81000000,-3.36000000,-19.59000000
18,1778625477.109355,0.14000000,1.47000000,0.02000000,106.81000000,-3.36000000,-19.59000000
19,1778625477.121398,0.14000000,1.47000000,0.02000000,106.81000000,-3.36000000,-19.59000000
20,1778625477.131603,0.35000000,0.63000000,0.67000000,41.56000000,-53.77000000,-13.49000000
21,1778625477.1386418,0.06000000,0.57000000,1.21000000,-33.87000000,-89.05000000,22.95000000
22,1778625477.1504378,0.06000000,0.57000000,1.21000000,-33.87000000,-89.05000000,22.95000000
23,1778625477.1626098,0.06000000,0.57000000,1.21000000,-33.87000000,-89.05000000,22.95000000
24,1778625477.171417,0.45000000,0.07000000,0.19000000,-125.37000000,-52.12000000,27.22000000
25,1778625477.18115,0.45000000,0.07000000,0.19000000,-125.37000000,-52.12000000,27.22000000
26,1778625477.190162,0.45000000,0.07000000,0.19000000,-125.37000000,-52.12000000,27.22000000
27,1778625477.202729,0.45000000,0.07000000,0.19000000,-125.37000000,-52.12000000,27.22000000
28,1778625477.211494,0.45000000,0.07000000,0.19000000,-125.37000000,-52.12000000,27.22000000
29,1778625477.2219148,0.45000000,0.07000000,0.19000000,-125.37000000,-52.12000000,27.22000000
30,1778625477.230516,0.45000000,0.07000000,0.19000000,-125.37000000,-52.12000000,27.22000000
31,1778625477.239028,0.45000000,0.07000000,0.19000000,-125.37000000,-52.12000000,27.22000000
32,1778625477.253259,0.45000000,0.07000000,0.19000000,-125.37000000,-52.12000000,27.22000000
33,1778625477.2590148,0.45000000,0.07000000,0.19000000,-125.37000000,-52.12000000,27.22000000
34,1778625477.271416,0.42000000,1.32000000,-0.15000000,-148.01000000,68.48000000,45.59000000
35,1778625477.279758,0.42000000,1.32000000,-0.15000000,-148.01000000,68.48000000,45.59000000
36,1778625477.291042,0.09000000,2.23000000,0.01000000,-178.04000000,140.44000000,72.63000000
37,1778625477.298558,0.09000000,2.23000000,0.01000000,-178.04000000,140.44000000,72.63000000
38,1778625477.313612,0.09000000,2.23000000,0.01000000,-178.04000000,140.44000000,72.63000000
39,1778625477.3188689,0.09000000,2.23000000,0.01000000,-178.04000000,140.44000000,72.63000000
40,1778625477.3333719,-0.85000000,2.28000000,-0.29000000,-178.34000000,-112.37000000,70.43000000
41,1778625477.33886,-0.85000000,2.28000000,-0.29000000,-178.34000000,-112.37000000,70.43000000
42,1778625477.34872,-0.85000000,2.28000000,-0.29000000,-178.34000000,-112.37000000,70.43000000
43,1778625477.361566,-0.29000000,1.97000000,0.16000000,-86.73000000,-270.39000000,54.63000000
44,1778625477.371441,-0.29000000,1.97000000,0.16000000,-86.73000000,-270.39000000,54.63000000
45,1778625477.379912,-0.29000000,1.97000000,0.16000000,-86.73000000,-270.39000000,54.63000000
46,1778625477.388593,-0.29000000,1.97000000,0.16000000,-86.73000000,-270.39000000,54.63000000
47,1778625477.399632,0.29000000,1.97000000,0.11000000,-97.53000000,-24.35000000,106.14000000
48,1778625477.4097228,0.29000000,1.97000000,0.11000000,-97.53000000,-24.35000000,106.14000000
49,1778625477.421414,0.29000000,1.97000000,0.11000000,-97.53000000,-24.35000000,106.14000000
50,1778625477.4306161,-0.23000000,0.70000000,0.04000000,-51.09000000,53.41000000,9.40000000
51,1778625477.44176,-0.23000000,0.70000000,0.04000000,-51.09000000,53.41000000,9.40000000
52,1778625477.448846,-0.23000000,0.70000000,0.04000000,-51.09000000,53.41000000,9.40000000
53,1778625477.461439,-0.23000000,0.70000000,0.04000000,-51.09000000,53.41000000,9.40000000
54,1778625477.4719381,-0.40000000,0.05000000,-0.26000000,22.95000000,13.12000000,-37.23000000
55,1778625477.479821,-0.40000000,0.05000000,-0.26000000,22.95000000,13.12000000,-37.23000000
56,1778625477.4886389,-0.40000000,0.05000000,-0.26000000,22.95000000,13.12000000,-37.23000000
57,1778625477.501203,-0.40000000,0.05000000,-0.26000000,22.95000000,13.12000000,-37.23000000
58,1778625477.508634,-0.62000000,-0.35000000,-0.57000000,120.30000000,-144.90000000,-48.40000000
59,1778625477.521944,-0.62000000,-0.35000000,-0.57000000,120.30000000,-144.90000000,-48.40000000
60,1778625477.529881,-0.62000000,-0.35000000,-0.57000000,120.30000000,-144.90000000,-48.40000000
61,1778625477.538976,-0.62000000,-0.35000000,-0.57000000,120.30000000,-144.90000000,-48.40000000
62,1778625477.548704,-0.62000000,-0.35000000,-0.57000000,120.30000000,-144.90000000,-48.40000000
63,1778625477.559781,0.04000000,0.07000000,-0.03000000,205.44000000,-213.68000000,-64.03000000
64,1778625477.56868,0.04000000,0.07000000,-0.03000000,205.44000000,-213.68000000,-64.03000000
65,1778625477.582011,0.89000000,0.84000000,0.52000000,62.56000000,-32.78000000,-24.54000000
66,1778625477.591477,0.89000000,0.84000000,0.52000000,62.56000000,-32.78000000,-24.54000000
67,1778625477.5991292,0.89000000,0.84000000,0.52000000,62.56000000,-32.78000000,-24.54000000
68,1778625477.608604,0.89000000,0.84000000,0.52000000,62.56000000,-32.78000000,-24.54000000
69,1778625477.6214411,0.35000000,1.09000000,1.58000000,-83.31000000,-274.41000000,63.23000000
70,1778625477.6305768,0.35000000,1.09000000,1.58000000,-83.31000000,-274.41000000,63.23000000
71,1778625477.640604,0.35000000,1.09000000,1.58000000,-83.31000000,-274.41000000,63.23000000
72,1778625477.648586,0.35000000,1.09000000,1.58000000,-83.31000000,-274.41000000,63.23000000
73,1778625477.658606,0.34000000,0.94000000,-1.51000000,-34.12000000,-125.61000000,8.91000000
74,1778625477.671479,0.34000000,0.94000000,-1.51000000,-34.12000000,-125.61000000,8.91000000
75,1778625477.678591,0.34000000,0.94000000,-1.51000000,-34.12000000,-125.61000000,8.91000000
76,1778625477.689342,0.34000000,0.94000000,-1.51000000,-34.12000000,-125.61000000,8.91000000
77,1778625477.703158,-0.13000000,2.71000000,1.30000000,117.13000000,-52.12000000,-5.31000000
78,1778625477.710098,-0.13000000,2.71000000,1.30000000,117.13000000,-52.12000000,-5.31000000
79,1778625477.722218,-0.13000000,2.71000000,1.30000000,117.13000000,-52.12000000,-5.31000000
80,1778625477.730416,-0.13000000,2.71000000,1.30000000,117.13000000,-52.12000000,-5.31000000
81,1778625477.739139,-0.13000000,2.71000000,1.30000000,117.13000000,-52.12000000,-5.31000000
82,1778625477.7491,-0.13000000,2.71000000,1.30000000,117.13000000,-52.12000000,-5.31000000
83,1778625477.758784,-0.13000000,2.71000000,1.30000000,117.13000000,-52.12000000,-5.31000000
84,1778625477.772212,-0.13000000,2.71000000,1.30000000,117.13000000,-52.12000000,-5.31000000
85,1778625477.77866,-0.13000000,2.71000000,1.30000000,117.13000000,-52.12000000,-5.31000000
86,1778625477.791617,0.04000000,1.60000000,-0.98000000,62.32000000,-45.04000000,-29.85000000
87,1778625477.801265,0.04000000,1.60000000,-0.98000000,62.32000000,-45.04000000,-29.85000000
88,1778625477.810029,0.46000000,1.83000000,-0.39000000,82.89000000,-98.75000000,-7.39000000
89,1778625477.822219,0.46000000,1.83000000,-0.39000000,82.89000000,-98.75000000,-7.39000000
90,1778625477.8287842,0.46000000,1.83000000,-0.39000000,82.89000000,-98.75000000,-7.39000000
91,1778625477.84099,0.46000000,1.83000000,-0.39000000,82.89000000,-98.75000000,-7.39000000
92,1778625477.8502872,0.06000000,1.48000000,-0.42000000,82.89000000,-98.75000000,-7.39000000
93,1778625477.860044,0.06000000,1.48000000,-0.42000000,104.19000000,-73.97000000,-10.68000000
94,1778625477.872224,0.06000000,1.48000000,-0.42000000,104.19000000,-73.97000000,-10.68000000
95,1778625477.881373,0.61000000,1.29000000,-0.10000000,104.19000000,-73.97000000,-10.68000000
96,1778625477.889339,0.61000000,1.29000000,-0.10000000,117.13000000,-140.93000000,-0.85000000
97,1778625477.902585,0.61000000,1.29000000,-0.10000000,117.13000000,-140.93000000,-0.85000000
98,1778625477.910483,0.61000000,1.29000000,-0.10000000,117.13000000,-140.93000000,-0.85000000
99,1778625477.922245,0.71000000,0.99000000,0.49000000,78.31000000,-123.96000000,21.12000000
100,1778625477.929503,0.71000000,0.99000000,0.49000000,78.31000000,-123.96000000,21.12000000
101,1778625477.939157,0.71000000,0.99000000,0.49000000,78.31000000,-123.96000000,21.12000000
102,1778625477.9488971,0.71000000,0.99000000,0.49000000,78.31000000,-123.96000000,21.12000000
103,1778625477.9586098,0.11000000,0.65000000,0.70000000,37.84000000,-83.92000000,20.81000000
104,1778625477.972252,0.11000000,0.65000000,0.70000000,37.84000000,-83.92000000,20.81000000
105,1778625477.980744,0.11000000,0.65000000,0.70000000,37.84000000,-83.92000000,20.81000000
106,1778625477.9894311,0.11000000,0.65000000,0.70000000,37.84000000,-83.92000000,20.81000000
107,1778625478.000932,0.18000000,0.48000000,1.10000000,37.84000000,-83.92000000,20.81000000
108,1778625478.008564,0.18000000,0.48000000,1.10000000,-76.66000000,-91.80000000,24.84000000
109,1778625478.0222578,0.18000000,0.48000000,1.10000000,-76.66000000,-91.80000000,24.84000000
110,1778625478.028644,0.18000000,0.48000000,1.10000000,-76.66000000,-91.80000000,24.84000000
111,1778625478.041482,0.42000000,0.24000000,0.25000000,-117.37000000,-85.27000000,65.06000000
112,1778625478.048685,0.42000000,0.24000000,0.25000000,-117.37000000,-85.27000000,65.06000000
113,1778625478.060132,0.42000000,0.24000000,0.25000000,-117.37000000,-85.27000000,65.06000000
114,1778625478.070399,-0.02000000,0.62000000,0.18000000,-146.67000000,4.33000000,50.96000000
115,1778625478.080697,-0.02000000,0.62000000,0.18000000,-146.67000000,4.33000000,50.96000000
116,1778625478.0923939,-0.02000000,0.62000000,0.18000000,-146.67000000,4.33000000,50.96000000
117,1778625478.099308,-0.02000000,0.62000000,0.18000000,-146.67000000,4.33000000,50.96000000
118,1778625478.108618,-0.02000000,0.62000000,0.18000000,-146.67000000,4.33000000,50.96000000
119,1778625478.123124,-0.02000000,0.62000000,0.18000000,-146.67000000,4.33000000,50.96000000
120,1778625478.1291242,-0.02000000,0.62000000,0.18000000,-146.67000000,4.33000000,50.96000000
121,1778625478.141025,-0.02000000,0.62000000,0.18000000,-146.67000000,4.33000000,50.96000000
122,1778625478.150982,-0.02000000,0.62000000,0.18000000,-146.67000000,4.33000000,50.96000000
123,1778625478.1587808,-0.02000000,0.62000000,0.18000000,-146.67000000,4.33000000,50.96000000
124,1778625478.172329,-0.02000000,0.62000000,0.18000000,-146.67000000,4.33000000,50.96000000
125,1778625478.180383,-0.12000000,2.48000000,-0.22000000,-192.93000000,63.60000000,34.18000000
126,1778625478.1910322,-1.03000000,2.29000000,-0.34000000,-185.06000000,-169.31000000,13.79000000
127,1778625478.199465,-1.03000000,2.29000000,-0.34000000,-185.06000000,-169.31000000,13.79000000
128,1778625478.210902,-1.03000000,2.29000000,-0.34000000,-185.06000000,-169.31000000,13.79000000
129,1778625478.222288,0.18000000,2.09000000,0.22000000,-131.35000000,-96.44000000,41.56000000
130,1778625478.228669,0.18000000,2.09000000,0.22000000,-131.35000000,-96.44000000,41.56000000
131,1778625478.242343,0.18000000,2.09000000,0.22000000,-131.35000000,-96.44000000,41.56000000
132,1778625478.249513,0.18000000,2.09000000,0.22000000,-131.35000000,-96.44000000,41.56000000
133,1778625478.261693,0.18000000,2.09000000,0.22000000,-131.35000000,-96.44000000,41.56000000
134,1778625478.268893,0.18000000,2.09000000,0.22000000,-131.35000000,-96.44000000,41.56000000
135,1778625478.282835,0.18000000,2.09000000,0.22000000,-131.35000000,-96.44000000,41.56000000
136,1778625478.288665,0.18000000,2.09000000,0.22000000,-131.35000000,-96.44000000,41.56000000
137,1778625478.30022,0.18000000,2.09000000,0.22000000,-131.35000000,-96.44000000,41.56000000
138,1778625478.308685,-0.16000000,0.94000000,-0.19000000,-57.98000000,24.41000000,-17.27000000
139,1778625478.32179,-0.16000000,0.94000000,-0.19000000,-57.98000000,24.41000000,-17.27000000
140,1778625478.331125,-0.16000000,0.94000000,-0.19000000,-57.98000000,24.41000000,-17.27000000
141,1778625478.3405619,-0.16000000,0.94000000,-0.19000000,-57.98000000,24.41000000,-17.27000000
142,1778625478.348593,-0.23000000,0.11000000,-0.41000000,22.89000000,-31.98000000,-47.55000000
143,1778625478.358994,-0.23000000,0.11000000,-0.41000000,22.89000000,-31.98000000,-47.55000000
144,1778625478.372285,-0.16000000,-0.21000000,-0.37000000,102.97000000,-95.46000000,-56.52000000
145,1778625478.378922,-0.16000000,-0.21000000,-0.37000000,102.97000000,-95.46000000,-56.52000000
146,1778625478.3886342,-0.16000000,-0.21000000,-0.37000000,102.97000000,-95.46000000,-56.52000000
147,1778625478.401578,-0.16000000,-0.21000000,-0.37000000,102.97000000,-95.46000000,-56.52000000
148,1778625478.41028,-0.16000000,-0.21000000,-0.37000000,102.97000000,-95.46000000,-56.52000000
149,1778625478.422316,0.23000000,0.38000000,-0.10000000,201.66000000,-162.41000000,-89.84000000
150,1778625478.43169,0.23000000,0.38000000,-0.10000000,201.66000000,-162.41000000,-89.84000000
151,1778625478.439393,0.23000000,0.38000000,-0.10000000,201.66000000,-162.41000000,-89.84000000
152,1778625478.451545,0.23000000,0.38000000,-0.10000000,201.66000000,-162.41000000,-89.84000000
153,1778625478.4614751,0.48000000,0.71000000,0.54000000,61.04000000,-130.49000000,-42.48000000
154,1778625478.468961,0.48000000,0.71000000,0.54000000,61.04000000,-130.49000000,-42.48000000
155,1778625478.480958,0.48000000,0.71000000,0.54000000,61.04000000,-130.49000000,-42.48000000
156,1778625478.489673,0.13000000,0.18000000,0.13000000,-44.43000000,-242.25000000,19.29000000
157,1778625478.501469,0.13000000,0.18000000,0.13000000,-44.43000000,-242.25000000,19.29000000
158,1778625478.509532,0.13000000,0.18000000,0.13000000,-44.43000000,-242.25000000,19.29000000
159,1778625478.5186079,0.13000000,0.18000000,0.13000000,-44.43000000,-242.25000000,19.29000000
160,1778625478.530947,0.09000000,1.10000000,-1.08000000,60.49000000,-88.56000000,-15.26000000
161,1778625478.5410728,0.09000000,1.10000000,-1.08000000,60.49000000,-88.56000000,-15.26000000
162,1778625478.551049,0.09000000,1.10000000,-1.08000000,60.49000000,-88.56000000,-15.26000000
163,1778625478.559118,0.09000000,1.10000000,-1.08000000,60.49000000,-88.56000000,-15.26000000
164,1778625478.5727518,0.12000000,2.10000000,-0.02000000,76.35000000,-131.04000000,-17.46000000
165,1778625478.579415,0.12000000,2.10000000,-0.02000000,76.35000000,-131.04000000,-17.46000000
166,1778625478.592205,0.12000000,2.10000000,-0.02000000,76.35000000,-131.04000000,-17.46000000
167,1778625478.5999029,-0.12000000,0.92000000,-0.82000000,-8.85000000,-160.58000000,-4.76000000
168,1778625478.608748,-0.12000000,0.92000000,-0.82000000,-8.85000000,-160.58000000,-4.76000000
169,1778625478.622344,-0.12000000,0.92000000,-0.82000000,-8.85000000,-160.58000000,-4.76000000
170,1778625478.630992,-0.12000000,0.92000000,-0.82000000,-8.85000000,-160.58000000,-4.76000000
171,1778625478.641061,-0.12000000,1.59000000,-0.65000000,82.34000000,-134.03000000,-36.50000000
172,1778625478.6496372,-0.12000000,1.59000000,-0.65000000,82.34000000,-134.03000000,-36.50000000
173,1778625478.659141,-0.12000000,1.59000000,-0.65000000,82.34000000,-134.03000000,-36.50000000
174,1778625478.672362,-0.12000000,1.59000000,-0.65000000,82.34000000,-134.03000000,-36.50000000
175,1778625478.679465,1.32000000,2.06000000,-0.54000000,159.12000000,-80.14000000,-39.00000000
176,1778625478.691974,1.32000000,2.06000000,-0.54000000,159.12000000,-80.14000000,-39.00000000
177,1778625478.698795,1.32000000,2.06000000,-0.54000000,159.12000000,-80.14000000,-39.00000000
178,1778625478.7102778,1.32000000,2.06000000,-0.54000000,159.12000000,-80.14000000,-39.00000000
179,1778625478.7223501,0.41000000,1.71000000,-0.19000000,118.10000000,-56.58000000,18.74000000
180,1778625478.728665,0.41000000,1.71000000,-0.19000000,118.10000000,-56.58000000,18.74000000
181,1778625478.741389,0.41000000,1.71000000,-0.19000000,118.10000000,-56.58000000,18.74000000
182,1778625478.748776,0.41000000,1.71000000,-0.19000000,118.10000000,-56.58000000,18.74000000
183,1778625478.761207,0.41000000,1.71000000,-0.19000000,118.10000000,-56.58000000,18.74000000
184,1778625478.769401,0.41000000,1.71000000,-0.19000000,118.10000000,-56.58000000,18.74000000
185,1778625478.7822871,0.41000000,1.71000000,-0.19000000,118.10000000,-56.58000000,18.74000000
186,1778625478.790578,0.41000000,1.71000000,-0.19000000,118.10000000,-56.58000000,18.74000000
187,1778625478.798819,0.41000000,1.71000000,-0.19000000,118.10000000,-56.58000000,18.74000000
188,1778625478.808641,0.41000000,1.71000000,-0.19000000,118.10000000,-56.58000000,18.74000000
189,1778625478.8189812,0.41000000,1.71000000,-0.19000000,118.10000000,-56.58000000,18.74000000
190,1778625478.8312352,0.41000000,1.71000000,-0.19000000,118.10000000,-56.58000000,18.74000000
191,1778625478.8402402,0.90000000,0.26000000,1.04000000,-62.32000000,-89.29000000,-51.33000000
192,1778625478.851007,0.90000000,0.26000000,1.04000000,-62.32000000,-89.29000000,-51.33000000
193,1778625478.860039,0.90000000,0.26000000,1.04000000,-62.32000000,-89.29000000,-51.33000000
194,1778625478.8723671,0.48000000,0.09000000,0.69000000,-149.78000000,29.05000000,-8.00000000
195,1778625478.878645,0.48000000,0.09000000,0.69000000,-149.78000000,29.05000000,-8.00000000
196,1778625478.8911061,0.48000000,0.09000000,0.69000000,-149.78000000,29.05000000,-8.00000000
197,1778625478.900723,0.05000000,0.80000000,0.23000000,-165.59000000,105.16000000,-5.74000000
198,1778625478.910383,0.05000000,0.80000000,0.23000000,-165.59000000,105.16000000,-5.74000000
199,1778625478.9223812,0.05000000,0.80000000,0.23000000,-165.59000000,105.16000000,-5.74000000
200,1778625478.929517,0.05000000,0.80000000,0.23000000,-165.59000000,105.16000000,-5.74000000
201,1778625478.939317,0.74000000,1.69000000,-0.18000000,-202.03000000,163.51000000,-20.14000000
202,1778625478.9497972,0.74000000,1.69000000,-0.18000000,-202.03000000,163.51000000,-20.14000000
203,1778625478.960333,0.74000000,1.69000000,-0.18000000,-202.03000000,163.51000000,-20.14000000
204,1778625478.972354,0.74000000,1.69000000,-0.18000000,-202.03000000,163.51000000,-20.14000000
205,1778625478.979767,1.27000000,2.34000000,-0.17000000,-248.11000000,214.54000000,40.47000000
206,1778625478.988687,1.27000000,2.34000000,-0.17000000,-248.11000000,214.54000000,40.47000000
207,1778625479.001854,1.27000000,2.34000000,-0.17000000,-248.11000000,214.54000000,40.47000000
208,1778625479.0087528,1.27000000,2.34000000,-0.17000000,-248.11000000,214.54000000,40.47000000
209,1778625479.022382,0.46000000,2.73000000,-0.82000000,-192.57000000,-109.92000000,64.76000000
210,1778625479.03137,0.46000000,2.73000000,-0.82000000,-192.57000000,-109.92000000,64.76000000
211,1778625479.0416052,0.46000000,2.73000000,-0.82000000,-192.57000000,-109.92000000,64.76000000
212,1778625479.049419,0.46000000,2.73000000,-0.82000000,-192.57000000,-109.92000000,64.76000000
213,1778625479.059359,1.45000000,2.58000000,-0.30000000,-140.20000000,126.53000000,171.33000000
214,1778625479.072372,1.45000000,2.58000000,-0.30000000,-140.20000000,126.53000000,171.33000000
215,1778625479.078846,1.45000000,2.58000000,-0.30000000,-140.20000000,126.53000000,171.33000000
216,1778625479.0893078,1.45000000,2.58000000,-0.30000000,-140.20000000,126.53000000,171.33000000
217,1778625479.098722,0.23000000,1.79000000,-0.76000000,-130.55000000,264.34000000,121.46000000
218,1778625479.108646,0.23000000,1.79000000,-0.76000000,-130.55000000,264.34000000,121.46000000
219,1778625479.122376,0.23000000,1.79000000,-0.76000000,-130.55000000,264.34000000,121.46000000
220,1778625479.12921,-0.36000000,0.34000000,-0.46000000,-4.76000000,218.75000000,87.16000000
221,1778625479.138835,-0.36000000,0.34000000,-0.46000000,-4.76000000,218.75000000,87.16000000
222,1778625479.151094,-0.36000000,0.34000000,-0.46000000,-4.76000000,218.75000000,87.16000000
223,1778625479.159945,-0.36000000,0.34000000,-0.46000000,-4.76000000,218.75000000,87.16000000
224,1778625479.172399,-0.36000000,0.34000000,-0.46000000,-4.76000000,218.75000000,87.16000000
225,1778625479.178859,-0.36000000,0.34000000,-0.46000000,-4.76000000,218.75000000,87.16000000
226,1778625479.192254,-0.36000000,0.34000000,-0.46000000,-4.76000000,218.75000000,87.16000000
227,1778625479.198847,-0.36000000,0.34000000,-0.46000000,-4.76000000,218.75000000,87.16000000
228,1778625479.209415,-0.36000000,0.34000000,-0.46000000,-4.76000000,218.75000000,87.16000000
229,1778625479.222434,-0.84000000,-0.12000000,-0.42000000,88.01000000,88.32000000,29.85000000
230,1778625479.229078,-0.84000000,-0.12000000,-0.42000000,88.01000000,88.32000000,29.85000000
231,1778625479.239659,-1.03000000,-0.54000000,-0.28000000,145.20000000,-90.09000000,-4.33000000
232,1778625479.249107,-1.03000000,-0.54000000,-0.28000000,145.20000000,-90.09000000,-4.33000000
233,1778625479.2586088,-1.03000000,-0.54000000,-0.28000000,145.20000000,-90.09000000,-4.33000000
234,1778625479.272418,-1.03000000,-0.54000000,-0.28000000,145.20000000,-90.09000000,-4.33000000
235,1778625479.278599,-1.03000000,-0.54000000,-0.28000000,145.20000000,-90.09000000,-4.33000000
236,1778625479.289694,-1.03000000,-0.54000000,-0.28000000,145.20000000,-90.09000000,-4.33000000
237,1778625479.300396,-1.03000000,-0.54000000,-0.28000000,145.20000000,-90.09000000,-4.33000000
238,1778625479.3100202,-1.03000000,-0.54000000,-0.28000000,145.20000000,-90.09000000,-4.33000000
239,1778625479.322438,-1.03000000,-0.54000000,-0.28000000,145.20000000,-90.09000000,-4.33000000
240,1778625479.328778,-1.03000000,-0.54000000,-0.28000000,145.20000000,-90.09000000,-4.33000000
241,1778625479.341152,-1.03000000,-0.54000000,-0.28000000,145.20000000,-90.09000000,-4.33000000
242,1778625479.350196,-1.03000000,-0.54000000,-0.28000000,145.20000000,-90.09000000,-4.33000000
243,1778625479.359523,0.35000000,0.11000000,-0.18000000,48.89000000,-250.85000000,143.25000000
244,1778625479.37241,0.35000000,0.11000000,-0.18000000,48.89000000,-250.85000000,143.25000000
245,1778625479.379335,0.35000000,0.11000000,-0.18000000,48.89000000,-250.85000000,143.25000000
246,1778625479.389431,0.45000000,1.81000000,-1.25000000,74.40000000,-12.88000000,-66.04000000
247,1778625479.4014301,0.45000000,1.81000000,-1.25000000,74.40000000,-12.88000000,-66.04000000
248,1778625479.408706,0.45000000,1.81000000,-1.25000000,74.40000000,-12.88000000,-66.04000000
249,1778625479.422435,-0.47000000,4.03000000,0.08000000,-15.81000000,-16.60000000,23.19000000
250,1778625479.429824,-0.47000000,4.03000000,0.08000000,-15.81000000,-16.60000000,23.19000000
251,1778625479.441186,-0.47000000,4.03000000,0.08000000,-15.81000000,-16.60000000,23.19000000
252,1778625479.4489331,-0.47000000,4.03000000,0.08000000,-15.81000000,-16.60000000,23.19000000
253,1778625479.460128,-0.87000000,0.12000000,-0.44000000,51.51000000,-87.89000000,-43.33000000
254,1778625479.472471,-0.87000000,0.12000000,-0.44000000,51.51000000,-87.89000000,-43.33000000
255,1778625479.481062,-0.87000000,0.12000000,-0.44000000,51.51000000,-87.89000000,-43.33000000
256,1778625479.488661,-0.87000000,0.12000000,-0.44000000,51.51000000,-87.89000000,-43.33000000
257,1778625479.50348,-0.30000000,2.23000000,-0.85000000,116.21000000,-56.03000000,-28.56000000
258,1778625479.5093,-0.30000000,2.23000000,-0.85000000,116.21000000,-56.03000000,-28.56000000
259,1778625479.522937,-0.30000000,2.23000000,-0.85000000,116.21000000,-56.03000000,-28.56000000
260,1778625479.529025,-0.30000000,2.23000000,-0.85000000,116.21000000,-56.03000000,-28.56000000
261,1778625479.54073,1.67000000,1.84000000,-0.71000000,101.38000000,50.84000000,-10.07000000
262,1778625479.5492759,1.67000000,1.84000000,-0.71000000,101.38000000,50.84000000,-10.07000000
263,1778625479.560243,1.67000000,1.84000000,-0.71000000,101.38000000,50.84000000,-10.07000000
264,1778625479.572433,1.67000000,1.84000000,-0.71000000,101.38000000,50.84000000,-10.07000000
265,1778625479.578856,-0.53000000,1.51000000,0.01000000,122.44000000,21.42000000,22.22000000
266,1778625479.591383,-0.53000000,1.51000000,0.01000000,122.44000000,21.42000000,22.22000000
267,1778625479.599317,-0.53000000,1.51000000,0.01000000,122.44000000,21.42000000,22.22000000
268,1778625479.609817,-0.53000000,1.51000000,0.01000000,122.44000000,21.42000000,22.22000000
269,1778625479.622475,0.15000000,1.34000000,0.51000000,103.45000000,-117.55000000,3.17000000
270,1778625479.6292522,0.15000000,1.34000000,0.51000000,103.45000000,-117.55000000,3.17000000
271,1778625479.639808,0.15000000,1.34000000,0.51000000,103.45000000,-117.55000000,3.17000000
272,1778625479.648814,0.57000000,0.33000000,0.50000000,89.17000000,-141.91000000,13.98000000
273,1778625479.6605592,0.57000000,0.33000000,0.50000000,89.17000000,-141.91000000,13.98000000
274,1778625479.672469,0.57000000,0.33000000,0.50000000,89.17000000,-141.91000000,13.98000000
275,1778625479.678593,0.57000000,0.33000000,0.50000000,89.17000000,-141.91000000,13.98000000
276,1778625479.6895528,0.90000000,0.09000000,1.19000000,47.30000000,-80.87000000,54.93000000
277,1778625479.6994638,0.90000000,0.09000000,1.19000000,47.30000000,-80.87000000,54.93000000
278,1778625479.7104871,0.90000000,0.09000000,1.19000000,47.30000000,-80.87000000,54.93000000
279,1778625479.722537,0.83000000,0.20000000,0.84000000,-32.23000000,-22.46000000,88.44000000
280,1778625479.728739,0.83000000,0.20000000,0.84000000,-32.23000000,-22.46000000,88.44000000
281,1778625479.743444,0.83000000,0.20000000,0.84000000,-32.23000000,-22.46000000,88.44000000
282,1778625479.750685,0.83000000,0.20000000,0.84000000,-32.23000000,-22.46000000,88.44000000
283,1778625479.758699,0.83000000,0.20000000,0.84000000,-32.23000000,-22.46000000,88.44000000
284,1778625479.772481,-0.55000000,0.59000000,0.11000000,-103.15000000,56.58000000,70.68000000
285,1778625479.781613,-0.55000000,0.59000000,0.11000000,-103.15000000,56.58000000,70.68000000
286,1778625479.789574,-0.55000000,0.59000000,0.11000000,-103.15000000,56.58000000,70.68000000
287,1778625479.798686,-0.55000000,0.59000000,0.11000000,-103.15000000,56.58000000,70.68000000
288,1778625479.810592,-0.55000000,0.59000000,0.11000000,-103.15000000,56.58000000,70.68000000
289,1778625479.822502,-0.55000000,0.59000000,0.11000000,-103.15000000,56.58000000,70.68000000
290,1778625479.828819,-0.55000000,0.59000000,0.11000000,-103.15000000,56.58000000,70.68000000
291,1778625479.839283,-0.55000000,0.59000000,0.11000000,-103.15000000,56.58000000,70.68000000
292,1778625479.849966,-0.55000000,0.59000000,0.11000000,-103.15000000,56.58000000,70.68000000
293,1778625479.861952,-0.55000000,0.59000000,0.11000000,-103.15000000,56.58000000,70.68000000
294,1778625479.868892,-0.55000000,0.59000000,0.11000000,-103.15000000,56.58000000,70.68000000
295,1778625479.88149,-0.55000000,0.59000000,0.11000000,-103.15000000,56.58000000,70.68000000
296,1778625479.889409,-0.90000000,2.99000000,-0.37000000,-220.83000000,-118.16000000,86.67000000
297,1778625479.902656,-0.90000000,2.99000000,-0.37000000,-220.83000000,-118.16000000,86.67000000
298,1778625479.910623,-0.90000000,2.99000000,-0.37000000,-220.83000000,-118.16000000,86.67000000
299,1778625479.922505,0.29000000,2.09000000,0.05000000,-197.94000000,-66.96000000,68.79000000
300,1778625479.930889,0.29000000,2.09000000,0.05000000,-197.94000000,-66.96000000,68.79000000
301,1778625479.940691,0.29000000,2.09000000,0.05000000,-197.94000000,-66.96000000,68.79000000
302,1778625479.949814,0.29000000,2.09000000,0.05000000,-197.94000000,-66.96000000,68.79000000
303,1778625479.95935,0.15000000,1.88000000,-0.20000000,-177.73000000,-4.03000000,36.56000000
304,1778625479.972574,0.15000000,1.88000000,-0.20000000,-177.73000000,-4.03000000,36.56000000
305,1778625479.9786072,0.15000000,1.88000000,-0.20000000,-177.73000000,-4.03000000,36.56000000
306,1778625479.98976,0.44000000,1.14000000,-0.17000000,-177.73000000,-4.03000000,36.56000000
307,1778625480.002101,0.44000000,1.14000000,-0.17000000,-98.02000000,115.84000000,-7.87000000
308,1778625480.008977,0.44000000,1.14000000,-0.17000000,-98.02000000,115.84000000,-7.87000000
309,1778625480.022662,0.44000000,1.14000000,-0.17000000,-98.02000000,115.84000000,-7.87000000
310,1778625480.028686,-0.26000000,-0.11000000,-0.41000000,-0.85000000,47.24000000,-36.68000000
311,1778625480.038789,-0.26000000,-0.11000000,-0.41000000,-0.85000000,47.24000000,-36.68000000
312,1778625480.0494988,-0.26000000,-0.11000000,-0.41000000,-0.85000000,47.24000000,-36.68000000
313,1778625480.059795,-0.26000000,-0.11000000,-0.41000000,-0.85000000,47.24000000,-36.68000000
314,1778625480.0725079,-0.44000000,-0.43000000,-0.48000000,127.01000000,-142.76000000,-55.48000000
315,1778625480.078995,-0.44000000,-0.43000000,-0.48000000,127.01000000,-142.76000000,-55.48000000
316,1778625480.088639,-0.44000000,-0.43000000,-0.48000000,127.01000000,-142.76000000,-55.48000000
317,1778625480.099581,-0.44000000,-0.43000000,-0.48000000,127.01000000,-142.76000000,-55.48000000
318,1778625480.109882,0.12000000,0.12000000,0.05000000,222.84000000,-149.48000000,-89.66000000
319,1778625480.1188748,0.12000000,0.12000000,0.05000000,222.84000000,-149.48000000,-89.66000000
320,1778625480.131356,0.12000000,0.12000000,0.05000000,222.84000000,-149.48000000,-89.66000000
321,1778625480.138644,0.12000000,0.12000000,0.05000000,222.84000000,-149.48000000,-89.66000000
322,1778625480.15194,0.60000000,0.98000000,0.60000000,59.94000000,-111.94000000,3.48000000
323,1778625480.160778,0.60000000,0.98000000,0.60000000,59.94000000,-111.94000000,3.48000000
324,1778625480.170932,0.60000000,0.98000000,0.60000000,59.94000000,-111.94000000,3.48000000
325,1778625480.179185,-0.39000000,0.96000000,0.99000000,59.94000000,-111.94000000,3.48000000
326,1778625480.189436,-0.39000000,0.96000000,0.99000000,-42.85000000,-268.25000000,57.43000000
327,1778625480.202705,-0.39000000,0.96000000,0.99000000,-42.85000000,-268.25000000,57.43000000
328,1778625480.209281,-0.39000000,0.96000000,0.99000000,-42.85000000,-268.25000000,57.43000000
329,1778625480.22262,-0.39000000,0.96000000,0.99000000,-42.85000000,-268.25000000,57.43000000
330,1778625480.23156,-0.39000000,0.96000000,0.99000000,-42.85000000,-268.25000000,57.43000000
331,1778625480.239587,-0.39000000,0.96000000,0.99000000,-42.85000000,-268.25000000,57.43000000
332,1778625480.2495518,-0.39000000,0.96000000,0.99000000,-42.85000000,-268.25000000,57.43000000
333,1778625480.260808,-0.39000000,0.96000000,0.99000000,-42.85000000,-268.25000000,57.43000000
334,1778625480.270358,-0.39000000,0.96000000,0.99000000,-42.85000000,-268.25000000,57.43000000
335,1778625480.279592,0.61000000,-0.40000000,-2.20000000,68.85000000,-135.13000000,41.56000000
336,1778625480.289858,0.71000000,3.53000000,1.53000000,-12.27000000,-354.68000000,60.24000000
337,1778625480.2998002,0.71000000,3.53000000,1.53000000,-12.27000000,-354.68000000,60.24000000
338,1778625480.310566,0.71000000,3.53000000,1.53000000,-12.27000000,-354.68000000,60.24000000
339,1778625480.3302422,0.71000000,3.53000000,1.53000000,-12.27000000,-354.68000000,60.24000000
340,1778625480.3302689,0.71000000,3.53000000,1.53000000,-12.27000000,-354.68000000,60.24000000
341,1778625480.3387241,0.71000000,3.53000000,1.53000000,-12.27000000,-354.68000000,60.24000000
342,1778625480.350111,0.71000000,3.53000000,1.53000000,-12.27000000,-354.68000000,60.24000000
343,1778625480.3607302,0.71000000,3.53000000,1.53000000,-12.27000000,-354.68000000,60.24000000
344,1778625480.3689961,0.71000000,3.53000000,1.53000000,-12.27000000,-354.68000000,60.24000000
345,1778625480.38325,0.71000000,3.53000000,1.53000000,-12.27000000,-354.68000000,60.24000000
346,1778625480.389054,0.71000000,3.53000000,1.53000000,-12.27000000,-354.68000000,60.24000000
347,1778625480.4022348,0.71000000,3.53000000,1.53000000,-12.27000000,-354.68000000,60.24000000
348,1778625480.409635,2.08000000,1.65000000,-0.95000000,162.11000000,42.97000000,-29.97000000
349,1778625480.422539,2.08000000,1.65000000,-0.95000000,162.11000000,42.97000000,-29.97000000
350,1778625480.428621,2.08000000,1.65000000,-0.95000000,162.11000000,42.97000000,-29.97000000
351,1778625480.440831,0.20000000,1.52000000,0.41000000,133.36000000,-92.71000000,21.42000000
352,1778625480.4488692,0.20000000,1.52000000,0.41000000,133.36000000,-92.71000000,21.42000000
353,1778625480.462992,0.20000000,1.52000000,0.41000000,133.36000000,-92.71000000,21.42000000
354,1778625480.468956,0.20000000,1.52000000,0.41000000,133.36000000,-92.71000000,21.42000000
355,1778625480.482908,0.20000000,1.48000000,0.39000000,100.10000000,-131.47000000,2.99000000
356,1778625480.489797,0.20000000,1.48000000,0.39000000,100.10000000,-131.47000000,2.99000000
357,1778625480.49959,0.20000000,1.48000000,0.39000000,100.10000000,-131.47000000,2.99000000
358,1778625480.510646,0.20000000,1.48000000,0.39000000,100.10000000,-131.47000000,2.99000000
359,1778625480.5192351,0.55000000,0.83000000,0.71000000,53.16000000,-150.09000000,12.94000000
360,1778625480.530904,0.55000000,0.83000000,0.71000000,53.16000000,-150.09000000,12.94000000
361,1778625480.539417,0.55000000,0.83000000,0.71000000,53.16000000,-150.09000000,12.94000000
362,1778625480.549333,0.55000000,0.83000000,0.71000000,53.16000000,-150.09000000,12.94000000
363,1778625480.5605,0.60000000,0.53000000,1.07000000,-20.63000000,-111.39000000,26.79000000
364,1778625480.572562,0.60000000,0.53000000,1.07000000,-20.63000000,-111.39000000,26.79000000
365,1778625480.5786061,0.60000000,0.53000000,1.07000000,-20.63000000,-111.39000000,26.79000000
366,1778625480.5922072,1.15000000,0.28000000,0.06000000,-107.06000000,-62.68000000,64.58000000
367,1778625480.60016,1.15000000,0.28000000,0.06000000,-107.06000000,-62.68000000,64.58000000
368,1778625480.610806,1.15000000,0.28000000,0.06000000,-107.06000000,-62.68000000,64.58000000
369,1778625480.6189902,1.15000000,0.28000000,0.06000000,-107.06000000,-62.68000000,64.58000000
370,1778625480.6330261,-0.29000000,0.74000000,1.03000000,-152.28000000,33.75000000,85.14000000
371,1778625480.6398132,-0.29000000,0.74000000,1.03000000,-152.28000000,33.75000000,85.14000000
372,1778625480.650167,-0.29000000,0.74000000,1.03000000,-152.28000000,33.75000000,85.14000000
373,1778625480.660494,-0.29000000,0.74000000,1.03000000,-152.28000000,33.75000000,85.14000000
374,1778625480.6725729,0.12000000,1.42000000,0.03000000,-187.93000000,78.37000000,43.21000000
375,1778625480.679069,0.12000000,1.42000000,0.03000000,-187.93000000,78.37000000,43.21000000
376,1778625480.688643,0.12000000,1.42000000,0.03000000,-187.93000000,78.37000000,43.21000000
377,1778625480.6986828,0.60000000,2.13000000,-0.31000000,-237.12000000,115.48000000,46.94000000
378,1778625480.7093089,0.60000000,2.13000000,-0.31000000,-237.12000000,115.48000000,46.94000000
379,1778625480.722713,0.60000000,2.13000000,-0.31000000,-237.12000000,115.48000000,46.94000000
380,1778625480.728943,0.60000000,2.13000000,-0.31000000,-237.12000000,115.48000000,46.94000000
381,1778625480.7432551,-0.63000000,3.39000000,-0.44000000,-227.91000000,-78.19000000,108.95000000
382,1778625480.7501671,-0.63000000,3.39000000,-0.44000000,-227.91000000,-78.19000000,108.95000000
383,1778625480.7608352,-0.63000000,3.39000000,-0.44000000,-227.91000000,-78.19000000,108.95000000
384,1778625480.768872,-0.63000000,3.39000000,-0.44000000,-227.91000000,-78.19000000,108.95000000
385,1778625480.778683,0.09000000,2.27000000,-0.05000000,-151.67000000,-83.80000000,115.84000000
386,1778625480.790139,0.09000000,2.27000000,-0.05000000,-151.67000000,-83.80000000,115.84000000
387,1778625480.800437,0.09000000,2.27000000,-0.05000000,-151.67000000,-83.80000000,115.84000000
388,1778625480.809946,0.51000000,1.59000000,-0.10000000,-162.29000000,46.39000000,57.25000000
389,1778625480.822602,0.51000000,1.59000000,-0.10000000,-162.29000000,46.39000000,57.25000000
390,1778625480.829136,0.51000000,1.59000000,-0.10000000,-162.29000000,46.39000000,57.25000000
391,1778625480.8397,0.51000000,1.59000000,-0.10000000,-162.29000000,46.39000000,57.25000000
392,1778625480.848767,0.51000000,1.59000000,-0.10000000,-162.29000000,46.39000000,57.25000000
393,1778625480.859193,0.51000000,1.59000000,-0.10000000,-162.29000000,46.39000000,57.25000000
394,1778625480.872593,0.51000000,1.59000000,-0.10000000,-162.29000000,46.39000000,57.25000000
395,1778625480.879738,0.51000000,1.59000000,-0.10000000,-162.29000000,46.39000000,57.25000000
396,1778625480.890191,0.51000000,1.59000000,-0.10000000,-162.29000000,46.39000000,57.25000000
397,1778625480.902551,0.51000000,1.59000000,-0.10000000,-162.29000000,46.39000000,57.25000000
398,1778625480.908851,0.51000000,1.59000000,-0.10000000,-162.29000000,46.39000000,57.25000000
399,1778625480.918572,0.51000000,1.59000000,-0.10000000,-162.29000000,46.39000000,57.25000000
400,1778625480.932245,0.51000000,1.59000000,-0.10000000,-162.29000000,46.39000000,57.25000000
401,1778625480.938933,-0.66000000,-0.06000000,-0.40000000,124.57000000,-136.29000000,-96.25000000
402,1778625480.949024,-0.66000000,-0.06000000,-0.40000000,124.57000000,-136.29000000,-96.25000000
403,1778625480.959809,-0.66000000,-0.06000000,-0.40000000,124.57000000,-136.29000000,-96.25000000
404,1778625480.972847,-0.17000000,-0.41000000,-0.50000000,243.65000000,-306.76000000,-73.12000000
405,1778625480.97861,-0.17000000,-0.41000000,-0.50000000,243.65000000,-306.76000000,-73.12000000
406,1778625480.9895139,-0.17000000,-0.41000000,-0.50000000,243.65000000,-306.76000000,-73.12000000
407,1778625481.001472,1.00000000,0.69000000,0.02000000,112.49000000,-35.83000000,-51.88000000
408,1778625481.0092711,1.00000000,0.69000000,0.02000000,112.49000000,-35.83000000,-51.88000000
409,1778625481.018691,1.00000000,0.69000000,0.02000000,112.49000000,-35.83000000,-51.88000000
410,1778625481.031494,1.00000000,0.69000000,0.02000000,112.49000000,-35.83000000,-51.88000000
411,1778625481.041377,0.50000000,1.84000000,1.11000000,-118.35000000,-190.92000000,111.76000000
412,1778625481.04923,0.50000000,1.84000000,1.11000000,-118.35000000,-190.92000000,111.76000000
413,1778625481.060933,0.50000000,1.84000000,1.11000000,-118.35000000,-190.92000000,111.76000000
414,1778625481.070432,0.50000000,1.84000000,1.11000000,-118.35000000,-190.92000000,111.76000000
415,1778625481.0787048,0.36000000,-0.57000000,-1.90000000,-16.91000000,-220.40000000,51.70000000
416,1778625481.089845,0.36000000,-0.57000000,-1.90000000,-16.91000000,-220.40000000,51.70000000
417,1778625481.1008599,0.36000000,-0.57000000,-1.90000000,-16.91000000,-220.40000000,51.70000000
418,1778625481.110962,-0.13000000,1.24000000,-1.32000000,22.71000000,-281.43000000,-105.04000000
419,1778625481.119064,-0.13000000,1.24000000,-1.32000000,22.71000000,-281.43000000,-105.04000000
420,1778625481.132264,-0.13000000,1.24000000,-1.32000000,22.71000000,-281.43000000,-105.04000000
421,1778625481.141696,-0.13000000,1.24000000,-1.32000000,22.71000000,-281.43000000,-105.04000000
422,1778625481.148673,-0.83000000,1.93000000,-1.72000000,22.71000000,-281.43000000,-105.04000000
423,1778625481.161181,-0.83000000,1.93000000,-1.72000000,-45.53000000,-92.41000000,-65.43000000
424,1778625481.169178,-0.83000000,1.93000000,-1.72000000,-45.53000000,-92.41000000,-65.43000000
425,1778625481.181052,-0.18000000,1.07000000,-0.62000000,85.51000000,-154.66000000,-24.23000000
426,1778625481.189499,-0.18000000,1.07000000,-0.62000000,85.51000000,-154.66000000,-24.23000000
427,1778625481.199679,-0.18000000,1.07000000,-0.62000000,85.51000000,-154.66000000,-24.23000000
428,1778625481.2093902,-0.18000000,1.07000000,-0.62000000,85.51000000,-154.66000000,-24.23000000
429,1778625481.2228339,0.19000000,2.10000000,-0.40000000,31.13000000,68.24000000,-66.41000000
430,1778625481.228586,0.19000000,2.10000000,-0.40000000,31.13000000,68.24000000,-66.41000000
431,1778625481.239251,0.19000000,2.10000000,-0.40000000,31.13000000,68.24000000,-66.41000000
432,1778625481.2486799,0.19000000,2.10000000,-0.40000000,31.13000000,68.24000000,-66.41000000
433,1778625481.260994,0.19000000,2.10000000,-0.40000000,31.13000000,68.24000000,-66.41000000
434,1778625481.2723572,0.19000000,2.10000000,-0.40000000,31.13000000,68.24000000,-66.41000000
435,1778625481.2810922,0.19000000,2.10000000,-0.40000000,31.13000000,68.24000000,-66.41000000
436,1778625481.2896361,0.19000000,2.10000000,-0.40000000,31.13000000,68.24000000,-66.41000000
437,1778625481.300352,0.19000000,2.10000000,-0.40000000,31.13000000,68.24000000,-66.41000000
438,1778625481.3094358,0.19000000,2.10000000,-0.40000000,31.13000000,68.24000000,-66.41000000
439,1778625481.31859,0.19000000,2.10000000,-0.40000000,31.13000000,68.24000000,-66.41000000
440,1778625481.3334012,0.67000000,1.00000000,0.46000000,101.56000000,-162.41000000,38.51000000
441,1778625481.339339,0.67000000,1.00000000,0.46000000,101.56000000,-162.41000000,38.51000000
442,1778625481.348691,0.67000000,1.00000000,0.46000000,101.56000000,-162.41000000,38.51000000
443,1778625481.360954,0.67000000,1.00000000,0.46000000,101.56000000,-162.41000000,38.51000000
444,1778625481.369132,0.09000000,0.60000000,0.68000000,69.03000000,-59.39000000,-0.06000000
445,1778625481.383273,0.09000000,0.60000000,0.68000000,69.03000000,-59.39000000,-0.06000000
446,1778625481.3893352,0.09000000,0.60000000,0.68000000,69.03000000,-59.39000000,-0.06000000
447,1778625481.4022248,0.09000000,0.60000000,0.68000000,69.03000000,-59.39000000,-0.06000000
448,1778625481.40968,0.09000000,0.60000000,0.68000000,69.03000000,-59.39000000,-0.06000000
449,1778625481.422676,0.09000000,0.60000000,0.68000000,69.03000000,-59.39000000,-0.06000000
450,1778625481.4313312,0.09000000,0.60000000,0.68000000,69.03000000,-59.39000000,-0.06000000
451,1778625481.4385831,0.09000000,0.60000000,0.68000000,69.03000000,-59.39000000,-0.06000000
452,1778625481.448651,0.09000000,0.60000000,0.68000000,69.03000000,-59.39000000,-0.06000000
453,1778625481.461053,0.09000000,0.60000000,0.68000000,69.03000000,-59.39000000,-0.06000000
454,1778625481.4688761,0.09000000,0.60000000,0.68000000,69.03000000,-59.39000000,-0.06000000
455,1778625481.481025,0.95000000,0.10000000,0.48000000,-95.46000000,-46.63000000,45.23000000
456,1778625481.490004,0.95000000,0.10000000,0.48000000,-95.46000000,-46.63000000,45.23000000
457,1778625481.500067,-0.41000000,0.63000000,0.54000000,-168.82000000,47.00000000,70.13000000
458,1778625481.5094929,-0.41000000,0.63000000,0.54000000,-168.82000000,47.00000000,70.13000000
459,1778625481.522675,0.13000000,1.23000000,0.04000000,-196.29000000,76.72000000,47.97000000
460,1778625481.528734,0.13000000,1.23000000,0.04000000,-196.29000000,76.72000000,47.97000000
461,1778625481.53985,0.13000000,1.23000000,0.04000000,-196.29000000,76.72000000,47.97000000
462,1778625481.548844,0.13000000,1.23000000,0.04000000,-196.29000000,76.72000000,47.97000000
463,1778625481.560232,-0.18000000,2.89000000,-0.10000000,-268.62000000,56.70000000,46.94000000
464,1778625481.572701,-0.18000000,2.89000000,-0.10000000,-268.62000000,56.70000000,46.94000000
465,1778625481.580158,-0.18000000,2.89000000,-0.10000000,-268.62000000,56.70000000,46.94000000
466,1778625481.5922308,-0.18000000,2.89000000,-0.10000000,-268.62000000,56.70000000,46.94000000
467,1778625481.601472,-0.18000000,2.89000000,-0.10000000,-268.62000000,56.70000000,46.94000000
468,1778625481.611072,-1.18000000,2.80000000,-0.35000000,-239.93000000,-303.22000000,6.10000000
469,1778625481.620082,-1.18000000,2.80000000,-0.35000000,-239.93000000,-303.22000000,6.10000000
470,1778625481.62863,-1.18000000,2.80000000,-0.35000000,-239.93000000,-303.22000000,6.10000000
471,1778625481.643413,0.21000000,2.37000000,0.25000000,-277.83000000,-2.38000000,97.23000000
472,1778625481.648573,0.21000000,2.37000000,0.25000000,-277.83000000,-2.38000000,97.23000000
473,1778625481.659442,0.21000000,2.37000000,0.25000000,-277.83000000,-2.38000000,97.23000000
474,1778625481.669597,0.26000000,1.52000000,-0.15000000,-277.83000000,-2.38000000,97.23000000
475,1778625481.6786618,0.26000000,1.52000000,-0.15000000,-184.51000000,54.08000000,13.31000000
476,1778625481.688658,0.26000000,1.52000000,-0.15000000,-184.51000000,54.08000000,13.31000000
477,1778625481.701727,0.26000000,1.52000000,-0.15000000,-184.51000000,54.08000000,13.31000000
478,1778625481.7111192,0.07000000,0.42000000,-0.17000000,-81.48000000,122.80000000,-36.99000000
479,1778625481.719133,0.07000000,0.42000000,-0.17000000,-81.48000000,122.80000000,-36.99000000
480,1778625481.7309818,0.07000000,0.42000000,-0.17000000,-81.48000000,122.80000000,-36.99000000
481,1778625481.7396858,0.07000000,0.42000000,-0.17000000,-81.48000000,122.80000000,-36.99000000
482,1778625481.7499819,-0.19000000,-0.07000000,-0.37000000,23.86000000,73.12000000,-80.02000000
483,1778625481.760863,-0.19000000,-0.07000000,-0.37000000,23.86000000,73.12000000,-80.02000000
484,1778625481.768882,-0.19000000,-0.07000000,-0.37000000,23.86000000,73.12000000,-80.02000000
485,1778625481.779487,-0.19000000,-0.07000000,-0.37000000,23.86000000,73.12000000,-80.02000000
486,1778625481.7894342,-0.25000000,-0.37000000,-0.40000000,134.03000000,-25.76000000,-48.16000000
487,1778625481.800529,-0.25000000,-0.37000000,-0.40000000,134.03000000,-25.76000000,-48.16000000
488,1778625481.809333,-0.25000000,-0.37000000,-0.40000000,134.03000000,-25.76000000,-48.16000000
489,1778625481.822697,-0.03000000,-0.09000000,-0.27000000,224.55000000,-91.61000000,-57.01000000
490,1778625481.829217,-0.03000000,-0.09000000,-0.27000000,224.55000000,-91.61000000,-57.01000000
491,1778625481.8413608,-0.03000000,-0.09000000,-0.27000000,224.55000000,-91.61000000,-57.01000000
492,1778625481.8501701,-0.03000000,-0.09000000,-0.27000000,224.55000000,-91.61000000,-57.01000000
493,1778625481.859684,0.10000000,0.56000000,0.09000000,141.48000000,-85.75000000,-88.44000000
494,1778625481.872737,0.10000000,0.56000000,0.09000000,141.48000000,-85.75000000,-88.44000000
495,1778625481.8794408,0.10000000,0.56000000,0.09000000,141.48000000,-85.75000000,-88.44000000
496,1778625481.889708,0.10000000,0.56000000,0.09000000,141.48000000,-85.75000000,-88.44000000
497,1778625481.8990521,0.10000000,0.56000000,0.09000000,141.48000000,-85.75000000,-88.44000000
498,1778625481.91082,0.10000000,0.56000000,0.09000000,141.48000000,-85.75000000,-88.44000000
499,1778625481.922304,0.10000000,0.56000000,0.09000000,141.48000000,-85.75000000,-88.44000000
500,1778625481.931701,0.10000000,0.56000000,0.09000000,141.48000000,-85.75000000,-88.44000000
501,1778625481.941422,0.10000000,0.56000000,0.09000000,141.48000000,-85.75000000,-88.44000000
502,1778625481.9505239,0.10000000,0.56000000,0.09000000,141.48000000,-85.75000000,-88.44000000
503,1778625481.961269,0.10000000,0.56000000,0.09000000,141.48000000,-85.75000000,-88.44000000
504,1778625481.9715142,0.10000000,0.56000000,0.09000000,141.48000000,-85.75000000,-88.44000000
505,1778625481.978719,0.10000000,0.56000000,0.09000000,141.48000000,-85.75000000,-88.44000000
506,1778625481.9899662,0.12000000,1.45000000,-0.81000000,44.13000000,-126.77000000,-13.12000000
507,1778625482.001439,0.12000000,1.45000000,-0.81000000,44.13000000,-126.77000000,-13.12000000
508,1778625482.0111098,0.50000000,1.85000000,-0.73000000,44.13000000,-126.77000000,-13.12000000
509,1778625482.020019,0.50000000,1.85000000,-0.73000000,2.62000000,-180.48000000,-25.63000000
510,1778625482.0285912,0.50000000,1.85000000,-0.73000000,2.62000000,-180.48000000,-25.63000000
511,1778625482.038644,0.50000000,1.85000000,-0.73000000,2.62000000,-180.48000000,-25.63000000
512,1778625482.052226,0.17000000,1.88000000,-0.24000000,21.67000000,-4.70000000,-50.48000000
513,1778625482.0612092,0.17000000,1.88000000,-0.24000000,21.67000000,-4.70000000,-50.48000000
514,1778625482.069691,0.17000000,1.88000000,-0.24000000,21.67000000,-4.70000000,-50.48000000
515,1778625482.0826108,0.17000000,1.88000000,-0.24000000,21.67000000,-4.70000000,-50.48000000
516,1778625482.089841,-0.19000000,1.50000000,-0.93000000,56.21000000,72.57000000,-48.95000000
517,1778625482.099723,-0.19000000,1.50000000,-0.93000000,56.21000000,72.57000000,-48.95000000
518,1778625482.110346,-0.19000000,1.50000000,-0.93000000,56.21000000,72.57000000,-48.95000000
519,1778625482.119008,-0.19000000,1.50000000,-0.93000000,56.21000000,72.57000000,-48.95000000
520,1778625482.132205,0.63000000,1.34000000,-0.49000000,144.04000000,27.40000000,-19.78000000
521,1778625482.1396108,0.63000000,1.34000000,-0.49000000,144.04000000,27.40000000,-19.78000000
522,1778625482.14859,0.63000000,1.34000000,-0.49000000,144.04000000,27.40000000,-19.78000000
523,1778625482.160884,0.63000000,1.34000000,-0.49000000,144.04000000,27.40000000,-19.78000000
524,1778625482.16886,0.67000000,1.58000000,0.17000000,152.10000000,-55.30000000,10.19000000
525,1778625482.181334,0.67000000,1.58000000,0.17000000,152.10000000,-55.30000000,10.19000000
526,1778625482.189872,0.67000000,1.58000000,0.17000000,152.10000000,-55.30000000,10.19000000
527,1778625482.199223,-0.12000000,1.33000000,0.86000000,117.43000000,-57.98000000,15.32000000
528,1778625482.2112331,-0.12000000,1.33000000,0.86000000,117.43000000,-57.98000000,15.32000000
529,1778625482.218862,-0.12000000,1.33000000,0.86000000,117.43000000,-57.98000000,15.32000000
530,1778625482.2286599,0.17000000,0.88000000,0.84000000,98.75000000,-60.30000000,-20.63000000
531,1778625482.2430909,0.17000000,0.88000000,0.84000000,98.75000000,-60.30000000,-20.63000000
532,1778625482.2492511,0.17000000,0.88000000,0.84000000,98.75000000,-60.30000000,-20.63000000
533,1778625482.259449,0.17000000,0.88000000,0.84000000,98.75000000,-60.30000000,-20.63000000
534,1778625482.272758,0.39000000,0.53000000,1.44000000,98.75000000,-60.30000000,-20.63000000
535,1778625482.2804658,0.39000000,0.53000000,1.44000000,-17.03000000,-38.21000000,-9.09000000
536,1778625482.2902431,0.39000000,0.53000000,1.44000000,-17.03000000,-38.21000000,-9.09000000
537,1778625482.30049,0.39000000,0.53000000,1.44000000,-17.03000000,-38.21000000,-9.09000000
538,1778625482.311289,0.39000000,0.53000000,1.44000000,-17.03000000,-38.21000000,-9.09000000
539,1778625482.319037,0.39000000,0.53000000,1.44000000,-17.03000000,-38.21000000,-9.09000000
540,1778625482.3291671,0.39000000,0.53000000,1.44000000,-17.03000000,-38.21000000,-9.09000000
541,1778625482.3415282,0.39000000,0.53000000,1.44000000,-17.03000000,-38.21000000,-9.09000000
542,1778625482.3506439,0.39000000,0.53000000,1.44000000,-17.03000000,-38.21000000,-9.09000000
543,1778625482.3625312,0.39000000,0.53000000,1.44000000,-17.03000000,-38.21000000,-9.09000000
544,1778625482.370841,0.14000000,0.30000000,0.33000000,-136.84000000,46.45000000,53.77000000
545,1778625482.380089,0.34000000,0.93000000,0.02000000,-144.29000000,91.61000000,56.40000000
546,1778625482.39032,0.34000000,0.93000000,0.02000000,-144.29000000,91.61000000,56.40000000
547,1778625482.4022028,0.34000000,0.93000000,0.02000000,-144.29000000,91.61000000,56.40000000
548,1778625482.409361,0.30000000,1.91000000,0.02000000,-180.11000000,130.25000000,75.50000000
549,1778625482.422776,0.30000000,1.91000000,0.02000000,-180.11000000,130.25000000,75.50000000
550,1778625482.428611,0.30000000,1.91000000,0.02000000,-180.11000000,130.25000000,75.50000000
551,1778625482.441827,0.30000000,1.91000000,0.02000000,-180.11000000,130.25000000,75.50000000
552,1778625482.449831,0.30000000,1.91000000,0.02000000,-180.11000000,130.25000000,75.50000000
553,1778625482.461314,0.30000000,1.91000000,0.02000000,-180.11000000,130.25000000,75.50000000
554,1778625482.468884,0.30000000,1.91000000,0.02000000,-180.11000000,130.25000000,75.50000000
555,1778625482.4811819,0.30000000,1.91000000,0.02000000,-180.11000000,130.25000000,75.50000000
556,1778625482.490365,0.30000000,1.91000000,0.02000000,-180.11000000,130.25000000,75.50000000
557,1778625482.5004349,-0.58000000,2.76000000,-0.17000000,-163.09000000,-172.12000000,71.72000000
558,1778625482.5096471,0.59000000,2.32000000,0.10000000,-203.43000000,36.07000000,114.69000000
559,1778625482.522828,0.59000000,2.32000000,0.10000000,-203.43000000,36.07000000,114.69000000
560,1778625482.5288162,0.59000000,2.32000000,0.10000000,-203.43000000,36.07000000,114.69000000
561,1778625482.5398989,0.19000000,1.62000000,-0.37000000,-149.90000000,113.34000000,58.65000000
562,1778625482.5487611,0.19000000,1.62000000,-0.37000000,-149.90000000,113.34000000,58.65000000
563,1778625482.5612512,0.19000000,1.62000000,-0.37000000,-149.90000000,113.34000000,58.65000000
564,1778625482.568959,0.19000000,1.62000000,-0.37000000,-149.90000000,113.34000000,58.65000000
565,1778625482.581435,-0.45000000,0.22000000,-0.23000000,-58.04000000,105.77000000,-1.40000000
566,1778625482.591985,-0.45000000,0.22000000,-0.23000000,-58.04000000,105.77000000,-1.40000000
567,1778625482.598644,-0.45000000,0.22000000,-0.23000000,-58.04000000,105.77000000,-1.40000000
568,1778625482.609617,-0.45000000,0.22000000,-0.23000000,-58.04000000,105.77000000,-1.40000000
569,1778625482.618618,-0.59000000,-0.25000000,-0.41000000,59.57000000,-13.06000000,-32.35000000
570,1778625482.629518,-0.59000000,-0.25000000,-0.41000000,59.57000000,-13.06000000,-32.35000000
571,1778625482.6392078,-0.59000000,-0.25000000,-0.41000000,59.57000000,-13.06000000,-32.35000000
572,1778625482.6508968,-0.67000000,-0.29000000,-0.47000000,59.57000000,-13.06000000,-32.35000000
573,1778625482.660168,-0.67000000,-0.29000000,-0.47000000,177.37000000,-212.04000000,-59.39000000
574,1778625482.6688771,-0.67000000,-0.29000000,-0.47000000,177.37000000,-212.04000000,-59.39000000
575,1778625482.680446,-0.67000000,-0.29000000,-0.47000000,177.37000000,-212.04000000,-59.39000000
576,1778625482.6926458,0.37000000,0.09000000,0.20000000,139.22000000,-63.96000000,-60.55000000
577,1778625482.701549,0.37000000,0.09000000,0.20000000,139.22000000,-63.96000000,-60.55000000
578,1778625482.709492,0.37000000,0.09000000,0.20000000,139.22000000,-63.96000000,-60.55000000
579,1778625482.7190158,0.37000000,0.09000000,0.20000000,139.22000000,-63.96000000,-60.55000000
580,1778625482.729266,0.37000000,0.09000000,0.20000000,139.22000000,-63.96000000,-60.55000000
581,1778625482.738883,0.73000000,1.37000000,1.20000000,-44.31000000,-99.43000000,61.95000000
582,1778625482.748799,0.73000000,1.37000000,1.20000000,-44.31000000,-99.43000000,61.95000000
583,1778625482.761502,0.73000000,1.37000000,1.20000000,-44.31000000,-99.43000000,61.95000000
584,1778625482.770741,0.03000000,0.42000000,0.40000000,-62.44000000,-158.39000000,61.95000000
585,1778625482.778689,0.03000000,0.42000000,0.40000000,-62.44000000,-158.39000000,61.95000000
586,1778625482.788655,0.03000000,0.42000000,0.40000000,-62.44000000,-158.39000000,61.95000000
587,1778625482.800608,0.03000000,0.42000000,0.40000000,-62.44000000,-158.39000000,61.95000000
588,1778625482.811129,0.30000000,1.48000000,-1.54000000,64.39000000,-111.45000000,-154.11000000
589,1778625482.81936,0.30000000,1.48000000,-1.54000000,64.39000000,-111.45000000,-154.11000000
590,1778625482.8290792,0.30000000,1.48000000,-1.54000000,64.39000000,-111.45000000,-154.11000000
591,1778625482.8388789,0.30000000,1.48000000,-1.54000000,64.39000000,-111.45000000,-154.11000000
592,1778625482.84955,-0.54000000,2.63000000,-0.95000000,7.39000000,-57.62000000,40.89000000
593,1778625482.861299,-0.54000000,2.63000000,-0.95000000,7.39000000,-57.62000000,40.89000000
594,1778625482.868801,-0.54000000,2.63000000,-0.95000000,7.39000000,-57.62000000,40.89000000
595,1778625482.878583,-0.81000000,0.73000000,-0.42000000,7.39000000,-57.62000000,40.89000000
596,1778625482.8885949,-0.81000000,0.73000000,-0.42000000,23.19000000,-104.37000000,-9.77000000
597,1778625482.8995898,-0.81000000,0.73000000,-0.42000000,23.19000000,-104.37000000,-9.77000000
598,1778625482.91017,-0.81000000,0.73000000,-0.42000000,23.19000000,-104.37000000,-9.77000000
599,1778625482.918657,-0.16000000,1.83000000,-0.33000000,23.19000000,-104.37000000,-9.77000000
600,1778625482.930281,-0.16000000,1.83000000,-0.33000000,58.11000000,-91.86000000,-70.07000000
601,1778625482.939161,-0.16000000,1.83000000,-0.33000000,58.11000000,-91.86000000,-70.07000000
602,1778625482.951373,-0.16000000,1.83000000,-0.33000000,58.11000000,-91.86000000,-70.07000000
603,1778625482.962191,-0.16000000,1.83000000,-0.33000000,58.11000000,-91.86000000,-70.07000000
604,1778625482.971756,-0.16000000,1.83000000,-0.33000000,58.11000000,-91.86000000,-70.07000000
605,1778625482.978719,-0.16000000,1.83000000,-0.33000000,58.11000000,-91.86000000,-70.07000000
606,1778625482.9903538,-0.16000000,1.83000000,-0.33000000,58.11000000,-91.86000000,-70.07000000
607,1778625483.001701,-0.16000000,1.83000000,-0.33000000,58.11000000,-91.86000000,-70.07000000
608,1778625483.010377,-0.16000000,1.83000000,-0.33000000,58.11000000,-91.86000000,-70.07000000
609,1778625483.019027,-0.16000000,1.83000000,-0.33000000,58.11000000,-91.86000000,-70.07000000
610,1778625483.03281,0.78000000,1.65000000,-0.32000000,112.61000000,10.07000000,-52.61000000
611,1778625483.0403662,0.65000000,1.56000000,0.03000000,103.33000000,-56.40000000,-18.92000000
612,1778625483.052117,0.65000000,1.56000000,0.03000000,103.33000000,-56.40000000,-18.92000000
613,1778625483.0589828,0.65000000,1.56000000,0.03000000,103.33000000,-56.40000000,-18.92000000
614,1778625483.068744,0.65000000,1.56000000,0.03000000,103.33000000,-56.40000000,-18.92000000
615,1778625483.0807219,-0.05000000,0.97000000,0.69000000,87.46000000,-169.92000000,23.32000000
616,1778625483.088947,-0.05000000,0.97000000,0.69000000,87.46000000,-169.92000000,23.32000000
617,1778625483.100068,-0.05000000,0.97000000,0.69000000,87.46000000,-169.92000000,23.32000000
618,1778625483.108597,0.62000000,0.45000000,0.32000000,87.46000000,-169.92000000,23.32000000
619,1778625483.119614,0.62000000,0.45000000,0.32000000,60.30000000,-127.93000000,-15.08000000
620,1778625483.129515,0.62000000,0.45000000,0.32000000,60.30000000,-127.93000000,-15.08000000
621,1778625483.138697,0.62000000,0.45000000,0.32000000,60.30000000,-127.93000000,-15.08000000
622,1778625483.1505249,1.23000000,0.45000000,1.16000000,-13.92000000,-28.26000000,9.40000000
623,1778625483.162595,1.23000000,0.45000000,1.16000000,-13.92000000,-28.26000000,9.40000000
624,1778625483.168879,1.23000000,0.45000000,1.16000000,-13.92000000,-28.26000000,9.40000000
625,1778625483.1786711,1.23000000,0.45000000,1.16000000,-13.92000000,-28.26000000,9.40000000
626,1778625483.193512,-0.10000000,0.38000000,0.70000000,-102.17000000,-9.52000000,78.25000000
627,1778625483.199323,-0.10000000,0.38000000,0.70000000,-102.17000000,-9.52000000,78.25000000
628,1778625483.2116978,-0.10000000,0.38000000,0.70000000,-102.17000000,-9.52000000,78.25000000
629,1778625483.218893,-0.10000000,0.38000000,0.70000000,-102.17000000,-9.52000000,78.25000000
630,1778625483.2334158,-0.54000000,0.64000000,0.50000000,-174.19000000,41.93000000,45.23000000
631,1778625483.240423,-0.54000000,0.64000000,0.50000000,-174.19000000,41.93000000,45.23000000
632,1778625483.2509298,-0.54000000,0.64000000,0.50000000,-174.19000000,41.93000000,45.23000000
633,1778625483.259352,0.06000000,1.15000000,-0.08000000,-199.89000000,34.00000000,30.82000000
634,1778625483.272927,0.06000000,1.15000000,-0.08000000,-199.89000000,34.00000000,30.82000000
635,1778625483.280221,0.06000000,1.15000000,-0.08000000,-199.89000000,34.00000000,30.82000000
636,1778625483.288605,0.06000000,1.15000000,-0.08000000,-199.89000000,34.00000000,30.82000000
637,1778625483.303574,0.57000000,2.37000000,-0.17000000,-238.34000000,88.68000000,44.56000000
638,1778625483.309292,0.57000000,2.37000000,-0.17000000,-238.34000000,88.68000000,44.56000000
639,1778625483.318868,0.57000000,2.37000000,-0.17000000,-238.34000000,88.68000000,44.56000000
640,1778625483.3294568,0.57000000,2.37000000,-0.17000000,-238.34000000,88.68000000,44.56000000
641,1778625483.3431091,0.57000000,2.37000000,-0.17000000,-238.34000000,88.68000000,44.56000000
642,1778625483.350912,0.57000000,2.37000000,-0.17000000,-238.34000000,88.68000000,44.56000000
643,1778625483.361658,0.57000000,2.37000000,-0.17000000,-238.34000000,88.68000000,44.56000000
644,1778625483.368902,0.57000000,2.37000000,-0.17000000,-238.34000000,88.68000000,44.56000000
645,1778625483.380769,0.57000000,2.37000000,-0.17000000,-238.34000000,88.68000000,44.56000000
646,1778625483.3886578,0.57000000,2.37000000,-0.17000000,-238.34000000,88.68000000,44.56000000
647,1778625483.401043,0.57000000,2.37000000,-0.17000000,-238.34000000,88.68000000,44.56000000
648,1778625483.409174,0.57000000,2.37000000,-0.17000000,-238.34000000,88.68000000,44.56000000
649,1778625483.419826,0.43000000,1.24000000,-0.13000000,-157.41000000,94.06000000,15.14000000
650,1778625483.428769,0.43000000,1.24000000,-0.13000000,-157.41000000,94.06000000,15.14000000
651,1778625483.438669,0.43000000,1.24000000,-0.13000000,-157.41000000,94.06000000,15.14000000
652,1778625483.448977,0.43000000,1.24000000,-0.13000000,-157.41000000,94.06000000,15.14000000
653,1778625483.4598951,-0.16000000,0.53000000,-0.19000000,-56.46000000,94.79000000,-12.08000000
654,1778625483.468819,-0.16000000,0.53000000,-0.19000000,-56.46000000,94.79000000,-12.08000000
655,1778625483.4793432,-0.16000000,0.53000000,-0.19000000,-56.46000000,94.79000000,-12.08000000
656,1778625483.490864,-0.16000000,0.53000000,-0.19000000,-56.46000000,94.79000000,-12.08000000
657,1778625483.500778,-0.16000000,0.53000000,-0.19000000,-56.46000000,94.79000000,-12.08000000
658,1778625483.510607,-0.16000000,0.53000000,-0.19000000,-56.46000000,94.79000000,-12.08000000
659,1778625483.5198069,-0.16000000,0.53000000,-0.19000000,-56.46000000,94.79000000,-12.08000000
660,1778625483.528683,-0.16000000,0.53000000,-0.19000000,-56.46000000,94.79000000,-12.08000000
661,1778625483.5404391,-0.16000000,0.53000000,-0.19000000,-56.46000000,94.79000000,-12.08000000
662,1778625483.550495,-0.16000000,0.53000000,-0.19000000,-56.46000000,94.79000000,-12.08000000
663,1778625483.560225,-0.29000000,-0.02000000,-0.27000000,181.58000000,-145.87000000,-21.42000000
664,1778625483.5690281,0.48000000,0.58000000,0.19000000,252.38000000,-160.28000000,-78.19000000
665,1778625483.580513,0.48000000,0.58000000,0.19000000,252.38000000,-160.28000000,-78.19000000
666,1778625483.5888672,0.48000000,0.58000000,0.19000000,252.38000000,-160.28000000,-78.19000000
667,1778625483.598788,0.55000000,1.00000000,0.26000000,252.38000000,-160.28000000,-78.19000000
668,1778625483.6086001,0.55000000,1.00000000,0.26000000,66.35000000,5.19000000,6.29000000
669,1778625483.618585,0.55000000,1.00000000,0.26000000,66.35000000,5.19000000,6.29000000
670,1778625483.628969,0.55000000,1.00000000,0.26000000,66.35000000,5.19000000,6.29000000
671,1778625483.638624,-0.11000000,0.78000000,1.19000000,-71.78000000,-286.07000000,74.40000000
672,1778625483.649023,-0.11000000,0.78000000,1.19000000,-71.78000000,-286.07000000,74.40000000
673,1778625483.659183,-0.11000000,0.78000000,1.19000000,-71.78000000,-286.07000000,74.40000000
674,1778625483.670829,-0.11000000,0.78000000,1.19000000,-71.78000000,-286.07000000,74.40000000
675,1778625483.678696,0.12000000,-0.05000000,-1.57000000,62.56000000,-138.12000000,34.00000000
676,1778625483.688704,0.12000000,-0.05000000,-1.57000000,62.56000000,-138.12000000,34.00000000
677,1778625483.701149,0.12000000,-0.05000000,-1.57000000,62.56000000,-138.12000000,34.00000000
678,1778625483.712127,0.12000000,-0.05000000,-1.57000000,62.56000000,-138.12000000,34.00000000
679,1778625483.7194738,0.11000000,3.00000000,0.76000000,132.02000000,-72.75000000,-59.02000000
680,1778625483.7287521,0.11000000,3.00000000,0.76000000,132.02000000,-72.75000000,-59.02000000
681,1778625483.740532,0.11000000,3.00000000,0.76000000,132.02000000,-72.75000000,-59.02000000
682,1778625483.750887,0.11000000,3.00000000,0.76000000,132.02000000,-72.75000000,-59.02000000
683,1778625483.758744,0.30000000,1.24000000,-0.79000000,15.87000000,-73.73000000,25.15000000
684,1778625483.768717,0.30000000,1.24000000,-0.79000000,15.87000000,-73.73000000,25.15000000
685,1778625483.7787142,0.30000000,1.24000000,-0.79000000,15.87000000,-73.73000000,25.15000000
686,1778625483.789929,-0.27000000,1.06000000,-0.31000000,40.53000000,-65.37000000,0.37000000
687,1778625483.801034,-0.27000000,1.06000000,-0.31000000,40.53000000,-65.37000000,0.37000000
688,1778625483.808605,-0.27000000,1.06000000,-0.31000000,40.53000000,-65.37000000,0.37000000
689,1778625483.818654,-0.27000000,1.06000000,-0.31000000,40.53000000,-65.37000000,0.37000000
690,1778625483.83082,-0.35000000,1.83000000,-0.45000000,65.98000000,-168.70000000,2.75000000
691,1778625483.840461,-0.35000000,1.83000000,-0.45000000,65.98000000,-168.70000000,2.75000000
692,1778625483.8494022,-0.35000000,1.83000000,-0.45000000,65.98000000,-168.70000000,2.75000000
693,1778625483.8631191,0.23000000,1.39000000,-0.61000000,81.12000000,-184.57000000,-25.51000000
694,1778625483.868852,0.23000000,1.39000000,-0.61000000,81.12000000,-184.57000000,-25.51000000
695,1778625483.878672,0.23000000,1.39000000,-0.61000000,81.12000000,-184.57000000,-25.51000000
696,1778625483.890892,0.23000000,1.39000000,-0.61000000,81.12000000,-184.57000000,-25.51000000
697,1778625483.898828,0.23000000,1.39000000,-0.61000000,81.12000000,-184.57000000,-25.51000000
698,1778625483.9086,1.07000000,1.73000000,-0.57000000,131.71000000,-77.27000000,-53.28000000
699,1778625483.919043,1.07000000,1.73000000,-0.57000000,131.71000000,-77.27000000,-53.28000000
700,1778625483.929183,1.07000000,1.73000000,-0.57000000,131.71000000,-77.27000000,-53.28000000
701,1778625483.938646,0.98000000,1.61000000,0.36000000,138.18000000,-226.75000000,12.82000000
702,1778625483.9489841,0.98000000,1.61000000,0.36000000,138.18000000,-226.75000000,12.82000000
703,1778625483.9589329,0.98000000,1.61000000,0.36000000,138.18000000,-226.75000000,12.82000000
704,1778625483.968906,0.98000000,1.61000000,0.36000000,138.18000000,-226.75000000,12.82000000
705,1778625483.9786282,0.15000000,1.29000000,0.97000000,72.39000000,-151.67000000,24.84000000
706,1778625483.993537,0.15000000,1.29000000,0.97000000,72.39000000,-151.67000000,24.84000000
707,1778625483.998652,0.15000000,1.29000000,0.97000000,72.39000000,-151.67000000,24.84000000
708,1778625484.01136,0.15000000,1.29000000,0.97000000,72.39000000,-151.67000000,24.84000000
709,1778625484.018952,0.15000000,1.29000000,0.97000000,72.39000000,-151.67000000,24.84000000
710,1778625484.030462,0.15000000,1.29000000,0.97000000,72.39000000,-151.67000000,24.84000000
711,1778625484.042631,0.15000000,1.29000000,0.97000000,72.39000000,-151.67000000,24.84000000
712,1778625484.051023,0.15000000,1.29000000,0.97000000,72.39000000,-151.67000000,24.84000000
713,1778625484.060063,0.15000000,1.29000000,0.97000000,72.39000000,-151.67000000,24.84000000
714,1778625484.0725918,0.15000000,1.29000000,0.97000000,72.39000000,-151.67000000,24.84000000
715,1778625484.0812201,0.15000000,1.29000000,0.97000000,72.39000000,-151.67000000,24.84000000
716,1778625484.0887291,0.64000000,0.16000000,0.08000000,-69.40000000,-140.56000000,35.16000000
717,1778625484.098606,0.64000000,0.16000000,0.08000000,-132.69000000,-77.45000000,75.93000000
718,1778625484.111211,0.64000000,0.16000000,0.08000000,-132.69000000,-77.45000000,75.93000000
719,1778625484.118676,0.64000000,0.16000000,0.08000000,-132.69000000,-77.45000000,75.93000000
720,1778625484.128665,-0.22000000,0.83000000,0.32000000,-132.69000000,-77.45000000,75.93000000
721,1778625484.138659,-0.22000000,0.83000000,0.32000000,-177.86000000,-26.25000000,65.98000000
722,1778625484.148609,-0.22000000,0.83000000,0.32000000,-177.86000000,-26.25000000,65.98000000
723,1778625484.1591659,-0.22000000,0.83000000,0.32000000,-177.86000000,-26.25000000,65.98000000
724,1778625484.168959,-0.06000000,1.70000000,0.08000000,-194.89000000,19.53000000,47.30000000
725,1778625484.178598,-0.06000000,1.70000000,0.08000000,-194.89000000,19.53000000,47.30000000
726,1778625484.193511,-0.06000000,1.70000000,0.08000000,-194.89000000,19.53000000,47.30000000
727,1778625484.200017,-0.06000000,1.70000000,0.08000000,-194.89000000,19.53000000,47.30000000
728,1778625484.211858,-0.32000000,2.33000000,-0.26000000,-231.99000000,-59.27000000,34.79000000
729,1778625484.21903,-0.32000000,2.33000000,-0.26000000,-231.99000000,-59.27000000,34.79000000
730,1778625484.2286541,-0.32000000,2.33000000,-0.26000000,-231.99000000,-59.27000000,34.79000000
731,1778625484.238674,-0.32000000,2.33000000,-0.26000000,-231.99000000,-59.27000000,34.79000000
732,1778625484.248831,-0.10000000,2.31000000,-0.30000000,-138.55000000,-141.17000000,40.77000000
733,1778625484.259647,-0.10000000,2.31000000,-0.30000000,-138.55000000,-141.17000000,40.77000000
734,1778625484.269821,-0.10000000,2.31000000,-0.30000000,-138.55000000,-141.17000000,40.77000000
735,1778625484.2786372,-0.10000000,2.31000000,-0.30000000,-138.55000000,-141.17000000,40.77000000
736,1778625484.291968,0.11000000,1.86000000,-0.16000000,-155.52000000,-73.18000000,87.46000000
737,1778625484.301259,0.11000000,1.86000000,-0.16000000,-155.52000000,-73.18000000,87.46000000
738,1778625484.312002,0.11000000,1.86000000,-0.16000000,-155.52000000,-73.18000000,87.46000000
739,1778625484.3188941,0.25000000,1.18000000,-0.04000000,-109.37000000,34.24000000,22.03000000
740,1778625484.328713,0.25000000,1.18000000,-0.04000000,-109.37000000,34.24000000,22.03000000
741,1778625484.338644,0.25000000,1.18000000,-0.04000000,-109.37000000,34.24000000,22.03000000
742,1778625484.350742,0.25000000,1.18000000,-0.04000000,-109.37000000,34.24000000,22.03000000
743,1778625484.362495,-0.26000000,0.21000000,-0.36000000,-21.24000000,34.79000000,-37.29000000
744,1778625484.369025,-0.26000000,0.21000000,-0.36000000,-21.24000000,34.79000000,-37.29000000
745,1778625484.3785899,-0.26000000,0.21000000,-0.36000000,-21.24000000,34.79000000,-37.29000000
746,1778625484.388685,-0.26000000,0.21000000,-0.36000000,-21.24000000,34.79000000,-37.29000000
747,1778625484.400903,-0.26000000,0.21000000,-0.36000000,-21.24000000,34.79000000,-37.29000000
748,1778625484.409386,-0.26000000,0.21000000,-0.36000000,-21.24000000,34.79000000,-37.29000000
749,1778625484.419063,-0.26000000,0.21000000,-0.36000000,-21.24000000,34.79000000,-37.29000000
750,1778625484.428737,-0.26000000,0.21000000,-0.36000000,-21.24000000,34.79000000,-37.29000000
751,1778625484.438687,-0.26000000,0.21000000,-0.36000000,-21.24000000,34.79000000,-37.29000000
752,1778625484.451914,-0.26000000,0.21000000,-0.36000000,-21.24000000,34.79000000,-37.29000000
753,1778625484.461942,-0.26000000,0.21000000,-0.36000000,-21.24000000,34.79000000,-37.29000000
754,1778625484.468758,0.82000000,0.85000000,0.88000000,83.19000000,-81.18000000,-23.01000000
755,1778625484.478644,0.82000000,0.85000000,0.88000000,83.19000000,-81.18000000,-23.01000000
756,1778625484.4886,0.82000000,0.85000000,0.88000000,83.19000000,-81.18000000,-23.01000000
757,1778625484.5013309,0.82000000,0.85000000,0.88000000,83.19000000,-81.18000000,-23.01000000
758,1778625484.510762,0.21000000,0.31000000,0.60000000,-103.88000000,-248.17000000,64.09000000
759,1778625484.5189812,0.21000000,0.31000000,0.60000000,-103.88000000,-248.17000000,64.09000000
760,1778625484.530748,0.21000000,0.31000000,0.60000000,-103.88000000,-248.17000000,64.09000000
761,1778625484.538611,0.21000000,0.31000000,0.60000000,-103.88000000,-248.17000000,64.09000000
762,1778625484.548822,0.21000000,0.31000000,0.60000000,-103.88000000,-248.17000000,64.09000000
763,1778625484.5593169,0.21000000,0.31000000,0.60000000,-103.88000000,-248.17000000,64.09000000
764,1778625484.5708082,0.21000000,0.31000000,0.60000000,-103.88000000,-248.17000000,64.09000000
765,1778625484.579621,0.21000000,0.31000000,0.60000000,-103.88000000,-248.17000000,64.09000000
766,1778625484.5886238,0.21000000,0.31000000,0.60000000,-103.88000000,-248.17000000,64.09000000
767,1778625484.598838,0.28000000,2.63000000,2.09000000,36.87000000,-226.14000000,47.97000000
768,1778625484.609261,0.28000000,2.63000000,2.09000000,36.87000000,-226.14000000,47.97000000
769,1778625484.621537,-0.63000000,1.17000000,-0.54000000,-20.45000000,-241.88000000,-12.08000000
770,1778625484.628631,-0.63000000,1.17000000,-0.54000000,-20.45000000,-241.88000000,-12.08000000
771,1778625484.640976,-0.63000000,1.17000000,-0.54000000,-20.45000000,-241.88000000,-12.08000000
772,1778625484.652372,-0.63000000,1.17000000,-0.54000000,-20.45000000,-241.88000000,-12.08000000
773,1778625484.65932,-0.19000000,1.29000000,-1.02000000,-20.45000000,-241.88000000,-12.08000000
774,1778625484.6711302,-0.19000000,1.29000000,-1.02000000,50.42000000,-128.54000000,-49.50000000
775,1778625484.678963,-0.19000000,1.29000000,-1.02000000,50.42000000,-128.54000000,-49.50000000
776,1778625484.688663,-0.19000000,1.29000000,-1.02000000,50.42000000,-128.54000000,-49.50000000
777,1778625484.702736,1.32000000,2.53000000,-0.71000000,173.77000000,-42.91000000,-58.65000000
778,1778625484.7115352,1.32000000,2.53000000,-0.71000000,173.77000000,-42.91000000,-58.65000000
779,1778625484.718879,1.32000000,2.53000000,-0.71000000,173.77000000,-42.91000000,-58.65000000
780,1778625484.729256,1.32000000,2.53000000,-0.71000000,173.77000000,-42.91000000,-58.65000000
781,1778625484.742667,0.63000000,1.70000000,-0.08000000,173.77000000,-42.91000000,-58.65000000
782,1778625484.751522,0.63000000,1.70000000,-0.08000000,143.43000000,-27.77000000,-4.39000000
783,1778625484.758985,0.63000000,1.70000000,-0.08000000,143.43000000,-27.77000000,-4.39000000
784,1778625484.7710779,-0.57000000,1.74000000,0.90000000,143.43000000,-27.77000000,-4.39000000
785,1778625484.778593,-0.57000000,1.74000000,0.90000000,118.23000000,-145.02000000,33.02000000
786,1778625484.78998,-0.57000000,1.74000000,0.90000000,118.23000000,-145.02000000,33.02000000
787,1778625484.80119,-0.57000000,1.74000000,0.90000000,118.23000000,-145.02000000,33.02000000
788,1778625484.809369,0.37000000,0.98000000,0.62000000,118.23000000,-145.02000000,33.02000000
789,1778625484.819009,0.37000000,0.98000000,0.62000000,72.20000000,-126.53000000,-40.34000000
790,1778625484.828631,0.37000000,0.98000000,0.62000000,72.20000000,-126.53000000,-40.34000000
791,1778625484.838576,0.37000000,0.98000000,0.62000000,72.20000000,-126.53000000,-40.34000000
792,1778625484.851491,0.61000000,0.49000000,0.78000000,28.56000000,-110.72000000,-43.76000000
793,1778625484.8594801,0.61000000,0.49000000,0.78000000,28.56000000,-110.72000000,-43.76000000
794,1778625484.8688772,0.61000000,0.49000000,0.78000000,28.56000000,-110.72000000,-43.76000000
795,1778625484.878866,0.61000000,0.49000000,0.78000000,28.56000000,-110.72000000,-43.76000000
796,1778625484.888604,0.74000000,0.42000000,0.75000000,-77.15000000,-70.19000000,10.31000000
797,1778625484.901098,0.74000000,0.42000000,0.75000000,-77.15000000,-70.19000000,10.31000000
798,1778625484.909369,0.74000000,0.42000000,0.75000000,-77.15000000,-70.19000000,10.31000000
799,1778625484.921333,0.74000000,0.42000000,0.75000000,-77.15000000,-70.19000000,10.31000000
800,1778625484.930475,-0.16000000,0.40000000,0.94000000,-143.86000000,25.39000000,43.33000000
801,1778625484.9391518,-0.16000000,0.40000000,0.94000000,-143.86000000,25.39000000,43.33000000
802,1778625484.950763,-0.16000000,0.40000000,0.94000000,-143.86000000,25.39000000,43.33000000
803,1778625484.960124,0.42000000,1.19000000,-0.07000000,-205.38000000,44.68000000,15.69000000
804,1778625484.968891,0.42000000,1.19000000,-0.07000000,-205.38000000,44.68000000,15.69000000
805,1778625484.978636,0.42000000,1.19000000,-0.07000000,-205.38000000,44.68000000,15.69000000
806,1778625484.992675,0.42000000,1.19000000,-0.07000000,-205.38000000,44.68000000,15.69000000
807,1778625485.0004292,0.80000000,2.07000000,-0.48000000,-238.65000000,129.70000000,47.85000000
808,1778625485.010138,0.80000000,2.07000000,-0.48000000,-238.65000000,129.70000000,47.85000000
809,1778625485.0205922,0.80000000,2.07000000,-0.48000000,-238.65000000,129.70000000,47.85000000
810,1778625485.032552,-0.04000000,2.39000000,-0.37000000,-237.06000000,-4.76000000,63.54000000
811,1778625485.0393338,-0.04000000,2.39000000,-0.37000000,-237.06000000,-4.76000000,63.54000000
812,1778625485.049572,-0.04000000,2.39000000,-0.37000000,-237.06000000,-4.76000000,63.54000000
813,1778625485.061177,-0.04000000,2.39000000,-0.37000000,-237.06000000,-4.76000000,63.54000000
814,1778625485.071757,-0.04000000,2.39000000,-0.37000000,-237.06000000,-4.76000000,63.54000000
815,1778625485.078611,-0.04000000,2.39000000,-0.37000000,-237.06000000,-4.76000000,63.54000000
816,1778625485.0900962,-0.04000000,2.39000000,-0.37000000,-237.06000000,-4.76000000,63.54000000
817,1778625485.101931,-0.04000000,2.39000000,-0.37000000,-237.06000000,-4.76000000,63.54000000
818,1778625485.110697,-0.04000000,2.39000000,-0.37000000,-237.06000000,-4.76000000,63.54000000
819,1778625485.118633,-0.04000000,2.39000000,-0.37000000,-237.06000000,-4.76000000,63.54000000
820,1778625485.128591,-0.04000000,2.39000000,-0.37000000,-237.06000000,-4.76000000,63.54000000
821,1778625485.141772,1.07000000,1.94000000,-0.37000000,-135.50000000,199.65000000,130.68000000
822,1778625485.149437,0.05000000,1.04000000,-0.72000000,-91.13000000,303.28000000,18.86000000
823,1778625485.160875,0.05000000,1.04000000,-0.72000000,-91.13000000,303.28000000,18.86000000
824,1778625485.1688871,0.05000000,1.04000000,-0.72000000,-91.13000000,303.28000000,18.86000000
825,1778625485.178756,0.05000000,1.04000000,-0.72000000,-91.13000000,303.28000000,18.86000000
826,1778625485.193486,-0.58000000,0.06000000,-0.57000000,-2.87000000,186.16000000,6.96000000
827,1778625485.198755,-0.58000000,0.06000000,-0.57000000,-2.87000000,186.16000000,6.96000000
828,1778625485.210306,-0.58000000,0.06000000,-0.57000000,-2.87000000,186.16000000,6.96000000
829,1778625485.2465339,-0.58000000,0.06000000,-0.57000000,-2.87000000,186.16000000,6.96000000
830,1778625485.2465541,-0.58000000,0.06000000,-0.57000000,-2.87000000,186.16000000,6.96000000
831,1778625485.246558,-0.58000000,0.06000000,-0.57000000,-2.87000000,186.16000000,6.96000000
832,1778625485.250058,-0.84000000,-0.47000000,-0.60000000,141.54000000,-50.11000000,1.65000000
833,1778625485.258707,-0.37000000,-0.00000000,0.14000000,141.54000000,-50.11000000,1.65000000
834,1778625485.269651,-0.37000000,-0.00000000,0.14000000,209.84000000,-129.82000000,-32.78000000
835,1778625485.2793238,-0.37000000,-0.00000000,0.14000000,209.84000000,-129.82000000,-32.78000000
836,1778625485.28969,-0.37000000,-0.00000000,0.14000000,209.84000000,-129.82000000,-32.78000000
837,1778625485.299338,0.41000000,0.37000000,0.64000000,68.97000000,-2.44000000,-27.59000000
838,1778625485.308832,0.41000000,0.37000000,0.64000000,68.97000000,-2.44000000,-27.59000000
839,1778625485.318624,0.41000000,0.37000000,0.64000000,68.97000000,-2.44000000,-27.59000000
840,1778625485.3285818,0.41000000,0.37000000,0.64000000,68.97000000,-2.44000000,-27.59000000
841,1778625485.338717,0.30000000,1.15000000,1.60000000,-49.74000000,-68.60000000,58.72000000
842,1778625485.3487492,0.30000000,1.15000000,1.60000000,-49.74000000,-68.60000000,58.72000000
843,1778625485.361334,0.30000000,1.15000000,1.60000000,-49.74000000,-68.60000000,58.72000000
844,1778625485.372403,0.79000000,-0.09000000,-1.71000000,-49.74000000,-68.60000000,58.72000000
845,1778625485.3789718,0.79000000,-0.09000000,-1.71000000,39.31000000,-108.64000000,58.29000000
846,1778625485.389618,0.79000000,-0.09000000,-1.71000000,39.31000000,-108.64000000,58.29000000
847,1778625485.400985,0.79000000,-0.09000000,-1.71000000,39.31000000,-108.64000000,58.29000000
848,1778625485.411475,0.79000000,-0.09000000,-1.71000000,39.31000000,-108.64000000,58.29000000
849,1778625485.418853,-0.47000000,3.11000000,-1.36000000,101.14000000,-69.52000000,-149.29000000
850,1778625485.428721,-0.47000000,3.11000000,-1.36000000,101.14000000,-69.52000000,-149.29000000
851,1778625485.440537,-0.47000000,3.11000000,-1.36000000,101.14000000,-69.52000000,-149.29000000
852,1778625485.4525619,-0.47000000,3.11000000,-1.36000000,101.14000000,-69.52000000,-149.29000000
853,1778625485.460005,-0.47000000,3.11000000,-1.36000000,101.14000000,-69.52000000,-149.29000000
854,1778625485.469708,-0.47000000,3.11000000,-1.36000000,101.14000000,-69.52000000,-149.29000000
855,1778625485.480899,-0.47000000,3.11000000,-1.36000000,101.14000000,-69.52000000,-149.29000000
856,1778625485.489044,-0.47000000,3.11000000,-1.36000000,101.14000000,-69.52000000,-149.29000000
857,1778625485.5003,-0.47000000,3.11000000,-1.36000000,101.14000000,-69.52000000,-149.29000000
858,1778625485.510717,-0.47000000,3.11000000,-1.36000000,101.14000000,-69.52000000,-149.29000000
859,1778625485.518913,-0.67000000,1.23000000,-0.49000000,104.00000000,-156.86000000,-41.08000000
860,1778625485.53207,0.83000000,2.17000000,0.17000000,114.32000000,178.89000000,-70.19000000
861,1778625485.538597,0.83000000,2.17000000,0.17000000,114.32000000,178.89000000,-70.19000000
862,1778625485.549579,0.83000000,2.17000000,0.17000000,114.32000000,178.89000000,-70.19000000
863,1778625485.5609138,0.29000000,1.57000000,-0.08000000,118.47000000,-77.03000000,18.62000000
864,1778625485.570563,0.29000000,1.57000000,-0.08000000,118.47000000,-77.03000000,18.62000000
865,1778625485.579077,0.29000000,1.57000000,-0.08000000,118.47000000,-77.03000000,18.62000000
866,1778625485.588761,0.29000000,1.57000000,-0.08000000,118.47000000,-77.03000000,18.62000000
867,1778625485.6020238,0.29000000,1.57000000,-0.08000000,118.47000000,-77.03000000,18.62000000
868,1778625485.608614,0.29000000,1.57000000,-0.08000000,118.47000000,-77.03000000,18.62000000
869,1778625485.622893,0.29000000,1.57000000,-0.08000000,118.47000000,-77.03000000,18.62000000
870,1778625485.630424,0.29000000,1.57000000,-0.08000000,118.47000000,-77.03000000,18.62000000
871,1778625485.639043,0.29000000,1.57000000,-0.08000000,118.47000000,-77.03000000,18.62000000
872,1778625485.6492422,0.09000000,0.65000000,0.59000000,106.45000000,-121.58000000,15.01000000
873,1778625485.660287,0.09000000,0.65000000,0.59000000,106.45000000,-121.58000000,15.01000000
874,1778625485.6689658,0.09000000,0.65000000,0.59000000,106.45000000,-121.58000000,15.01000000
875,1778625485.678598,0.09000000,0.65000000,0.59000000,106.45000000,-121.58000000,15.01000000
876,1778625485.691019,0.09000000,0.65000000,0.59000000,106.45000000,-121.58000000,15.01000000
877,1778625485.699733,0.09000000,0.65000000,0.59000000,106.45000000,-121.58000000,15.01000000
878,1778625485.710444,0.09000000,0.65000000,0.59000000,106.45000000,-121.58000000,15.01000000
879,1778625485.718871,0.09000000,0.65000000,0.59000000,106.45000000,-121.58000000,15.01000000
880,1778625485.728958,0.09000000,0.65000000,0.59000000,106.45000000,-121.58000000,15.01000000
881,1778625485.743007,0.09000000,0.65000000,0.59000000,106.45000000,-121.58000000,15.01000000
882,1778625485.748767,0.09000000,0.65000000,0.59000000,106.45000000,-121.58000000,15.01000000
883,1778625485.76113,0.09000000,0.65000000,0.59000000,106.45000000,-121.58000000,15.01000000
884,1778625485.7688708,0.09000000,0.65000000,0.59000000,106.45000000,-121.58000000,15.01000000
885,1778625485.7786932,0.09000000,0.65000000,0.59000000,106.45000000,-121.58000000,15.01000000
886,1778625485.7915819,0.09000000,0.65000000,0.59000000,106.45000000,-121.58000000,15.01000000
887,1778625485.79908,0.09000000,0.65000000,0.59000000,106.45000000,-121.58000000,15.01000000
888,1778625485.810346,0.09000000,0.65000000,0.59000000,106.45000000,-121.58000000,15.01000000
889,1778625485.820535,0.09000000,0.65000000,0.59000000,106.45000000,-121.58000000,15.01000000
890,1778625485.828779,0.09000000,0.65000000,0.59000000,106.45000000,-121.58000000,15.01000000
891,1778625485.838613,0.09000000,0.65000000,0.59000000,106.45000000,-121.58000000,15.01000000
892,1778625485.849778,0.18000000,1.78000000,-0.07000000,-112.37000000,90.33000000,98.94000000
893,1778625485.858891,-1.21000000,3.50000000,0.02000000,-216.67000000,52.55000000,109.68000000
894,1778625485.86894,-1.21000000,3.50000000,0.02000000,-216.67000000,52.55000000,109.68000000
895,1778625485.8787289,-1.21000000,3.50000000,0.02000000,-216.67000000,52.55000000,109.68000000
896,1778625485.889196,-0.98000000,2.27000000,-0.21000000,-222.90000000,-178.77000000,101.26000000
897,1778625485.900127,-0.98000000,2.27000000,-0.21000000,-222.90000000,-178.77000000,101.26000000
898,1778625485.910621,-0.98000000,2.27000000,-0.21000000,-222.90000000,-178.77000000,101.26000000
899,1778625485.922453,-0.98000000,2.27000000,-0.21000000,-222.90000000,-178.77000000,101.26000000
900,1778625485.928661,-0.98000000,2.27000000,-0.21000000,-222.90000000,-178.77000000,101.26000000
901,1778625485.942806,0.27000000,2.24000000,0.04000000,-130.25000000,-234.56000000,78.86000000
902,1778625485.95099,0.27000000,2.24000000,0.04000000,-130.25000000,-234.56000000,78.86000000
903,1778625485.960746,0.27000000,2.24000000,0.04000000,-130.25000000,-234.56000000,78.86000000
904,1778625485.971255,0.51000000,1.98000000,-0.18000000,-181.58000000,38.76000000,33.75000000
905,1778625485.979022,0.51000000,1.98000000,-0.18000000,-181.58000000,38.76000000,33.75000000
906,1778625485.9889889,0.51000000,1.98000000,-0.18000000,-181.58000000,38.76000000,33.75000000
907,1778625486.000246,0.51000000,1.98000000,-0.18000000,-181.58000000,38.76000000,33.75000000
908,1778625486.010476,-0.11000000,0.76000000,-0.37000000,-124.69000000,143.98000000,-22.71000000
909,1778625486.02147,-0.11000000,0.76000000,-0.37000000,-124.69000000,143.98000000,-22.71000000
910,1778625486.02862,-0.11000000,0.76000000,-0.37000000,-124.69000000,143.98000000,-22.71000000
911,1778625486.040556,-0.11000000,0.76000000,-0.37000000,-124.69000000,143.98000000,-22.71000000
912,1778625486.049707,-0.35000000,-0.17000000,-0.45000000,1.40000000,13.98000000,-47.12000000
913,1778625486.062409,-0.35000000,-0.17000000,-0.45000000,1.40000000,13.98000000,-47.12000000
914,1778625486.070605,-0.35000000,-0.17000000,-0.45000000,1.40000000,13.98000000,-47.12000000
915,1778625486.07885,-0.35000000,-0.17000000,-0.45000000,1.40000000,13.98000000,-47.12000000
916,1778625486.091758,-0.34000000,-0.26000000,-0.57000000,135.31000000,-110.41000000,-66.22000000
917,1778625486.101137,-0.34000000,-0.26000000,-0.57000000,135.31000000,-110.41000000,-66.22000000
918,1778625486.112326,-0.34000000,-0.26000000,-0.57000000,135.31000000,-110.41000000,-66.22000000
919,1778625486.12139,-0.34000000,-0.26000000,-0.57000000,135.31000000,-110.41000000,-66.22000000
920,1778625486.1286569,-0.34000000,-0.26000000,-0.57000000,135.31000000,-110.41000000,-66.22000000
921,1778625486.141341,-0.34000000,-0.26000000,-0.57000000,135.31000000,-110.41000000,-66.22000000
922,1778625486.149776,-0.34000000,-0.26000000,-0.57000000,135.31000000,-110.41000000,-66.22000000
923,1778625486.1624,-0.34000000,-0.26000000,-0.57000000,135.31000000,-110.41000000,-66.22000000
924,1778625486.1688771,-0.34000000,-0.26000000,-0.57000000,135.31000000,-110.41000000,-66.22000000
925,1778625486.1798348,0.75000000,1.11000000,0.79000000,42.36000000,-213.13000000,48.03000000
926,1778625486.191433,0.75000000,1.11000000,0.79000000,42.36000000,-213.13000000,48.03000000
927,1778625486.201638,0.75000000,1.11000000,0.79000000,42.36000000,-213.13000000,48.03000000
928,1778625486.209725,0.05000000,0.83000000,1.45000000,-144.53000000,-139.47000000,45.96000000
929,1778625486.222659,0.05000000,0.83000000,1.45000000,-144.53000000,-139.47000000,45.96000000
930,1778625486.2286239,0.05000000,0.83000000,1.45000000,-144.53000000,-139.47000000,45.96000000
931,1778625486.240006,0.13000000,-0.03000000,-1.11000000,85.02000000,-290.16000000,-13.55000000
932,1778625486.250732,0.13000000,-0.03000000,-1.11000000,85.02000000,-290.16000000,-13.55000000
933,1778625486.262502,0.13000000,-0.03000000,-1.11000000,85.02000000,-290.16000000,-13.55000000
934,1778625486.2716002,0.13000000,-0.03000000,-1.11000000,85.02000000,-290.16000000,-13.55000000
935,1778625486.278806,-0.10000000,2.45000000,-0.80000000,6.04000000,-15.14000000,-30.58000000
936,1778625486.2929192,-0.10000000,2.45000000,-0.80000000,6.04000000,-15.14000000,-30.58000000
937,1778625486.298621,-0.10000000,2.45000000,-0.80000000,6.04000000,-15.14000000,-30.58000000
938,1778625486.30951,-0.10000000,2.45000000,-0.80000000,6.04000000,-15.14000000,-30.58000000
939,1778625486.3202,-0.01000000,1.77000000,-1.17000000,48.89000000,-192.38000000,17.94000000
940,1778625486.330007,-0.01000000,1.77000000,-1.17000000,48.89000000,-192.38000000,17.94000000
941,1778625486.3412108,-0.01000000,1.77000000,-1.17000000,48.89000000,-192.38000000,17.94000000
942,1778625486.351323,-1.27000000,0.83000000,-0.87000000,30.21000000,-22.03000000,-50.60000000
943,1778625486.3587031,-1.27000000,0.83000000,-0.87000000,30.21000000,-22.03000000,-50.60000000
944,1778625486.3688908,-1.27000000,0.83000000,-0.87000000,30.21000000,-22.03000000,-50.60000000
945,1778625486.379137,-1.27000000,0.83000000,-0.87000000,30.21000000,-22.03000000,-50.60000000
946,1778625486.393216,1.21000000,2.63000000,-1.32000000,139.77000000,-164.61000000,-105.35000000
947,1778625486.401288,1.21000000,2.63000000,-1.32000000,139.77000000,-164.61000000,-105.35000000
948,1778625486.410864,1.21000000,2.63000000,-1.32000000,139.77000000,-164.61000000,-105.35000000
949,1778625486.418981,1.21000000,2.63000000,-1.32000000,139.77000000,-164.61000000,-105.35000000
950,1778625486.428728,1.73000000,1.58000000,0.14000000,127.81000000,-106.26000000,1.77000000
951,1778625486.440914,1.73000000,1.58000000,0.14000000,127.81000000,-106.26000000,1.77000000
952,1778625486.449823,1.73000000,1.58000000,0.14000000,127.81000000,-106.26000000,1.77000000
953,1778625486.4589,-0.10000000,1.38000000,-0.07000000,109.07000000,-24.23000000,17.33000000
954,1778625486.4691598,-0.10000000,1.38000000,-0.07000000,109.07000000,-24.23000000,17.33000000
955,1778625486.4813051,-0.10000000,1.38000000,-0.07000000,109.07000000,-24.23000000,17.33000000
956,1778625486.489453,-0.10000000,1.38000000,-0.07000000,109.07000000,-24.23000000,17.33000000
957,1778625486.500502,-0.10000000,1.38000000,-0.07000000,109.07000000,-24.23000000,17.33000000
958,1778625486.510599,-0.10000000,1.38000000,-0.07000000,109.07000000,-24.23000000,17.33000000
959,1778625486.519252,-0.10000000,1.38000000,-0.07000000,109.07000000,-24.23000000,17.33000000
960,1778625486.53011,-0.10000000,1.38000000,-0.07000000,109.07000000,-24.23000000,17.33000000
961,1778625486.5407932,-0.10000000,1.38000000,-0.07000000,109.07000000,-24.23000000,17.33000000
962,1778625486.5497952,-0.10000000,1.38000000,-0.07000000,109.07000000,-24.23000000,17.33000000
963,1778625486.560918,-0.10000000,1.38000000,-0.07000000,109.07000000,-24.23000000,17.33000000
964,1778625486.569209,0.74000000,0.37000000,0.87000000,6.77000000,-68.24000000,-2.20000000
965,1778625486.581253,1.02000000,0.06000000,0.29000000,-93.93000000,-31.19000000,40.41000000
966,1778625486.589494,1.02000000,0.06000000,0.29000000,-93.93000000,-31.19000000,40.41000000
967,1778625486.5994618,1.02000000,0.06000000,0.29000000,-93.93000000,-31.19000000,40.41000000
968,1778625486.610562,-0.73000000,0.79000000,0.73000000,-153.02000000,27.22000000,88.56000000
969,1778625486.619595,-0.73000000,0.79000000,0.73000000,-153.02000000,27.22000000,88.56000000
970,1778625486.6306078,-0.73000000,0.79000000,0.73000000,-153.02000000,27.22000000,88.56000000
971,1778625486.640806,-0.73000000,0.79000000,0.73000000,-153.02000000,27.22000000,88.56000000
972,1778625486.648612,-0.73000000,0.79000000,0.73000000,-153.02000000,27.22000000,88.56000000
973,1778625486.6625128,-0.73000000,0.79000000,0.73000000,-153.02000000,27.22000000,88.56000000
974,1778625486.669986,-0.73000000,0.79000000,0.73000000,-153.02000000,27.22000000,88.56000000
975,1778625486.6789389,-0.73000000,0.79000000,0.73000000,-153.02000000,27.22000000,88.56000000
976,1778625486.691312,-0.73000000,0.79000000,0.73000000,-153.02000000,27.22000000,88.56000000
977,1778625486.6998541,0.22000000,2.32000000,-0.21000000,-245.18000000,49.01000000,24.29000000
978,1778625486.711293,0.22000000,2.32000000,-0.21000000,-245.18000000,49.01000000,24.29000000
979,1778625486.718876,0.22000000,2.32000000,-0.21000000,-245.18000000,49.01000000,24.29000000
980,1778625486.731642,-1.15000000,2.71000000,-0.25000000,-240.72000000,-23.86000000,28.93000000
981,1778625486.740843,-1.15000000,2.71000000,-0.25000000,-240.72000000,-23.86000000,28.93000000
982,1778625486.7501812,-1.15000000,2.71000000,-0.25000000,-240.72000000,-23.86000000,28.93000000
983,1778625486.76257,0.34000000,2.13000000,0.03000000,-195.43000000,-88.56000000,61.58000000
984,1778625486.7688801,0.34000000,2.13000000,0.03000000,-195.43000000,-88.56000000,61.58000000
985,1778625486.778632,0.34000000,2.13000000,0.03000000,-195.43000000,-88.56000000,61.58000000
986,1778625486.789037,0.34000000,2.13000000,0.03000000,-195.43000000,-88.56000000,61.58000000
987,1778625486.803026,0.72000000,1.53000000,0.01000000,-156.98000000,24.90000000,40.47000000
988,1778625486.811287,0.72000000,1.53000000,0.01000000,-156.98000000,24.90000000,40.47000000
989,1778625486.821884,0.72000000,1.53000000,0.01000000,-156.98000000,24.90000000,40.47000000
990,1778625486.830274,0.72000000,1.53000000,0.01000000,-156.98000000,24.90000000,40.47000000
991,1778625486.8393018,-0.03000000,0.38000000,-0.37000000,-63.42000000,83.98000000,-22.28000000
992,1778625486.848963,-0.03000000,0.38000000,-0.37000000,-63.42000000,83.98000000,-22.28000000
993,1778625486.861645,-0.03000000,0.38000000,-0.37000000,-63.42000000,83.98000000,-22.28000000
994,1778625486.869577,-0.03000000,0.38000000,-0.37000000,-63.42000000,83.98000000,-22.28000000
995,1778625486.8788202,-0.21000000,-0.17000000,-0.40000000,56.27000000,-18.19000000,-41.20000000
996,1778625486.888625,-0.21000000,-0.17000000,-0.40000000,56.27000000,-18.19000000,-41.20000000
997,1778625486.900765,-0.21000000,-0.17000000,-0.40000000,56.27000000,-18.19000000,-41.20000000
998,1778625486.908714,-0.21000000,-0.17000000,-0.40000000,56.27000000,-18.19000000,-41.20000000
999,1778625486.918895,-0.41000000,-0.40000000,-0.68000000,181.21000000,-182.68000000,-40.71000000
1000,1778625486.928715,-0.41000000,-0.40000000,-0.68000000,181.21000000,-182.68000000,-40.71000000
