id,timestamp,acc_x,acc_y,acc_z,gyro_x,gyro_y,gyro_z
1,1778625455.4341278,0.12000000,1.24000000,-0.71000000,-29.91000000,-231.51000000,49.74000000
2,1778625455.44887,0.12000000,1.24000000,-0.71000000,-29.91000000,-231.51000000,49.74000000
3,1778625455.454089,0.12000000,1.24000000,-0.71000000,-29.91000000,-231.51000000,49.74000000
4,1778625455.468749,-0.78000000,0.35000000,-0.97000000,10.56000000,-156.01000000,-61.58000000
5,1778625455.47588,-0.78000000,0.35000000,-0.97000000,10.56000000,-156.01000000,-61.58000000
6,1778625455.48574,-0.78000000,0.35000000,-0.97000000,10.56000000,-156.01000000,-61.58000000
7,1778625455.4982378,-0.78000000,0.35000000,-0.97000000,10.56000000,-156.01000000,-61.58000000
8,1778625455.504143,0.06000000,2.35000000,-0.43000000,79.65000000,155.33000000,-93.38000000
9,1778625455.518761,0.06000000,2.35000000,-0.43000000,79.65000000,155.33000000,-93.38000000
10,1778625455.524132,0.06000000,2.35000000,-0.43000000,79.65000000,155.33000000,-93.38000000
11,1778625455.5349078,1.49000000,1.66000000,-0.55000000,111.82000000,-228.82000000,-12.63000000
12,1778625455.5454981,1.49000000,1.66000000,-0.55000000,111.82000000,-228.82000000,-12.63000000
13,1778625455.554104,1.49000000,1.66000000,-0.55000000,111.82000000,-228.82000000,-12.63000000
14,1778625455.567625,1.49000000,1.66000000,-0.55000000,111.82000000,-228.82000000,-12.63000000
15,1778625455.577439,0.55000000,1.45000000,0.06000000,117.31000000,-154.85000000,-3.54000000
16,1778625455.585558,0.55000000,1.45000000,0.06000000,117.31000000,-154.85000000,-3.54000000
17,1778625455.594346,0.55000000,1.45000000,0.06000000,117.31000000,-154.85000000,-3.54000000
18,1778625455.605512,0.53000000,1.35000000,0.45000000,96.62000000,-191.10000000,7.32000000
19,1778625455.618162,0.53000000,1.35000000,0.45000000,96.62000000,-191.10000000,7.32000000
20,1778625455.624558,0.53000000,1.35000000,0.45000000,96.62000000,-191.10000000,7.32000000
21,1778625455.6342242,0.53000000,1.35000000,0.45000000,96.62000000,-191.10000000,7.32000000
22,1778625455.6488981,0.47000000,0.87000000,0.76000000,86.18000000,-150.82000000,12.82000000
23,1778625455.655424,0.47000000,0.87000000,0.76000000,86.18000000,-150.82000000,12.82000000
24,1778625455.66609,0.46000000,0.50000000,0.93000000,-4.76000000,-109.13000000,2.32000000
25,1778625455.6745222,0.46000000,0.50000000,0.93000000,-4.76000000,-109.13000000,2.32000000
26,1778625455.686691,0.46000000,0.50000000,0.93000000,-4.76000000,-109.13000000,2.32000000
27,1778625455.695817,0.46000000,0.50000000,0.93000000,-4.76000000,-109.13000000,2.32000000
28,1778625455.705665,0.46000000,0.50000000,0.93000000,-4.76000000,-109.13000000,2.32000000
29,1778625455.716188,0.46000000,0.50000000,0.93000000,-4.76000000,-109.13000000,2.32000000
30,1778625455.7247171,0.46000000,0.50000000,0.93000000,-4.76000000,-109.13000000,2.32000000
31,1778625455.7352152,0.46000000,0.50000000,0.93000000,-4.76000000,-109.13000000,2.32000000
32,1778625455.747033,0.46000000,0.50000000,0.93000000,-4.76000000,-109.13000000,2.32000000
33,1778625455.754231,0.46000000,0.50000000,0.93000000,-4.76000000,-109.13000000,2.32000000
34,1778625455.767159,0.46000000,0.50000000,0.93000000,-4.76000000,-109.13000000,2.32000000
35,1778625455.776015,0.32000000,0.74000000,0.39000000,-128.60000000,-1.59000000,99.49000000
36,1778625455.784131,0.02000000,1.62000000,0.42000000,-128.60000000,-1.59000000,99.49000000
37,1778625455.7970612,0.02000000,1.62000000,0.42000000,-153.02000000,117.68000000,97.78000000
38,1778625455.8119261,0.02000000,1.62000000,0.42000000,-153.02000000,117.68000000,97.78000000
39,1778625455.823763,0.02000000,1.62000000,0.42000000,-153.02000000,117.68000000,97.78000000
40,1778625455.82532,-0.18000000,2.61000000,-0.19000000,-227.84000000,117.13000000,71.53000000
41,1778625455.83496,-0.18000000,2.61000000,-0.19000000,-227.84000000,117.13000000,71.53000000
42,1778625455.844197,-0.18000000,2.61000000,-0.19000000,-227.84000000,117.13000000,71.53000000
43,1778625455.855767,-0.18000000,2.61000000,-0.19000000,-227.84000000,117.13000000,71.53000000
44,1778625455.866554,-0.27000000,2.54000000,-0.58000000,-142.09000000,-292.66000000,104.00000000
45,1778625455.875052,-0.27000000,2.54000000,-0.58000000,-142.09000000,-292.66000000,104.00000000
46,1778625455.884597,-0.27000000,2.54000000,-0.58000000,-142.09000000,-292.66000000,104.00000000
47,1778625455.894311,-0.27000000,2.54000000,-0.58000000,-142.09000000,-292.66000000,104.00000000
48,1778625455.9054751,0.71000000,2.67000000,0.39000000,-240.05000000,-4.88000000,122.74000000
49,1778625455.916399,0.71000000,2.67000000,0.39000000,-240.05000000,-4.88000000,122.74000000
50,1778625455.925314,0.71000000,2.67000000,0.39000000,-240.05000000,-4.88000000,122.74000000
51,1778625455.935282,0.71000000,2.67000000,0.39000000,-240.05000000,-4.88000000,122.74000000
52,1778625455.9443882,-0.25000000,1.49000000,-0.43000000,-208.50000000,145.63000000,-3.78000000
53,1778625455.954735,-0.25000000,1.49000000,-0.43000000,-208.50000000,145.63000000,-3.78000000
54,1778625455.968414,-0.25000000,1.49000000,-0.43000000,-208.50000000,145.63000000,-3.78000000
55,1778625455.974935,-0.25000000,1.49000000,-0.43000000,-208.50000000,145.63000000,-3.78000000
56,1778625455.984489,-0.25000000,1.49000000,-0.43000000,-208.50000000,145.63000000,-3.78000000
57,1778625455.996021,-0.51000000,0.08000000,-0.40000000,-133.12000000,130.37000000,-57.86000000
58,1778625456.004101,-0.51000000,0.08000000,-0.40000000,-133.12000000,130.37000000,-57.86000000
59,1778625456.0187771,-0.62000000,0.02000000,-0.52000000,-32.23000000,-0.85000000,-104.00000000
60,1778625456.0259688,-0.62000000,0.02000000,-0.52000000,-32.23000000,-0.85000000,-104.00000000
61,1778625456.034561,-0.62000000,0.02000000,-0.52000000,-32.23000000,-0.85000000,-104.00000000
62,1778625456.044081,-0.62000000,0.02000000,-0.52000000,-32.23000000,-0.85000000,-104.00000000
63,1778625456.0541341,-0.73000000,-0.43000000,-0.45000000,45.96000000,-117.37000000,-120.97000000
64,1778625456.06414,-0.73000000,-0.43000000,-0.45000000,45.96000000,-117.37000000,-120.97000000
65,1778625456.075726,-0.73000000,-0.43000000,-0.45000000,45.96000000,-117.37000000,-120.97000000
66,1778625456.084248,-0.73000000,-0.43000000,-0.45000000,45.96000000,-117.37000000,-120.97000000
67,1778625456.094592,-0.73000000,-0.43000000,-0.45000000,45.96000000,-117.37000000,-120.97000000
68,1778625456.1045399,-0.73000000,-0.43000000,-0.45000000,45.96000000,-117.37000000,-120.97000000
69,1778625456.11621,-0.73000000,-0.43000000,-0.45000000,45.96000000,-117.37000000,-120.97000000
70,1778625456.124625,-0.73000000,-0.43000000,-0.45000000,45.96000000,-117.37000000,-120.97000000
71,1778625456.134702,-0.73000000,-0.43000000,-0.45000000,45.96000000,-117.37000000,-120.97000000
72,1778625456.148652,-0.73000000,-0.43000000,-0.45000000,45.96000000,-117.37000000,-120.97000000
73,1778625456.1549828,-0.73000000,-0.43000000,-0.45000000,45.96000000,-117.37000000,-120.97000000
74,1778625456.166243,0.58000000,-0.07000000,-1.59000000,128.85000000,22.77000000,62.81000000
75,1778625456.174958,0.58000000,-0.07000000,-1.59000000,128.85000000,22.77000000,62.81000000
76,1778625456.1842718,0.58000000,-0.07000000,-1.59000000,128.85000000,22.77000000,62.81000000
77,1778625456.194119,0.58000000,-0.07000000,-1.59000000,128.85000000,22.77000000,62.81000000
78,1778625456.204185,0.94000000,2.90000000,-1.71000000,128.85000000,22.77000000,62.81000000
79,1778625456.218442,0.94000000,2.90000000,-1.71000000,128.85000000,22.77000000,62.81000000
80,1778625456.2260952,0.94000000,2.90000000,-1.71000000,128.85000000,22.77000000,62.81000000
81,1778625456.236057,0.94000000,2.90000000,-1.71000000,128.85000000,22.77000000,62.81000000
82,1778625456.244122,0.94000000,2.90000000,-1.71000000,128.85000000,22.77000000,62.81000000
83,1778625456.255849,0.94000000,2.90000000,-1.71000000,128.85000000,22.77000000,62.81000000
84,1778625456.267732,0.94000000,2.90000000,-1.71000000,128.85000000,22.77000000,62.81000000
85,1778625456.275593,0.94000000,2.90000000,-1.71000000,128.85000000,22.77000000,62.81000000
86,1778625456.2849898,0.94000000,2.90000000,-1.71000000,128.85000000,22.77000000,62.81000000
87,1778625456.294299,-0.52000000,1.47000000,-0.45000000,75.01000000,-107.12000000,-76.17000000
88,1778625456.306321,-0.52000000,1.47000000,-0.45000000,75.01000000,-107.12000000,-76.17000000
89,1778625456.314805,-0.52000000,1.47000000,-0.45000000,75.01000000,-107.12000000,-76.17000000
90,1778625456.327529,0.48000000,2.00000000,-0.57000000,108.95000000,-7.57000000,-53.04000000
91,1778625456.3349051,0.48000000,2.00000000,-0.57000000,108.95000000,-7.57000000,-53.04000000
92,1778625456.345726,0.48000000,2.00000000,-0.57000000,108.95000000,-7.57000000,-53.04000000
93,1778625456.354484,0.91000000,1.66000000,-0.23000000,133.91000000,-160.83000000,-24.54000000
94,1778625456.3691719,0.91000000,1.66000000,-0.23000000,133.91000000,-160.83000000,-24.54000000
95,1778625456.38203,0.91000000,1.66000000,-0.23000000,133.91000000,-160.83000000,-24.54000000
96,1778625456.386961,0.91000000,1.66000000,-0.23000000,133.91000000,-160.83000000,-24.54000000
97,1778625456.396054,1.02000000,1.45000000,0.42000000,113.28000000,-78.12000000,-26.55000000
98,1778625456.406396,1.02000000,1.45000000,0.42000000,113.28000000,-78.12000000,-26.55000000
99,1778625456.414589,1.02000000,1.45000000,0.42000000,113.28000000,-78.12000000,-26.55000000
100,1778625456.424344,1.02000000,1.45000000,0.42000000,113.28000000,-78.12000000,-26.55000000
101,1778625456.4343948,1.02000000,1.45000000,0.42000000,113.28000000,-78.12000000,-26.55000000
102,1778625456.444166,0.20000000,1.06000000,0.90000000,92.83000000,-165.34000000,39.00000000
103,1778625456.456257,0.20000000,1.06000000,0.90000000,92.83000000,-165.34000000,39.00000000
104,1778625456.46636,0.37000000,0.46000000,0.77000000,92.83000000,-165.34000000,39.00000000
105,1778625456.4768808,0.37000000,0.46000000,0.77000000,70.68000000,-87.65000000,-5.68000000
106,1778625456.484148,0.37000000,0.46000000,0.77000000,70.68000000,-87.65000000,-5.68000000
107,1778625456.497611,0.37000000,0.46000000,0.77000000,70.68000000,-87.65000000,-5.68000000
108,1778625456.506557,0.91000000,0.25000000,0.72000000,-60.85000000,-98.82000000,32.78000000
109,1778625456.516186,0.91000000,0.25000000,0.72000000,-60.85000000,-98.82000000,32.78000000
110,1778625456.524798,0.91000000,0.25000000,0.72000000,-60.85000000,-98.82000000,32.78000000
111,1778625456.534112,0.91000000,0.25000000,0.72000000,-60.85000000,-98.82000000,32.78000000
112,1778625456.544093,0.15000000,0.25000000,0.73000000,-60.85000000,-98.82000000,32.78000000
113,1778625456.554892,0.15000000,0.25000000,0.73000000,-107.36000000,-46.69000000,70.56000000
114,1778625456.565899,0.15000000,0.25000000,0.73000000,-107.36000000,-46.69000000,70.56000000
115,1778625456.5753212,0.15000000,0.25000000,0.73000000,-107.36000000,-46.69000000,70.56000000
116,1778625456.5841112,0.15000000,0.25000000,0.73000000,-107.36000000,-46.69000000,70.56000000
117,1778625456.599008,0.20000000,0.57000000,0.17000000,-131.96000000,53.28000000,42.18000000
118,1778625456.604931,0.20000000,0.57000000,0.17000000,-131.96000000,53.28000000,42.18000000
119,1778625456.616181,0.20000000,0.57000000,0.17000000,-131.96000000,53.28000000,42.18000000
120,1778625456.6248372,-0.13000000,1.84000000,0.29000000,-176.70000000,84.35000000,45.96000000
121,1778625456.634891,-0.13000000,1.84000000,0.29000000,-176.70000000,84.35000000,45.96000000
122,1778625456.644653,-0.13000000,1.84000000,0.29000000,-176.70000000,84.35000000,45.96000000
123,1778625456.654717,-0.13000000,1.84000000,0.29000000,-176.70000000,84.35000000,45.96000000
124,1778625456.667774,-0.07000000,3.05000000,-0.33000000,-246.46000000,77.58000000,50.72000000
125,1778625456.674878,-0.07000000,3.05000000,-0.33000000,-246.46000000,77.58000000,50.72000000
126,1778625456.6848571,-0.07000000,3.05000000,-0.33000000,-246.46000000,77.58000000,50.72000000
127,1778625456.694208,-1.02000000,2.44000000,0.09000000,-205.63000000,-319.15000000,60.55000000
128,1778625456.704175,-1.02000000,2.44000000,0.09000000,-205.63000000,-319.15000000,60.55000000
129,1778625456.7140858,-1.02000000,2.44000000,0.09000000,-205.63000000,-319.15000000,60.55000000
130,1778625456.7286458,-1.02000000,2.44000000,0.09000000,-205.63000000,-319.15000000,60.55000000
131,1778625456.73455,-1.02000000,2.44000000,0.09000000,-205.63000000,-319.15000000,60.55000000
132,1778625456.745194,-1.02000000,2.44000000,0.09000000,-205.63000000,-319.15000000,60.55000000
133,1778625456.754348,-1.02000000,2.44000000,0.09000000,-205.63000000,-319.15000000,60.55000000
134,1778625456.768769,-1.02000000,2.44000000,0.09000000,-205.63000000,-319.15000000,60.55000000
135,1778625456.7741702,-1.02000000,2.44000000,0.09000000,-205.63000000,-319.15000000,60.55000000
136,1778625456.786741,-1.02000000,2.44000000,0.09000000,-205.63000000,-319.15000000,60.55000000
137,1778625456.794121,-1.02000000,2.44000000,0.09000000,-205.63000000,-319.15000000,60.55000000
138,1778625456.8043919,-1.02000000,2.44000000,0.09000000,-205.63000000,-319.15000000,60.55000000
139,1778625456.818759,0.01000000,0.76000000,-0.17000000,-81.79000000,157.35000000,-35.40000000
140,1778625456.824904,0.01000000,0.76000000,-0.17000000,-81.79000000,157.35000000,-35.40000000
141,1778625456.835476,-0.22000000,0.03000000,-0.40000000,-81.79000000,157.35000000,-35.40000000
142,1778625456.8450959,-0.22000000,0.03000000,-0.40000000,-7.08000000,120.06000000,-64.58000000
143,1778625456.854552,-0.22000000,0.03000000,-0.40000000,-7.08000000,120.06000000,-64.58000000
144,1778625456.868774,-0.22000000,0.03000000,-0.40000000,-7.08000000,120.06000000,-64.58000000
145,1778625456.8760939,-0.22000000,0.03000000,-0.40000000,-7.08000000,120.06000000,-64.58000000
146,1778625456.8848882,-0.29000000,-0.44000000,-0.45000000,90.21000000,3.91000000,-63.60000000
147,1778625456.894186,-0.29000000,-0.44000000,-0.45000000,90.21000000,3.91000000,-63.60000000
148,1778625456.907156,-0.29000000,-0.44000000,-0.45000000,90.21000000,3.91000000,-63.60000000
149,1778625456.923755,-0.29000000,-0.44000000,-0.45000000,90.21000000,3.91000000,-63.60000000
150,1778625456.927279,-0.06000000,-0.35000000,-0.29000000,196.53000000,-118.47000000,-35.77000000
151,1778625456.970485,0.22000000,0.50000000,-0.04000000,163.27000000,-122.01000000,-73.24000000
152,1778625456.9705012,0.22000000,0.50000000,-0.04000000,163.27000000,-122.01000000,-73.24000000
153,1778625456.970506,0.22000000,0.50000000,-0.04000000,163.27000000,-122.01000000,-73.24000000
154,1778625456.97051,0.22000000,0.50000000,-0.04000000,163.27000000,-122.01000000,-73.24000000
155,1778625456.977955,0.22000000,0.50000000,-0.04000000,163.27000000,-122.01000000,-73.24000000
156,1778625456.986343,0.22000000,0.50000000,-0.04000000,163.27000000,-122.01000000,-73.24000000
157,1778625456.994153,0.06000000,1.90000000,2.07000000,33.51000000,-189.09000000,-2.56000000
158,1778625457.004552,0.06000000,1.90000000,2.07000000,33.51000000,-189.09000000,-2.56000000
159,1778625457.016224,0.06000000,1.90000000,2.07000000,33.51000000,-189.09000000,-2.56000000
160,1778625457.026866,0.06000000,1.90000000,2.07000000,33.51000000,-189.09000000,-2.56000000
161,1778625457.034365,0.26000000,-0.16000000,-2.92000000,148.68000000,-355.90000000,94.36000000
162,1778625457.044102,0.26000000,-0.16000000,-2.92000000,148.68000000,-355.90000000,94.36000000
163,1778625457.055923,0.26000000,-0.16000000,-2.92000000,148.68000000,-355.90000000,94.36000000
164,1778625457.0661619,-0.09000000,1.31000000,-0.66000000,148.68000000,-355.90000000,94.36000000
165,1778625457.0792162,-0.09000000,1.31000000,-0.66000000,91.19000000,-155.09000000,-29.85000000
166,1778625457.086488,-0.09000000,1.31000000,-0.66000000,91.19000000,-155.09000000,-29.85000000
167,1778625457.094809,-0.09000000,1.31000000,-0.66000000,91.19000000,-155.09000000,-29.85000000
168,1778625457.108623,-0.09000000,1.31000000,-0.66000000,91.19000000,-155.09000000,-29.85000000
169,1778625457.1157389,0.29000000,2.13000000,-0.99000000,-26.00000000,-184.75000000,-86.67000000
170,1778625457.12554,0.29000000,2.13000000,-0.99000000,-26.00000000,-184.75000000,-86.67000000
171,1778625457.134163,0.29000000,2.13000000,-0.99000000,-26.00000000,-184.75000000,-86.67000000
172,1778625457.145941,0.29000000,2.13000000,-0.99000000,-26.00000000,-184.75000000,-86.67000000
173,1778625457.157619,0.29000000,2.13000000,-0.99000000,-26.00000000,-184.75000000,-86.67000000
174,1778625457.166848,0.29000000,2.13000000,-0.99000000,-26.00000000,-184.75000000,-86.67000000
175,1778625457.174916,0.29000000,2.13000000,-0.99000000,-26.00000000,-184.75000000,-86.67000000
176,1778625457.186302,0.29000000,2.13000000,-0.99000000,-26.00000000,-184.75000000,-86.67000000
177,1778625457.194124,0.29000000,2.13000000,-0.99000000,-26.00000000,-184.75000000,-86.67000000
178,1778625457.205462,0.13000000,1.77000000,-0.41000000,103.82000000,60.61000000,-71.11000000
179,1778625457.2165408,0.13000000,1.77000000,-0.41000000,103.82000000,60.61000000,-71.11000000
180,1778625457.2247722,0.60000000,1.89000000,-0.05000000,151.79000000,-71.41000000,-26.86000000
181,1778625457.236835,0.60000000,1.89000000,-0.05000000,151.79000000,-71.41000000,-26.86000000
182,1778625457.2475011,0.60000000,1.89000000,-0.05000000,151.79000000,-71.41000000,-26.86000000
183,1778625457.25425,0.34000000,1.28000000,0.12000000,133.42000000,4.70000000,7.51000000
184,1778625457.268833,0.34000000,1.28000000,0.12000000,133.42000000,4.70000000,7.51000000
185,1778625457.277384,0.34000000,1.28000000,0.12000000,133.42000000,4.70000000,7.51000000
186,1778625457.2853508,0.34000000,1.28000000,0.12000000,133.42000000,4.70000000,7.51000000
187,1778625457.294871,0.34000000,1.28000000,0.12000000,133.42000000,4.70000000,7.51000000
188,1778625457.310899,0.34000000,1.28000000,0.12000000,133.42000000,4.70000000,7.51000000
189,1778625457.3148851,0.34000000,1.28000000,0.12000000,133.42000000,4.70000000,7.51000000
190,1778625457.326834,0.34000000,1.28000000,0.12000000,133.42000000,4.70000000,7.51000000
191,1778625457.334126,0.11000000,0.71000000,0.58000000,80.44000000,-106.38000000,11.23000000
192,1778625457.347494,0.34000000,0.54000000,1.09000000,52.73000000,-36.32000000,-25.27000000
193,1778625457.356671,0.34000000,0.54000000,1.09000000,52.73000000,-36.32000000,-25.27000000
194,1778625457.366616,0.62000000,0.22000000,1.04000000,-61.28000000,-80.81000000,17.03000000
195,1778625457.375623,0.62000000,0.22000000,1.04000000,-61.28000000,-80.81000000,17.03000000
196,1778625457.385578,0.62000000,0.22000000,1.04000000,-61.28000000,-80.81000000,17.03000000
197,1778625457.39549,0.62000000,0.22000000,1.04000000,-61.28000000,-80.81000000,17.03000000
198,1778625457.404997,0.62000000,0.22000000,1.04000000,-61.28000000,-80.81000000,17.03000000
199,1778625457.417161,0.94000000,0.07000000,0.32000000,-93.38000000,10.19000000,65.31000000
200,1778625457.424098,0.94000000,0.07000000,0.32000000,-93.38000000,10.19000000,65.31000000
201,1778625457.434092,0.94000000,0.07000000,0.32000000,-93.38000000,10.19000000,65.31000000
202,1778625457.4440892,0.47000000,0.88000000,-0.20000000,-126.10000000,137.70000000,74.10000000
203,1778625457.456655,0.47000000,0.88000000,-0.20000000,-126.10000000,137.70000000,74.10000000
204,1778625457.465387,0.47000000,0.88000000,-0.20000000,-126.10000000,137.70000000,74.10000000
205,1778625457.476128,0.47000000,0.88000000,-0.20000000,-126.10000000,137.70000000,74.10000000
206,1778625457.486996,-0.30000000,2.12000000,0.08000000,-150.94000000,158.94000000,92.35000000
207,1778625457.494622,-0.30000000,2.12000000,0.08000000,-150.94000000,158.94000000,92.35000000
208,1778625457.5041192,-0.30000000,2.12000000,0.08000000,-150.94000000,158.94000000,92.35000000
209,1778625457.518775,-0.30000000,2.12000000,0.08000000,-150.94000000,158.94000000,92.35000000
210,1778625457.524725,-0.30000000,2.12000000,0.08000000,-150.94000000,158.94000000,92.35000000
211,1778625457.53526,-0.94000000,2.72000000,-0.35000000,-220.34000000,62.56000000,51.51000000
212,1778625457.554833,-0.94000000,2.72000000,-0.35000000,-220.34000000,62.56000000,51.51000000
213,1778625457.5549362,-0.94000000,2.72000000,-0.35000000,-220.34000000,62.56000000,51.51000000
214,1778625457.5678442,-0.63000000,2.38000000,-0.43000000,-179.08000000,-273.56000000,75.62000000
215,1778625457.57664,-0.63000000,2.38000000,-0.43000000,-179.08000000,-273.56000000,75.62000000
216,1778625457.586508,-0.63000000,2.38000000,-0.43000000,-179.08000000,-273.56000000,75.62000000
217,1778625457.5949812,-0.63000000,2.38000000,-0.43000000,-179.08000000,-273.56000000,75.62000000
218,1778625457.608223,0.69000000,2.35000000,0.16000000,-192.93000000,1.77000000,95.15000000
219,1778625457.616106,0.69000000,2.35000000,0.16000000,-192.93000000,1.77000000,95.15000000
220,1778625457.626594,0.69000000,2.35000000,0.16000000,-192.93000000,1.77000000,95.15000000
221,1778625457.635207,-0.06000000,1.17000000,-0.25000000,-138.24000000,76.90000000,23.62000000
222,1778625457.645204,-0.06000000,1.17000000,-0.25000000,-138.24000000,76.90000000,23.62000000
223,1778625457.654793,-0.06000000,1.17000000,-0.25000000,-138.24000000,76.90000000,23.62000000
224,1778625457.66687,-0.38000000,0.10000000,-0.35000000,-138.24000000,76.90000000,23.62000000
225,1778625457.675328,-0.38000000,0.10000000,-0.35000000,-43.33000000,60.91000000,-26.43000000
226,1778625457.684127,-0.38000000,0.10000000,-0.35000000,-43.33000000,60.91000000,-26.43000000
227,1778625457.6971729,-0.38000000,0.10000000,-0.35000000,-43.33000000,60.91000000,-26.43000000
228,1778625457.704536,-0.30000000,-0.34000000,-0.52000000,62.44000000,-11.84000000,-41.93000000
229,1778625457.718378,-0.30000000,-0.34000000,-0.52000000,62.44000000,-11.84000000,-41.93000000
230,1778625457.7246342,-0.30000000,-0.34000000,-0.52000000,62.44000000,-11.84000000,-41.93000000
231,1778625457.7344341,-0.30000000,-0.34000000,-0.52000000,62.44000000,-11.84000000,-41.93000000
232,1778625457.7441,-0.30000000,-0.34000000,-0.52000000,62.44000000,-11.84000000,-41.93000000
233,1778625457.754448,-0.29000000,-0.38000000,-0.47000000,188.90000000,-129.64000000,-45.47000000
234,1778625457.7671008,-0.29000000,-0.38000000,-0.47000000,188.90000000,-129.64000000,-45.47000000
235,1778625457.7766862,-0.29000000,-0.38000000,-0.47000000,188.90000000,-129.64000000,-45.47000000
236,1778625457.785388,-0.29000000,-0.38000000,-0.47000000,188.90000000,-129.64000000,-45.47000000
237,1778625457.797162,-0.29000000,-0.38000000,-0.47000000,188.90000000,-129.64000000,-45.47000000
238,1778625457.8041222,-0.29000000,-0.38000000,-0.47000000,188.90000000,-129.64000000,-45.47000000
239,1778625457.814185,-0.29000000,-0.38000000,-0.47000000,188.90000000,-129.64000000,-45.47000000
240,1778625457.828992,-0.29000000,-0.38000000,-0.47000000,188.90000000,-129.64000000,-45.47000000
241,1778625457.835459,-0.29000000,-0.38000000,-0.47000000,188.90000000,-129.64000000,-45.47000000
242,1778625457.84512,-0.29000000,-0.38000000,-0.47000000,188.90000000,-129.64000000,-45.47000000
243,1778625457.857267,-0.29000000,-0.38000000,-0.47000000,188.90000000,-129.64000000,-45.47000000
244,1778625457.866657,0.53000000,-0.87000000,-2.71000000,127.69000000,-80.51000000,27.34000000
245,1778625457.877101,0.53000000,-0.87000000,-2.71000000,127.69000000,-80.51000000,27.34000000
246,1778625457.8850062,0.53000000,-0.87000000,-2.71000000,127.69000000,-80.51000000,27.34000000
247,1778625457.894284,0.53000000,-0.87000000,-2.71000000,127.69000000,-80.51000000,27.34000000
248,1778625457.904119,0.53000000,-0.87000000,-2.71000000,127.69000000,-80.51000000,27.34000000
249,1778625457.917985,0.56000000,2.15000000,-0.90000000,47.49000000,-185.36000000,-167.85000000
250,1778625457.927242,0.56000000,2.15000000,-0.90000000,47.49000000,-185.36000000,-167.85000000
251,1778625457.935215,0.56000000,2.15000000,-0.90000000,47.49000000,-185.36000000,-167.85000000
252,1778625457.949169,-0.23000000,1.81000000,-1.17000000,-46.75000000,-221.07000000,25.82000000
253,1778625457.954271,-0.23000000,1.81000000,-1.17000000,-46.75000000,-221.07000000,25.82000000
254,1778625457.968928,-0.23000000,1.81000000,-1.17000000,-46.75000000,-221.07000000,25.82000000
255,1778625457.9747682,-0.23000000,1.81000000,-1.17000000,-46.75000000,-221.07000000,25.82000000
256,1778625457.984283,-0.65000000,0.62000000,-1.01000000,50.54000000,-119.14000000,-32.53000000
257,1778625457.994098,-0.65000000,0.62000000,-1.01000000,50.54000000,-119.14000000,-32.53000000
258,1778625458.004435,-0.65000000,0.62000000,-1.01000000,50.54000000,-119.14000000,-32.53000000
259,1778625458.02049,0.60000000,2.40000000,0.01000000,77.76000000,207.76000000,-116.76000000
260,1778625458.0251148,0.60000000,2.40000000,0.01000000,77.76000000,207.76000000,-116.76000000
261,1778625458.034098,0.60000000,2.40000000,0.01000000,77.76000000,207.76000000,-116.76000000
262,1778625458.046368,0.60000000,2.40000000,0.01000000,77.76000000,207.76000000,-116.76000000
263,1778625458.055639,0.75000000,1.64000000,-0.05000000,138.92000000,-132.87000000,14.95000000
264,1778625458.0666711,0.75000000,1.64000000,-0.05000000,138.92000000,-132.87000000,14.95000000
265,1778625458.075478,0.75000000,1.64000000,-0.05000000,138.92000000,-132.87000000,14.95000000
266,1778625458.0841038,0.03000000,1.57000000,0.07000000,138.92000000,-132.87000000,14.95000000
267,1778625458.097884,0.03000000,1.57000000,0.07000000,129.52000000,-70.56000000,-1.89000000
268,1778625458.104106,0.03000000,1.57000000,0.07000000,129.52000000,-70.56000000,-1.89000000
269,1778625458.1190028,0.03000000,1.57000000,0.07000000,129.52000000,-70.56000000,-1.89000000
270,1778625458.126865,0.57000000,1.36000000,0.54000000,96.13000000,-110.66000000,2.99000000
271,1778625458.135024,0.57000000,1.36000000,0.54000000,96.13000000,-110.66000000,2.99000000
272,1778625458.1459908,0.57000000,1.36000000,0.54000000,96.13000000,-110.66000000,2.99000000
273,1778625458.1549351,0.57000000,1.36000000,0.54000000,96.13000000,-110.66000000,2.99000000
274,1778625458.16671,0.29000000,0.43000000,0.67000000,58.23000000,-87.71000000,-1.46000000
275,1778625458.175828,0.29000000,0.43000000,0.67000000,58.23000000,-87.71000000,-1.46000000
276,1778625458.1865149,0.29000000,0.43000000,0.67000000,58.23000000,-87.71000000,-1.46000000
277,1778625458.197609,0.29000000,0.43000000,0.67000000,58.23000000,-87.71000000,-1.46000000
278,1778625458.2056808,0.29000000,0.43000000,0.67000000,58.23000000,-87.71000000,-1.46000000
279,1778625458.216707,0.29000000,0.43000000,0.67000000,58.23000000,-87.71000000,-1.46000000
280,1778625458.227821,0.29000000,0.43000000,0.67000000,58.23000000,-87.71000000,-1.46000000
281,1778625458.235926,0.29000000,0.43000000,0.67000000,58.23000000,-87.71000000,-1.46000000
282,1778625458.245572,0.29000000,0.43000000,0.67000000,58.23000000,-87.71000000,-1.46000000
283,1778625458.255991,0.62000000,0.14000000,0.34000000,-99.00000000,-51.27000000,65.12000000
284,1778625458.2667341,0.62000000,0.14000000,0.34000000,-99.00000000,-51.27000000,65.12000000
285,1778625458.2769291,-0.18000000,0.79000000,0.24000000,-99.00000000,-51.27000000,65.12000000
286,1778625458.284328,-0.18000000,0.79000000,0.24000000,-99.00000000,-51.27000000,65.12000000
287,1778625458.297757,-0.18000000,0.79000000,0.24000000,-135.80000000,61.04000000,56.40000000
288,1778625458.305423,-0.18000000,0.79000000,0.24000000,-135.80000000,61.04000000,56.40000000
289,1778625458.31672,-0.18000000,0.79000000,0.24000000,-135.80000000,61.04000000,56.40000000
290,1778625458.3254762,-0.18000000,0.79000000,0.24000000,-135.80000000,61.04000000,56.40000000
291,1778625458.3363059,-0.18000000,0.79000000,0.24000000,-135.80000000,61.04000000,56.40000000
292,1778625458.347808,-0.18000000,0.79000000,0.24000000,-135.80000000,61.04000000,56.40000000
293,1778625458.354697,-0.18000000,0.79000000,0.24000000,-135.80000000,61.04000000,56.40000000
294,1778625458.3686771,-0.18000000,0.79000000,0.24000000,-135.80000000,61.04000000,56.40000000
295,1778625458.374812,-0.18000000,0.79000000,0.24000000,-135.80000000,61.04000000,56.40000000
296,1778625458.3870022,-0.07000000,2.50000000,-0.32000000,-227.42000000,87.16000000,27.47000000
297,1778625458.394602,-0.75000000,2.36000000,-0.33000000,-211.98000000,-184.81000000,48.71000000
298,1778625458.404159,-0.75000000,2.36000000,-0.33000000,-211.98000000,-184.81000000,48.71000000
299,1778625458.417141,-0.75000000,2.36000000,-0.33000000,-211.98000000,-184.81000000,48.71000000
300,1778625458.425322,-0.75000000,2.36000000,-0.33000000,-211.98000000,-184.81000000,48.71000000
301,1778625458.4342,0.38000000,2.11000000,-0.10000000,-162.35000000,5.19000000,88.75000000
302,1778625458.445825,0.38000000,2.11000000,-0.10000000,-162.35000000,5.19000000,88.75000000
303,1778625458.4548512,0.38000000,2.11000000,-0.10000000,-162.35000000,5.19000000,88.75000000
304,1778625458.467785,0.19000000,1.36000000,-0.34000000,-162.35000000,5.19000000,88.75000000
305,1778625458.4773161,0.19000000,1.36000000,-0.34000000,-142.33000000,21.73000000,27.83000000
306,1778625458.4841669,0.19000000,1.36000000,-0.34000000,-142.33000000,21.73000000,27.83000000
307,1778625458.494171,0.19000000,1.36000000,-0.34000000,-142.33000000,21.73000000,27.83000000
308,1778625458.5052822,-0.10000000,0.47000000,-0.18000000,-55.11000000,65.31000000,-28.69000000
309,1778625458.517468,-0.10000000,0.47000000,-0.18000000,-55.11000000,65.31000000,-28.69000000
310,1778625458.5253718,-0.10000000,0.47000000,-0.18000000,-55.11000000,65.31000000,-28.69000000
311,1778625458.534212,-0.10000000,0.47000000,-0.18000000,-55.11000000,65.31000000,-28.69000000
312,1778625458.548651,-0.43000000,-0.10000000,-0.29000000,63.35000000,-11.96000000,-39.86000000
313,1778625458.5542452,-0.43000000,-0.10000000,-0.29000000,63.35000000,-11.96000000,-39.86000000
314,1778625458.567678,-0.43000000,-0.10000000,-0.29000000,63.35000000,-11.96000000,-39.86000000
315,1778625458.576488,-0.43000000,-0.10000000,-0.29000000,63.35000000,-11.96000000,-39.86000000
316,1778625458.587138,-0.54000000,-0.18000000,-0.78000000,185.79000000,-212.28000000,-24.05000000
317,1778625458.596011,-0.54000000,-0.18000000,-0.78000000,185.79000000,-212.28000000,-24.05000000
318,1778625458.606153,-0.54000000,-0.18000000,-0.78000000,185.79000000,-212.28000000,-24.05000000
319,1778625458.6167521,-0.54000000,-0.18000000,-0.78000000,185.79000000,-212.28000000,-24.05000000
320,1778625458.6253262,0.49000000,0.43000000,0.17000000,146.06000000,-99.12000000,-76.35000000
321,1778625458.635602,0.49000000,0.43000000,0.17000000,146.06000000,-99.12000000,-76.35000000
322,1778625458.644285,0.49000000,0.43000000,0.17000000,146.06000000,-99.12000000,-76.35000000
323,1778625458.6545439,0.49000000,0.43000000,0.17000000,146.06000000,-99.12000000,-76.35000000
324,1778625458.6687748,0.61000000,1.67000000,1.53000000,-149.90000000,-113.77000000,88.07000000
325,1778625458.6753678,0.61000000,1.67000000,1.53000000,-149.90000000,-113.77000000,88.07000000
326,1778625458.686516,0.61000000,1.67000000,1.53000000,-149.90000000,-113.77000000,88.07000000
327,1778625458.69683,-0.02000000,-0.26000000,-1.16000000,-47.42000000,-105.41000000,70.37000000
328,1778625458.705782,-0.02000000,-0.26000000,-1.16000000,-47.42000000,-105.41000000,70.37000000
329,1778625458.716764,-0.02000000,-0.26000000,-1.16000000,-47.42000000,-105.41000000,70.37000000
330,1778625458.72734,-0.02000000,-0.26000000,-1.16000000,-47.42000000,-105.41000000,70.37000000
331,1778625458.735239,-0.32000000,2.39000000,-1.26000000,22.34000000,-362.85000000,-130.80000000
332,1778625458.745522,-0.32000000,2.39000000,-1.26000000,22.34000000,-362.85000000,-130.80000000
333,1778625458.755849,-0.32000000,2.39000000,-1.26000000,22.34000000,-362.85000000,-130.80000000
334,1778625458.766777,-0.32000000,2.39000000,-1.26000000,22.34000000,-362.85000000,-130.80000000
335,1778625458.775754,-0.65000000,1.10000000,-1.13000000,64.88000000,35.77000000,-51.27000000
336,1778625458.78673,-0.65000000,1.10000000,-1.13000000,64.88000000,35.77000000,-51.27000000
337,1778625458.795717,-0.65000000,1.10000000,-1.13000000,64.88000000,35.77000000,-51.27000000
338,1778625458.805022,-0.65000000,1.10000000,-1.13000000,64.88000000,35.77000000,-51.27000000
339,1778625458.816784,0.05000000,1.63000000,-1.01000000,82.64000000,-110.23000000,-16.91000000
340,1778625458.826551,0.05000000,1.63000000,-1.01000000,82.64000000,-110.23000000,-16.91000000
341,1778625458.835478,0.05000000,1.63000000,-1.01000000,82.64000000,-110.23000000,-16.91000000
342,1778625458.846179,0.05000000,1.63000000,-1.01000000,82.64000000,-110.23000000,-16.91000000
343,1778625458.856035,0.05000000,1.63000000,-1.01000000,82.64000000,-110.23000000,-16.91000000
344,1778625458.866826,0.05000000,1.63000000,-1.01000000,82.64000000,-110.23000000,-16.91000000
345,1778625458.8741179,0.05000000,1.63000000,-1.01000000,82.64000000,-110.23000000,-16.91000000
346,1778625458.885259,0.05000000,1.63000000,-1.01000000,82.64000000,-110.23000000,-16.91000000
347,1778625458.8950431,0.05000000,1.63000000,-1.01000000,82.64000000,-110.23000000,-16.91000000
348,1778625458.9063082,0.05000000,1.63000000,-1.01000000,82.64000000,-110.23000000,-16.91000000
349,1778625458.915657,0.05000000,1.63000000,-1.01000000,82.64000000,-110.23000000,-16.91000000
350,1778625458.925534,0.58000000,1.07000000,-0.00000000,99.79000000,-86.98000000,-21.85000000
351,1778625458.935564,0.58000000,1.07000000,-0.00000000,99.79000000,-86.98000000,-21.85000000
352,1778625458.944212,0.58000000,1.07000000,-0.00000000,99.79000000,-86.98000000,-21.85000000
353,1778625458.9549792,0.84000000,1.22000000,0.52000000,99.79000000,-86.98000000,-21.85000000
354,1778625458.966999,0.84000000,1.22000000,0.52000000,74.83000000,-171.63000000,13.55000000
355,1778625458.97546,0.84000000,1.22000000,0.52000000,74.83000000,-171.63000000,13.55000000
356,1778625458.9855921,0.84000000,1.22000000,0.52000000,74.83000000,-171.63000000,13.55000000
357,1778625458.994347,0.84000000,1.22000000,0.52000000,74.83000000,-171.63000000,13.55000000
358,1778625459.004548,0.35000000,0.57000000,0.67000000,74.83000000,-171.63000000,13.55000000
359,1778625459.0148008,0.35000000,0.57000000,0.67000000,38.27000000,-112.06000000,14.95000000
360,1778625459.026206,0.35000000,0.57000000,0.67000000,38.27000000,-112.06000000,14.95000000
361,1778625459.034291,0.35000000,0.57000000,0.67000000,38.27000000,-112.06000000,14.95000000
362,1778625459.046006,0.49000000,0.45000000,1.18000000,-57.74000000,-112.49000000,23.38000000
363,1778625459.054635,0.49000000,0.45000000,1.18000000,-57.74000000,-112.49000000,23.38000000
364,1778625459.067942,0.21000000,0.30000000,0.45000000,-57.74000000,-112.49000000,23.38000000
365,1778625459.0744882,0.21000000,0.30000000,0.45000000,-57.74000000,-112.49000000,23.38000000
366,1778625459.085429,0.21000000,0.30000000,0.45000000,-122.25000000,-145.57000000,72.14000000
367,1778625459.095722,0.21000000,0.30000000,0.45000000,-122.25000000,-145.57000000,72.14000000
368,1778625459.106164,0.21000000,0.30000000,0.45000000,-122.25000000,-145.57000000,72.14000000
369,1778625459.116808,-0.03000000,0.67000000,0.23000000,-162.05000000,-10.50000000,51.03000000
370,1778625459.127145,-0.03000000,0.67000000,0.23000000,-162.05000000,-10.50000000,51.03000000
371,1778625459.135503,-0.14000000,1.65000000,0.09000000,-180.36000000,25.15000000,45.10000000
372,1778625459.146194,-0.14000000,1.65000000,0.09000000,-180.36000000,25.15000000,45.10000000
373,1778625459.155018,-0.14000000,1.65000000,0.09000000,-180.36000000,25.15000000,45.10000000
374,1778625459.166813,-0.14000000,1.65000000,0.09000000,-180.36000000,25.15000000,45.10000000
375,1778625459.176345,-0.56000000,2.43000000,-0.47000000,-216.92000000,7.26000000,29.48000000
376,1778625459.185567,-0.56000000,2.43000000,-0.47000000,-216.92000000,7.26000000,29.48000000
377,1778625459.19778,-0.56000000,2.43000000,-0.47000000,-216.92000000,7.26000000,29.48000000
378,1778625459.204301,-0.56000000,2.43000000,-0.47000000,-216.92000000,7.26000000,29.48000000
379,1778625459.21897,-0.56000000,2.33000000,-0.17000000,-142.82000000,-316.71000000,54.32000000
380,1778625459.224145,-0.56000000,2.33000000,-0.17000000,-142.82000000,-316.71000000,54.32000000
381,1778625459.23532,-0.56000000,2.33000000,-0.17000000,-142.82000000,-316.71000000,54.32000000
382,1778625459.247742,-0.56000000,2.33000000,-0.17000000,-142.82000000,-316.71000000,54.32000000
383,1778625459.255337,-0.56000000,2.33000000,-0.17000000,-142.82000000,-316.71000000,54.32000000
384,1778625459.266827,-0.56000000,2.33000000,-0.17000000,-142.82000000,-316.71000000,54.32000000
385,1778625459.27651,-0.56000000,2.33000000,-0.17000000,-142.82000000,-316.71000000,54.32000000
386,1778625459.285259,-0.56000000,2.33000000,-0.17000000,-142.82000000,-316.71000000,54.32000000
387,1778625459.295765,-0.56000000,2.33000000,-0.17000000,-142.82000000,-316.71000000,54.32000000
388,1778625459.307673,-0.05000000,1.63000000,-0.21000000,-164.18000000,21.73000000,-8.85000000
389,1778625459.316245,-0.10000000,0.58000000,-0.20000000,-164.18000000,21.73000000,-8.85000000
390,1778625459.327758,-0.10000000,0.58000000,-0.20000000,-88.13000000,69.40000000,-36.38000000
391,1778625459.337257,-0.10000000,0.58000000,-0.20000000,-88.13000000,69.40000000,-36.38000000
392,1778625459.344327,-0.10000000,0.58000000,-0.20000000,-88.13000000,69.40000000,-36.38000000
393,1778625459.3580701,-0.10000000,0.58000000,-0.20000000,-88.13000000,69.40000000,-36.38000000
394,1778625459.366837,-0.10000000,0.58000000,-0.20000000,-88.13000000,69.40000000,-36.38000000
395,1778625459.376603,-0.10000000,0.58000000,-0.20000000,-88.13000000,69.40000000,-36.38000000
396,1778625459.3846169,-0.10000000,0.58000000,-0.20000000,-88.13000000,69.40000000,-36.38000000
397,1778625459.394221,-0.10000000,0.58000000,-0.20000000,-88.13000000,69.40000000,-36.38000000
398,1778625459.404199,-0.10000000,0.58000000,-0.20000000,-88.13000000,69.40000000,-36.38000000
399,1778625459.4187908,-0.10000000,0.58000000,-0.20000000,-88.13000000,69.40000000,-36.38000000
400,1778625459.4241002,-0.10000000,0.58000000,-0.20000000,-88.13000000,69.40000000,-36.38000000
401,1778625459.434109,0.31000000,0.17000000,-0.46000000,185.06000000,-58.78000000,-69.52000000
402,1778625459.447246,0.31000000,0.17000000,-0.46000000,185.06000000,-58.78000000,-69.52000000
403,1778625459.454103,0.31000000,0.17000000,-0.46000000,185.06000000,-58.78000000,-69.52000000
404,1778625459.469002,0.31000000,0.17000000,-0.46000000,185.06000000,-58.78000000,-69.52000000
405,1778625459.474147,-0.06000000,0.74000000,0.78000000,55.30000000,-180.48000000,-18.55000000
406,1778625459.486412,-0.06000000,0.74000000,0.78000000,55.30000000,-180.48000000,-18.55000000
407,1778625459.495847,-0.06000000,0.74000000,0.78000000,55.30000000,-180.48000000,-18.55000000
408,1778625459.504728,0.17000000,0.78000000,0.34000000,-71.11000000,-213.81000000,55.11000000
409,1778625459.517376,0.17000000,0.78000000,0.34000000,-71.11000000,-213.81000000,55.11000000
410,1778625459.5272021,0.17000000,0.78000000,0.34000000,-71.11000000,-213.81000000,55.11000000
411,1778625459.5356212,0.17000000,0.78000000,0.34000000,-71.11000000,-213.81000000,55.11000000
412,1778625459.548324,-0.23000000,0.75000000,-1.96000000,88.93000000,-172.85000000,-28.14000000
413,1778625459.555246,-0.23000000,0.75000000,-1.96000000,88.93000000,-172.85000000,-28.14000000
414,1778625459.56471,-0.23000000,0.75000000,-1.96000000,88.93000000,-172.85000000,-28.14000000
415,1778625459.5795898,-0.23000000,0.75000000,-1.96000000,88.93000000,-172.85000000,-28.14000000
416,1778625459.586049,0.33000000,1.73000000,1.06000000,45.78000000,-193.54000000,12.94000000
417,1778625459.5961459,0.33000000,1.73000000,1.06000000,45.78000000,-193.54000000,12.94000000
418,1778625459.604138,0.33000000,1.73000000,1.06000000,45.78000000,-193.54000000,12.94000000
419,1778625459.618818,0.11000000,1.82000000,-0.59000000,62.38000000,-257.08000000,-48.58000000
420,1778625459.6242828,0.11000000,1.82000000,-0.59000000,62.38000000,-257.08000000,-48.58000000
421,1778625459.635892,0.11000000,1.82000000,-0.59000000,62.38000000,-257.08000000,-48.58000000
422,1778625459.644167,0.11000000,1.82000000,-0.59000000,62.38000000,-257.08000000,-48.58000000
423,1778625459.654193,0.20000000,1.93000000,-0.06000000,37.35000000,49.68000000,-52.31000000
424,1778625459.6687691,0.20000000,1.93000000,-0.06000000,37.35000000,49.68000000,-52.31000000
425,1778625459.674888,0.20000000,1.93000000,-0.06000000,37.35000000,49.68000000,-52.31000000
426,1778625459.687739,0.42000000,1.60000000,-0.37000000,92.04000000,-146.18000000,-39.25000000
427,1778625459.694924,0.42000000,1.60000000,-0.37000000,92.04000000,-146.18000000,-39.25000000
428,1778625459.704184,0.42000000,1.60000000,-0.37000000,92.04000000,-146.18000000,-39.25000000
429,1778625459.7189782,1.16000000,1.54000000,-0.36000000,139.40000000,-51.27000000,-23.07000000
430,1778625459.72437,1.16000000,1.54000000,-0.36000000,139.40000000,-51.27000000,-23.07000000
431,1778625459.735604,1.16000000,1.54000000,-0.36000000,139.40000000,-51.27000000,-23.07000000
432,1778625459.7461288,1.16000000,1.54000000,-0.36000000,139.40000000,-51.27000000,-23.07000000
433,1778625459.754753,0.01000000,1.42000000,0.38000000,142.03000000,-115.11000000,21.55000000
434,1778625459.766175,0.01000000,1.42000000,0.38000000,142.03000000,-115.11000000,21.55000000
435,1778625459.775441,0.01000000,1.42000000,0.38000000,142.03000000,-115.11000000,21.55000000
436,1778625459.787349,0.01000000,1.42000000,0.38000000,142.03000000,-115.11000000,21.55000000
437,1778625459.7945511,0.01000000,1.42000000,0.38000000,142.03000000,-115.11000000,21.55000000
438,1778625459.80606,0.03000000,1.15000000,0.68000000,107.85000000,-94.18000000,-36.99000000
439,1778625459.815966,0.03000000,1.15000000,0.68000000,107.85000000,-94.18000000,-36.99000000
440,1778625459.8286731,0.03000000,1.15000000,0.68000000,107.85000000,-94.18000000,-36.99000000
441,1778625459.836362,0.66000000,0.69000000,1.10000000,16.85000000,-21.48000000,-77.76000000
442,1778625459.844894,0.66000000,0.69000000,1.10000000,16.85000000,-21.48000000,-77.76000000
443,1778625459.855839,0.66000000,0.69000000,1.10000000,16.85000000,-21.48000000,-77.76000000
444,1778625459.8669388,0.83000000,0.19000000,0.82000000,-131.96000000,-70.98000000,-13.85000000
445,1778625459.875297,0.83000000,0.19000000,0.82000000,-131.96000000,-70.98000000,-13.85000000
446,1778625459.8845088,0.83000000,0.19000000,0.82000000,-131.96000000,-70.98000000,-13.85000000
447,1778625459.896106,0.83000000,0.19000000,0.82000000,-131.96000000,-70.98000000,-13.85000000
448,1778625459.904379,0.83000000,0.19000000,0.82000000,-131.96000000,-70.98000000,-13.85000000
449,1778625459.918773,0.83000000,0.19000000,0.82000000,-131.96000000,-70.98000000,-13.85000000
450,1778625459.9241972,0.83000000,0.19000000,0.82000000,-131.96000000,-70.98000000,-13.85000000
451,1778625459.9365802,0.83000000,0.19000000,0.82000000,-131.96000000,-70.98000000,-13.85000000
452,1778625459.946143,0.83000000,0.19000000,0.82000000,-131.96000000,-70.98000000,-13.85000000
453,1778625459.9561799,0.83000000,0.19000000,0.82000000,-131.96000000,-70.98000000,-13.85000000
454,1778625459.9684968,1.12000000,1.39000000,-0.24000000,-243.53000000,132.87000000,15.69000000
455,1778625459.974891,1.12000000,1.39000000,-0.24000000,-243.53000000,132.87000000,15.69000000
456,1778625459.985045,1.18000000,2.49000000,-0.42000000,-270.39000000,265.44000000,54.26000000
457,1778625459.9959629,1.18000000,2.49000000,-0.42000000,-270.39000000,265.44000000,54.26000000
458,1778625460.006851,1.18000000,2.49000000,-0.42000000,-270.39000000,265.44000000,54.26000000
459,1778625460.024279,-0.11000000,2.79000000,-0.42000000,-270.39000000,265.44000000,54.26000000
460,1778625460.024308,-0.11000000,2.79000000,-0.42000000,-270.39000000,265.44000000,54.26000000
461,1778625460.0341902,-0.11000000,2.79000000,-0.42000000,-197.20000000,-170.17000000,68.42000000
462,1778625460.045994,-0.11000000,2.79000000,-0.42000000,-197.20000000,-170.17000000,68.42000000
463,1778625460.055219,-0.11000000,2.79000000,-0.42000000,-197.20000000,-170.17000000,68.42000000
464,1778625460.06553,1.19000000,2.06000000,-0.11000000,-190.06000000,162.11000000,134.03000000
465,1778625460.076616,1.19000000,2.06000000,-0.11000000,-190.06000000,162.11000000,134.03000000
466,1778625460.0854568,1.19000000,2.06000000,-0.11000000,-190.06000000,162.11000000,134.03000000
467,1778625460.094124,1.19000000,2.06000000,-0.11000000,-190.06000000,162.11000000,134.03000000
468,1778625460.104117,0.39000000,1.60000000,-0.62000000,-190.06000000,162.11000000,134.03000000
469,1778625460.118912,0.39000000,1.60000000,-0.62000000,-130.86000000,237.98000000,93.57000000
470,1778625460.1248882,0.39000000,1.60000000,-0.62000000,-130.86000000,237.98000000,93.57000000
471,1778625460.1361558,-0.27000000,0.80000000,-0.49000000,-54.87000000,213.87000000,53.10000000
472,1778625460.144453,-0.27000000,0.80000000,-0.49000000,-54.87000000,213.87000000,53.10000000
473,1778625460.15748,-0.27000000,0.80000000,-0.49000000,-54.87000000,213.87000000,53.10000000
474,1778625460.1669362,-0.63000000,-0.13000000,-0.38000000,-54.87000000,213.87000000,53.10000000
475,1778625460.1758919,-0.63000000,-0.13000000,-0.38000000,32.04000000,104.49000000,21.91000000
476,1778625460.18573,-0.63000000,-0.13000000,-0.38000000,32.04000000,104.49000000,21.91000000
477,1778625460.195767,-0.63000000,-0.13000000,-0.38000000,32.04000000,104.49000000,21.91000000
478,1778625460.204331,-0.79000000,-0.59000000,-0.46000000,131.23000000,-49.19000000,-9.95000000
479,1778625460.2187781,-0.79000000,-0.59000000,-0.46000000,131.23000000,-49.19000000,-9.95000000
480,1778625460.226581,-0.79000000,-0.59000000,-0.46000000,131.23000000,-49.19000000,-9.95000000
481,1778625460.2355,-0.79000000,-0.59000000,-0.46000000,131.23000000,-49.19000000,-9.95000000
482,1778625460.2486742,-0.16000000,-0.30000000,-0.32000000,197.75000000,-122.99000000,-23.62000000
483,1778625460.2544,-0.16000000,-0.30000000,-0.32000000,197.75000000,-122.99000000,-23.62000000
484,1778625460.267544,-0.16000000,-0.30000000,-0.32000000,197.75000000,-122.99000000,-23.62000000
485,1778625460.274539,-0.16000000,-0.30000000,-0.32000000,197.75000000,-122.99000000,-23.62000000
486,1778625460.285451,-0.16000000,-0.30000000,-0.32000000,197.75000000,-122.99000000,-23.62000000
487,1778625460.297857,-0.16000000,-0.30000000,-0.32000000,197.75000000,-122.99000000,-23.62000000
488,1778625460.3053062,-0.16000000,-0.30000000,-0.32000000,197.75000000,-122.99000000,-23.62000000
489,1778625460.316976,-0.16000000,-0.30000000,-0.32000000,197.75000000,-122.99000000,-23.62000000
490,1778625460.326707,-0.16000000,-0.30000000,-0.32000000,197.75000000,-122.99000000,-23.62000000
491,1778625460.337535,-0.16000000,-0.30000000,-0.32000000,197.75000000,-122.99000000,-23.62000000
492,1778625460.345545,-0.16000000,-0.30000000,-0.32000000,197.75000000,-122.99000000,-23.62000000
493,1778625460.355694,0.01000000,2.15000000,0.95000000,2.14000000,-57.56000000,95.52000000
494,1778625460.3659909,-0.03000000,0.37000000,-1.38000000,67.81000000,-97.11000000,88.62000000
495,1778625460.375123,-0.03000000,0.37000000,-1.38000000,67.81000000,-97.11000000,88.62000000
496,1778625460.3854988,-0.03000000,0.37000000,-1.38000000,67.81000000,-97.11000000,88.62000000
497,1778625460.394701,0.09000000,2.06000000,-1.01000000,102.72000000,20.51000000,2.08000000
498,1778625460.404435,0.09000000,2.06000000,-1.01000000,102.72000000,20.51000000,2.08000000
499,1778625460.418366,0.09000000,2.06000000,-1.01000000,102.72000000,20.51000000,2.08000000
500,1778625460.424103,0.09000000,2.06000000,-1.01000000,102.72000000,20.51000000,2.08000000
501,1778625460.4355578,0.09000000,2.06000000,-1.01000000,102.72000000,20.51000000,2.08000000
502,1778625460.4457989,0.09000000,2.06000000,-1.01000000,102.72000000,20.51000000,2.08000000
503,1778625460.45446,0.09000000,2.06000000,-1.01000000,102.72000000,20.51000000,2.08000000
504,1778625460.468852,0.09000000,2.06000000,-1.01000000,102.72000000,20.51000000,2.08000000
505,1778625460.475094,0.09000000,2.06000000,-1.01000000,102.72000000,20.51000000,2.08000000
506,1778625460.48778,-0.88000000,0.60000000,-1.01000000,48.46000000,-295.35000000,32.10000000
507,1778625460.496115,-0.88000000,0.60000000,-1.01000000,48.46000000,-295.35000000,32.10000000
508,1778625460.508385,-0.88000000,0.60000000,-1.01000000,48.46000000,-295.35000000,32.10000000
509,1778625460.515031,-0.51000000,2.19000000,-1.10000000,101.68000000,-113.53000000,-54.26000000
510,1778625460.5255501,-0.51000000,2.19000000,-1.10000000,101.68000000,-113.53000000,-54.26000000
511,1778625460.535404,2.10000000,2.02000000,-0.78000000,101.68000000,-113.53000000,-54.26000000
512,1778625460.5448792,2.10000000,2.02000000,-0.78000000,140.87000000,-170.47000000,17.52000000
513,1778625460.557517,2.10000000,2.02000000,-0.78000000,140.87000000,-170.47000000,17.52000000
514,1778625460.5669901,2.10000000,2.02000000,-0.78000000,140.87000000,-170.47000000,17.52000000
515,1778625460.576807,2.10000000,2.02000000,-0.78000000,140.87000000,-170.47000000,17.52000000
516,1778625460.585782,-0.05000000,1.58000000,0.10000000,130.49000000,-12.02000000,2.93000000
517,1778625460.594492,-0.05000000,1.58000000,0.10000000,130.49000000,-12.02000000,2.93000000
518,1778625460.604394,-0.05000000,1.58000000,0.10000000,130.49000000,-12.02000000,2.93000000
519,1778625460.6150668,0.12000000,1.23000000,0.62000000,119.45000000,-230.83000000,41.87000000
520,1778625460.625886,0.12000000,1.23000000,0.62000000,119.45000000,-230.83000000,41.87000000
521,1778625460.635517,0.12000000,1.23000000,0.62000000,119.45000000,-230.83000000,41.87000000
522,1778625460.645223,0.12000000,1.23000000,0.62000000,119.45000000,-230.83000000,41.87000000
523,1778625460.6543932,0.62000000,0.55000000,1.18000000,119.45000000,-230.83000000,41.87000000
524,1778625460.6675498,0.62000000,0.55000000,1.18000000,119.45000000,-230.83000000,41.87000000
525,1778625460.675019,0.62000000,0.55000000,1.18000000,38.57000000,-121.70000000,8.48000000
526,1778625460.685523,0.62000000,0.55000000,1.18000000,38.57000000,-121.70000000,8.48000000
527,1778625460.695998,0.62000000,0.55000000,1.18000000,38.57000000,-121.70000000,8.48000000
528,1778625460.705617,0.62000000,0.55000000,1.18000000,38.57000000,-121.70000000,8.48000000
529,1778625460.715111,0.78000000,0.24000000,0.82000000,-56.34000000,-134.16000000,29.36000000
530,1778625460.7260108,0.12000000,0.37000000,0.28000000,-102.29000000,-95.46000000,87.52000000
531,1778625460.73708,0.12000000,0.37000000,0.28000000,-102.29000000,-95.46000000,87.52000000
532,1778625460.7443001,0.12000000,0.37000000,0.28000000,-102.29000000,-95.46000000,87.52000000
533,1778625460.754913,0.12000000,0.37000000,0.28000000,-102.29000000,-95.46000000,87.52000000
534,1778625460.765433,0.12000000,0.37000000,0.28000000,-102.29000000,-95.46000000,87.52000000
535,1778625460.77675,-0.32000000,0.56000000,0.44000000,-128.05000000,66.35000000,44.49000000
536,1778625460.786761,-0.32000000,0.56000000,0.44000000,-128.05000000,66.35000000,44.49000000
537,1778625460.796999,-0.32000000,0.56000000,0.44000000,-128.05000000,66.35000000,44.49000000
538,1778625460.8045871,0.17000000,1.68000000,-0.07000000,-128.05000000,66.35000000,44.49000000
539,1778625460.8188019,0.17000000,1.68000000,-0.07000000,-158.08000000,-0.98000000,41.02000000
540,1778625460.8241332,0.17000000,1.68000000,-0.07000000,-158.08000000,-0.98000000,41.02000000
541,1778625460.834763,0.12000000,2.54000000,-0.04000000,-197.14000000,31.62000000,33.51000000
542,1778625460.845458,0.12000000,2.54000000,-0.04000000,-197.14000000,31.62000000,33.51000000
543,1778625460.856965,0.12000000,2.54000000,-0.04000000,-197.14000000,31.62000000,33.51000000
544,1778625460.8673651,0.12000000,2.54000000,-0.04000000,-197.14000000,31.62000000,33.51000000
545,1778625460.874828,-0.52000000,2.69000000,-0.41000000,-236.33000000,-136.41000000,94.97000000
546,1778625460.8847091,-0.52000000,2.69000000,-0.41000000,-236.33000000,-136.41000000,94.97000000
547,1778625460.895282,-0.52000000,2.69000000,-0.41000000,-236.33000000,-136.41000000,94.97000000
548,1778625460.90573,-0.52000000,2.69000000,-0.41000000,-236.33000000,-136.41000000,94.97000000
549,1778625460.9170291,0.27000000,2.45000000,0.30000000,-121.15000000,-43.03000000,95.95000000
550,1778625460.928572,0.27000000,2.45000000,0.30000000,-121.15000000,-43.03000000,95.95000000
551,1778625460.9358232,0.27000000,2.45000000,0.30000000,-121.15000000,-43.03000000,95.95000000
552,1778625460.944403,0.27000000,2.45000000,0.30000000,-121.15000000,-43.03000000,95.95000000
553,1778625460.958861,0.27000000,2.45000000,0.30000000,-121.15000000,-43.03000000,95.95000000
554,1778625460.966702,0.27000000,2.45000000,0.30000000,-121.15000000,-43.03000000,95.95000000
555,1778625460.977372,0.27000000,2.45000000,0.30000000,-121.15000000,-43.03000000,95.95000000
556,1778625460.985352,0.27000000,2.45000000,0.30000000,-121.15000000,-43.03000000,95.95000000
557,1778625460.995032,0.27000000,2.45000000,0.30000000,-121.15000000,-43.03000000,95.95000000
558,1778625461.0041358,0.27000000,2.45000000,0.30000000,-121.15000000,-43.03000000,95.95000000
559,1778625461.017534,0.03000000,0.71000000,-0.22000000,-77.33000000,81.30000000,-21.30000000
560,1778625461.025769,0.03000000,0.71000000,-0.22000000,-77.33000000,81.30000000,-21.30000000
561,1778625461.0344179,0.03000000,0.71000000,-0.22000000,-77.33000000,81.30000000,-21.30000000
562,1778625461.044688,-0.28000000,0.04000000,-0.36000000,30.27000000,-0.61000000,-24.41000000
563,1778625461.058692,-0.39000000,-0.44000000,-0.65000000,30.27000000,-0.61000000,-24.41000000
564,1778625461.065728,-0.39000000,-0.44000000,-0.65000000,114.81000000,-96.86000000,-46.08000000
565,1778625461.076011,-0.39000000,-0.44000000,-0.65000000,114.81000000,-96.86000000,-46.08000000
566,1778625461.08422,-0.39000000,-0.44000000,-0.65000000,114.81000000,-96.86000000,-46.08000000
567,1778625461.098164,-0.39000000,-0.44000000,-0.65000000,114.81000000,-96.86000000,-46.08000000
568,1778625461.105162,-0.39000000,-0.44000000,-0.65000000,114.81000000,-96.86000000,-46.08000000
569,1778625461.1170912,0.37000000,0.35000000,0.01000000,157.23000000,-28.69000000,-56.76000000
570,1778625461.125526,0.37000000,0.35000000,0.01000000,157.23000000,-28.69000000,-56.76000000
571,1778625461.136729,0.38000000,1.79000000,2.14000000,-83.07000000,-350.95000000,103.82000000
572,1778625461.145992,0.38000000,1.79000000,2.14000000,-83.07000000,-350.95000000,103.82000000
573,1778625461.156161,0.38000000,1.79000000,2.14000000,-83.07000000,-350.95000000,103.82000000
574,1778625461.1664379,0.38000000,1.79000000,2.14000000,-83.07000000,-350.95000000,103.82000000
575,1778625461.175748,-0.03000000,-0.43000000,-0.80000000,-104.25000000,-77.03000000,6.59000000
576,1778625461.185631,-0.03000000,-0.43000000,-0.80000000,-104.25000000,-77.03000000,6.59000000
577,1778625461.1974149,-0.03000000,-0.43000000,-0.80000000,-104.25000000,-77.03000000,6.59000000
578,1778625461.207424,0.20000000,1.86000000,-1.21000000,-104.25000000,-77.03000000,6.59000000
579,1778625461.21441,0.20000000,1.86000000,-1.21000000,-104.25000000,-77.03000000,6.59000000
580,1778625461.225544,0.20000000,1.86000000,-1.21000000,69.82000000,-172.85000000,-100.89000000
581,1778625461.2348711,0.20000000,1.86000000,-1.21000000,69.82000000,-172.85000000,-100.89000000
582,1778625461.244432,0.20000000,1.86000000,-1.21000000,69.82000000,-172.85000000,-100.89000000
583,1778625461.25733,-0.27000000,3.11000000,1.52000000,68.18000000,17.94000000,-48.89000000
584,1778625461.264991,-0.27000000,3.11000000,1.52000000,68.18000000,17.94000000,-48.89000000
585,1778625461.275618,-0.27000000,3.11000000,1.52000000,68.18000000,17.94000000,-48.89000000
586,1778625461.286582,-0.06000000,0.52000000,-0.78000000,71.47000000,-154.79000000,11.66000000
587,1778625461.294145,-0.06000000,0.52000000,-0.78000000,71.47000000,-154.79000000,11.66000000
588,1778625461.307028,-0.06000000,0.52000000,-0.78000000,71.47000000,-154.79000000,11.66000000
589,1778625461.3171031,-0.06000000,0.52000000,-0.78000000,71.47000000,-154.79000000,11.66000000
590,1778625461.327399,-0.06000000,0.52000000,-0.78000000,71.47000000,-154.79000000,11.66000000
591,1778625461.3344378,-0.06000000,0.52000000,-0.78000000,71.47000000,-154.79000000,11.66000000
592,1778625461.3478131,-0.06000000,0.52000000,-0.78000000,71.47000000,-154.79000000,11.66000000
593,1778625461.354188,-0.06000000,0.52000000,-0.78000000,71.47000000,-154.79000000,11.66000000
594,1778625461.368806,-0.06000000,0.52000000,-0.78000000,71.47000000,-154.79000000,11.66000000
595,1778625461.374926,-0.06000000,0.52000000,-0.78000000,71.47000000,-154.79000000,11.66000000
596,1778625461.384174,-0.06000000,0.52000000,-0.78000000,71.47000000,-154.79000000,11.66000000
597,1778625461.394463,-0.06000000,0.52000000,-0.78000000,71.47000000,-154.79000000,11.66000000
598,1778625461.4077199,0.40000000,1.38000000,0.10000000,109.19000000,-134.70000000,1.40000000
599,1778625461.4171112,0.40000000,1.38000000,0.10000000,109.19000000,-134.70000000,1.40000000
600,1778625461.425505,0.40000000,1.38000000,0.10000000,109.19000000,-134.70000000,1.40000000
601,1778625461.4358542,0.42000000,1.21000000,0.46000000,109.19000000,-134.70000000,1.40000000
602,1778625461.444426,0.42000000,1.21000000,0.46000000,77.27000000,-257.69000000,39.67000000
603,1778625461.457193,0.42000000,1.21000000,0.46000000,77.27000000,-257.69000000,39.67000000
604,1778625461.4671192,0.42000000,1.21000000,0.46000000,77.27000000,-257.69000000,39.67000000
605,1778625461.4742742,0.42000000,1.21000000,0.46000000,77.27000000,-257.69000000,39.67000000
606,1778625461.4841201,0.42000000,1.21000000,0.46000000,77.27000000,-257.69000000,39.67000000
607,1778625461.4941592,0.42000000,1.21000000,0.46000000,77.27000000,-257.69000000,39.67000000
608,1778625461.505329,0.42000000,1.21000000,0.46000000,77.27000000,-257.69000000,39.67000000
609,1778625461.517607,0.42000000,1.21000000,0.46000000,77.27000000,-257.69000000,39.67000000
610,1778625461.5241961,0.42000000,1.21000000,0.46000000,77.27000000,-257.69000000,39.67000000
611,1778625461.535838,1.16000000,0.52000000,0.97000000,19.47000000,-36.99000000,7.93000000
612,1778625461.5476701,1.16000000,0.52000000,0.97000000,19.47000000,-36.99000000,7.93000000
613,1778625461.5545862,0.53000000,0.08000000,0.63000000,-52.00000000,-79.65000000,60.30000000
614,1778625461.5688362,0.53000000,0.08000000,0.63000000,-52.00000000,-79.65000000,60.30000000
615,1778625461.574765,0.53000000,0.08000000,0.63000000,-52.00000000,-79.65000000,60.30000000
616,1778625461.588015,0.53000000,0.08000000,0.63000000,-52.00000000,-79.65000000,60.30000000
617,1778625461.595575,-0.81000000,0.39000000,0.43000000,-125.49000000,31.92000000,54.57000000
618,1778625461.604683,-0.81000000,0.39000000,0.43000000,-125.49000000,31.92000000,54.57000000
619,1778625461.6145039,-0.81000000,0.39000000,0.43000000,-125.49000000,31.92000000,54.57000000
620,1778625461.626188,0.26000000,1.04000000,0.07000000,-164.73000000,1.95000000,46.94000000
621,1778625461.634112,0.26000000,1.04000000,0.07000000,-164.73000000,1.95000000,46.94000000
622,1778625461.646559,0.26000000,1.04000000,0.07000000,-164.73000000,1.95000000,46.94000000
623,1778625461.65563,0.26000000,1.04000000,0.07000000,-164.73000000,1.95000000,46.94000000
624,1778625461.667117,0.45000000,2.22000000,-0.07000000,-211.91000000,54.81000000,49.38000000
625,1778625461.675775,0.45000000,2.22000000,-0.07000000,-211.91000000,54.81000000,49.38000000
626,1778625461.686769,0.45000000,2.22000000,-0.07000000,-211.91000000,54.81000000,49.38000000
627,1778625461.69454,0.45000000,2.22000000,-0.07000000,-211.91000000,54.81000000,49.38000000
628,1778625461.7045271,0.45000000,2.22000000,-0.07000000,-211.91000000,54.81000000,49.38000000
629,1778625461.7145028,-0.57000000,3.12000000,-0.55000000,-244.32000000,8.24000000,75.38000000
630,1778625461.726193,-0.57000000,3.12000000,-0.55000000,-244.32000000,8.24000000,75.38000000
631,1778625461.73588,-0.57000000,3.12000000,-0.55000000,-244.32000000,8.24000000,75.38000000
632,1778625461.7450151,0.22000000,2.55000000,-0.02000000,-96.25000000,-92.65000000,37.23000000
633,1778625461.754616,0.22000000,2.55000000,-0.02000000,-96.25000000,-92.65000000,37.23000000
634,1778625461.766912,0.22000000,2.55000000,-0.02000000,-96.25000000,-92.65000000,37.23000000
635,1778625461.777447,0.22000000,2.55000000,-0.02000000,-96.25000000,-92.65000000,37.23000000
636,1778625461.784703,0.44000000,2.23000000,-0.28000000,-161.13000000,60.18000000,78.19000000
637,1778625461.798134,0.44000000,2.23000000,-0.28000000,-161.13000000,60.18000000,78.19000000
638,1778625461.805769,0.44000000,2.23000000,-0.28000000,-161.13000000,60.18000000,78.19000000
639,1778625461.816074,0.44000000,2.23000000,-0.28000000,-161.13000000,60.18000000,78.19000000
640,1778625461.8281221,-0.09000000,0.71000000,-0.24000000,-119.08000000,118.23000000,4.88000000
641,1778625461.8341498,-0.09000000,0.71000000,-0.24000000,-119.08000000,118.23000000,4.88000000
642,1778625461.844278,-0.09000000,0.71000000,-0.24000000,-119.08000000,118.23000000,4.88000000
643,1778625461.8541849,-0.45000000,-0.32000000,-0.39000000,7.57000000,34.91000000,-16.24000000
644,1778625461.868802,-0.45000000,-0.32000000,-0.39000000,7.57000000,34.91000000,-16.24000000
645,1778625461.874141,-0.45000000,-0.32000000,-0.39000000,7.57000000,34.91000000,-16.24000000
646,1778625461.8861299,-0.45000000,-0.32000000,-0.39000000,7.57000000,34.91000000,-16.24000000
647,1778625461.894321,-0.42000000,-0.36000000,-0.51000000,125.37000000,-102.60000000,-37.29000000
648,1778625461.905493,-0.42000000,-0.36000000,-0.51000000,125.37000000,-102.60000000,-37.29000000
649,1778625461.9180229,-0.42000000,-0.36000000,-0.51000000,125.37000000,-102.60000000,-37.29000000
650,1778625461.924299,-0.42000000,-0.36000000,-0.51000000,125.37000000,-102.60000000,-37.29000000
651,1778625461.935901,0.15000000,-0.01000000,-0.14000000,208.01000000,-128.36000000,-67.57000000
652,1778625461.944118,0.15000000,-0.01000000,-0.14000000,208.01000000,-128.36000000,-67.57000000
653,1778625461.956012,0.15000000,-0.01000000,-0.14000000,208.01000000,-128.36000000,-67.57000000
654,1778625461.9671779,0.53000000,0.30000000,0.49000000,67.81000000,-78.80000000,-28.20000000
655,1778625461.97555,0.53000000,0.30000000,0.49000000,67.81000000,-78.80000000,-28.20000000
656,1778625461.985909,0.53000000,0.30000000,0.49000000,67.81000000,-78.80000000,-28.20000000
657,1778625461.994931,0.53000000,0.30000000,0.49000000,67.81000000,-78.80000000,-28.20000000
658,1778625462.004139,0.53000000,0.30000000,0.49000000,67.81000000,-78.80000000,-28.20000000
659,1778625462.0176861,0.53000000,0.30000000,0.49000000,67.81000000,-78.80000000,-28.20000000
660,1778625462.0263271,0.53000000,0.30000000,0.49000000,67.81000000,-78.80000000,-28.20000000
661,1778625462.037408,0.53000000,0.30000000,0.49000000,67.81000000,-78.80000000,-28.20000000
662,1778625462.04579,0.53000000,0.30000000,0.49000000,67.81000000,-78.80000000,-28.20000000
663,1778625462.056393,0.53000000,0.30000000,0.49000000,67.81000000,-78.80000000,-28.20000000
664,1778625462.0660858,0.16000000,-0.38000000,-2.25000000,-5.68000000,-78.06000000,30.82000000
665,1778625462.077355,0.16000000,-0.38000000,-2.25000000,-5.68000000,-78.06000000,30.82000000
666,1778625462.084629,-0.01000000,1.88000000,-1.41000000,70.43000000,-179.02000000,-86.00000000
667,1778625462.0958238,-0.01000000,1.88000000,-1.41000000,70.43000000,-179.02000000,-86.00000000
668,1778625462.1050618,-0.01000000,1.88000000,-1.41000000,70.43000000,-179.02000000,-86.00000000
669,1778625462.117203,-0.32000000,1.95000000,0.42000000,16.85000000,-174.87000000,-2.32000000
670,1778625462.126508,-0.32000000,1.95000000,0.42000000,16.85000000,-174.87000000,-2.32000000
671,1778625462.1360981,-0.32000000,1.95000000,0.42000000,16.85000000,-174.87000000,-2.32000000
672,1778625462.146085,-0.26000000,1.42000000,-1.16000000,16.85000000,-174.87000000,-2.32000000
673,1778625462.154155,-0.26000000,1.42000000,-1.16000000,90.39000000,-187.56000000,-16.97000000
674,1778625462.168179,-0.26000000,1.42000000,-1.16000000,90.39000000,-187.56000000,-16.97000000
675,1778625462.174294,-0.26000000,1.42000000,-1.16000000,90.39000000,-187.56000000,-16.97000000
676,1778625462.18467,0.30000000,1.82000000,-0.80000000,47.91000000,149.96000000,-73.61000000
677,1778625462.195404,0.30000000,1.82000000,-0.80000000,47.91000000,149.96000000,-73.61000000
678,1778625462.205181,0.30000000,1.82000000,-0.80000000,47.91000000,149.96000000,-73.61000000
679,1778625462.217222,0.30000000,1.82000000,-0.80000000,47.91000000,149.96000000,-73.61000000
680,1778625462.225066,0.93000000,1.72000000,-0.24000000,123.66000000,-208.13000000,9.40000000
681,1778625462.234415,0.93000000,1.72000000,-0.24000000,123.66000000,-208.13000000,9.40000000
682,1778625462.248859,0.93000000,1.72000000,-0.24000000,123.66000000,-208.13000000,9.40000000
683,1778625462.256096,0.93000000,1.72000000,-0.24000000,123.66000000,-208.13000000,9.40000000
684,1778625462.268398,0.82000000,1.51000000,0.36000000,123.66000000,-208.13000000,9.40000000
685,1778625462.2782028,0.82000000,1.51000000,0.36000000,105.77000000,-114.69000000,10.86000000
686,1778625462.284719,0.82000000,1.51000000,0.36000000,105.77000000,-114.69000000,10.86000000
687,1778625462.295868,0.82000000,1.51000000,0.36000000,105.77000000,-114.69000000,10.86000000
688,1778625462.30685,0.26000000,0.79000000,0.82000000,76.42000000,-170.59000000,35.16000000
689,1778625462.3145301,0.26000000,0.79000000,0.82000000,76.42000000,-170.59000000,35.16000000
690,1778625462.327422,0.26000000,0.79000000,0.82000000,76.42000000,-170.59000000,35.16000000
691,1778625462.335419,0.26000000,0.79000000,0.82000000,76.42000000,-170.59000000,35.16000000
692,1778625462.344467,0.40000000,0.62000000,0.83000000,40.22000000,-48.58000000,-25.33000000
693,1778625462.356417,0.40000000,0.62000000,0.83000000,40.22000000,-48.58000000,-25.33000000
694,1778625462.3672152,0.40000000,0.62000000,0.83000000,40.22000000,-48.58000000,-25.33000000
695,1778625462.374975,0.40000000,0.62000000,0.83000000,40.22000000,-48.58000000,-25.33000000
696,1778625462.387744,0.40000000,0.62000000,0.83000000,40.22000000,-48.58000000,-25.33000000
697,1778625462.394208,0.40000000,0.62000000,0.83000000,40.22000000,-48.58000000,-25.33000000
698,1778625462.4059432,0.40000000,0.62000000,0.83000000,40.22000000,-48.58000000,-25.33000000
699,1778625462.415711,0.40000000,0.62000000,0.83000000,40.22000000,-48.58000000,-25.33000000
700,1778625462.430621,0.40000000,0.62000000,0.83000000,40.22000000,-48.58000000,-25.33000000
701,1778625462.440734,0.40000000,0.62000000,0.83000000,40.22000000,-48.58000000,-25.33000000
702,1778625462.445666,0.40000000,0.62000000,0.83000000,40.22000000,-48.58000000,-25.33000000
703,1778625462.4542148,-0.04000000,1.00000000,0.07000000,-199.83000000,68.54000000,-17.76000000
704,1778625462.468788,-0.04000000,1.00000000,0.07000000,-199.83000000,68.54000000,-17.76000000
705,1778625462.474132,-0.04000000,1.00000000,0.07000000,-199.83000000,68.54000000,-17.76000000
706,1778625462.487533,-0.04000000,1.00000000,0.07000000,-199.83000000,68.54000000,-17.76000000
707,1778625462.494195,0.71000000,2.23000000,-0.37000000,-244.32000000,61.77000000,9.89000000
708,1778625462.505004,0.71000000,2.23000000,-0.37000000,-244.32000000,61.77000000,9.89000000
709,1778625462.5177422,0.71000000,2.23000000,-0.37000000,-244.32000000,61.77000000,9.89000000
710,1778625462.524129,0.71000000,2.23000000,-0.37000000,-244.32000000,61.77000000,9.89000000
711,1778625462.5360901,0.71000000,2.23000000,-0.37000000,-244.32000000,61.77000000,9.89000000
712,1778625462.5444,0.71000000,2.23000000,-0.37000000,-244.32000000,61.77000000,9.89000000
713,1778625462.554251,0.71000000,2.23000000,-0.37000000,-244.32000000,61.77000000,9.89000000
714,1778625462.568786,0.71000000,2.23000000,-0.37000000,-244.32000000,61.77000000,9.89000000
715,1778625462.576396,0.71000000,2.23000000,-0.37000000,-244.32000000,61.77000000,9.89000000
716,1778625462.584349,0.55000000,2.30000000,0.13000000,-145.39000000,-27.95000000,12.63000000
717,1778625462.595093,0.55000000,2.30000000,0.13000000,-145.39000000,-27.95000000,12.63000000
718,1778625462.604169,0.45000000,2.09000000,0.10000000,-171.33000000,27.77000000,70.74000000
719,1778625462.616628,0.45000000,2.09000000,0.10000000,-171.33000000,27.77000000,70.74000000
720,1778625462.626283,0.45000000,2.09000000,0.10000000,-171.33000000,27.77000000,70.74000000
721,1778625462.637234,0.45000000,2.09000000,0.10000000,-171.33000000,27.77000000,70.74000000
722,1778625462.646625,0.06000000,1.01000000,-0.33000000,-91.92000000,119.08000000,26.18000000
723,1778625462.657294,0.06000000,1.01000000,-0.33000000,-91.92000000,119.08000000,26.18000000
724,1778625462.668789,0.06000000,1.01000000,-0.33000000,-91.92000000,119.08000000,26.18000000
725,1778625462.680887,-0.27000000,0.15000000,-0.24000000,8.18000000,70.31000000,1.28000000
726,1778625462.687296,-0.27000000,0.15000000,-0.24000000,8.18000000,70.31000000,1.28000000
727,1778625462.6961658,-0.27000000,0.15000000,-0.24000000,8.18000000,70.31000000,1.28000000
728,1778625462.706052,-0.27000000,0.15000000,-0.24000000,8.18000000,70.31000000,1.28000000
729,1778625462.715508,-0.36000000,-0.44000000,-0.25000000,90.03000000,-1.22000000,-32.23000000
730,1778625462.7266219,-0.36000000,-0.44000000,-0.25000000,90.03000000,-1.22000000,-32.23000000
731,1778625462.736369,-0.36000000,-0.44000000,-0.25000000,90.03000000,-1.22000000,-32.23000000
732,1778625462.7463832,-0.14000000,-0.11000000,-0.60000000,90.03000000,-1.22000000,-32.23000000
733,1778625462.754115,-0.14000000,-0.11000000,-0.60000000,196.66000000,-85.33000000,-52.61000000
734,1778625462.768856,-0.14000000,-0.11000000,-0.60000000,196.66000000,-85.33000000,-52.61000000
735,1778625462.774556,-0.14000000,-0.11000000,-0.60000000,196.66000000,-85.33000000,-52.61000000
736,1778625462.786092,0.28000000,0.39000000,0.60000000,95.40000000,-68.60000000,-38.27000000
737,1778625462.7944582,0.28000000,0.39000000,0.60000000,95.40000000,-68.60000000,-38.27000000
738,1778625462.805563,0.28000000,0.39000000,0.60000000,95.40000000,-68.60000000,-38.27000000
739,1778625462.81826,0.28000000,0.39000000,0.60000000,95.40000000,-68.60000000,-38.27000000
740,1778625462.825239,-0.21000000,0.99000000,0.86000000,95.40000000,-68.60000000,-38.27000000
741,1778625462.834265,-0.21000000,0.99000000,0.86000000,95.40000000,-68.60000000,-38.27000000
742,1778625462.846174,-0.21000000,0.99000000,0.86000000,95.40000000,-68.60000000,-38.27000000
743,1778625462.8552902,-0.21000000,0.99000000,0.86000000,-25.82000000,-273.44000000,37.41000000
744,1778625462.8678021,0.41000000,-0.56000000,-1.75000000,90.39000000,-138.98000000,40.04000000
745,1778625462.8765628,0.41000000,-0.56000000,-1.75000000,90.39000000,-138.98000000,40.04000000
746,1778625462.884732,0.41000000,-0.56000000,-1.75000000,90.39000000,-138.98000000,40.04000000
747,1778625462.895238,0.41000000,-0.56000000,-1.75000000,90.39000000,-138.98000000,40.04000000
748,1778625462.904659,-0.03000000,2.25000000,-1.26000000,88.75000000,-57.62000000,-109.99000000
749,1778625462.918488,-0.03000000,2.25000000,-1.26000000,88.75000000,-57.62000000,-109.99000000
750,1778625462.924594,-0.03000000,2.25000000,-1.26000000,88.75000000,-57.62000000,-109.99000000
751,1778625462.934261,-0.03000000,2.25000000,-1.26000000,88.75000000,-57.62000000,-109.99000000
752,1778625462.944212,0.03000000,2.21000000,-0.96000000,-9.64000000,-123.11000000,6.53000000
753,1778625462.956918,0.03000000,2.21000000,-0.96000000,-9.64000000,-123.11000000,6.53000000
754,1778625462.967275,0.03000000,2.21000000,-0.96000000,-9.64000000,-123.11000000,6.53000000
755,1778625462.97418,0.03000000,2.21000000,-0.96000000,-9.64000000,-123.11000000,6.53000000
756,1778625462.9865952,-0.27000000,0.97000000,-0.78000000,99.12000000,-133.42000000,-15.56000000
757,1778625462.996125,-0.27000000,0.97000000,-0.78000000,99.12000000,-133.42000000,-15.56000000
758,1778625463.004137,-0.27000000,0.97000000,-0.78000000,99.12000000,-133.42000000,-15.56000000
759,1778625463.018647,0.28000000,1.91000000,-0.77000000,72.14000000,85.45000000,-56.70000000
760,1778625463.027146,0.28000000,1.91000000,-0.77000000,72.14000000,85.45000000,-56.70000000
761,1778625463.0347059,0.28000000,1.91000000,-0.77000000,72.14000000,85.45000000,-56.70000000
762,1778625463.044309,0.28000000,1.91000000,-0.77000000,72.14000000,85.45000000,-56.70000000
763,1778625463.054927,0.28000000,1.91000000,-0.77000000,72.14000000,85.45000000,-56.70000000
764,1778625463.0666711,0.28000000,1.91000000,-0.77000000,72.14000000,85.45000000,-56.70000000
765,1778625463.0746,0.28000000,1.91000000,-0.77000000,72.14000000,85.45000000,-56.70000000
766,1778625463.084977,0.28000000,1.91000000,-0.77000000,72.14000000,85.45000000,-56.70000000
767,1778625463.095606,0.28000000,1.91000000,-0.77000000,72.14000000,85.45000000,-56.70000000
768,1778625463.1047978,0.28000000,1.91000000,-0.77000000,72.14000000,85.45000000,-56.70000000
769,1778625463.11808,-0.17000000,1.63000000,0.16000000,137.39000000,-95.46000000,5.31000000
770,1778625463.1257432,-0.17000000,1.63000000,0.16000000,137.39000000,-95.46000000,5.31000000
771,1778625463.135697,0.74000000,1.15000000,0.41000000,86.91000000,-107.79000000,-28.20000000
772,1778625463.145974,0.74000000,1.15000000,0.41000000,86.91000000,-107.79000000,-28.20000000
773,1778625463.156739,0.74000000,1.15000000,0.41000000,86.91000000,-107.79000000,-28.20000000
774,1778625463.164181,0.74000000,1.15000000,0.41000000,86.91000000,-107.79000000,-28.20000000
775,1778625463.176182,0.44000000,0.55000000,0.80000000,70.37000000,-116.58000000,11.41000000
776,1778625463.184303,0.44000000,0.55000000,0.80000000,70.37000000,-116.58000000,11.41000000
777,1778625463.194171,0.44000000,0.55000000,0.80000000,70.37000000,-116.58000000,11.41000000
778,1778625463.204649,0.44000000,0.55000000,0.80000000,70.37000000,-116.58000000,11.41000000
779,1778625463.218799,0.64000000,0.60000000,1.03000000,12.88000000,-42.42000000,6.16000000
780,1778625463.226756,0.64000000,0.60000000,1.03000000,12.88000000,-42.42000000,6.16000000
781,1778625463.2368152,0.64000000,0.60000000,1.03000000,12.88000000,-42.42000000,6.16000000
782,1778625463.244513,1.08000000,0.05000000,-0.11000000,-81.24000000,-32.90000000,47.61000000
783,1778625463.2544498,1.08000000,0.05000000,-0.11000000,-81.24000000,-32.90000000,47.61000000
784,1778625463.2689228,1.08000000,0.05000000,-0.11000000,-81.24000000,-32.90000000,47.61000000
785,1778625463.274503,1.08000000,0.05000000,-0.11000000,-81.24000000,-32.90000000,47.61000000
786,1778625463.287026,-0.35000000,0.58000000,0.49000000,-142.40000000,77.09000000,54.87000000
787,1778625463.2946439,-0.35000000,0.58000000,0.49000000,-142.40000000,77.09000000,54.87000000
788,1778625463.30861,-0.35000000,0.58000000,0.49000000,-142.40000000,77.09000000,54.87000000
789,1778625463.316849,-0.02000000,1.18000000,0.08000000,-155.27000000,54.87000000,39.00000000
790,1778625463.327771,-0.02000000,1.18000000,0.08000000,-155.27000000,54.87000000,39.00000000
791,1778625463.337065,-0.02000000,1.18000000,0.08000000,-155.27000000,54.87000000,39.00000000
792,1778625463.348186,-0.02000000,1.18000000,0.08000000,-155.27000000,54.87000000,39.00000000
793,1778625463.354475,0.08000000,2.43000000,-0.10000000,-155.27000000,54.87000000,39.00000000
794,1778625463.368813,0.08000000,2.43000000,-0.10000000,-220.89000000,110.05000000,24.84000000
795,1778625463.374463,0.08000000,2.43000000,-0.10000000,-220.89000000,110.05000000,24.84000000
796,1778625463.3850172,0.08000000,2.43000000,-0.10000000,-220.89000000,110.05000000,24.84000000
797,1778625463.395357,0.08000000,2.43000000,-0.10000000,-220.89000000,110.05000000,24.84000000
798,1778625463.4047391,-0.99000000,3.16000000,-0.42000000,-249.15000000,-110.66000000,63.78000000
799,1778625463.4181938,-0.99000000,3.16000000,-0.42000000,-249.15000000,-110.66000000,63.78000000
800,1778625463.4243321,-0.99000000,3.16000000,-0.42000000,-249.15000000,-110.66000000,63.78000000
801,1778625463.4368398,-0.99000000,3.16000000,-0.42000000,-249.15000000,-110.66000000,63.78000000
802,1778625463.447219,-0.99000000,3.16000000,-0.42000000,-249.15000000,-110.66000000,63.78000000
803,1778625463.4541628,-0.99000000,3.16000000,-0.42000000,-249.15000000,-110.66000000,63.78000000
804,1778625463.468791,-0.99000000,3.16000000,-0.42000000,-249.15000000,-110.66000000,63.78000000
805,1778625463.474744,-0.99000000,3.16000000,-0.42000000,-249.15000000,-110.66000000,63.78000000
806,1778625463.4856992,-0.99000000,3.16000000,-0.42000000,-249.15000000,-110.66000000,63.78000000
807,1778625463.496479,-0.99000000,3.16000000,-0.42000000,-249.15000000,-110.66000000,63.78000000
808,1778625463.505749,-0.10000000,0.61000000,-0.24000000,-87.22000000,148.13000000,-9.83000000
809,1778625463.518108,-0.10000000,0.61000000,-0.24000000,-87.22000000,148.13000000,-9.83000000
810,1778625463.524575,-0.10000000,0.61000000,-0.24000000,-87.22000000,148.13000000,-9.83000000
811,1778625463.537266,-0.10000000,0.61000000,-0.24000000,-87.22000000,148.13000000,-9.83000000
812,1778625463.545861,-0.40000000,-0.04000000,-0.43000000,7.51000000,83.07000000,-13.37000000
813,1778625463.5581708,-0.40000000,-0.04000000,-0.43000000,7.51000000,83.07000000,-13.37000000
814,1778625463.566476,-0.40000000,-0.04000000,-0.43000000,7.51000000,83.07000000,-13.37000000
815,1778625463.5757718,-0.40000000,-0.04000000,-0.43000000,7.51000000,83.07000000,-13.37000000
816,1778625463.585672,-0.40000000,-0.04000000,-0.43000000,7.51000000,83.07000000,-13.37000000
817,1778625463.594712,-0.40000000,-0.04000000,-0.43000000,7.51000000,83.07000000,-13.37000000
818,1778625463.604196,-0.40000000,-0.04000000,-0.43000000,7.51000000,83.07000000,-13.37000000
819,1778625463.6141849,-0.40000000,-0.04000000,-0.43000000,7.51000000,83.07000000,-13.37000000
820,1778625463.626889,-0.40000000,-0.04000000,-0.43000000,7.51000000,83.07000000,-13.37000000
821,1778625463.634431,-0.03000000,-0.20000000,-0.38000000,235.29000000,-223.94000000,-36.87000000
822,1778625463.644276,-0.03000000,-0.20000000,-0.38000000,235.29000000,-223.94000000,-36.87000000
823,1778625463.656786,0.51000000,0.56000000,0.39000000,235.29000000,-223.94000000,-36.87000000
824,1778625463.664405,0.51000000,0.56000000,0.39000000,68.66000000,-55.24000000,-49.44000000
825,1778625463.676797,0.51000000,0.56000000,0.39000000,68.66000000,-55.24000000,-49.44000000
826,1778625463.6848378,0.51000000,0.56000000,0.39000000,68.66000000,-55.24000000,-49.44000000
827,1778625463.6942341,0.13000000,1.94000000,2.11000000,68.66000000,-55.24000000,-49.44000000
828,1778625463.704618,0.13000000,1.94000000,2.11000000,-84.66000000,-214.17000000,61.95000000
829,1778625463.715002,0.13000000,1.94000000,2.11000000,-84.66000000,-214.17000000,61.95000000
830,1778625463.7262452,0.13000000,1.94000000,2.11000000,-84.66000000,-214.17000000,61.95000000
831,1778625463.735856,0.55000000,0.62000000,-1.80000000,60.18000000,-170.47000000,-0.49000000
832,1778625463.746811,0.55000000,0.62000000,-1.80000000,60.18000000,-170.47000000,-0.49000000
833,1778625463.754197,0.55000000,0.62000000,-1.80000000,60.18000000,-170.47000000,-0.49000000
834,1778625463.764852,0.55000000,0.62000000,-1.80000000,60.18000000,-170.47000000,-0.49000000
835,1778625463.774132,0.08000000,2.41000000,-0.02000000,76.90000000,-184.63000000,-25.02000000
836,1778625463.7871192,0.08000000,2.41000000,-0.02000000,76.90000000,-184.63000000,-25.02000000
837,1778625463.794157,0.08000000,2.41000000,-0.02000000,76.90000000,-184.63000000,-25.02000000
838,1778625463.808458,-0.01000000,1.03000000,-1.34000000,27.53000000,-128.48000000,2.69000000
839,1778625463.8144488,-0.01000000,1.03000000,-1.34000000,27.53000000,-128.48000000,2.69000000
840,1778625463.828707,-0.01000000,1.03000000,-1.34000000,27.53000000,-128.48000000,2.69000000
841,1778625463.835485,-0.01000000,1.03000000,-1.34000000,27.53000000,-128.48000000,2.69000000
842,1778625463.8447812,-0.31000000,1.36000000,-0.58000000,61.40000000,-36.19000000,-31.74000000
843,1778625463.856809,-0.31000000,1.36000000,-0.58000000,61.40000000,-36.19000000,-31.74000000
844,1778625463.865324,-0.31000000,1.36000000,-0.58000000,61.40000000,-36.19000000,-31.74000000
845,1778625463.875339,-0.31000000,1.36000000,-0.58000000,61.40000000,-36.19000000,-31.74000000
846,1778625463.8854542,0.54000000,1.88000000,-0.44000000,76.05000000,-144.04000000,-37.48000000
847,1778625463.8983412,0.54000000,1.88000000,-0.44000000,76.05000000,-144.04000000,-37.48000000
848,1778625463.904156,0.54000000,1.88000000,-0.44000000,76.05000000,-144.04000000,-37.48000000
849,1778625463.918795,0.86000000,1.63000000,-0.10000000,82.03000000,11.05000000,-45.47000000
850,1778625463.924901,0.86000000,1.63000000,-0.10000000,82.03000000,11.05000000,-45.47000000
851,1778625463.934218,0.86000000,1.63000000,-0.10000000,82.03000000,11.05000000,-45.47000000
852,1778625463.9454432,0.86000000,1.63000000,-0.10000000,82.03000000,11.05000000,-45.47000000
853,1778625463.9557528,0.36000000,1.40000000,0.11000000,103.39000000,-90.70000000,-6.96000000
854,1778625463.9681852,0.36000000,1.40000000,0.11000000,103.39000000,-90.70000000,-6.96000000
855,1778625463.975816,0.36000000,1.40000000,0.11000000,103.39000000,-90.70000000,-6.96000000
856,1778625463.986926,0.36000000,1.40000000,0.11000000,103.39000000,-90.70000000,-6.96000000
857,1778625463.9970381,0.50000000,1.10000000,0.56000000,96.62000000,-92.04000000,8.91000000
858,1778625464.007432,0.50000000,1.10000000,0.56000000,96.62000000,-92.04000000,8.91000000
859,1778625464.015281,0.50000000,1.10000000,0.56000000,96.62000000,-92.04000000,8.91000000
860,1778625464.024333,0.50000000,1.10000000,0.56000000,96.62000000,-92.04000000,8.91000000
861,1778625464.035954,0.51000000,0.63000000,0.42000000,89.36000000,-126.59000000,19.78000000
862,1778625464.045131,0.51000000,0.63000000,0.42000000,89.36000000,-126.59000000,19.78000000
863,1778625464.054768,0.51000000,0.63000000,0.42000000,89.36000000,-126.59000000,19.78000000
864,1778625464.068191,0.66000000,0.28000000,1.01000000,-14.10000000,-58.84000000,27.34000000
865,1778625464.07445,0.66000000,0.28000000,1.01000000,-14.10000000,-58.84000000,27.34000000
866,1778625464.084398,0.66000000,0.28000000,1.01000000,-14.10000000,-58.84000000,27.34000000
867,1778625464.095836,0.66000000,0.28000000,1.01000000,-14.10000000,-58.84000000,27.34000000
868,1778625464.1055932,0.66000000,0.28000000,1.01000000,-14.10000000,-58.84000000,27.34000000
869,1778625464.118218,0.66000000,0.28000000,1.01000000,-14.10000000,-58.84000000,27.34000000
870,1778625464.124213,0.66000000,0.28000000,1.01000000,-14.10000000,-58.84000000,27.34000000
871,1778625464.136946,0.66000000,0.28000000,1.01000000,-14.10000000,-58.84000000,27.34000000
872,1778625464.146025,0.66000000,0.28000000,1.01000000,-14.10000000,-58.84000000,27.34000000
873,1778625464.158143,-0.17000000,0.68000000,0.33000000,-152.59000000,-7.93000000,34.42000000
874,1778625464.16473,-0.17000000,0.68000000,0.33000000,-152.59000000,-7.93000000,34.42000000
875,1778625464.178549,-0.17000000,0.68000000,0.33000000,-152.59000000,-7.93000000,34.42000000
876,1778625464.18419,-0.17000000,0.68000000,0.33000000,-152.59000000,-7.93000000,34.42000000
877,1778625464.1942122,0.06000000,1.51000000,-0.09000000,-177.37000000,5.25000000,40.77000000
878,1778625464.205436,0.06000000,1.51000000,-0.09000000,-177.37000000,5.25000000,40.77000000
879,1778625464.215797,0.05000000,2.15000000,-0.39000000,-202.94000000,40.34000000,47.55000000
880,1778625464.225215,0.05000000,2.15000000,-0.39000000,-202.94000000,40.34000000,47.55000000
881,1778625464.236969,0.05000000,2.15000000,-0.39000000,-202.94000000,40.34000000,47.55000000
882,1778625464.245493,-0.66000000,2.99000000,-0.40000000,-202.94000000,40.34000000,47.55000000
883,1778625464.255564,-0.66000000,2.99000000,-0.40000000,-205.14000000,-196.53000000,79.10000000
884,1778625464.264317,-0.66000000,2.99000000,-0.40000000,-205.14000000,-196.53000000,79.10000000
885,1778625464.2769458,-0.66000000,2.99000000,-0.40000000,-205.14000000,-196.53000000,79.10000000
886,1778625464.286954,0.54000000,2.24000000,-0.06000000,-167.18000000,-16.78000000,88.13000000
887,1778625464.294351,0.54000000,2.24000000,-0.06000000,-167.18000000,-16.78000000,88.13000000
888,1778625464.304524,0.54000000,2.24000000,-0.06000000,-167.18000000,-16.78000000,88.13000000
889,1778625464.3188639,0.19000000,1.78000000,-0.11000000,-146.00000000,-11.96000000,36.68000000
890,1778625464.325908,0.19000000,1.78000000,-0.11000000,-146.00000000,-11.96000000,36.68000000
891,1778625464.3369558,0.19000000,1.78000000,-0.11000000,-146.00000000,-11.96000000,36.68000000
892,1778625464.344848,0.19000000,1.78000000,-0.11000000,-146.00000000,-11.96000000,36.68000000
893,1778625464.35511,-0.24000000,0.67000000,-0.00000000,-81.24000000,11.84000000,-26.31000000
894,1778625464.368233,-0.24000000,0.67000000,-0.00000000,-81.24000000,11.84000000,-26.31000000
895,1778625464.3759732,-0.24000000,0.67000000,-0.00000000,-81.24000000,11.84000000,-26.31000000
896,1778625464.385174,-0.42000000,0.18000000,-0.30000000,15.32000000,-55.30000000,-25.51000000
897,1778625464.3966029,-0.42000000,0.18000000,-0.30000000,15.32000000,-55.30000000,-25.51000000
898,1778625464.4044092,-0.42000000,0.18000000,-0.30000000,15.32000000,-55.30000000,-25.51000000
899,1778625464.418813,-0.42000000,0.18000000,-0.30000000,15.32000000,-55.30000000,-25.51000000
900,1778625464.425302,-0.22000000,-0.22000000,-0.44000000,15.32000000,-55.30000000,-25.51000000
901,1778625464.4361951,-0.22000000,-0.22000000,-0.44000000,82.40000000,-157.29000000,-44.37000000
902,1778625464.4452622,-0.22000000,-0.22000000,-0.44000000,82.40000000,-157.29000000,-44.37000000
903,1778625464.4544199,-0.22000000,-0.22000000,-0.44000000,82.40000000,-157.29000000,-44.37000000
904,1778625464.4688141,-0.28000000,-0.30000000,-0.32000000,137.15000000,-239.01000000,-39.55000000
905,1778625464.475049,-0.28000000,-0.30000000,-0.32000000,137.15000000,-239.01000000,-39.55000000
906,1778625464.484732,-0.28000000,-0.30000000,-0.32000000,137.15000000,-239.01000000,-39.55000000
907,1778625464.49713,-0.28000000,-0.30000000,-0.32000000,137.15000000,-239.01000000,-39.55000000
908,1778625464.505846,-0.28000000,-0.30000000,-0.32000000,137.15000000,-239.01000000,-39.55000000
909,1778625464.518232,-0.28000000,-0.30000000,-0.32000000,137.15000000,-239.01000000,-39.55000000
910,1778625464.5272372,-0.28000000,-0.30000000,-0.32000000,137.15000000,-239.01000000,-39.55000000
911,1778625464.534909,-0.28000000,-0.30000000,-0.32000000,137.15000000,-239.01000000,-39.55000000
912,1778625464.545114,-0.28000000,-0.30000000,-0.32000000,137.15000000,-239.01000000,-39.55000000
913,1778625464.554206,0.37000000,1.41000000,2.19000000,-118.35000000,-221.56000000,104.55000000
914,1778625464.568794,0.37000000,1.41000000,2.19000000,-118.35000000,-221.56000000,104.55000000
915,1778625464.5745401,0.37000000,1.41000000,2.19000000,-118.35000000,-221.56000000,104.55000000
916,1778625464.584417,-0.07000000,1.45000000,-1.99000000,25.02000000,-218.57000000,-47.55000000
917,1778625464.5948968,-0.07000000,1.45000000,-1.99000000,25.02000000,-218.57000000,-47.55000000
918,1778625464.6041548,-0.07000000,1.45000000,-1.99000000,25.02000000,-218.57000000,-47.55000000
919,1778625464.6188211,-0.07000000,1.45000000,-1.99000000,25.02000000,-218.57000000,-47.55000000
920,1778625464.625741,-0.07000000,1.45000000,-1.99000000,25.02000000,-218.57000000,-47.55000000
921,1778625464.636999,-0.07000000,1.45000000,-1.99000000,25.02000000,-218.57000000,-47.55000000
922,1778625464.645936,-0.07000000,1.45000000,-1.99000000,25.02000000,-218.57000000,-47.55000000
923,1778625464.655512,-0.07000000,1.45000000,-1.99000000,25.02000000,-218.57000000,-47.55000000
924,1778625464.668268,-0.07000000,1.45000000,-1.99000000,25.02000000,-218.57000000,-47.55000000
925,1778625464.674589,-0.07000000,1.45000000,-1.99000000,25.02000000,-218.57000000,-47.55000000
926,1778625464.686743,-0.44000000,0.98000000,-0.34000000,52.67000000,-157.23000000,-3.78000000
927,1778625464.6942022,0.37000000,2.24000000,-0.22000000,63.72000000,-42.97000000,-29.72000000
928,1778625464.704244,0.37000000,2.24000000,-0.22000000,63.72000000,-42.97000000,-29.72000000
929,1778625464.718815,0.37000000,2.24000000,-0.22000000,63.72000000,-42.97000000,-29.72000000
930,1778625464.724768,0.37000000,2.24000000,-0.22000000,63.72000000,-42.97000000,-29.72000000
931,1778625464.7353442,0.92000000,1.50000000,-0.32000000,45.35000000,-33.02000000,-18.43000000
932,1778625464.7449641,0.92000000,1.50000000,-0.32000000,45.35000000,-33.02000000,-18.43000000
933,1778625464.75774,0.92000000,1.50000000,-0.32000000,45.35000000,-33.02000000,-18.43000000
934,1778625464.765532,-0.20000000,1.69000000,-0.29000000,114.62000000,-80.44000000,-7.63000000
935,1778625464.774164,-0.20000000,1.69000000,-0.29000000,114.62000000,-80.44000000,-7.63000000
936,1778625464.785386,-0.20000000,1.69000000,-0.29000000,114.62000000,-80.44000000,-7.63000000
937,1778625464.794267,-0.20000000,1.69000000,-0.29000000,114.62000000,-80.44000000,-7.63000000
938,1778625464.804511,0.72000000,1.30000000,0.37000000,105.41000000,-174.32000000,6.10000000
939,1778625464.818805,0.72000000,1.30000000,0.37000000,105.41000000,-174.32000000,6.10000000
940,1778625464.8244648,0.72000000,1.30000000,0.37000000,105.41000000,-174.32000000,6.10000000
941,1778625464.835487,0.72000000,1.30000000,0.37000000,105.41000000,-174.32000000,6.10000000
942,1778625464.8442822,0.41000000,0.74000000,0.55000000,62.32000000,-172.61000000,29.97000000
943,1778625464.855531,0.41000000,0.74000000,0.55000000,62.32000000,-172.61000000,29.97000000
944,1778625464.868267,0.41000000,0.74000000,0.55000000,62.32000000,-172.61000000,29.97000000
945,1778625464.874815,0.41000000,0.74000000,0.55000000,62.32000000,-172.61000000,29.97000000
946,1778625464.88522,0.61000000,0.48000000,0.91000000,10.38000000,-126.71000000,22.09000000
947,1778625464.8985689,0.61000000,0.48000000,0.91000000,10.38000000,-126.71000000,22.09000000
948,1778625464.9061801,0.61000000,0.48000000,0.91000000,10.38000000,-126.71000000,22.09000000
949,1778625464.914369,0.61000000,0.48000000,0.91000000,10.38000000,-126.71000000,22.09000000
950,1778625464.927041,0.56000000,0.23000000,0.75000000,-85.45000000,-126.65000000,70.01000000
951,1778625464.9346051,0.56000000,0.23000000,0.75000000,-85.45000000,-126.65000000,70.01000000
952,1778625464.944459,0.56000000,0.23000000,0.75000000,-85.45000000,-126.65000000,70.01000000
953,1778625464.957901,-0.25000000,0.42000000,0.48000000,-140.01000000,-3.42000000,48.83000000
954,1778625464.964444,-0.25000000,0.42000000,0.48000000,-140.01000000,-3.42000000,48.83000000
955,1778625464.974278,-0.25000000,0.42000000,0.48000000,-140.01000000,-3.42000000,48.83000000
956,1778625464.985455,-0.25000000,0.42000000,0.48000000,-140.01000000,-3.42000000,48.83000000
957,1778625464.996246,0.00000000,0.81000000,0.19000000,-164.92000000,4.39000000,29.66000000
958,1778625465.0050209,0.00000000,0.81000000,0.19000000,-164.92000000,4.39000000,29.66000000
959,1778625465.018285,0.00000000,0.81000000,0.19000000,-164.92000000,4.39000000,29.66000000
960,1778625465.024183,0.00000000,0.81000000,0.19000000,-164.92000000,4.39000000,29.66000000
961,1778625465.035402,0.22000000,2.14000000,0.13000000,-212.89000000,14.34000000,44.13000000
962,1778625465.044209,0.22000000,2.14000000,0.13000000,-212.89000000,14.34000000,44.13000000
963,1778625465.055292,0.22000000,2.14000000,0.13000000,-212.89000000,14.34000000,44.13000000
964,1778625465.068295,0.22000000,2.14000000,0.13000000,-212.89000000,14.34000000,44.13000000
965,1778625465.074958,0.22000000,2.14000000,0.13000000,-212.89000000,14.34000000,44.13000000
966,1778625465.084645,-0.66000000,3.23000000,-0.59000000,-249.39000000,-51.27000000,51.15000000
967,1778625465.098057,-0.66000000,3.23000000,-0.59000000,-249.39000000,-51.27000000,51.15000000
968,1778625465.1092548,-0.14000000,2.65000000,0.47000000,-204.41000000,-79.10000000,43.58000000
969,1778625465.1145442,-0.14000000,2.65000000,0.47000000,-204.41000000,-79.10000000,43.58000000
970,1778625465.124171,-0.14000000,2.65000000,0.47000000,-204.41000000,-79.10000000,43.58000000
971,1778625465.1361122,-0.14000000,2.65000000,0.47000000,-204.41000000,-79.10000000,43.58000000
972,1778625465.144802,-0.14000000,2.65000000,0.47000000,-204.41000000,-79.10000000,43.58000000
973,1778625465.1543381,-0.14000000,2.65000000,0.47000000,-204.41000000,-79.10000000,43.58000000
974,1778625465.164918,-0.14000000,2.65000000,0.47000000,-204.41000000,-79.10000000,43.58000000
975,1778625465.1757922,-0.14000000,2.65000000,0.47000000,-204.41000000,-79.10000000,43.58000000
976,1778625465.184829,-0.14000000,2.65000000,0.47000000,-204.41000000,-79.10000000,43.58000000
977,1778625465.196704,-0.14000000,2.65000000,0.47000000,-204.41000000,-79.10000000,43.58000000
978,1778625465.206763,-0.14000000,2.65000000,0.47000000,-204.41000000,-79.10000000,43.58000000
979,1778625465.2148821,0.19000000,0.82000000,0.05000000,-149.78000000,129.82000000,-49.68000000
980,1778625465.226326,0.16000000,0.14000000,-0.29000000,-42.48000000,113.22000000,-89.05000000
981,1778625465.235349,0.16000000,0.14000000,-0.29000000,-42.48000000,113.22000000,-89.05000000
982,1778625465.24461,0.16000000,0.14000000,-0.29000000,-42.48000000,113.22000000,-89.05000000
983,1778625465.258834,0.16000000,-0.49000000,-0.11000000,52.00000000,97.05000000,-61.22000000
984,1778625465.265095,0.16000000,-0.49000000,-0.11000000,52.00000000,97.05000000,-61.22000000
985,1778625465.2765598,0.16000000,-0.49000000,-0.11000000,52.00000000,97.05000000,-61.22000000
986,1778625465.287092,0.16000000,-0.49000000,-0.11000000,52.00000000,97.05000000,-61.22000000
987,1778625465.2964501,0.09000000,-0.32000000,-0.30000000,190.49000000,-18.13000000,-50.96000000
988,1778625465.306895,0.09000000,-0.32000000,-0.30000000,190.49000000,-18.13000000,-50.96000000
989,1778625465.3149,0.09000000,-0.32000000,-0.30000000,190.49000000,-18.13000000,-50.96000000
990,1778625465.32585,0.09000000,-0.32000000,-0.30000000,190.49000000,-18.13000000,-50.96000000
991,1778625465.3370738,-0.38000000,0.55000000,0.08000000,190.12000000,-142.94000000,-142.94000000
992,1778625465.3452458,-0.38000000,0.55000000,0.08000000,190.12000000,-142.94000000,-142.94000000
993,1778625465.355886,-0.38000000,0.55000000,0.08000000,190.12000000,-142.94000000,-142.94000000
994,1778625465.366484,-0.38000000,0.55000000,0.08000000,190.12000000,-142.94000000,-142.94000000
995,1778625465.374131,-1.09000000,1.46000000,0.51000000,-143.37000000,-22.28000000,-13.92000000
996,1778625465.385014,-1.09000000,1.46000000,0.51000000,-143.37000000,-22.28000000,-13.92000000
997,1778625465.394729,-1.09000000,1.46000000,0.51000000,-143.37000000,-22.28000000,-13.92000000
998,1778625465.405674,0.21000000,0.24000000,-1.30000000,73.55000000,-275.51000000,64.94000000
999,1778625465.4183412,0.21000000,0.24000000,-1.30000000,73.55000000,-275.51000000,64.94000000
1000,1778625465.4270122,0.21000000,0.24000000,-1.30000000,73.55000000,-275.51000000,64.94000000
