id,timestamp,acc_x,acc_y,acc_z,gyro_x,gyro_y,gyro_z
1,1778625432.536837,-0.26000000,0.18000000,-0.33000000,-9.70000000,90.15000000,-33.63000000
2,1778625432.5505779,-0.26000000,0.18000000,-0.33000000,-9.70000000,90.15000000,-33.63000000
3,1778625432.557568,-0.26000000,0.18000000,-0.33000000,-9.70000000,90.15000000,-33.63000000
4,1778625432.5690439,-0.26000000,0.18000000,-0.33000000,-9.70000000,90.15000000,-33.63000000
5,1778625432.577008,-0.26000000,0.18000000,-0.33000000,-9.70000000,90.15000000,-33.63000000
6,1778625432.589841,-0.26000000,0.18000000,-0.33000000,-9.70000000,90.15000000,-33.63000000
7,1778625432.59692,-0.26000000,0.18000000,-0.33000000,-9.70000000,90.15000000,-33.63000000
8,1778625432.611238,-0.26000000,0.18000000,-0.33000000,-9.70000000,90.15000000,-33.63000000
9,1778625432.616919,-0.26000000,0.18000000,-0.33000000,-9.70000000,90.15000000,-33.63000000
10,1778625432.6304471,-0.26000000,0.18000000,-0.33000000,-9.70000000,90.15000000,-33.63000000
11,1778625432.638358,0.34000000,0.43000000,0.14000000,131.16000000,-76.54000000,-72.69000000
12,1778625432.6482172,0.34000000,0.43000000,0.14000000,131.16000000,-76.54000000,-72.69000000
13,1778625432.660588,0.34000000,0.43000000,0.14000000,131.16000000,-76.54000000,-72.69000000
14,1778625432.667031,0.34000000,0.43000000,0.14000000,131.16000000,-76.54000000,-72.69000000
15,1778625432.67897,0.38000000,1.14000000,0.93000000,4.82000000,-172.12000000,39.25000000
16,1778625432.688579,0.38000000,1.14000000,0.93000000,4.82000000,-172.12000000,39.25000000
17,1778625432.69858,0.38000000,1.14000000,0.93000000,4.82000000,-172.12000000,39.25000000
18,1778625432.7074292,0.38000000,1.14000000,0.93000000,4.82000000,-172.12000000,39.25000000
19,1778625432.719857,-0.14000000,-0.49000000,-1.59000000,-5.07000000,-225.89000000,5.07000000
20,1778625432.7293508,-0.14000000,-0.49000000,-1.59000000,-5.07000000,-225.89000000,5.07000000
21,1778625432.737118,-0.14000000,-0.49000000,-1.59000000,-5.07000000,-225.89000000,5.07000000
22,1778625432.748721,-0.14000000,-0.49000000,-1.59000000,-5.07000000,-225.89000000,5.07000000
23,1778625432.760587,-0.17000000,1.19000000,-0.70000000,-13.98000000,13.31000000,-26.43000000
24,1778625432.767532,-0.17000000,1.19000000,-0.70000000,-13.98000000,13.31000000,-26.43000000
25,1778625432.777956,-0.17000000,1.19000000,-0.70000000,-13.98000000,13.31000000,-26.43000000
26,1778625432.787051,-0.45000000,3.01000000,-1.30000000,-82.21000000,-167.42000000,-17.33000000
27,1778625432.797044,-0.45000000,3.01000000,-1.30000000,-82.21000000,-167.42000000,-17.33000000
28,1778625432.807616,-0.45000000,3.01000000,-1.30000000,-82.21000000,-167.42000000,-17.33000000
29,1778625432.819793,-0.45000000,3.01000000,-1.30000000,-82.21000000,-167.42000000,-17.33000000
30,1778625432.828543,-0.49000000,0.23000000,-1.23000000,-29.24000000,-60.61000000,-29.66000000
31,1778625432.837009,-0.49000000,0.23000000,-1.23000000,-29.24000000,-60.61000000,-29.66000000
32,1778625432.846951,-0.49000000,0.23000000,-1.23000000,-29.24000000,-60.61000000,-29.66000000
33,1778625432.85704,-0.49000000,0.23000000,-1.23000000,-29.24000000,-60.61000000,-29.66000000
34,1778625432.870087,0.10000000,2.35000000,-0.40000000,62.50000000,-19.84000000,-64.58000000
35,1778625432.8779469,0.10000000,2.35000000,-0.40000000,62.50000000,-19.84000000,-64.58000000
36,1778625432.888087,0.10000000,2.35000000,-0.40000000,62.50000000,-19.84000000,-64.58000000
37,1778625432.8968818,0.10000000,2.35000000,-0.40000000,62.50000000,-19.84000000,-64.58000000
38,1778625432.910618,1.13000000,1.64000000,-0.12000000,115.36000000,-148.68000000,11.54000000
39,1778625432.916998,1.13000000,1.64000000,-0.12000000,115.36000000,-148.68000000,11.54000000
40,1778625432.927935,1.13000000,1.64000000,-0.12000000,115.36000000,-148.68000000,11.54000000
41,1778625432.937116,-0.41000000,1.61000000,-0.17000000,115.36000000,-148.68000000,11.54000000
42,1778625432.946901,-0.41000000,1.61000000,-0.17000000,115.36000000,-148.68000000,11.54000000
43,1778625432.960623,-0.41000000,1.61000000,-0.17000000,115.36000000,-148.68000000,11.54000000
44,1778625432.966918,-0.41000000,1.61000000,-0.17000000,115.36000000,-148.68000000,11.54000000
45,1778625432.9782138,-0.41000000,1.61000000,-0.17000000,115.36000000,-148.68000000,11.54000000
46,1778625432.987765,-0.41000000,1.61000000,-0.17000000,115.36000000,-148.68000000,11.54000000
47,1778625432.997119,-0.41000000,1.61000000,-0.17000000,115.36000000,-148.68000000,11.54000000
48,1778625433.006892,-0.41000000,1.61000000,-0.17000000,115.36000000,-148.68000000,11.54000000
49,1778625433.017278,-0.41000000,1.61000000,-0.17000000,115.36000000,-148.68000000,11.54000000
50,1778625433.0288498,0.53000000,0.75000000,0.83000000,67.02000000,-149.41000000,27.95000000
51,1778625433.037801,0.53000000,0.75000000,0.83000000,67.02000000,-149.41000000,27.95000000
52,1778625433.04787,0.53000000,0.75000000,0.83000000,67.02000000,-149.41000000,27.95000000
53,1778625433.0606232,0.53000000,0.75000000,0.83000000,67.02000000,-149.41000000,27.95000000
54,1778625433.068876,0.39000000,0.39000000,1.25000000,-1.53000000,-86.12000000,27.16000000
55,1778625433.0801659,0.39000000,0.39000000,1.25000000,-1.53000000,-86.12000000,27.16000000
56,1778625433.0872478,0.39000000,0.39000000,1.25000000,-1.53000000,-86.12000000,27.16000000
57,1778625433.096905,0.39000000,0.39000000,1.25000000,-1.53000000,-86.12000000,27.16000000
58,1778625433.1106272,0.39000000,0.39000000,1.25000000,-1.53000000,-86.12000000,27.16000000
59,1778625433.1168919,0.39000000,0.39000000,1.25000000,-1.53000000,-86.12000000,27.16000000
60,1778625433.128713,0.39000000,0.39000000,1.25000000,-1.53000000,-86.12000000,27.16000000
61,1778625433.138746,0.39000000,0.39000000,1.25000000,-1.53000000,-86.12000000,27.16000000
62,1778625433.14734,0.39000000,0.39000000,1.25000000,-1.53000000,-86.12000000,27.16000000
63,1778625433.160644,0.05000000,0.46000000,0.49000000,-111.02000000,19.65000000,70.80000000
64,1778625433.1677508,-0.16000000,0.94000000,0.29000000,-131.59000000,37.96000000,49.19000000
65,1778625433.180256,-0.16000000,0.94000000,0.29000000,-131.59000000,37.96000000,49.19000000
66,1778625433.1888099,-0.16000000,0.94000000,0.29000000,-131.59000000,37.96000000,49.19000000
67,1778625433.1987798,-0.16000000,0.94000000,0.29000000,-131.59000000,37.96000000,49.19000000
68,1778625433.210638,0.24000000,1.60000000,0.08000000,-171.75000000,50.23000000,40.22000000
69,1778625433.2169018,0.24000000,1.60000000,0.08000000,-171.75000000,50.23000000,40.22000000
70,1778625433.227969,0.24000000,1.60000000,0.08000000,-171.75000000,50.23000000,40.22000000
71,1778625433.23704,-0.08000000,2.52000000,-0.33000000,-219.42000000,26.61000000,61.65000000
72,1778625433.246855,-0.08000000,2.52000000,-0.33000000,-219.42000000,26.61000000,61.65000000
73,1778625433.260671,-0.08000000,2.52000000,-0.33000000,-219.42000000,26.61000000,61.65000000
74,1778625433.267474,-0.08000000,2.52000000,-0.33000000,-219.42000000,26.61000000,61.65000000
75,1778625433.280632,-0.34000000,2.23000000,0.28000000,-129.52000000,-207.46000000,81.79000000
76,1778625433.287078,-0.34000000,2.23000000,0.28000000,-129.52000000,-207.46000000,81.79000000
77,1778625433.297077,-0.34000000,2.23000000,0.28000000,-129.52000000,-207.46000000,81.79000000
78,1778625433.310699,0.69000000,1.89000000,0.02000000,-129.52000000,-207.46000000,81.79000000
79,1778625433.317581,0.69000000,1.89000000,0.02000000,-166.93000000,-4.15000000,112.24000000
80,1778625433.3290722,0.69000000,1.89000000,0.02000000,-166.93000000,-4.15000000,112.24000000
81,1778625433.3369129,0.69000000,1.89000000,0.02000000,-166.93000000,-4.15000000,112.24000000
82,1778625433.350571,0.69000000,1.89000000,0.02000000,-166.93000000,-4.15000000,112.24000000
83,1778625433.358699,0.24000000,1.21000000,-0.13000000,-94.48000000,89.54000000,16.91000000
84,1778625433.367774,0.24000000,1.21000000,-0.13000000,-94.48000000,89.54000000,16.91000000
85,1778625433.377974,0.24000000,1.21000000,-0.13000000,-94.48000000,89.54000000,16.91000000
86,1778625433.3879292,0.24000000,1.21000000,-0.13000000,-94.48000000,89.54000000,16.91000000
87,1778625433.398292,-0.18000000,0.53000000,-0.11000000,-0.98000000,87.95000000,-26.92000000
88,1778625433.410667,-0.18000000,0.53000000,-0.11000000,-0.98000000,87.95000000,-26.92000000
89,1778625433.4180632,-0.18000000,0.53000000,-0.11000000,-0.98000000,87.95000000,-26.92000000
90,1778625433.429193,-0.18000000,0.53000000,-0.11000000,-0.98000000,87.95000000,-26.92000000
91,1778625433.436939,-0.65000000,-0.09000000,-0.36000000,98.45000000,-54.50000000,-54.75000000
92,1778625433.4476821,-0.65000000,-0.09000000,-0.36000000,98.45000000,-54.50000000,-54.75000000
93,1778625433.45871,-0.65000000,-0.09000000,-0.36000000,98.45000000,-54.50000000,-54.75000000
94,1778625433.466859,-0.40000000,-0.12000000,-0.49000000,181.46000000,-255.37000000,-56.27000000
95,1778625433.477948,-0.40000000,-0.12000000,-0.49000000,181.46000000,-255.37000000,-56.27000000
96,1778625433.489871,-0.40000000,-0.12000000,-0.49000000,181.46000000,-255.37000000,-56.27000000
97,1778625433.4969,-0.40000000,-0.12000000,-0.49000000,181.46000000,-255.37000000,-56.27000000
98,1778625433.5100448,1.10000000,0.63000000,0.58000000,139.65000000,-33.26000000,-68.54000000
99,1778625433.5177212,1.10000000,0.63000000,0.58000000,139.65000000,-33.26000000,-68.54000000
100,1778625433.5279748,1.10000000,0.63000000,0.58000000,139.65000000,-33.26000000,-68.54000000
101,1778625433.537729,1.10000000,0.63000000,0.58000000,139.65000000,-33.26000000,-68.54000000
102,1778625433.54779,0.66000000,0.62000000,0.87000000,-106.02000000,-202.94000000,110.05000000
103,1778625433.559903,0.66000000,0.62000000,0.87000000,-106.02000000,-202.94000000,110.05000000
104,1778625433.5681338,0.66000000,0.62000000,0.87000000,-106.02000000,-202.94000000,110.05000000
105,1778625433.578136,0.66000000,0.62000000,0.87000000,-106.02000000,-202.94000000,110.05000000
106,1778625433.588268,-0.53000000,0.36000000,-0.91000000,-26.79000000,-206.97000000,25.33000000
107,1778625433.5972228,-0.53000000,0.36000000,-0.91000000,-26.79000000,-206.97000000,25.33000000
108,1778625433.61069,-0.53000000,0.36000000,-0.91000000,-26.79000000,-206.97000000,25.33000000
109,1778625433.616875,-0.53000000,0.36000000,-0.91000000,-26.79000000,-206.97000000,25.33000000
110,1778625433.627969,-0.53000000,0.36000000,-0.91000000,-26.79000000,-206.97000000,25.33000000
111,1778625433.637918,-0.53000000,0.36000000,-0.91000000,-26.79000000,-206.97000000,25.33000000
112,1778625433.6483169,-0.53000000,0.36000000,-0.91000000,-26.79000000,-206.97000000,25.33000000
113,1778625433.660696,-0.53000000,0.36000000,-0.91000000,-26.79000000,-206.97000000,25.33000000
114,1778625433.666861,-0.53000000,0.36000000,-0.91000000,-26.79000000,-206.97000000,25.33000000
115,1778625433.677956,-0.53000000,0.36000000,-0.91000000,-26.79000000,-206.97000000,25.33000000
116,1778625433.688164,-0.12000000,2.44000000,-1.25000000,-21.36000000,-125.61000000,25.88000000
117,1778625433.698024,-0.38000000,0.50000000,-0.76000000,37.54000000,-182.74000000,14.77000000
118,1778625433.710717,-0.38000000,0.50000000,-0.76000000,37.54000000,-182.74000000,14.77000000
119,1778625433.718668,-0.38000000,0.50000000,-0.76000000,37.54000000,-182.74000000,14.77000000
120,1778625433.72699,-0.38000000,0.50000000,-0.76000000,37.54000000,-182.74000000,14.77000000
121,1778625433.741351,0.44000000,1.97000000,-0.61000000,34.97000000,-159.30000000,-44.25000000
122,1778625433.746866,0.44000000,1.97000000,-0.61000000,34.97000000,-159.30000000,-44.25000000
123,1778625433.7612119,0.44000000,1.97000000,-0.61000000,34.97000000,-159.30000000,-44.25000000
124,1778625433.766878,1.11000000,1.58000000,0.31000000,34.97000000,-159.30000000,-44.25000000
125,1778625433.7801678,1.11000000,1.58000000,0.31000000,58.53000000,-71.59000000,-14.53000000
126,1778625433.787232,1.11000000,1.58000000,0.31000000,58.53000000,-71.59000000,-14.53000000
127,1778625433.797481,1.11000000,1.58000000,0.31000000,58.53000000,-71.59000000,-14.53000000
128,1778625433.810706,0.08000000,1.74000000,-0.50000000,89.17000000,-45.17000000,-45.35000000
129,1778625433.816969,0.08000000,1.74000000,-0.50000000,89.17000000,-45.17000000,-45.35000000
130,1778625433.8279428,0.08000000,1.74000000,-0.50000000,89.17000000,-45.17000000,-45.35000000
131,1778625433.837194,0.08000000,1.74000000,-0.50000000,89.17000000,-45.17000000,-45.35000000
132,1778625433.848761,0.63000000,1.44000000,0.31000000,122.56000000,-191.71000000,-26.25000000
133,1778625433.860731,0.63000000,1.44000000,0.31000000,122.56000000,-191.71000000,-26.25000000
134,1778625433.8695,0.63000000,1.44000000,0.31000000,122.56000000,-191.71000000,-26.25000000
135,1778625433.8783941,0.63000000,1.44000000,0.31000000,122.56000000,-191.71000000,-26.25000000
136,1778625433.8899012,0.52000000,0.86000000,0.44000000,89.54000000,-177.98000000,27.53000000
137,1778625433.8978,0.52000000,0.86000000,0.44000000,89.54000000,-177.98000000,27.53000000
138,1778625433.9107368,0.52000000,0.86000000,0.44000000,89.54000000,-177.98000000,27.53000000
139,1778625433.9199092,0.52000000,0.86000000,0.44000000,89.54000000,-177.98000000,27.53000000
140,1778625433.927948,0.56000000,0.37000000,0.83000000,6.29000000,-94.36000000,5.62000000
141,1778625433.93758,0.56000000,0.37000000,0.83000000,6.29000000,-94.36000000,5.62000000
142,1778625433.9474602,0.56000000,0.37000000,0.83000000,6.29000000,-94.36000000,5.62000000
143,1778625433.956888,0.12000000,0.21000000,0.80000000,-81.05000000,-130.92000000,59.63000000
144,1778625433.971104,0.12000000,0.21000000,0.80000000,-81.05000000,-130.92000000,59.63000000
145,1778625433.977964,0.12000000,0.21000000,0.80000000,-81.05000000,-130.92000000,59.63000000
146,1778625433.98799,0.12000000,0.21000000,0.80000000,-81.05000000,-130.92000000,59.63000000
147,1778625433.998064,0.12000000,0.21000000,0.80000000,-81.05000000,-130.92000000,59.63000000
148,1778625434.0112472,0.12000000,0.21000000,0.80000000,-81.05000000,-130.92000000,59.63000000
149,1778625434.016959,0.12000000,0.21000000,0.80000000,-81.05000000,-130.92000000,59.63000000
150,1778625434.028374,0.12000000,0.21000000,0.80000000,-81.05000000,-130.92000000,59.63000000
151,1778625434.037767,0.12000000,0.21000000,0.80000000,-81.05000000,-130.92000000,59.63000000
152,1778625434.0488122,0.12000000,0.21000000,0.80000000,-81.05000000,-130.92000000,59.63000000
153,1778625434.0607512,0.12000000,0.21000000,0.80000000,-81.05000000,-130.92000000,59.63000000
154,1778625434.0688908,0.12000000,0.21000000,0.80000000,-81.05000000,-130.92000000,59.63000000
155,1778625434.080131,0.38000000,1.90000000,-0.04000000,-195.68000000,-20.94000000,88.93000000
156,1778625434.087428,0.38000000,1.90000000,-0.04000000,-195.68000000,-20.94000000,88.93000000
157,1778625434.0969331,0.38000000,1.90000000,-0.04000000,-195.68000000,-20.94000000,88.93000000
158,1778625434.10739,0.38000000,1.90000000,-0.04000000,-195.68000000,-20.94000000,88.93000000
159,1778625434.119463,-0.11000000,3.21000000,0.31000000,-251.71000000,-78.19000000,96.56000000
160,1778625434.1279612,-0.11000000,3.21000000,0.31000000,-251.71000000,-78.19000000,96.56000000
161,1778625434.139842,-0.11000000,3.21000000,0.31000000,-251.71000000,-78.19000000,96.56000000
162,1778625434.150202,-0.11000000,3.21000000,0.31000000,-251.71000000,-78.19000000,96.56000000
163,1778625434.156961,-0.11000000,3.21000000,0.31000000,-251.71000000,-78.19000000,96.56000000
164,1778625434.171218,-0.11000000,3.21000000,0.31000000,-251.71000000,-78.19000000,96.56000000
165,1778625434.178377,-0.11000000,3.21000000,0.31000000,-251.71000000,-78.19000000,96.56000000
166,1778625434.188131,-0.11000000,3.21000000,0.31000000,-251.71000000,-78.19000000,96.56000000
167,1778625434.198806,-0.11000000,3.21000000,0.31000000,-251.71000000,-78.19000000,96.56000000
168,1778625434.206911,-0.02000000,2.08000000,0.11000000,-210.45000000,68.24000000,44.68000000
169,1778625434.2217999,-0.14000000,1.12000000,0.25000000,-210.45000000,68.24000000,44.68000000
170,1778625434.228034,-0.14000000,1.12000000,0.25000000,-139.89000000,111.08000000,-23.74000000
171,1778625434.237021,-0.14000000,1.12000000,0.25000000,-139.89000000,111.08000000,-23.74000000
172,1778625434.247467,-0.14000000,1.12000000,0.25000000,-139.89000000,111.08000000,-23.74000000
173,1778625434.2607691,-0.19000000,0.45000000,-0.18000000,-57.56000000,138.12000000,-105.65000000
174,1778625434.267468,-0.19000000,0.45000000,-0.18000000,-57.56000000,138.12000000,-105.65000000
175,1778625434.277956,-0.19000000,0.45000000,-0.18000000,-57.56000000,138.12000000,-105.65000000
176,1778625434.2871418,-0.19000000,0.45000000,-0.18000000,-57.56000000,138.12000000,-105.65000000
177,1778625434.2977579,-0.25000000,-0.27000000,-0.20000000,41.81000000,29.05000000,-119.69000000
178,1778625434.3109398,-0.25000000,-0.27000000,-0.20000000,41.81000000,29.05000000,-119.69000000
179,1778625434.319811,-0.25000000,-0.27000000,-0.20000000,41.81000000,29.05000000,-119.69000000
180,1778625434.3282099,-0.25000000,-0.27000000,-0.20000000,41.81000000,29.05000000,-119.69000000
181,1778625434.337051,0.45000000,-0.15000000,0.13000000,41.81000000,29.05000000,-119.69000000
182,1778625434.347071,0.45000000,-0.15000000,0.13000000,41.81000000,29.05000000,-119.69000000
183,1778625434.3607879,0.45000000,-0.15000000,0.13000000,129.46000000,-108.70000000,-41.14000000
184,1778625434.3668869,0.45000000,-0.15000000,0.13000000,129.46000000,-108.70000000,-41.14000000
185,1778625434.3779898,0.42000000,0.07000000,-0.27000000,150.33000000,-112.73000000,-77.88000000
186,1778625434.38825,0.42000000,0.07000000,-0.27000000,150.33000000,-112.73000000,-77.88000000
187,1778625434.3981922,0.42000000,0.07000000,-0.27000000,150.33000000,-112.73000000,-77.88000000
188,1778625434.410806,-0.04000000,0.72000000,0.39000000,74.40000000,-108.22000000,-95.21000000
189,1778625434.4171038,-0.04000000,0.72000000,0.39000000,74.40000000,-108.22000000,-95.21000000
190,1778625434.427965,-0.04000000,0.72000000,0.39000000,74.40000000,-108.22000000,-95.21000000
191,1778625434.437831,-0.04000000,0.72000000,0.39000000,74.40000000,-108.22000000,-95.21000000
192,1778625434.4475222,-0.22000000,0.80000000,-0.96000000,57.13000000,-166.08000000,-20.32000000
193,1778625434.4607968,-0.22000000,0.80000000,-0.96000000,57.13000000,-166.08000000,-20.32000000
194,1778625434.467105,-0.22000000,0.80000000,-0.96000000,57.13000000,-166.08000000,-20.32000000
195,1778625434.478219,-0.22000000,0.80000000,-0.96000000,57.13000000,-166.08000000,-20.32000000
196,1778625434.487932,-0.09000000,0.98000000,-0.73000000,77.76000000,-99.12000000,31.49000000
197,1778625434.4976032,-0.09000000,0.98000000,-0.73000000,77.76000000,-99.12000000,31.49000000
198,1778625434.511332,-0.09000000,0.98000000,-0.73000000,77.76000000,-99.12000000,31.49000000
199,1778625434.5174358,-0.09000000,0.98000000,-0.73000000,77.76000000,-99.12000000,31.49000000
200,1778625434.527956,0.39000000,1.33000000,-0.47000000,37.23000000,-181.52000000,3.17000000
201,1778625434.539052,0.39000000,1.33000000,-0.47000000,37.23000000,-181.52000000,3.17000000
202,1778625434.5489652,0.39000000,1.33000000,-0.47000000,37.23000000,-181.52000000,3.17000000
203,1778625434.560291,0.39000000,1.33000000,-0.47000000,37.23000000,-181.52000000,3.17000000
204,1778625434.570125,0.48000000,1.95000000,-0.37000000,37.66000000,-46.88000000,-79.16000000
205,1778625434.578122,0.48000000,1.95000000,-0.37000000,37.66000000,-46.88000000,-79.16000000
206,1778625434.5882041,0.48000000,1.95000000,-0.37000000,37.66000000,-46.88000000,-79.16000000
207,1778625434.5970712,0.41000000,1.74000000,-0.10000000,65.98000000,56.21000000,-78.19000000
208,1778625434.610815,0.41000000,1.74000000,-0.10000000,65.98000000,56.21000000,-78.19000000
209,1778625434.619755,0.41000000,1.74000000,-0.10000000,65.98000000,56.21000000,-78.19000000
210,1778625434.628714,0.41000000,1.74000000,-0.10000000,65.98000000,56.21000000,-78.19000000
211,1778625434.638008,1.01000000,2.01000000,-0.01000000,179.08000000,83.86000000,-46.02000000
212,1778625434.647014,1.01000000,2.01000000,-0.01000000,179.08000000,83.86000000,-46.02000000
213,1778625434.6608388,1.01000000,2.01000000,-0.01000000,179.08000000,83.86000000,-46.02000000
214,1778625434.6698492,1.01000000,2.01000000,-0.01000000,179.08000000,83.86000000,-46.02000000
215,1778625434.679368,1.01000000,2.01000000,-0.01000000,179.08000000,83.86000000,-46.02000000
216,1778625434.690037,1.01000000,2.01000000,-0.01000000,179.08000000,83.86000000,-46.02000000
217,1778625434.6990159,1.01000000,2.01000000,-0.01000000,179.08000000,83.86000000,-46.02000000
218,1778625434.708032,1.01000000,2.01000000,-0.01000000,179.08000000,83.86000000,-46.02000000
219,1778625434.721008,1.01000000,2.01000000,-0.01000000,179.08000000,83.86000000,-46.02000000
220,1778625434.7279592,1.01000000,2.01000000,-0.01000000,179.08000000,83.86000000,-46.02000000
221,1778625434.7382789,-0.53000000,1.17000000,0.63000000,118.90000000,-18.98000000,-4.76000000
222,1778625434.7490351,0.40000000,0.59000000,0.50000000,69.15000000,-66.59000000,-38.64000000
223,1778625434.760287,0.40000000,0.59000000,0.50000000,69.15000000,-66.59000000,-38.64000000
224,1778625434.768033,0.40000000,0.59000000,0.50000000,69.15000000,-66.59000000,-38.64000000
225,1778625434.7791512,0.40000000,0.59000000,0.50000000,69.15000000,-66.59000000,-38.64000000
226,1778625434.787315,0.40000000,0.59000000,0.50000000,69.15000000,-66.59000000,-38.64000000
227,1778625434.798346,1.00000000,0.30000000,1.08000000,-22.09000000,18.68000000,-26.00000000
228,1778625434.810855,1.00000000,0.30000000,1.08000000,-22.09000000,18.68000000,-26.00000000
229,1778625434.817903,1.00000000,0.30000000,1.08000000,-22.09000000,18.68000000,-26.00000000
230,1778625434.828,0.27000000,0.25000000,0.56000000,-111.21000000,77.70000000,10.50000000
231,1778625434.840332,0.27000000,0.25000000,0.56000000,-111.21000000,77.70000000,10.50000000
232,1778625434.848618,0.27000000,0.25000000,0.56000000,-111.21000000,77.70000000,10.50000000
233,1778625434.8608599,-0.02000000,0.35000000,0.31000000,-111.21000000,77.70000000,10.50000000
234,1778625434.8688629,-0.02000000,0.35000000,0.31000000,-151.25000000,125.00000000,15.87000000
235,1778625434.8779678,-0.02000000,0.35000000,0.31000000,-151.25000000,125.00000000,15.87000000
236,1778625434.8884962,-0.02000000,0.35000000,0.31000000,-151.25000000,125.00000000,15.87000000
237,1778625434.897214,-0.02000000,0.35000000,0.31000000,-151.25000000,125.00000000,15.87000000
238,1778625434.910845,0.70000000,0.97000000,-0.26000000,-178.96000000,153.32000000,28.69000000
239,1778625434.9197109,0.70000000,0.97000000,-0.26000000,-178.96000000,153.32000000,28.69000000
240,1778625434.928192,0.70000000,0.97000000,-0.26000000,-178.96000000,153.32000000,28.69000000
241,1778625434.937695,0.80000000,2.04000000,-0.27000000,-191.65000000,175.66000000,63.42000000
242,1778625434.948261,0.80000000,2.04000000,-0.27000000,-191.65000000,175.66000000,63.42000000
243,1778625434.960853,0.80000000,2.04000000,-0.27000000,-191.65000000,175.66000000,63.42000000
244,1778625434.966895,0.80000000,2.04000000,-0.27000000,-191.65000000,175.66000000,63.42000000
245,1778625434.977957,-0.01000000,3.14000000,-0.76000000,-236.33000000,-24.54000000,90.88000000
246,1778625434.989293,-0.01000000,3.14000000,-0.76000000,-236.33000000,-24.54000000,90.88000000
247,1778625434.99909,-0.01000000,3.14000000,-0.76000000,-236.33000000,-24.54000000,90.88000000
248,1778625435.008558,1.08000000,2.67000000,-0.16000000,-81.79000000,96.56000000,167.36000000
249,1778625435.017343,1.08000000,2.67000000,-0.16000000,-81.79000000,96.56000000,167.36000000
250,1778625435.027041,1.08000000,2.67000000,-0.16000000,-81.79000000,96.56000000,167.36000000
251,1778625435.0368671,1.08000000,2.67000000,-0.16000000,-81.79000000,96.56000000,167.36000000
252,1778625435.048279,1.08000000,2.67000000,-0.16000000,-81.79000000,96.56000000,167.36000000
253,1778625435.057195,1.08000000,2.67000000,-0.16000000,-81.79000000,96.56000000,167.36000000
254,1778625435.070264,1.08000000,2.67000000,-0.16000000,-81.79000000,96.56000000,167.36000000
255,1778625435.080145,1.08000000,2.67000000,-0.16000000,-81.79000000,96.56000000,167.36000000
256,1778625435.0881422,1.08000000,2.67000000,-0.16000000,-81.79000000,96.56000000,167.36000000
257,1778625435.098138,1.08000000,2.67000000,-0.16000000,-81.79000000,96.56000000,167.36000000
258,1778625435.1108632,1.08000000,2.67000000,-0.16000000,-81.79000000,96.56000000,167.36000000
259,1778625435.118764,1.08000000,2.67000000,-0.16000000,-81.79000000,96.56000000,167.36000000
260,1778625435.127959,-1.09000000,-0.46000000,-0.30000000,65.31000000,-18.55000000,-21.61000000
261,1778625435.1398451,-1.09000000,-0.46000000,-0.30000000,65.31000000,-18.55000000,-21.61000000
262,1778625435.148253,-1.09000000,-0.46000000,-0.30000000,65.31000000,-18.55000000,-21.61000000
263,1778625435.160876,-0.78000000,-0.61000000,-0.64000000,65.31000000,-18.55000000,-21.61000000
264,1778625435.169878,-0.78000000,-0.61000000,-0.64000000,142.64000000,-156.49000000,-44.74000000
265,1778625435.178016,-0.78000000,-0.61000000,-0.64000000,142.64000000,-156.49000000,-44.74000000
266,1778625435.187087,-0.78000000,-0.61000000,-0.64000000,142.64000000,-156.49000000,-44.74000000
267,1778625435.1987891,-0.78000000,-0.61000000,-0.64000000,142.64000000,-156.49000000,-44.74000000
268,1778625435.210894,-0.78000000,-0.61000000,-0.64000000,142.64000000,-156.49000000,-44.74000000
269,1778625435.216884,-0.78000000,-0.61000000,-0.64000000,142.64000000,-156.49000000,-44.74000000
270,1778625435.228204,-0.78000000,-0.61000000,-0.64000000,142.64000000,-156.49000000,-44.74000000
271,1778625435.237813,-0.78000000,-0.61000000,-0.64000000,142.64000000,-156.49000000,-44.74000000
272,1778625435.247234,-0.78000000,-0.61000000,-0.64000000,142.64000000,-156.49000000,-44.74000000
273,1778625435.260902,0.96000000,0.60000000,0.32000000,86.06000000,-7.57000000,2.87000000
274,1778625435.267488,0.96000000,0.60000000,0.32000000,86.06000000,-7.57000000,2.87000000
275,1778625435.277954,0.96000000,0.60000000,0.32000000,86.06000000,-7.57000000,2.87000000
276,1778625435.287853,0.31000000,1.62000000,0.84000000,-28.93000000,-130.80000000,110.35000000
277,1778625435.299083,0.31000000,1.62000000,0.84000000,-28.93000000,-130.80000000,110.35000000
278,1778625435.3080242,0.69000000,0.11000000,-0.94000000,-49.68000000,-93.75000000,70.25000000
279,1778625435.321287,0.69000000,0.11000000,-0.94000000,-49.68000000,-93.75000000,70.25000000
280,1778625435.327946,0.69000000,0.11000000,-0.94000000,-49.68000000,-93.75000000,70.25000000
281,1778625435.338426,0.69000000,0.11000000,-0.94000000,-49.68000000,-93.75000000,70.25000000
282,1778625435.347252,0.69000000,0.11000000,-0.94000000,-49.68000000,-93.75000000,70.25000000
283,1778625435.3609111,-0.23000000,2.33000000,-1.71000000,27.28000000,-69.64000000,-37.60000000
284,1778625435.367272,-0.23000000,2.33000000,-1.71000000,27.28000000,-69.64000000,-37.60000000
285,1778625435.378415,-0.23000000,2.33000000,-1.71000000,27.28000000,-69.64000000,-37.60000000
286,1778625435.3879302,-0.23000000,2.33000000,-1.71000000,27.28000000,-69.64000000,-37.60000000
287,1778625435.3978019,-0.98000000,1.17000000,-1.10000000,-75.99000000,-167.97000000,21.06000000
288,1778625435.4109309,-0.98000000,1.17000000,-1.10000000,-75.99000000,-167.97000000,21.06000000
289,1778625435.4169211,-0.98000000,1.17000000,-1.10000000,-75.99000000,-167.97000000,21.06000000
290,1778625435.428137,-0.98000000,1.17000000,-1.10000000,-75.99000000,-167.97000000,21.06000000
291,1778625435.437191,-1.53000000,0.48000000,-0.69000000,54.08000000,-174.74000000,-25.45000000
292,1778625435.447335,-1.53000000,0.48000000,-0.69000000,54.08000000,-174.74000000,-25.45000000
293,1778625435.4609249,-1.53000000,0.48000000,-0.69000000,54.08000000,-174.74000000,-25.45000000
294,1778625435.466926,0.68000000,2.15000000,-1.19000000,119.63000000,-187.26000000,-70.07000000
295,1778625435.479676,0.68000000,2.15000000,-1.19000000,119.63000000,-187.26000000,-70.07000000
296,1778625435.4878469,0.68000000,2.15000000,-1.19000000,119.63000000,-187.26000000,-70.07000000
297,1778625435.498345,2.59000000,2.08000000,-0.30000000,101.81000000,-166.32000000,10.44000000
298,1778625435.5081532,2.59000000,2.08000000,-0.30000000,101.81000000,-166.32000000,10.44000000
299,1778625435.5168982,2.59000000,2.08000000,-0.30000000,101.81000000,-166.32000000,10.44000000
300,1778625435.5284438,2.59000000,2.08000000,-0.30000000,101.81000000,-166.32000000,10.44000000
301,1778625435.536939,-0.17000000,1.54000000,-0.26000000,104.49000000,79.35000000,4.64000000
302,1778625435.5483031,-0.17000000,1.54000000,-0.26000000,104.49000000,79.35000000,4.64000000
303,1778625435.560919,-0.17000000,1.54000000,-0.26000000,104.49000000,79.35000000,4.64000000
304,1778625435.566868,-0.17000000,1.54000000,-0.26000000,104.49000000,79.35000000,4.64000000
305,1778625435.5779788,-0.09000000,1.71000000,0.29000000,127.69000000,-158.45000000,-14.71000000
306,1778625435.587382,-0.09000000,1.71000000,0.29000000,127.69000000,-158.45000000,-14.71000000
307,1778625435.597298,-0.09000000,1.71000000,0.29000000,127.69000000,-158.45000000,-14.71000000
308,1778625435.6072252,-0.09000000,1.71000000,0.29000000,127.69000000,-158.45000000,-14.71000000
309,1778625435.620948,0.20000000,0.59000000,0.49000000,79.22000000,-233.89000000,-6.41000000
310,1778625435.627946,0.20000000,0.59000000,0.49000000,79.22000000,-233.89000000,-6.41000000
311,1778625435.6380632,0.20000000,0.59000000,0.49000000,79.22000000,-233.89000000,-6.41000000
312,1778625435.6497579,0.20000000,0.59000000,0.49000000,79.22000000,-233.89000000,-6.41000000
313,1778625435.659436,0.47000000,0.41000000,1.19000000,-14.22000000,-168.64000000,6.59000000
314,1778625435.6682508,0.47000000,0.41000000,1.19000000,-14.22000000,-168.64000000,6.59000000
315,1778625435.678386,0.72000000,-0.05000000,0.58000000,-112.55000000,-181.95000000,36.19000000
316,1778625435.6879702,0.72000000,-0.05000000,0.58000000,-112.55000000,-181.95000000,36.19000000
317,1778625435.6993449,0.72000000,-0.05000000,0.58000000,-112.55000000,-181.95000000,36.19000000
318,1778625435.708149,0.72000000,-0.05000000,0.58000000,-112.55000000,-181.95000000,36.19000000
319,1778625435.720917,0.72000000,-0.05000000,0.58000000,-112.55000000,-181.95000000,36.19000000
320,1778625435.7279732,0.72000000,-0.05000000,0.58000000,-112.55000000,-181.95000000,36.19000000
321,1778625435.738157,0.72000000,-0.05000000,0.58000000,-112.55000000,-181.95000000,36.19000000
322,1778625435.7493272,0.72000000,-0.05000000,0.58000000,-112.55000000,-181.95000000,36.19000000
323,1778625435.759491,0.72000000,-0.05000000,0.58000000,-112.55000000,-181.95000000,36.19000000
324,1778625435.7700539,0.72000000,-0.05000000,0.58000000,-112.55000000,-181.95000000,36.19000000
325,1778625435.77731,0.72000000,-0.05000000,0.58000000,-112.55000000,-181.95000000,36.19000000
326,1778625435.7912488,0.39000000,0.68000000,0.25000000,-160.89000000,21.97000000,59.57000000
327,1778625435.798261,0.10000000,1.55000000,0.19000000,-179.14000000,49.13000000,61.04000000
328,1778625435.8109949,0.10000000,1.55000000,0.19000000,-179.14000000,49.13000000,61.04000000
329,1778625435.81696,0.10000000,1.55000000,0.19000000,-179.14000000,49.13000000,61.04000000
330,1778625435.828295,0.10000000,1.55000000,0.19000000,-179.14000000,49.13000000,61.04000000
331,1778625435.836916,0.50000000,2.93000000,-0.02000000,-227.97000000,47.73000000,83.07000000
332,1778625435.849359,0.50000000,2.93000000,-0.02000000,-227.97000000,47.73000000,83.07000000
333,1778625435.858009,0.50000000,2.93000000,-0.02000000,-227.97000000,47.73000000,83.07000000
334,1778625435.86903,0.50000000,2.93000000,-0.02000000,-227.97000000,47.73000000,83.07000000
335,1778625435.8769841,-1.02000000,2.62000000,0.74000000,-179.20000000,-252.44000000,63.72000000
336,1778625435.889353,-1.02000000,2.62000000,0.74000000,-179.20000000,-252.44000000,63.72000000
337,1778625435.898894,-1.02000000,2.62000000,0.74000000,-179.20000000,-252.44000000,63.72000000
338,1778625435.9069288,-1.02000000,2.62000000,0.74000000,-179.20000000,-252.44000000,63.72000000
339,1778625435.917272,0.71000000,1.78000000,-0.02000000,-193.12000000,18.68000000,54.81000000
340,1778625435.926888,0.71000000,1.78000000,-0.02000000,-193.12000000,18.68000000,54.81000000
341,1778625435.9418728,0.71000000,1.78000000,-0.02000000,-193.12000000,18.68000000,54.81000000
342,1778625435.949385,0.71000000,1.78000000,-0.02000000,-193.12000000,18.68000000,54.81000000
343,1778625435.956931,-0.06000000,1.48000000,0.04000000,-112.67000000,22.52000000,10.99000000
344,1778625435.968212,-0.06000000,1.48000000,0.04000000,-112.67000000,22.52000000,10.99000000
345,1778625435.977962,-0.06000000,1.48000000,0.04000000,-112.67000000,22.52000000,10.99000000
346,1778625435.9883509,0.01000000,0.58000000,-0.08000000,-24.48000000,123.23000000,-7.69000000
347,1778625435.9975731,0.01000000,0.58000000,-0.08000000,-24.48000000,123.23000000,-7.69000000
348,1778625436.007046,0.01000000,0.58000000,-0.08000000,-24.48000000,123.23000000,-7.69000000
349,1778625436.0193942,-0.47000000,-0.18000000,-0.44000000,-24.48000000,123.23000000,-7.69000000
350,1778625436.027065,-0.47000000,-0.18000000,-0.44000000,93.02000000,7.39000000,-55.11000000
351,1778625436.037311,-0.47000000,-0.18000000,-0.44000000,93.02000000,7.39000000,-55.11000000
352,1778625436.051262,-0.47000000,-0.18000000,-0.44000000,93.02000000,7.39000000,-55.11000000
353,1778625436.05717,-0.47000000,-0.18000000,-0.44000000,93.02000000,7.39000000,-55.11000000
354,1778625436.0669582,-0.21000000,-0.14000000,-0.45000000,203.61000000,-222.90000000,-56.58000000
355,1778625436.0769012,-0.21000000,-0.14000000,-0.45000000,203.61000000,-222.90000000,-56.58000000
356,1778625436.086986,-0.21000000,-0.14000000,-0.45000000,203.61000000,-222.90000000,-56.58000000
357,1778625436.0982919,-0.21000000,-0.14000000,-0.45000000,203.61000000,-222.90000000,-56.58000000
358,1778625436.106893,-0.21000000,-0.14000000,-0.45000000,203.61000000,-222.90000000,-56.58000000
359,1778625436.11961,-0.21000000,-0.14000000,-0.45000000,203.61000000,-222.90000000,-56.58000000
360,1778625436.128173,-0.21000000,-0.14000000,-0.45000000,203.61000000,-222.90000000,-56.58000000
361,1778625436.1382139,-0.21000000,-0.14000000,-0.45000000,203.61000000,-222.90000000,-56.58000000
362,1778625436.15022,-0.21000000,-0.14000000,-0.45000000,203.61000000,-222.90000000,-56.58000000
363,1778625436.156963,-0.21000000,-0.14000000,-0.45000000,203.61000000,-222.90000000,-56.58000000
364,1778625436.166965,-0.21000000,-0.14000000,-0.45000000,203.61000000,-222.90000000,-56.58000000
365,1778625436.176885,-0.09000000,-0.54000000,-1.48000000,65.12000000,-223.27000000,37.17000000
366,1778625436.191853,-0.09000000,-0.54000000,-1.48000000,65.12000000,-223.27000000,37.17000000
367,1778625436.1968708,-0.09000000,-0.54000000,-1.48000000,65.12000000,-223.27000000,37.17000000
368,1778625436.207098,-0.09000000,-0.54000000,-1.48000000,65.12000000,-223.27000000,37.17000000
369,1778625436.2175329,-0.09000000,1.93000000,-1.08000000,12.33000000,-169.43000000,-63.96000000
370,1778625436.2269099,-0.09000000,1.93000000,-1.08000000,12.33000000,-169.43000000,-63.96000000
371,1778625436.239305,-0.09000000,1.93000000,-1.08000000,12.33000000,-169.43000000,-63.96000000
372,1778625436.249453,-0.09000000,1.93000000,-1.08000000,12.33000000,-169.43000000,-63.96000000
373,1778625436.260569,-0.09000000,1.93000000,-1.08000000,12.33000000,-169.43000000,-63.96000000
374,1778625436.26915,-0.09000000,1.93000000,-1.08000000,12.33000000,-169.43000000,-63.96000000
375,1778625436.277785,-0.09000000,1.93000000,-1.08000000,12.33000000,-169.43000000,-63.96000000
376,1778625436.288704,-0.09000000,1.93000000,-1.08000000,12.33000000,-169.43000000,-63.96000000
377,1778625436.297757,-0.09000000,1.93000000,-1.08000000,12.33000000,-169.43000000,-63.96000000
378,1778625436.309878,0.08000000,0.80000000,-0.60000000,32.90000000,-281.07000000,-3.11000000
379,1778625436.316958,0.85000000,1.73000000,-0.56000000,63.48000000,-84.29000000,-48.28000000
380,1778625436.3269079,0.85000000,1.73000000,-0.56000000,63.48000000,-84.29000000,-48.28000000
381,1778625436.33718,0.85000000,1.73000000,-0.56000000,63.48000000,-84.29000000,-48.28000000
382,1778625436.3488882,0.85000000,1.73000000,-0.56000000,63.48000000,-84.29000000,-48.28000000
383,1778625436.358688,0.85000000,1.73000000,-0.56000000,63.48000000,-84.29000000,-48.28000000
384,1778625436.366943,1.60000000,1.69000000,-0.20000000,110.60000000,-124.33000000,0.67000000
385,1778625436.377954,1.60000000,1.69000000,-0.20000000,110.60000000,-124.33000000,0.67000000
386,1778625436.387562,1.60000000,1.69000000,-0.20000000,110.60000000,-124.33000000,0.67000000
387,1778625436.399482,-0.17000000,1.50000000,-0.02000000,125.98000000,-110.11000000,27.34000000
388,1778625436.4071329,-0.17000000,1.50000000,-0.02000000,125.98000000,-110.11000000,27.34000000
389,1778625436.4175072,-0.17000000,1.50000000,-0.02000000,125.98000000,-110.11000000,27.34000000
390,1778625436.426888,-0.17000000,1.50000000,-0.02000000,125.98000000,-110.11000000,27.34000000
391,1778625436.437526,0.14000000,1.19000000,0.56000000,103.94000000,-155.88000000,6.96000000
392,1778625436.4470751,0.14000000,1.19000000,0.56000000,103.94000000,-155.88000000,6.96000000
393,1778625436.461175,0.14000000,1.19000000,0.56000000,103.94000000,-155.88000000,6.96000000
394,1778625436.4669492,0.14000000,1.19000000,0.56000000,103.94000000,-155.88000000,6.96000000
395,1778625436.4788249,0.18000000,0.28000000,0.18000000,57.37000000,-152.83000000,-0.12000000
396,1778625436.490897,0.18000000,0.28000000,0.18000000,57.37000000,-152.83000000,-0.12000000
397,1778625436.498626,0.18000000,0.28000000,0.18000000,57.37000000,-152.83000000,-0.12000000
398,1778625436.510912,0.49000000,0.55000000,0.87000000,23.74000000,-81.12000000,4.27000000
399,1778625436.516906,0.49000000,0.55000000,0.87000000,23.74000000,-81.12000000,4.27000000
400,1778625436.528956,0.49000000,0.55000000,0.87000000,23.74000000,-81.12000000,4.27000000
401,1778625436.540809,1.07000000,0.06000000,0.73000000,-24.29000000,-116.46000000,28.63000000
402,1778625436.547725,1.07000000,0.06000000,0.73000000,-24.29000000,-116.46000000,28.63000000
403,1778625436.56141,1.07000000,0.06000000,0.73000000,-24.29000000,-116.46000000,28.63000000
404,1778625436.566963,1.07000000,0.06000000,0.73000000,-24.29000000,-116.46000000,28.63000000
405,1778625436.577736,0.08000000,0.29000000,0.48000000,-80.20000000,5.74000000,70.31000000
406,1778625436.5878341,0.08000000,0.29000000,0.48000000,-80.20000000,5.74000000,70.31000000
407,1778625436.5992918,0.08000000,0.29000000,0.48000000,-80.20000000,5.74000000,70.31000000
408,1778625436.607997,0.08000000,0.29000000,0.48000000,-80.20000000,5.74000000,70.31000000
409,1778625436.617502,0.57000000,0.98000000,0.15000000,-80.20000000,5.74000000,70.31000000
410,1778625436.628059,0.57000000,0.98000000,0.15000000,-150.09000000,93.32000000,62.93000000
411,1778625436.636894,0.57000000,0.98000000,0.15000000,-150.09000000,93.32000000,62.93000000
412,1778625436.6504152,0.34000000,2.67000000,-0.01000000,-195.07000000,110.60000000,79.71000000
413,1778625436.6612952,0.34000000,2.67000000,-0.01000000,-195.07000000,110.60000000,79.71000000
414,1778625436.6668851,0.34000000,2.67000000,-0.01000000,-195.07000000,110.60000000,79.71000000
415,1778625436.688212,0.34000000,2.67000000,-0.01000000,-195.07000000,110.60000000,79.71000000
416,1778625436.688236,0.34000000,2.67000000,-0.01000000,-195.07000000,110.60000000,79.71000000
417,1778625436.71361,-0.94000000,3.94000000,-0.40000000,-269.17000000,44.01000000,77.21000000
418,1778625436.7136462,-0.94000000,3.94000000,-0.40000000,-269.17000000,44.01000000,77.21000000
419,1778625436.7184682,-0.94000000,3.94000000,-0.40000000,-269.17000000,44.01000000,77.21000000
420,1778625436.727648,-0.23000000,2.81000000,0.07000000,-200.93000000,-439.27000000,49.50000000
421,1778625436.7371159,-0.23000000,2.81000000,0.07000000,-200.93000000,-439.27000000,49.50000000
422,1778625436.751709,-0.23000000,2.81000000,0.07000000,-200.93000000,-439.27000000,49.50000000
423,1778625436.756864,-0.23000000,2.81000000,0.07000000,-200.93000000,-439.27000000,49.50000000
424,1778625436.766929,-0.23000000,2.81000000,0.07000000,-200.93000000,-439.27000000,49.50000000
425,1778625436.779108,-0.23000000,2.81000000,0.07000000,-200.93000000,-439.27000000,49.50000000
426,1778625436.788058,-0.23000000,2.81000000,0.07000000,-200.93000000,-439.27000000,49.50000000
427,1778625436.797914,-0.23000000,2.81000000,0.07000000,-200.93000000,-439.27000000,49.50000000
428,1778625436.80785,-0.23000000,2.81000000,0.07000000,-200.93000000,-439.27000000,49.50000000
429,1778625436.816915,-0.23000000,2.81000000,0.07000000,-200.93000000,-439.27000000,49.50000000
430,1778625436.829679,-0.23000000,2.81000000,0.07000000,-200.93000000,-439.27000000,49.50000000
431,1778625436.838132,-0.32000000,0.75000000,-0.37000000,-165.34000000,123.05000000,-19.78000000
432,1778625436.8492842,-0.72000000,-0.35000000,-0.61000000,-75.56000000,69.52000000,-64.94000000
433,1778625436.860636,-0.72000000,-0.35000000,-0.61000000,-75.56000000,69.52000000,-64.94000000
434,1778625436.868591,-0.72000000,-0.35000000,-0.61000000,-75.56000000,69.52000000,-64.94000000
435,1778625436.87782,-0.72000000,-0.35000000,-0.61000000,-75.56000000,69.52000000,-64.94000000
436,1778625436.88733,-0.59000000,-0.80000000,-0.67000000,40.59000000,-94.12000000,-67.50000000
437,1778625436.8983731,-0.59000000,-0.80000000,-0.67000000,40.59000000,-94.12000000,-67.50000000
438,1778625436.9070668,-0.59000000,-0.80000000,-0.67000000,40.59000000,-94.12000000,-67.50000000
439,1778625436.916882,-0.16000000,-0.28000000,-0.47000000,143.37000000,-162.48000000,-66.89000000
440,1778625436.9298291,-0.16000000,-0.28000000,-0.47000000,143.37000000,-162.48000000,-66.89000000
441,1778625436.936874,-0.16000000,-0.28000000,-0.47000000,143.37000000,-162.48000000,-66.89000000
442,1778625436.947627,-0.16000000,-0.28000000,-0.47000000,143.37000000,-162.48000000,-66.89000000
443,1778625436.9594529,0.31000000,0.20000000,-0.16000000,118.96000000,-110.11000000,-56.09000000
444,1778625436.967249,0.31000000,0.20000000,-0.16000000,118.96000000,-110.11000000,-56.09000000
445,1778625436.979048,0.31000000,0.20000000,-0.16000000,118.96000000,-110.11000000,-56.09000000
446,1778625436.9881291,0.31000000,0.20000000,-0.16000000,118.96000000,-110.11000000,-56.09000000
447,1778625436.998278,0.45000000,1.71000000,1.76000000,-36.38000000,-67.75000000,49.07000000
448,1778625437.0111182,0.45000000,1.71000000,1.76000000,-36.38000000,-67.75000000,49.07000000
449,1778625437.018477,0.45000000,1.71000000,1.76000000,-36.38000000,-67.75000000,49.07000000
450,1778625437.027968,0.45000000,1.71000000,1.76000000,-36.38000000,-67.75000000,49.07000000
451,1778625437.037101,0.54000000,-0.61000000,-1.90000000,-13.31000000,-264.34000000,-6.10000000
452,1778625437.051434,0.54000000,-0.61000000,-1.90000000,-13.31000000,-264.34000000,-6.10000000
453,1778625437.058916,0.54000000,-0.61000000,-1.90000000,-13.31000000,-264.34000000,-6.10000000
454,1778625437.0671308,-0.08000000,2.19000000,-1.40000000,22.40000000,-117.13000000,-58.47000000
455,1778625437.080333,-0.08000000,2.19000000,-1.40000000,22.40000000,-117.13000000,-58.47000000
456,1778625437.087281,-0.08000000,2.19000000,-1.40000000,22.40000000,-117.13000000,-58.47000000
457,1778625437.0984042,-0.08000000,2.19000000,-1.40000000,22.40000000,-117.13000000,-58.47000000
458,1778625437.108076,0.83000000,3.40000000,3.94000000,24.17000000,-143.31000000,-0.49000000
459,1778625437.1181881,0.83000000,3.40000000,3.94000000,24.17000000,-143.31000000,-0.49000000
460,1778625437.127956,0.83000000,3.40000000,3.94000000,24.17000000,-143.31000000,-0.49000000
461,1778625437.136877,0.83000000,3.40000000,3.94000000,24.17000000,-143.31000000,-0.49000000
462,1778625437.1477308,0.83000000,3.40000000,3.94000000,24.17000000,-143.31000000,-0.49000000
463,1778625437.15769,0.83000000,3.40000000,3.94000000,24.17000000,-143.31000000,-0.49000000
464,1778625437.169298,0.83000000,3.40000000,3.94000000,24.17000000,-143.31000000,-0.49000000
465,1778625437.178653,0.83000000,3.40000000,3.94000000,24.17000000,-143.31000000,-0.49000000
466,1778625437.1888251,0.83000000,3.40000000,3.94000000,24.17000000,-143.31000000,-0.49000000
467,1778625437.1991649,0.83000000,3.40000000,3.94000000,24.17000000,-143.31000000,-0.49000000
468,1778625437.207144,0.83000000,3.40000000,3.94000000,24.17000000,-143.31000000,-0.49000000
469,1778625437.217888,0.42000000,2.10000000,-0.85000000,113.46000000,-62.68000000,-82.03000000
470,1778625437.2291572,2.11000000,1.30000000,-0.19000000,150.57000000,-66.35000000,-11.90000000
471,1778625437.238427,2.11000000,1.30000000,-0.19000000,150.57000000,-66.35000000,-11.90000000
472,1778625437.247745,2.11000000,1.30000000,-0.19000000,150.57000000,-66.35000000,-11.90000000
473,1778625437.2569249,0.31000000,1.94000000,0.64000000,136.96000000,-89.66000000,56.21000000
474,1778625437.2677472,0.31000000,1.94000000,0.64000000,136.96000000,-89.66000000,56.21000000
475,1778625437.2770948,0.31000000,1.94000000,0.64000000,136.96000000,-89.66000000,56.21000000
476,1778625437.2871559,0.31000000,1.94000000,0.64000000,136.96000000,-89.66000000,56.21000000
477,1778625437.300274,0.31000000,1.94000000,0.64000000,136.96000000,-89.66000000,56.21000000
478,1778625437.307022,0.31000000,1.94000000,0.64000000,136.96000000,-89.66000000,56.21000000
479,1778625437.316891,0.31000000,1.94000000,0.64000000,136.96000000,-89.66000000,56.21000000
480,1778625437.331316,0.31000000,1.94000000,0.64000000,136.96000000,-89.66000000,56.21000000
481,1778625437.337219,0.31000000,1.94000000,0.64000000,136.96000000,-89.66000000,56.21000000
482,1778625437.347738,0.52000000,0.50000000,1.08000000,1.83000000,-31.07000000,-22.16000000
483,1778625437.362165,0.52000000,0.50000000,1.08000000,1.83000000,-31.07000000,-22.16000000
484,1778625437.367879,0.41000000,0.40000000,0.93000000,1.83000000,-31.07000000,-22.16000000
485,1778625437.376896,0.41000000,0.40000000,0.93000000,-135.19000000,-53.34000000,19.35000000
486,1778625437.387936,0.41000000,0.40000000,0.93000000,-135.19000000,-53.34000000,19.35000000
487,1778625437.400321,0.41000000,0.40000000,0.93000000,-135.19000000,-53.34000000,19.35000000
488,1778625437.408566,-0.55000000,0.62000000,0.29000000,-216.49000000,60.55000000,4.21000000
489,1778625437.4168751,-0.55000000,0.62000000,0.29000000,-216.49000000,60.55000000,4.21000000
490,1778625437.42877,-0.55000000,0.62000000,0.29000000,-216.49000000,60.55000000,4.21000000
491,1778625437.439179,-0.55000000,0.62000000,0.29000000,-216.49000000,60.55000000,4.21000000
492,1778625437.4485528,-0.26000000,0.53000000,0.14000000,-250.49000000,-17.58000000,-7.57000000
493,1778625437.456928,-0.26000000,0.53000000,0.14000000,-250.49000000,-17.58000000,-7.57000000
494,1778625437.470454,-0.26000000,0.53000000,0.14000000,-250.49000000,-17.58000000,-7.57000000
495,1778625437.479388,-0.26000000,0.53000000,0.14000000,-250.49000000,-17.58000000,-7.57000000
496,1778625437.4890392,0.42000000,1.26000000,-0.17000000,-254.94000000,-84.41000000,17.21000000
497,1778625437.4983501,0.42000000,1.26000000,-0.17000000,-254.94000000,-84.41000000,17.21000000
498,1778625437.5094001,0.42000000,1.26000000,-0.17000000,-254.94000000,-84.41000000,17.21000000
499,1778625437.519074,0.42000000,1.26000000,-0.17000000,-254.94000000,-84.41000000,17.21000000
500,1778625437.527967,0.92000000,2.48000000,0.51000000,-282.35000000,-86.30000000,46.75000000
501,1778625437.537666,0.92000000,2.48000000,0.51000000,-282.35000000,-86.30000000,46.75000000
502,1778625437.5469382,0.92000000,2.48000000,0.51000000,-282.35000000,-86.30000000,46.75000000
503,1778625437.561283,0.12000000,3.18000000,-0.30000000,-239.01000000,36.07000000,142.76000000
504,1778625437.566924,0.12000000,3.18000000,-0.30000000,-239.01000000,36.07000000,142.76000000
505,1778625437.578135,0.12000000,3.18000000,-0.30000000,-239.01000000,36.07000000,142.76000000
506,1778625437.587061,0.12000000,3.18000000,-0.30000000,-239.01000000,36.07000000,142.76000000
507,1778625437.598372,0.12000000,3.18000000,-0.30000000,-239.01000000,36.07000000,142.76000000
508,1778625437.607415,0.45000000,0.94000000,0.30000000,-141.36000000,124.27000000,36.74000000
509,1778625437.6209059,0.17000000,0.73000000,0.03000000,-141.36000000,124.27000000,36.74000000
510,1778625437.628704,0.17000000,0.73000000,0.03000000,-88.13000000,138.73000000,30.09000000
511,1778625437.638773,0.17000000,0.73000000,0.03000000,-88.13000000,138.73000000,30.09000000
512,1778625437.647985,0.17000000,0.73000000,0.03000000,-88.13000000,138.73000000,30.09000000
513,1778625437.6575491,0.17000000,0.73000000,0.03000000,-88.13000000,138.73000000,30.09000000
514,1778625437.666892,0.04000000,0.75000000,0.01000000,48.34000000,124.21000000,45.04000000
515,1778625437.67797,0.04000000,0.75000000,0.01000000,48.34000000,124.21000000,45.04000000
516,1778625437.687467,0.04000000,0.75000000,0.01000000,48.34000000,124.21000000,45.04000000
517,1778625437.697928,-0.59000000,0.03000000,-0.33000000,48.34000000,124.21000000,45.04000000
518,1778625437.708024,-0.59000000,0.03000000,-0.33000000,166.08000000,138.12000000,-5.80000000
519,1778625437.717522,-0.59000000,0.03000000,-0.33000000,166.08000000,138.12000000,-5.80000000
520,1778625437.727966,-0.59000000,0.03000000,-0.33000000,166.08000000,138.12000000,-5.80000000
521,1778625437.7395399,-0.76000000,-0.59000000,-0.59000000,301.21000000,-212.83000000,-32.23000000
522,1778625437.7483761,-0.76000000,-0.59000000,-0.59000000,301.21000000,-212.83000000,-32.23000000
523,1778625437.7584288,-0.76000000,-0.59000000,-0.59000000,301.21000000,-212.83000000,-32.23000000
524,1778625437.767785,-0.76000000,-0.59000000,-0.59000000,301.21000000,-212.83000000,-32.23000000
525,1778625437.778808,0.48000000,0.19000000,-0.17000000,274.60000000,-224.06000000,-89.17000000
526,1778625437.787392,0.48000000,0.19000000,-0.17000000,274.60000000,-224.06000000,-89.17000000
527,1778625437.7987242,0.48000000,0.19000000,-0.17000000,274.60000000,-224.06000000,-89.17000000
528,1778625437.810102,0.48000000,0.19000000,-0.17000000,274.60000000,-224.06000000,-89.17000000
529,1778625437.820241,0.48000000,0.19000000,-0.17000000,274.60000000,-224.06000000,-89.17000000
530,1778625437.828768,0.48000000,0.19000000,-0.17000000,274.60000000,-224.06000000,-89.17000000
531,1778625437.837603,0.48000000,0.19000000,-0.17000000,274.60000000,-224.06000000,-89.17000000
532,1778625437.848115,0.48000000,0.19000000,-0.17000000,274.60000000,-224.06000000,-89.17000000
533,1778625437.8586571,0.48000000,0.19000000,-0.17000000,274.60000000,-224.06000000,-89.17000000
534,1778625437.8669891,0.48000000,0.19000000,-0.17000000,274.60000000,-224.06000000,-89.17000000
535,1778625437.879084,0.30000000,0.68000000,0.02000000,5.07000000,-341.25000000,118.35000000
536,1778625437.888574,0.30000000,0.68000000,0.02000000,5.07000000,-341.25000000,118.35000000
537,1778625437.898222,-0.32000000,0.69000000,-0.53000000,70.98000000,-194.03000000,4.64000000
538,1778625437.908582,-0.32000000,0.69000000,-0.53000000,70.98000000,-194.03000000,4.64000000
539,1778625437.916888,-0.32000000,0.69000000,-0.53000000,70.98000000,-194.03000000,4.64000000
540,1778625437.929472,-0.32000000,0.69000000,-0.53000000,70.98000000,-194.03000000,4.64000000
541,1778625437.9375901,0.16000000,2.04000000,-0.74000000,-13.00000000,-27.89000000,-38.51000000
542,1778625437.9483762,0.16000000,2.04000000,-0.74000000,-13.00000000,-27.89000000,-38.51000000
543,1778625437.957168,0.16000000,2.04000000,-0.74000000,-13.00000000,-27.89000000,-38.51000000
544,1778625437.968362,0.16000000,2.04000000,-0.74000000,-13.00000000,-27.89000000,-38.51000000
545,1778625437.980833,0.11000000,1.77000000,-0.67000000,109.80000000,-116.58000000,-24.41000000
546,1778625437.987583,0.11000000,1.77000000,-0.67000000,109.80000000,-116.58000000,-24.41000000
547,1778625437.998045,0.11000000,1.77000000,-0.67000000,109.80000000,-116.58000000,-24.41000000
548,1778625438.007981,0.11000000,1.77000000,-0.67000000,109.80000000,-116.58000000,-24.41000000
549,1778625438.019661,-0.10000000,1.97000000,-0.28000000,79.77000000,21.06000000,-20.26000000
550,1778625438.026956,-0.10000000,1.97000000,-0.28000000,79.77000000,21.06000000,-20.26000000
551,1778625438.037271,0.07000000,2.03000000,-0.34000000,79.77000000,21.06000000,-20.26000000
552,1778625438.049193,0.07000000,2.03000000,-0.34000000,94.48000000,-119.20000000,-12.51000000
553,1778625438.056891,0.07000000,2.03000000,-0.34000000,94.48000000,-119.20000000,-12.51000000
554,1778625438.067034,0.07000000,2.03000000,-0.34000000,94.48000000,-119.20000000,-12.51000000
555,1778625438.078269,0.60000000,1.87000000,-0.17000000,105.65000000,-130.37000000,-26.43000000
556,1778625438.090229,0.60000000,1.87000000,-0.17000000,105.65000000,-130.37000000,-26.43000000
557,1778625438.098461,0.60000000,1.87000000,-0.17000000,105.65000000,-130.37000000,-26.43000000
558,1778625438.108381,0.60000000,1.87000000,-0.17000000,105.65000000,-130.37000000,-26.43000000
559,1778625438.121114,0.53000000,1.01000000,0.12000000,101.07000000,-140.44000000,6.77000000
560,1778625438.1288052,0.53000000,1.01000000,0.12000000,101.07000000,-140.44000000,6.77000000
561,1778625438.138164,0.53000000,1.01000000,0.12000000,101.07000000,-140.44000000,6.77000000
562,1778625438.1482859,0.53000000,1.01000000,0.12000000,101.07000000,-140.44000000,6.77000000
563,1778625438.15696,0.47000000,0.60000000,0.58000000,86.61000000,-96.19000000,-5.92000000
564,1778625438.167264,0.47000000,0.60000000,0.58000000,86.61000000,-96.19000000,-5.92000000
565,1778625438.177977,0.47000000,0.60000000,0.58000000,86.61000000,-96.19000000,-5.92000000
566,1778625438.187339,0.47000000,0.60000000,0.58000000,86.61000000,-96.19000000,-5.92000000
567,1778625438.1991801,0.47000000,0.60000000,0.58000000,86.61000000,-96.19000000,-5.92000000
568,1778625438.208106,0.47000000,0.60000000,0.58000000,86.61000000,-96.19000000,-5.92000000
569,1778625438.217383,0.47000000,0.60000000,0.58000000,86.61000000,-96.19000000,-5.92000000
570,1778625438.229023,0.47000000,0.60000000,0.58000000,86.61000000,-96.19000000,-5.92000000
571,1778625438.239489,0.47000000,0.60000000,0.58000000,86.61000000,-96.19000000,-5.92000000
572,1778625438.248134,0.47000000,0.60000000,0.58000000,86.61000000,-96.19000000,-5.92000000
573,1778625438.2568698,0.47000000,0.60000000,0.58000000,86.61000000,-96.19000000,-5.92000000
574,1778625438.268291,0.12000000,0.19000000,0.40000000,-122.01000000,47.36000000,58.29000000
575,1778625438.279231,0.12000000,0.19000000,0.40000000,-122.01000000,47.36000000,58.29000000
576,1778625438.287288,0.12000000,0.19000000,0.40000000,-122.01000000,47.36000000,58.29000000
577,1778625438.298939,0.19000000,0.85000000,-0.09000000,-161.74000000,110.41000000,44.01000000
578,1778625438.309408,0.19000000,0.85000000,-0.09000000,-161.74000000,110.41000000,44.01000000
579,1778625438.317247,0.19000000,0.85000000,-0.09000000,-161.74000000,110.41000000,44.01000000
580,1778625438.330446,0.19000000,0.85000000,-0.09000000,-161.74000000,110.41000000,44.01000000
581,1778625438.338206,0.19000000,0.85000000,-0.09000000,-161.74000000,110.41000000,44.01000000
582,1778625438.349497,0.19000000,0.85000000,-0.09000000,-161.74000000,110.41000000,44.01000000
583,1778625438.36038,0.19000000,0.85000000,-0.09000000,-161.74000000,110.41000000,44.01000000
584,1778625438.366894,0.19000000,0.85000000,-0.09000000,-161.74000000,110.41000000,44.01000000
585,1778625438.379447,0.19000000,0.85000000,-0.09000000,-161.74000000,110.41000000,44.01000000
586,1778625438.387985,0.19000000,0.85000000,-0.09000000,-161.74000000,110.41000000,44.01000000
587,1778625438.398119,-0.66000000,3.22000000,-0.47000000,-255.86000000,30.46000000,93.69000000
588,1778625438.407319,-0.66000000,3.22000000,-0.47000000,-255.86000000,30.46000000,93.69000000
589,1778625438.41932,-0.66000000,3.22000000,-0.47000000,-255.86000000,30.46000000,93.69000000
590,1778625438.428837,-0.66000000,3.22000000,-0.47000000,-255.86000000,30.46000000,93.69000000
591,1778625438.437293,-0.04000000,2.55000000,0.42000000,-130.92000000,-202.09000000,107.67000000
592,1778625438.448318,-0.04000000,2.55000000,0.42000000,-130.92000000,-202.09000000,107.67000000
593,1778625438.457082,0.69000000,2.03000000,-0.10000000,-185.91000000,39.73000000,84.05000000
594,1778625438.4701781,0.69000000,2.03000000,-0.10000000,-185.91000000,39.73000000,84.05000000
595,1778625438.478812,0.69000000,2.03000000,-0.10000000,-185.91000000,39.73000000,84.05000000
596,1778625438.487329,0.69000000,2.03000000,-0.10000000,-185.91000000,39.73000000,84.05000000
597,1778625438.498854,-0.22000000,1.05000000,-0.24000000,-114.75000000,146.24000000,4.33000000
598,1778625438.508349,-0.22000000,1.05000000,-0.24000000,-114.75000000,146.24000000,4.33000000
599,1778625438.516895,-0.22000000,1.05000000,-0.24000000,-114.75000000,146.24000000,4.33000000
600,1778625438.5298471,-0.22000000,1.05000000,-0.24000000,-114.75000000,146.24000000,4.33000000
601,1778625438.5374908,-0.56000000,0.21000000,-0.19000000,-18.07000000,101.07000000,-30.58000000
602,1778625438.548212,-0.56000000,0.21000000,-0.19000000,-18.07000000,101.07000000,-30.58000000
603,1778625438.5584562,-0.56000000,0.21000000,-0.19000000,-18.07000000,101.07000000,-30.58000000
604,1778625438.570462,-0.51000000,-0.41000000,-0.42000000,88.75000000,-40.34000000,-46.26000000
605,1778625438.5788128,-0.51000000,-0.41000000,-0.42000000,88.75000000,-40.34000000,-46.26000000
606,1778625438.587318,-0.51000000,-0.41000000,-0.42000000,88.75000000,-40.34000000,-46.26000000
607,1778625438.598381,-0.51000000,-0.41000000,-0.42000000,88.75000000,-40.34000000,-46.26000000
608,1778625438.6078248,-0.05000000,-0.43000000,-0.64000000,204.28000000,-155.70000000,-33.33000000
609,1778625438.620943,-0.05000000,-0.43000000,-0.64000000,204.28000000,-155.70000000,-33.33000000
610,1778625438.6288939,-0.05000000,-0.43000000,-0.64000000,204.28000000,-155.70000000,-33.33000000
611,1778625438.6379242,-0.05000000,-0.43000000,-0.64000000,204.28000000,-155.70000000,-33.33000000
612,1778625438.648265,0.51000000,0.53000000,0.15000000,204.28000000,-155.70000000,-33.33000000
613,1778625438.6574988,0.51000000,0.53000000,0.15000000,178.77000000,-105.83000000,-46.75000000
614,1778625438.667237,0.51000000,0.53000000,0.15000000,178.77000000,-105.83000000,-46.75000000
615,1778625438.679428,0.51000000,0.53000000,0.15000000,178.77000000,-105.83000000,-46.75000000
616,1778625438.753154,0.18000000,1.29000000,1.08000000,4.33000000,-160.58000000,28.32000000
617,1778625438.7647722,0.18000000,1.29000000,1.08000000,4.33000000,-160.58000000,28.32000000
618,1778625438.7739341,0.18000000,1.29000000,1.08000000,4.33000000,-160.58000000,28.32000000
619,1778625438.784214,0.18000000,1.29000000,1.08000000,4.33000000,-160.58000000,28.32000000
620,1778625438.793416,0.03000000,0.30000000,-0.47000000,-103.58000000,-106.93000000,20.94000000
621,1778625438.802911,0.03000000,0.30000000,-0.47000000,-103.58000000,-106.93000000,20.94000000
622,1778625438.813835,0.03000000,0.30000000,-0.47000000,-103.58000000,-106.93000000,20.94000000
623,1778625438.822496,0.17000000,1.03000000,-1.24000000,-103.58000000,-106.93000000,20.94000000
624,1778625438.834702,0.17000000,1.03000000,-1.24000000,27.22000000,-25.15000000,-48.40000000
625,1778625438.8426838,0.17000000,1.03000000,-1.24000000,27.22000000,-25.15000000,-48.40000000
626,1778625438.853158,0.17000000,1.03000000,-1.24000000,27.22000000,-25.15000000,-48.40000000
627,1778625438.8646872,-0.36000000,1.81000000,-1.40000000,37.90000000,-128.30000000,-10.01000000
628,1778625438.872742,-0.36000000,1.81000000,-1.40000000,37.90000000,-128.30000000,-10.01000000
629,1778625438.883306,-0.36000000,1.81000000,-1.40000000,37.90000000,-128.30000000,-10.01000000
630,1778625438.895007,-0.35000000,0.91000000,-0.53000000,37.90000000,-128.30000000,-10.01000000
631,1778625438.903795,-0.35000000,0.91000000,-0.53000000,42.54000000,-38.39000000,-8.36000000
632,1778625438.913852,-0.35000000,0.91000000,-0.53000000,42.54000000,-38.39000000,-8.36000000
633,1778625438.922533,-0.35000000,0.91000000,-0.53000000,42.54000000,-38.39000000,-8.36000000
634,1778625438.9326851,-0.35000000,0.91000000,-0.53000000,42.54000000,-38.39000000,-8.36000000
635,1778625438.944043,-0.35000000,0.91000000,-0.53000000,42.54000000,-38.39000000,-8.36000000
636,1778625438.9536698,-0.35000000,0.91000000,-0.53000000,42.54000000,-38.39000000,-8.36000000
637,1778625438.9642031,-0.35000000,0.91000000,-0.53000000,42.54000000,-38.39000000,-8.36000000
638,1778625438.9736161,-0.35000000,0.91000000,-0.53000000,42.54000000,-38.39000000,-8.36000000
639,1778625438.98513,-0.35000000,0.91000000,-0.53000000,42.54000000,-38.39000000,-8.36000000
640,1778625438.993588,0.75000000,1.88000000,-0.32000000,69.15000000,-70.01000000,-41.44000000
641,1778625439.004249,0.75000000,1.88000000,-0.32000000,69.15000000,-70.01000000,-41.44000000
642,1778625439.01386,0.59000000,1.51000000,-0.37000000,69.15000000,-70.01000000,-41.44000000
643,1778625439.023668,0.59000000,1.51000000,-0.37000000,122.19000000,-18.01000000,-32.53000000
644,1778625439.03274,0.59000000,1.51000000,-0.37000000,122.19000000,-18.01000000,-32.53000000
645,1778625439.043573,0.67000000,1.27000000,0.14000000,144.59000000,-67.57000000,-11.11000000
646,1778625439.053765,0.67000000,1.27000000,0.14000000,144.59000000,-67.57000000,-11.11000000
647,1778625439.063974,0.67000000,1.27000000,0.14000000,144.59000000,-67.57000000,-11.11000000
648,1778625439.073705,0.67000000,1.27000000,0.14000000,144.59000000,-67.57000000,-11.11000000
649,1778625439.082695,0.67000000,1.27000000,0.14000000,144.59000000,-67.57000000,-11.11000000
650,1778625439.095838,0.17000000,1.05000000,0.64000000,123.96000000,-131.84000000,6.71000000
651,1778625439.103172,0.17000000,1.05000000,0.64000000,123.96000000,-131.84000000,6.71000000
652,1778625439.114024,0.17000000,1.05000000,0.64000000,123.96000000,-131.84000000,6.71000000
653,1778625439.124958,0.17000000,1.05000000,0.64000000,123.96000000,-131.84000000,6.71000000
654,1778625439.13344,0.11000000,0.70000000,0.76000000,75.44000000,-108.15000000,2.01000000
655,1778625439.1457229,0.11000000,0.70000000,0.76000000,75.44000000,-108.15000000,2.01000000
656,1778625439.153434,0.11000000,0.70000000,0.76000000,75.44000000,-108.15000000,2.01000000
657,1778625439.1641212,0.76000000,0.26000000,0.84000000,-73.18000000,-79.35000000,14.04000000
658,1778625439.172524,0.76000000,0.26000000,0.84000000,-73.18000000,-79.35000000,14.04000000
659,1778625439.182505,0.76000000,0.26000000,0.84000000,-73.18000000,-79.35000000,14.04000000
660,1778625439.1936052,0.76000000,0.26000000,0.84000000,-73.18000000,-79.35000000,14.04000000
661,1778625439.2036731,0.39000000,0.24000000,0.44000000,-140.08000000,-37.05000000,52.73000000
662,1778625439.215957,0.39000000,0.24000000,0.44000000,-140.08000000,-37.05000000,52.73000000
663,1778625439.222668,0.39000000,0.24000000,0.44000000,-140.08000000,-37.05000000,52.73000000
664,1778625439.2325828,0.39000000,0.24000000,0.44000000,-140.08000000,-37.05000000,52.73000000
665,1778625439.2439559,0.21000000,0.90000000,0.16000000,-157.65000000,44.01000000,55.79000000
666,1778625439.253928,0.21000000,0.90000000,0.16000000,-157.65000000,44.01000000,55.79000000
667,1778625439.264808,0.21000000,0.90000000,0.16000000,-157.65000000,44.01000000,55.79000000
668,1778625439.2735941,0.21000000,0.90000000,0.16000000,-157.65000000,44.01000000,55.79000000
669,1778625439.2830012,0.10000000,2.01000000,0.02000000,-202.15000000,59.02000000,70.68000000
670,1778625439.292751,0.10000000,2.01000000,0.02000000,-202.15000000,59.02000000,70.68000000
671,1778625439.303322,0.10000000,2.01000000,0.02000000,-202.15000000,59.02000000,70.68000000
672,1778625439.314189,0.10000000,2.01000000,0.02000000,-202.15000000,59.02000000,70.68000000
673,1778625439.322633,0.10000000,2.01000000,0.02000000,-202.15000000,59.02000000,70.68000000
674,1778625439.335776,0.10000000,2.01000000,0.02000000,-202.15000000,59.02000000,70.68000000
675,1778625439.343588,0.10000000,2.01000000,0.02000000,-202.15000000,59.02000000,70.68000000
676,1778625439.3548858,0.10000000,2.01000000,0.02000000,-202.15000000,59.02000000,70.68000000
677,1778625439.3645608,0.10000000,2.01000000,0.02000000,-202.15000000,59.02000000,70.68000000
678,1778625439.373613,0.10000000,2.01000000,0.02000000,-202.15000000,59.02000000,70.68000000
679,1778625439.383606,-0.12000000,2.26000000,-0.16000000,-151.61000000,-152.04000000,76.29000000
680,1778625439.393383,0.63000000,1.71000000,0.03000000,-186.40000000,10.31000000,53.22000000
681,1778625439.403317,0.63000000,1.71000000,0.03000000,-186.40000000,10.31000000,53.22000000
682,1778625439.414177,0.63000000,1.71000000,0.03000000,-186.40000000,10.31000000,53.22000000
683,1778625439.42513,-0.15000000,0.86000000,-0.08000000,-186.40000000,10.31000000,53.22000000
684,1778625439.436207,-0.15000000,0.86000000,-0.08000000,-186.40000000,10.31000000,53.22000000
685,1778625439.443578,-0.15000000,0.86000000,-0.08000000,-186.40000000,10.31000000,53.22000000
686,1778625439.453562,-0.15000000,0.86000000,-0.08000000,-186.40000000,10.31000000,53.22000000
687,1778625439.464087,-0.15000000,0.86000000,-0.08000000,-186.40000000,10.31000000,53.22000000
688,1778625439.472539,-0.15000000,0.86000000,-0.08000000,-186.40000000,10.31000000,53.22000000
689,1778625439.483199,-0.15000000,0.86000000,-0.08000000,-186.40000000,10.31000000,53.22000000
690,1778625439.4925451,-0.15000000,0.86000000,-0.08000000,-186.40000000,10.31000000,53.22000000
691,1778625439.5042071,-0.15000000,0.86000000,-0.08000000,-186.40000000,10.31000000,53.22000000
692,1778625439.5147169,-0.36000000,-0.19000000,-0.42000000,99.61000000,-83.80000000,-58.04000000
693,1778625439.522528,-0.36000000,-0.19000000,-0.42000000,99.61000000,-83.80000000,-58.04000000
694,1778625439.5325382,-0.36000000,-0.19000000,-0.42000000,99.61000000,-83.80000000,-58.04000000
695,1778625439.544024,-0.36000000,-0.19000000,-0.42000000,99.61000000,-83.80000000,-58.04000000
696,1778625439.553941,-0.30000000,-0.32000000,-0.86000000,230.16000000,-253.23000000,-29.66000000
697,1778625439.5642161,-0.30000000,-0.32000000,-0.86000000,230.16000000,-253.23000000,-29.66000000
698,1778625439.573051,-0.30000000,-0.32000000,-0.86000000,230.16000000,-253.23000000,-29.66000000
699,1778625439.5838249,0.59000000,0.56000000,0.26000000,156.31000000,-79.10000000,-75.44000000
700,1778625439.596575,0.59000000,0.56000000,0.26000000,156.31000000,-79.10000000,-75.44000000
701,1778625439.6030169,0.59000000,0.56000000,0.26000000,156.31000000,-79.10000000,-75.44000000
702,1778625439.614552,1.00000000,2.09000000,1.95000000,156.31000000,-79.10000000,-75.44000000
703,1778625439.626045,1.00000000,2.09000000,1.95000000,-126.34000000,-83.25000000,66.53000000
704,1778625439.632527,1.00000000,2.09000000,1.95000000,-126.34000000,-83.25000000,66.53000000
705,1778625439.6436439,1.00000000,2.09000000,1.95000000,-126.34000000,-83.25000000,66.53000000
706,1778625439.653904,0.08000000,0.23000000,-1.64000000,29.11000000,-224.30000000,64.15000000
707,1778625439.66429,0.08000000,0.23000000,-1.64000000,29.11000000,-224.30000000,64.15000000
708,1778625439.673586,0.08000000,0.23000000,-1.64000000,29.11000000,-224.30000000,64.15000000
709,1778625439.686699,0.08000000,0.23000000,-1.64000000,29.11000000,-224.30000000,64.15000000
710,1778625439.692821,0.08000000,0.23000000,-1.64000000,29.11000000,-224.30000000,64.15000000
711,1778625439.703655,-0.49000000,2.45000000,0.01000000,-12.15000000,-306.95000000,-32.78000000
712,1778625439.714132,-0.49000000,2.45000000,0.01000000,-12.15000000,-306.95000000,-32.78000000
713,1778625439.722506,-0.49000000,2.45000000,0.01000000,-12.15000000,-306.95000000,-32.78000000
714,1778625439.732575,-0.49000000,2.45000000,0.01000000,-12.15000000,-306.95000000,-32.78000000
715,1778625439.743582,-0.25000000,1.19000000,-0.90000000,22.83000000,-230.41000000,17.27000000
716,1778625439.7537012,-0.25000000,1.19000000,-0.90000000,22.83000000,-230.41000000,17.27000000
717,1778625439.7641852,-0.25000000,1.19000000,-0.90000000,22.83000000,-230.41000000,17.27000000
718,1778625439.772533,0.14000000,0.99000000,-0.73000000,84.11000000,-121.28000000,-8.48000000
719,1778625439.782491,0.14000000,0.99000000,-0.73000000,84.11000000,-121.28000000,-8.48000000
720,1778625439.793588,0.14000000,0.99000000,-0.73000000,84.11000000,-121.28000000,-8.48000000
721,1778625439.803444,0.14000000,0.99000000,-0.73000000,84.11000000,-121.28000000,-8.48000000
722,1778625439.814358,0.70000000,2.03000000,-0.42000000,54.50000000,-46.75000000,-37.05000000
723,1778625439.8228931,0.70000000,2.03000000,-0.42000000,54.50000000,-46.75000000,-37.05000000
724,1778625439.835279,0.70000000,2.03000000,-0.42000000,54.50000000,-46.75000000,-37.05000000
725,1778625439.8440151,0.51000000,1.57000000,-0.22000000,72.20000000,-94.12000000,-31.37000000
726,1778625439.8535712,0.51000000,1.57000000,-0.22000000,72.20000000,-94.12000000,-31.37000000
727,1778625439.864361,0.51000000,1.57000000,-0.22000000,72.20000000,-94.12000000,-31.37000000
728,1778625439.873627,0.51000000,1.57000000,-0.22000000,72.20000000,-94.12000000,-31.37000000
729,1778625439.884702,0.51000000,1.57000000,-0.22000000,72.20000000,-94.12000000,-31.37000000
730,1778625439.893575,0.45000000,1.44000000,-0.16000000,72.20000000,-94.12000000,-31.37000000
731,1778625439.903408,0.45000000,1.44000000,-0.16000000,105.41000000,-52.73000000,-23.38000000
732,1778625439.914212,0.81000000,1.19000000,0.44000000,106.45000000,-135.68000000,4.94000000
733,1778625439.922688,0.81000000,1.19000000,0.44000000,106.45000000,-135.68000000,4.94000000
734,1778625439.932579,0.81000000,1.19000000,0.44000000,106.45000000,-135.68000000,4.94000000
735,1778625439.943582,0.81000000,1.19000000,0.44000000,106.45000000,-135.68000000,4.94000000
736,1778625439.953533,0.81000000,1.19000000,0.44000000,106.45000000,-135.68000000,4.94000000
737,1778625439.9641652,0.81000000,1.19000000,0.44000000,106.45000000,-135.68000000,4.94000000
738,1778625439.9740422,0.81000000,1.19000000,0.44000000,106.45000000,-135.68000000,4.94000000
739,1778625439.983006,0.81000000,1.19000000,0.44000000,106.45000000,-135.68000000,4.94000000
740,1778625439.99399,0.81000000,1.19000000,0.44000000,106.45000000,-135.68000000,4.94000000
741,1778625440.0049431,0.81000000,1.19000000,0.44000000,106.45000000,-135.68000000,4.94000000
742,1778625440.014125,0.81000000,1.19000000,0.44000000,106.45000000,-135.68000000,4.94000000
743,1778625440.022908,0.81000000,1.19000000,0.44000000,106.45000000,-135.68000000,4.94000000
744,1778625440.03297,0.81000000,1.19000000,0.44000000,106.45000000,-135.68000000,4.94000000
745,1778625440.045246,0.05000000,0.36000000,0.48000000,-111.94000000,-115.66000000,63.84000000
746,1778625440.053474,0.05000000,0.36000000,0.48000000,-111.94000000,-115.66000000,63.84000000
747,1778625440.065671,-0.28000000,0.60000000,0.33000000,-111.94000000,-115.66000000,63.84000000
748,1778625440.0737212,-0.28000000,0.60000000,0.33000000,-111.94000000,-115.66000000,63.84000000
749,1778625440.083678,-0.28000000,0.60000000,0.33000000,-146.55000000,-33.75000000,48.83000000
750,1778625440.093608,-0.28000000,0.60000000,0.33000000,-146.55000000,-33.75000000,48.83000000
751,1778625440.103363,-0.11000000,1.18000000,0.16000000,-178.71000000,-15.50000000,27.04000000
752,1778625440.114187,-0.11000000,1.18000000,0.16000000,-178.71000000,-15.50000000,27.04000000
753,1778625440.122559,-0.11000000,1.18000000,0.16000000,-178.71000000,-15.50000000,27.04000000
754,1778625440.132604,-0.11000000,1.18000000,0.16000000,-178.71000000,-15.50000000,27.04000000
755,1778625440.143747,-0.14000000,2.04000000,-0.11000000,-231.45000000,-40.77000000,37.96000000
756,1778625440.1527958,-0.14000000,2.04000000,-0.11000000,-231.45000000,-40.77000000,37.96000000
757,1778625440.1643982,-0.14000000,2.04000000,-0.11000000,-231.45000000,-40.77000000,37.96000000
758,1778625440.173731,-0.14000000,2.04000000,-0.11000000,-231.45000000,-40.77000000,37.96000000
759,1778625440.182545,-0.60000000,2.96000000,-0.42000000,-241.39000000,-144.29000000,20.51000000
760,1778625440.1937332,-0.60000000,2.96000000,-0.42000000,-241.39000000,-144.29000000,20.51000000
761,1778625440.203498,-0.60000000,2.96000000,-0.42000000,-241.39000000,-144.29000000,20.51000000
762,1778625440.214261,-0.60000000,2.96000000,-0.42000000,-241.39000000,-144.29000000,20.51000000
763,1778625440.222551,0.37000000,2.22000000,0.10000000,-220.64000000,-55.42000000,35.28000000
764,1778625440.2325509,0.37000000,2.22000000,0.10000000,-220.64000000,-55.42000000,35.28000000
765,1778625440.243575,0.37000000,2.22000000,0.10000000,-220.64000000,-55.42000000,35.28000000
766,1778625440.253407,0.37000000,2.22000000,0.10000000,-220.64000000,-55.42000000,35.28000000
767,1778625440.264791,0.37000000,2.22000000,0.10000000,-220.64000000,-55.42000000,35.28000000
768,1778625440.272823,-0.05000000,1.66000000,0.01000000,-182.43000000,23.13000000,5.98000000
769,1778625440.285374,-0.05000000,1.66000000,0.01000000,-182.43000000,23.13000000,5.98000000
770,1778625440.304322,-0.05000000,1.66000000,0.01000000,-182.43000000,23.13000000,5.98000000
771,1778625440.304364,-0.05000000,1.66000000,0.01000000,-182.43000000,23.13000000,5.98000000
772,1778625440.324275,0.08000000,0.97000000,0.16000000,-84.90000000,71.72000000,-29.30000000
773,1778625440.3242922,0.08000000,0.97000000,0.16000000,-84.90000000,71.72000000,-29.30000000
774,1778625440.3330839,-0.11000000,0.30000000,-0.07000000,1.22000000,53.22000000,-69.27000000
775,1778625440.34713,-0.11000000,0.30000000,-0.07000000,1.22000000,53.22000000,-69.27000000
776,1778625440.3525279,-0.11000000,0.30000000,-0.07000000,1.22000000,53.22000000,-69.27000000
777,1778625440.366869,-0.11000000,0.30000000,-0.07000000,1.22000000,53.22000000,-69.27000000
778,1778625440.372552,-0.11000000,0.30000000,-0.07000000,1.22000000,53.22000000,-69.27000000
779,1778625440.3825421,-0.11000000,0.30000000,-0.07000000,1.22000000,53.22000000,-69.27000000
780,1778625440.393584,-0.11000000,0.30000000,-0.07000000,1.22000000,53.22000000,-69.27000000
781,1778625440.403463,-0.11000000,0.30000000,-0.07000000,1.22000000,53.22000000,-69.27000000
782,1778625440.414266,-0.11000000,0.30000000,-0.07000000,1.22000000,53.22000000,-69.27000000
783,1778625440.425972,-0.11000000,0.30000000,-0.07000000,1.22000000,53.22000000,-69.27000000
784,1778625440.433602,0.26000000,0.42000000,0.25000000,129.46000000,-109.74000000,-80.99000000
785,1778625440.443595,0.26000000,0.42000000,0.25000000,129.46000000,-109.74000000,-80.99000000
786,1778625440.4553611,0.23000000,0.92000000,0.26000000,49.32000000,-164.86000000,-17.33000000
787,1778625440.4628448,0.23000000,0.92000000,0.26000000,49.32000000,-164.86000000,-17.33000000
788,1778625440.4735749,0.23000000,0.92000000,0.26000000,49.32000000,-164.86000000,-17.33000000
789,1778625440.483024,0.23000000,0.92000000,0.26000000,49.32000000,-164.86000000,-17.33000000
790,1778625440.493613,0.23000000,0.92000000,0.26000000,49.32000000,-164.86000000,-17.33000000
791,1778625440.50501,0.23000000,0.92000000,0.26000000,49.32000000,-164.86000000,-17.33000000
792,1778625440.513056,0.23000000,0.92000000,0.26000000,49.32000000,-164.86000000,-17.33000000
793,1778625440.522639,0.23000000,0.92000000,0.26000000,49.32000000,-164.86000000,-17.33000000
794,1778625440.532647,0.23000000,0.92000000,0.26000000,49.32000000,-164.86000000,-17.33000000
795,1778625440.542573,0.23000000,0.92000000,0.26000000,49.32000000,-164.86000000,-17.33000000
796,1778625440.5536299,0.23000000,0.92000000,0.26000000,49.32000000,-164.86000000,-17.33000000
797,1778625440.5647428,-0.08000000,1.23000000,-1.03000000,143.01000000,-72.02000000,0.85000000
798,1778625440.572572,0.50000000,2.05000000,0.99000000,19.96000000,-180.91000000,-17.88000000
799,1778625440.583284,0.50000000,2.05000000,0.99000000,19.96000000,-180.91000000,-17.88000000
800,1778625440.593808,0.50000000,2.05000000,0.99000000,19.96000000,-180.91000000,-17.88000000
801,1778625440.604557,-0.10000000,1.25000000,-0.24000000,19.96000000,-180.91000000,-17.88000000
802,1778625440.61647,-0.10000000,1.25000000,-0.24000000,21.91000000,-134.09000000,-30.52000000
803,1778625440.622593,-0.10000000,1.25000000,-0.24000000,21.91000000,-134.09000000,-30.52000000
804,1778625440.63286,-0.10000000,1.25000000,-0.24000000,21.91000000,-134.09000000,-30.52000000
805,1778625440.643601,-0.10000000,1.25000000,-0.24000000,21.91000000,-134.09000000,-30.52000000
806,1778625440.654206,0.61000000,1.28000000,-0.79000000,62.62000000,-124.27000000,-48.77000000
807,1778625440.665906,0.61000000,1.28000000,-0.79000000,62.62000000,-124.27000000,-48.77000000
808,1778625440.672516,0.61000000,1.28000000,-0.79000000,62.62000000,-124.27000000,-48.77000000
809,1778625440.686935,1.55000000,2.15000000,0.42000000,227.29000000,63.42000000,-62.32000000
810,1778625440.6936069,1.55000000,2.15000000,0.42000000,227.29000000,63.42000000,-62.32000000
811,1778625440.705536,1.55000000,2.15000000,0.42000000,227.29000000,63.42000000,-62.32000000
812,1778625440.7132218,0.17000000,1.55000000,0.23000000,227.29000000,63.42000000,-62.32000000
813,1778625440.726722,0.17000000,1.55000000,0.23000000,141.05000000,18.49000000,7.32000000
814,1778625440.732587,0.17000000,1.55000000,0.23000000,141.05000000,18.49000000,7.32000000
815,1778625440.743089,0.17000000,1.55000000,0.23000000,141.05000000,18.49000000,7.32000000
816,1778625440.75413,0.17000000,1.55000000,0.23000000,141.05000000,18.49000000,7.32000000
817,1778625440.7650251,0.17000000,1.55000000,0.23000000,141.05000000,18.49000000,7.32000000
818,1778625440.77376,-0.76000000,1.58000000,0.79000000,118.65000000,-13.92000000,-7.20000000
819,1778625440.786548,-0.76000000,1.58000000,0.79000000,118.65000000,-13.92000000,-7.20000000
820,1778625440.793607,0.37000000,0.85000000,0.65000000,55.85000000,-119.08000000,-49.80000000
821,1778625440.804151,0.37000000,0.85000000,0.65000000,55.85000000,-119.08000000,-49.80000000
822,1778625440.816375,0.37000000,0.85000000,0.65000000,55.85000000,-119.08000000,-49.80000000
823,1778625440.823761,0.37000000,0.85000000,0.65000000,55.85000000,-119.08000000,-49.80000000
824,1778625440.83528,0.71000000,0.26000000,1.09000000,-22.28000000,-55.42000000,-43.03000000
825,1778625440.843599,0.71000000,0.26000000,1.09000000,-22.28000000,-55.42000000,-43.03000000
826,1778625440.855573,0.71000000,0.26000000,1.09000000,-22.28000000,-55.42000000,-43.03000000
827,1778625440.864059,0.71000000,0.26000000,1.09000000,-22.28000000,-55.42000000,-43.03000000
828,1778625440.8735921,0.72000000,0.12000000,0.42000000,-101.32000000,14.53000000,1.71000000
829,1778625440.883013,0.72000000,0.12000000,0.42000000,-101.32000000,14.53000000,1.71000000
830,1778625440.8940768,0.72000000,0.12000000,0.42000000,-101.32000000,14.53000000,1.71000000
831,1778625440.904078,0.72000000,0.12000000,0.42000000,-101.32000000,14.53000000,1.71000000
832,1778625440.91639,0.03000000,0.63000000,0.43000000,-146.00000000,114.62000000,5.00000000
833,1778625440.92254,0.03000000,0.63000000,0.43000000,-146.00000000,114.62000000,5.00000000
834,1778625440.93695,0.03000000,0.63000000,0.43000000,-146.00000000,114.62000000,5.00000000
835,1778625440.943603,0.03000000,0.63000000,0.43000000,-146.00000000,114.62000000,5.00000000
836,1778625440.9537148,0.03000000,0.63000000,0.43000000,-146.00000000,114.62000000,5.00000000
837,1778625440.96644,0.92000000,1.19000000,-0.05000000,-196.47000000,163.02000000,8.48000000
838,1778625440.972537,0.92000000,1.19000000,-0.05000000,-196.47000000,163.02000000,8.48000000
839,1778625440.985168,1.17000000,2.34000000,-0.24000000,-196.47000000,163.02000000,8.48000000
840,1778625440.993599,1.17000000,2.34000000,-0.24000000,-220.46000000,229.80000000,52.61000000
841,1778625441.006409,1.17000000,2.34000000,-0.24000000,-220.46000000,229.80000000,52.61000000
842,1778625441.012522,1.17000000,2.34000000,-0.24000000,-220.46000000,229.80000000,52.61000000
843,1778625441.027224,1.17000000,2.34000000,-0.24000000,-220.46000000,229.80000000,52.61000000
844,1778625441.032583,1.17000000,2.34000000,-0.24000000,-220.46000000,229.80000000,52.61000000
845,1778625441.044203,1.17000000,2.34000000,-0.24000000,-220.46000000,229.80000000,52.61000000
846,1778625441.055119,1.17000000,2.34000000,-0.24000000,-220.46000000,229.80000000,52.61000000
847,1778625441.062699,1.17000000,2.34000000,-0.24000000,-220.46000000,229.80000000,52.61000000
848,1778625441.07391,1.17000000,2.34000000,-0.24000000,-220.46000000,229.80000000,52.61000000
849,1778625441.082609,1.17000000,2.34000000,-0.24000000,-220.46000000,229.80000000,52.61000000
850,1778625441.093596,0.48000000,1.88000000,-0.44000000,-160.95000000,88.99000000,164.49000000
851,1778625441.104078,0.48000000,1.88000000,-0.44000000,-127.69000000,249.21000000,102.91000000
852,1778625441.1222541,0.48000000,1.88000000,-0.44000000,-127.69000000,249.21000000,102.91000000
853,1778625441.126404,0.48000000,1.88000000,-0.44000000,-127.69000000,249.21000000,102.91000000
854,1778625441.132805,-0.46000000,0.56000000,-0.29000000,-42.66000000,235.90000000,40.95000000
855,1778625441.144278,-0.46000000,0.56000000,-0.29000000,-42.66000000,235.90000000,40.95000000
856,1778625441.153899,-0.46000000,0.56000000,-0.29000000,-42.66000000,235.90000000,40.95000000
857,1778625441.164703,-0.46000000,0.56000000,-0.29000000,-42.66000000,235.90000000,40.95000000
858,1778625441.1737149,-0.60000000,-0.11000000,-0.31000000,64.15000000,100.40000000,10.07000000
859,1778625441.182611,-0.60000000,-0.11000000,-0.31000000,64.15000000,100.40000000,10.07000000
860,1778625441.193851,-0.60000000,-0.11000000,-0.31000000,64.15000000,100.40000000,10.07000000
861,1778625441.2038772,-0.60000000,-0.11000000,-0.31000000,64.15000000,100.40000000,10.07000000
862,1778625441.212694,-0.72000000,-0.44000000,-0.42000000,126.59000000,-61.71000000,-3.97000000
863,1778625441.227097,-0.72000000,-0.44000000,-0.42000000,126.59000000,-61.71000000,-3.97000000
864,1778625441.232544,-0.72000000,-0.44000000,-0.42000000,126.59000000,-61.71000000,-3.97000000
865,1778625441.244201,-0.72000000,-0.44000000,-0.42000000,126.59000000,-61.71000000,-3.97000000
866,1778625441.254698,-0.18000000,-0.10000000,-0.20000000,198.91000000,-199.34000000,-18.07000000
867,1778625441.26271,-0.18000000,-0.10000000,-0.20000000,198.91000000,-199.34000000,-18.07000000
868,1778625441.272824,-0.18000000,-0.10000000,-0.20000000,198.91000000,-199.34000000,-18.07000000
869,1778625441.282523,0.41000000,0.14000000,0.24000000,122.07000000,-75.68000000,-4.88000000
870,1778625441.2931159,0.41000000,0.14000000,0.24000000,122.07000000,-75.68000000,-4.88000000
871,1778625441.304807,0.41000000,0.14000000,0.24000000,122.07000000,-75.68000000,-4.88000000
872,1778625441.314359,0.41000000,0.14000000,0.24000000,122.07000000,-75.68000000,-4.88000000
873,1778625441.324855,0.29000000,1.29000000,1.31000000,29.48000000,-12.15000000,73.12000000
874,1778625441.333123,0.29000000,1.29000000,1.31000000,29.48000000,-12.15000000,73.12000000
875,1778625441.346826,0.29000000,1.29000000,1.31000000,29.48000000,-12.15000000,73.12000000
876,1778625441.353513,0.29000000,1.29000000,1.31000000,29.48000000,-12.15000000,73.12000000
877,1778625441.366155,0.02000000,0.21000000,-1.30000000,-26.98000000,-140.62000000,135.38000000
878,1778625441.372582,0.02000000,0.21000000,-1.30000000,-26.98000000,-140.62000000,135.38000000
879,1778625441.382709,0.02000000,0.21000000,-1.30000000,-26.98000000,-140.62000000,135.38000000
880,1778625441.392554,0.23000000,1.39000000,-1.33000000,93.44000000,-92.41000000,-94.18000000
881,1778625441.403743,0.23000000,1.39000000,-1.33000000,93.44000000,-92.41000000,-94.18000000
882,1778625441.414731,0.23000000,1.39000000,-1.33000000,93.44000000,-92.41000000,-94.18000000
883,1778625441.422708,0.23000000,1.39000000,-1.33000000,93.44000000,-92.41000000,-94.18000000
884,1778625441.432584,0.23000000,1.39000000,-1.33000000,93.44000000,-92.41000000,-94.18000000
885,1778625441.445289,0.23000000,1.39000000,-1.33000000,93.44000000,-92.41000000,-94.18000000
886,1778625441.4537501,0.23000000,1.39000000,-1.33000000,93.44000000,-92.41000000,-94.18000000
887,1778625441.4649549,0.23000000,1.39000000,-1.33000000,93.44000000,-92.41000000,-94.18000000
888,1778625441.473623,-1.03000000,0.66000000,-0.76000000,26.61000000,-169.56000000,27.89000000
889,1778625441.482532,-1.03000000,0.66000000,-0.76000000,26.61000000,-169.56000000,27.89000000
890,1778625441.4966679,-1.03000000,0.66000000,-0.76000000,26.61000000,-169.56000000,27.89000000
891,1778625441.503218,-1.03000000,0.66000000,-0.76000000,26.61000000,-169.56000000,27.89000000
892,1778625441.515012,-0.07000000,1.57000000,-1.01000000,121.22000000,-181.76000000,-20.87000000
893,1778625441.5225668,-0.07000000,1.57000000,-1.01000000,121.22000000,-181.76000000,-20.87000000
894,1778625441.5325341,-0.07000000,1.57000000,-1.01000000,121.22000000,-181.76000000,-20.87000000
895,1778625441.5455208,-0.07000000,1.57000000,-1.01000000,121.22000000,-181.76000000,-20.87000000
896,1778625441.553856,-0.07000000,1.57000000,-1.01000000,121.22000000,-181.76000000,-20.87000000
897,1778625441.5646899,-0.07000000,1.57000000,-1.01000000,121.22000000,-181.76000000,-20.87000000
898,1778625441.5737321,-0.07000000,1.57000000,-1.01000000,121.22000000,-181.76000000,-20.87000000
899,1778625441.582525,-0.07000000,1.57000000,-1.01000000,121.22000000,-181.76000000,-20.87000000
900,1778625441.596896,-0.07000000,1.57000000,-1.01000000,121.22000000,-181.76000000,-20.87000000
901,1778625441.603379,-0.07000000,1.57000000,-1.01000000,121.22000000,-181.76000000,-20.87000000
902,1778625441.614826,-0.10000000,1.51000000,0.35000000,124.94000000,-205.44000000,-1.28000000
903,1778625441.625246,-0.10000000,1.51000000,0.35000000,124.94000000,-205.44000000,-1.28000000
904,1778625441.636084,-0.10000000,1.51000000,0.35000000,124.94000000,-205.44000000,-1.28000000
905,1778625441.64483,-0.10000000,1.51000000,0.35000000,124.94000000,-205.44000000,-1.28000000
906,1778625441.655749,0.86000000,0.55000000,0.65000000,39.00000000,-196.29000000,-8.36000000
907,1778625441.663542,0.86000000,0.55000000,0.65000000,39.00000000,-196.29000000,-8.36000000
908,1778625441.673537,0.86000000,0.55000000,0.65000000,39.00000000,-196.29000000,-8.36000000
909,1778625441.6845381,0.86000000,0.55000000,0.65000000,39.00000000,-196.29000000,-8.36000000
910,1778625441.6942022,0.86000000,0.55000000,0.65000000,39.00000000,-196.29000000,-8.36000000
911,1778625441.704242,0.54000000,0.08000000,0.79000000,-23.99000000,-122.99000000,28.56000000
912,1778625441.714068,0.54000000,0.08000000,0.79000000,-23.99000000,-122.99000000,28.56000000
913,1778625441.722968,0.54000000,0.08000000,0.79000000,-23.99000000,-122.99000000,28.56000000
914,1778625441.7325609,0.43000000,0.34000000,0.42000000,-79.96000000,-131.65000000,72.08000000
915,1778625441.743697,0.43000000,0.34000000,0.42000000,-79.96000000,-131.65000000,72.08000000
916,1778625441.755966,0.43000000,0.34000000,0.42000000,-79.96000000,-131.65000000,72.08000000
917,1778625441.762722,0.43000000,0.34000000,0.42000000,-79.96000000,-131.65000000,72.08000000
918,1778625441.7747982,0.05000000,0.61000000,0.58000000,-114.01000000,-16.17000000,48.52000000
919,1778625441.783891,0.05000000,0.61000000,0.58000000,-114.01000000,-16.17000000,48.52000000
920,1778625441.792775,0.05000000,0.61000000,0.58000000,-114.01000000,-16.17000000,48.52000000
921,1778625441.806196,0.15000000,1.35000000,0.01000000,-149.66000000,62.19000000,40.41000000
922,1778625441.813368,0.15000000,1.35000000,0.01000000,-149.66000000,62.19000000,40.41000000
923,1778625441.825423,0.15000000,1.35000000,0.01000000,-149.66000000,62.19000000,40.41000000
924,1778625441.835299,0.15000000,1.35000000,0.01000000,-149.66000000,62.19000000,40.41000000
925,1778625441.843858,0.15000000,2.10000000,0.13000000,-189.82000000,55.48000000,45.04000000
926,1778625441.854224,0.15000000,2.10000000,0.13000000,-189.82000000,55.48000000,45.04000000
927,1778625441.8644202,0.15000000,2.10000000,0.13000000,-189.82000000,55.48000000,45.04000000
928,1778625441.873476,0.15000000,2.10000000,0.13000000,-189.82000000,55.48000000,45.04000000
929,1778625441.883935,-0.30000000,2.50000000,-0.36000000,-209.66000000,-92.29000000,91.25000000
930,1778625441.894847,-0.30000000,2.50000000,-0.36000000,-209.66000000,-92.29000000,91.25000000
931,1778625441.90479,-0.30000000,2.50000000,-0.36000000,-209.66000000,-92.29000000,91.25000000
932,1778625441.91258,-0.30000000,2.50000000,-0.36000000,-209.66000000,-92.29000000,91.25000000
933,1778625441.924138,0.42000000,2.03000000,0.04000000,-85.02000000,-68.54000000,91.00000000
934,1778625441.933312,0.42000000,2.03000000,0.04000000,-85.02000000,-68.54000000,91.00000000
935,1778625441.9455638,0.42000000,2.03000000,0.04000000,-85.02000000,-68.54000000,91.00000000
936,1778625441.9570172,0.42000000,2.03000000,0.04000000,-85.02000000,-68.54000000,91.00000000
937,1778625441.962657,0.07000000,1.69000000,-0.23000000,-162.96000000,79.71000000,36.87000000
938,1778625441.975807,0.07000000,1.69000000,-0.23000000,-162.96000000,79.71000000,36.87000000
939,1778625441.983271,0.07000000,1.69000000,-0.23000000,-162.96000000,79.71000000,36.87000000
940,1778625441.993751,0.07000000,1.69000000,-0.23000000,-162.96000000,79.71000000,36.87000000
941,1778625442.0062752,-0.10000000,0.83000000,-0.24000000,-90.64000000,117.37000000,-23.07000000
942,1778625442.013869,-0.10000000,0.83000000,-0.24000000,-90.64000000,117.37000000,-23.07000000
943,1778625442.0239518,-0.10000000,0.83000000,-0.24000000,-90.64000000,117.37000000,-23.07000000
944,1778625442.033837,-0.56000000,-0.02000000,-0.38000000,23.32000000,35.03000000,-31.92000000
945,1778625442.043935,-0.56000000,-0.02000000,-0.38000000,23.32000000,35.03000000,-31.92000000
946,1778625442.0541592,-0.56000000,-0.02000000,-0.38000000,23.32000000,35.03000000,-31.92000000
947,1778625442.0627148,-0.56000000,-0.02000000,-0.38000000,23.32000000,35.03000000,-31.92000000
948,1778625442.073173,-0.56000000,-0.02000000,-0.38000000,23.32000000,35.03000000,-31.92000000
949,1778625442.082656,-0.56000000,-0.02000000,-0.38000000,23.32000000,35.03000000,-31.92000000
950,1778625442.0959868,-0.56000000,-0.02000000,-0.38000000,23.32000000,35.03000000,-31.92000000
951,1778625442.1034439,-0.56000000,-0.02000000,-0.38000000,23.32000000,35.03000000,-31.92000000
952,1778625442.114756,-0.56000000,-0.02000000,-0.38000000,23.32000000,35.03000000,-31.92000000
953,1778625442.123009,-0.56000000,-0.02000000,-0.38000000,23.32000000,35.03000000,-31.92000000
954,1778625442.132766,-0.56000000,-0.02000000,-0.38000000,23.32000000,35.03000000,-31.92000000
955,1778625442.1460211,0.74000000,1.32000000,2.30000000,-11.29000000,-289.79000000,67.38000000
956,1778625442.1533709,0.74000000,1.32000000,2.30000000,-11.29000000,-289.79000000,67.38000000
957,1778625442.164984,0.74000000,1.32000000,2.30000000,-11.29000000,-289.79000000,67.38000000
958,1778625442.1729379,0.74000000,1.32000000,2.30000000,-11.29000000,-289.79000000,67.38000000
959,1778625442.183276,0.70000000,-0.21000000,-2.23000000,15.99000000,-33.75000000,68.73000000
960,1778625442.1955168,0.70000000,-0.21000000,-2.23000000,15.99000000,-33.75000000,68.73000000
961,1778625442.205246,0.70000000,-0.21000000,-2.23000000,15.99000000,-33.75000000,68.73000000
962,1778625442.21359,0.70000000,-0.21000000,-2.23000000,15.99000000,-33.75000000,68.73000000
963,1778625442.222741,-0.12000000,1.89000000,-1.30000000,27.65000000,-270.57000000,-71.72000000
964,1778625442.232726,-0.12000000,1.89000000,-1.30000000,27.65000000,-270.57000000,-71.72000000
965,1778625442.2456472,-0.12000000,1.89000000,-1.30000000,27.65000000,-270.57000000,-71.72000000
966,1778625442.2541718,-0.12000000,1.89000000,-1.30000000,27.65000000,-270.57000000,-71.72000000
967,1778625442.2647948,-0.51000000,1.44000000,-1.79000000,-80.20000000,20.81000000,-34.06000000
968,1778625442.273695,-0.51000000,1.44000000,-1.79000000,-80.20000000,20.81000000,-34.06000000
969,1778625442.28547,-0.51000000,1.44000000,-1.79000000,-80.20000000,20.81000000,-34.06000000
970,1778625442.295659,-0.37000000,0.25000000,-0.95000000,-80.20000000,20.81000000,-34.06000000
971,1778625442.3033102,-0.37000000,0.25000000,-0.95000000,93.57000000,-253.72000000,7.57000000
972,1778625442.314914,-0.37000000,0.25000000,-0.95000000,93.57000000,-253.72000000,7.57000000
973,1778625442.323715,-0.37000000,0.25000000,-0.95000000,93.57000000,-253.72000000,7.57000000
974,1778625442.334507,0.64000000,2.44000000,-0.10000000,10.19000000,39.31000000,-66.47000000
975,1778625442.34569,0.64000000,2.44000000,-0.10000000,10.19000000,39.31000000,-66.47000000
976,1778625442.3570151,0.64000000,2.44000000,-0.10000000,10.19000000,39.31000000,-66.47000000
977,1778625442.3651369,0.64000000,2.44000000,-0.10000000,10.19000000,39.31000000,-66.47000000
978,1778625442.372898,1.27000000,1.89000000,0.10000000,124.27000000,-224.12000000,14.89000000
979,1778625442.382592,1.27000000,1.89000000,0.10000000,124.27000000,-224.12000000,14.89000000
980,1778625442.396375,1.27000000,1.89000000,0.10000000,124.27000000,-224.12000000,14.89000000
981,1778625442.404542,1.27000000,1.89000000,0.10000000,124.27000000,-224.12000000,14.89000000
982,1778625442.4143748,0.09000000,1.83000000,0.04000000,104.49000000,-49.07000000,-37.90000000
983,1778625442.424149,0.09000000,1.83000000,0.04000000,104.49000000,-49.07000000,-37.90000000
984,1778625442.433184,0.09000000,1.83000000,0.04000000,104.49000000,-49.07000000,-37.90000000
985,1778625442.445635,0.57000000,1.56000000,0.31000000,80.26000000,-198.18000000,9.16000000
986,1778625442.4546728,0.57000000,1.56000000,0.31000000,80.26000000,-198.18000000,9.16000000
987,1778625442.464403,0.57000000,1.56000000,0.31000000,80.26000000,-198.18000000,9.16000000
988,1778625442.47316,0.57000000,1.56000000,0.31000000,80.26000000,-198.18000000,9.16000000
989,1778625442.485409,0.57000000,1.56000000,0.31000000,80.26000000,-198.18000000,9.16000000
990,1778625442.495643,0.57000000,1.56000000,0.31000000,80.26000000,-198.18000000,9.16000000
991,1778625442.504856,0.57000000,1.56000000,0.31000000,80.26000000,-198.18000000,9.16000000
992,1778625442.51281,0.57000000,1.56000000,0.31000000,80.26000000,-198.18000000,9.16000000
993,1778625442.522899,0.57000000,1.56000000,0.31000000,80.26000000,-198.18000000,9.16000000
994,1778625442.532576,0.24000000,0.56000000,1.03000000,8.48000000,-93.63000000,-7.69000000
995,1778625442.545642,0.24000000,0.56000000,1.03000000,8.48000000,-93.63000000,-7.69000000
996,1778625442.552707,0.24000000,0.56000000,1.03000000,8.48000000,-93.63000000,-7.69000000
997,1778625442.565973,0.68000000,0.16000000,0.45000000,-99.43000000,-179.50000000,30.64000000
998,1778625442.5731578,0.68000000,0.16000000,0.45000000,-99.43000000,-179.50000000,30.64000000
999,1778625442.583659,0.68000000,0.16000000,0.45000000,-99.43000000,-179.50000000,30.64000000
1000,1778625442.593507,0.68000000,0.16000000,0.45000000,-99.43000000,-179.50000000,30.64000000
