id,timestamp,acc_x,acc_y,acc_z,gyro_x,gyro_y,gyro_z
1,1778626090.779097,-2.36000000,0.52000000,1.96000000,2.69000000,-12.45000000,18.92000000
2,1778626090.78916,-2.36000000,0.52000000,1.96000000,2.69000000,-12.45000000,18.92000000
3,1778626090.800591,-2.36000000,0.52000000,1.96000000,2.69000000,-12.45000000,18.92000000
4,1778626090.809345,-1.88000000,-0.16000000,1.40000000,18.80000000,85.14000000,78.92000000
5,1778626090.819697,-1.88000000,-0.16000000,1.40000000,18.80000000,85.14000000,78.92000000
6,1778626090.8291352,-1.88000000,-0.16000000,1.40000000,18.80000000,85.14000000,78.92000000
7,1778626090.839155,-1.88000000,-0.16000000,1.40000000,18.80000000,85.14000000,78.92000000
8,1778626090.850553,-2.01000000,0.01000000,1.77000000,44.25000000,83.44000000,112.85000000
9,1778626090.859463,-2.01000000,0.01000000,1.77000000,44.25000000,83.44000000,112.85000000
10,1778626090.8691509,-2.01000000,0.01000000,1.77000000,44.25000000,83.44000000,112.85000000
11,1778626090.8792162,-2.01000000,0.01000000,1.77000000,44.25000000,83.44000000,112.85000000
12,1778626090.889175,-1.96000000,-0.40000000,1.87000000,64.33000000,166.14000000,110.05000000
13,1778626090.901152,-1.96000000,-0.40000000,1.87000000,64.33000000,166.14000000,110.05000000
14,1778626090.911097,-1.96000000,-0.40000000,1.87000000,64.33000000,166.14000000,110.05000000
15,1778626090.919368,-1.80000000,-0.57000000,1.66000000,44.74000000,169.49000000,192.14000000
16,1778626090.929127,-1.80000000,-0.57000000,1.66000000,44.74000000,169.49000000,192.14000000
17,1778626090.939213,-1.80000000,-0.57000000,1.66000000,44.74000000,169.49000000,192.14000000
18,1778626090.950541,-1.80000000,-0.57000000,1.66000000,44.74000000,169.49000000,192.14000000
19,1778626090.959658,-1.72000000,-0.23000000,1.73000000,75.68000000,150.33000000,245.61000000
20,1778626090.9696379,-1.72000000,-0.23000000,1.73000000,75.68000000,150.33000000,245.61000000
21,1778626090.97917,-1.72000000,-0.23000000,1.73000000,75.68000000,150.33000000,245.61000000
22,1778626090.989147,-1.46000000,-0.44000000,1.72000000,75.68000000,150.33000000,245.61000000
23,1778626091.000793,-1.46000000,-0.44000000,1.72000000,86.91000000,249.15000000,189.27000000
24,1778626091.009156,-1.46000000,-0.44000000,1.72000000,86.91000000,249.15000000,189.27000000
25,1778626091.0211809,-1.46000000,-0.44000000,1.72000000,86.91000000,249.15000000,189.27000000
26,1778626091.029655,-1.21000000,-0.81000000,1.41000000,86.91000000,249.15000000,189.27000000
27,1778626091.039864,-1.21000000,-0.81000000,1.41000000,70.43000000,274.60000000,194.82000000
28,1778626091.04953,-1.21000000,-0.81000000,1.41000000,70.43000000,274.60000000,194.82000000
29,1778626091.0615308,-1.21000000,-0.81000000,1.41000000,70.43000000,274.60000000,194.82000000
30,1778626091.071015,-0.98000000,-0.54000000,1.37000000,66.53000000,243.53000000,243.59000000
31,1778626091.0797849,-0.98000000,-0.54000000,1.37000000,66.53000000,243.53000000,243.59000000
32,1778626091.0914319,-0.98000000,-0.54000000,1.37000000,66.53000000,243.53000000,243.59000000
33,1778626091.101047,-0.98000000,-0.54000000,1.37000000,66.53000000,243.53000000,243.59000000
34,1778626091.109167,-0.98000000,-0.54000000,1.37000000,66.53000000,243.53000000,243.59000000
35,1778626091.1192188,-0.98000000,-0.54000000,1.37000000,66.53000000,243.53000000,243.59000000
36,1778626091.129981,-0.98000000,-0.54000000,1.37000000,66.53000000,243.53000000,243.59000000
37,1778626091.1414049,-0.98000000,-0.54000000,1.37000000,66.53000000,243.53000000,243.59000000
38,1778626091.151057,-0.98000000,-0.54000000,1.37000000,66.53000000,243.53000000,243.59000000
39,1778626091.159373,-0.98000000,-0.54000000,1.37000000,66.53000000,243.53000000,243.59000000
40,1778626091.169693,-0.98000000,-0.54000000,1.37000000,66.53000000,243.53000000,243.59000000
41,1778626091.179708,-0.98000000,-0.54000000,1.37000000,66.53000000,243.53000000,243.59000000
42,1778626091.189207,-0.36000000,-0.40000000,0.43000000,17.52000000,202.70000000,217.29000000
43,1778626091.199144,-0.36000000,-0.40000000,0.43000000,17.52000000,202.70000000,217.29000000
44,1778626091.209325,-0.36000000,-0.40000000,0.43000000,17.52000000,202.70000000,217.29000000
45,1778626091.219603,-0.07000000,0.04000000,0.89000000,17.52000000,202.70000000,217.29000000
46,1778626091.229315,-0.07000000,0.04000000,0.89000000,58.04000000,111.08000000,293.09000000
47,1778626091.239126,-0.07000000,0.04000000,0.89000000,58.04000000,111.08000000,293.09000000
48,1778626091.249978,-0.07000000,0.04000000,0.89000000,58.04000000,111.08000000,293.09000000
49,1778626091.2614322,-0.04000000,-0.01000000,0.68000000,100.71000000,104.19000000,243.53000000
50,1778626091.270273,-0.04000000,-0.01000000,0.68000000,100.71000000,104.19000000,243.53000000
51,1778626091.2791429,-0.04000000,-0.01000000,0.68000000,100.71000000,104.19000000,243.53000000
52,1778626091.28915,-0.04000000,-0.01000000,0.68000000,100.71000000,104.19000000,243.53000000
53,1778626091.3010838,0.30000000,-0.12000000,0.24000000,66.16000000,154.30000000,146.97000000
54,1778626091.30949,0.30000000,-0.12000000,0.24000000,66.16000000,154.30000000,146.97000000
55,1778626091.3194408,0.30000000,-0.12000000,0.24000000,66.16000000,154.30000000,146.97000000
56,1778626091.329613,0.30000000,-0.12000000,0.24000000,66.16000000,154.30000000,146.97000000
57,1778626091.341179,0.46000000,-0.17000000,0.01000000,75.56000000,93.75000000,136.72000000
58,1778626091.35111,0.46000000,-0.17000000,0.01000000,75.56000000,93.75000000,136.72000000
59,1778626091.3594282,0.46000000,-0.17000000,0.01000000,75.56000000,93.75000000,136.72000000
60,1778626091.3696299,0.47000000,-0.13000000,-0.13000000,75.56000000,93.75000000,136.72000000
61,1778626091.3792598,0.47000000,-0.13000000,-0.13000000,21.61000000,97.66000000,110.41000000
62,1778626091.389149,0.47000000,-0.13000000,-0.13000000,21.61000000,97.66000000,110.41000000
63,1778626091.401619,0.47000000,-0.13000000,-0.13000000,21.61000000,97.66000000,110.41000000
64,1778626091.410978,0.84000000,-0.06000000,-0.35000000,-3.05000000,87.89000000,114.69000000
65,1778626091.4194539,0.84000000,-0.06000000,-0.35000000,-3.05000000,87.89000000,114.69000000
66,1778626091.429158,0.84000000,-0.06000000,-0.35000000,-3.05000000,87.89000000,114.69000000
67,1778626091.439134,0.84000000,-0.06000000,-0.35000000,-3.05000000,87.89000000,114.69000000
68,1778626091.451383,1.14000000,0.28000000,-0.19000000,-11.84000000,-1.34000000,180.42000000
69,1778626091.459472,1.14000000,0.28000000,-0.19000000,-11.84000000,-1.34000000,180.42000000
70,1778626091.469429,1.14000000,0.28000000,-0.19000000,-11.84000000,-1.34000000,180.42000000
71,1778626091.481102,1.14000000,0.28000000,-0.19000000,-11.84000000,-1.34000000,180.42000000
72,1778626091.489884,1.68000000,0.64000000,-0.20000000,-47.12000000,0.49000000,109.68000000
73,1778626091.501493,1.68000000,0.64000000,-0.20000000,-47.12000000,0.49000000,109.68000000
74,1778626091.509645,1.68000000,0.64000000,-0.20000000,-47.12000000,0.49000000,109.68000000
75,1778626091.5203252,1.68000000,0.64000000,-0.20000000,-47.12000000,0.49000000,109.68000000
76,1778626091.5291479,1.68000000,0.64000000,-0.20000000,-47.12000000,0.49000000,109.68000000
77,1778626091.539197,1.68000000,0.64000000,-0.20000000,-47.12000000,0.49000000,109.68000000
78,1778626091.5494132,1.68000000,0.64000000,-0.20000000,-47.12000000,0.49000000,109.68000000
79,1778626091.559435,1.68000000,0.64000000,-0.20000000,-47.12000000,0.49000000,109.68000000
80,1778626091.5708458,1.68000000,0.64000000,-0.20000000,-47.12000000,0.49000000,109.68000000
81,1778626091.581161,1.93000000,0.74000000,-0.46000000,4.39000000,-43.03000000,0.55000000
82,1778626091.589188,1.93000000,0.74000000,-0.46000000,4.39000000,-43.03000000,0.55000000
83,1778626091.600311,1.74000000,0.75000000,-0.50000000,-7.20000000,-73.36000000,-70.50000000
84,1778626091.609452,1.74000000,0.75000000,-0.50000000,-7.20000000,-73.36000000,-70.50000000
85,1778626091.619735,1.74000000,0.75000000,-0.50000000,-7.20000000,-73.36000000,-70.50000000
86,1778626091.629498,1.74000000,0.75000000,-0.50000000,-7.20000000,-73.36000000,-70.50000000
87,1778626091.639168,1.74000000,0.75000000,-0.50000000,-7.20000000,-73.36000000,-70.50000000
88,1778626091.6506839,1.74000000,0.75000000,-0.50000000,-7.20000000,-73.36000000,-70.50000000
89,1778626091.659473,1.74000000,0.75000000,-0.50000000,-7.20000000,-73.36000000,-70.50000000
90,1778626091.669612,1.74000000,0.75000000,-0.50000000,-7.20000000,-73.36000000,-70.50000000
91,1778626091.6798599,1.74000000,0.75000000,-0.50000000,-7.20000000,-73.36000000,-70.50000000
92,1778626091.689506,1.74000000,0.75000000,-0.50000000,-7.20000000,-73.36000000,-70.50000000
93,1778626091.700566,1.74000000,0.75000000,-0.50000000,-7.20000000,-73.36000000,-70.50000000
94,1778626091.710836,0.89000000,0.36000000,-0.26000000,-26.79000000,-108.95000000,-151.92000000
95,1778626091.719266,0.50000000,0.07000000,-0.21000000,-41.87000000,-102.42000000,-186.95000000
96,1778626091.729172,0.50000000,0.07000000,-0.21000000,-41.87000000,-102.42000000,-186.95000000
97,1778626091.740396,0.50000000,0.07000000,-0.21000000,-41.87000000,-102.42000000,-186.95000000
98,1778626091.75013,0.28000000,-0.06000000,-0.03000000,-43.64000000,-132.75000000,-168.58000000
99,1778626091.759464,0.28000000,-0.06000000,-0.03000000,-43.64000000,-132.75000000,-168.58000000
100,1778626091.7696378,0.28000000,-0.06000000,-0.03000000,-43.64000000,-132.75000000,-168.58000000
101,1778626091.7791371,0.28000000,-0.06000000,-0.03000000,-43.64000000,-132.75000000,-168.58000000
102,1778626091.789376,0.01000000,-0.14000000,0.21000000,-43.21000000,-180.36000000,-157.59000000
103,1778626091.801315,0.01000000,-0.14000000,0.21000000,-43.21000000,-180.36000000,-157.59000000
104,1778626091.8094552,0.01000000,-0.14000000,0.21000000,-43.21000000,-180.36000000,-157.59000000
105,1778626091.820075,0.01000000,-0.14000000,0.21000000,-43.21000000,-180.36000000,-157.59000000
106,1778626091.8291452,-0.17000000,-0.10000000,0.40000000,-53.59000000,-140.26000000,-213.26000000
107,1778626091.839165,-0.17000000,-0.10000000,0.40000000,-53.59000000,-140.26000000,-213.26000000
108,1778626091.8494668,-0.17000000,-0.10000000,0.40000000,-53.59000000,-140.26000000,-213.26000000
109,1778626091.8592682,-0.17000000,-0.10000000,0.40000000,-53.59000000,-140.26000000,-213.26000000
110,1778626091.869601,-0.39000000,-0.26000000,0.55000000,-26.49000000,-190.55000000,-226.07000000
111,1778626091.8814762,-0.39000000,-0.26000000,0.55000000,-26.49000000,-190.55000000,-226.07000000
112,1778626091.889148,-0.39000000,-0.26000000,0.55000000,-26.49000000,-190.55000000,-226.07000000
113,1778626091.901006,-0.39000000,-0.26000000,0.55000000,-26.49000000,-190.55000000,-226.07000000
114,1778626091.909513,-0.91000000,-0.12000000,0.89000000,-42.05000000,-159.48000000,-237.00000000
115,1778626091.919135,-0.91000000,-0.12000000,0.89000000,-42.05000000,-159.48000000,-237.00000000
116,1778626091.929215,-0.91000000,-0.12000000,0.89000000,-42.05000000,-159.48000000,-237.00000000
117,1778626091.939117,-0.91000000,-0.12000000,0.89000000,-42.05000000,-159.48000000,-237.00000000
118,1778626091.951329,-0.98000000,-0.43000000,0.68000000,-22.83000000,-130.49000000,-240.91000000
119,1778626091.959528,-0.98000000,-0.43000000,0.68000000,-22.83000000,-130.49000000,-240.91000000
120,1778626091.969613,-0.98000000,-0.43000000,0.68000000,-22.83000000,-130.49000000,-240.91000000
121,1778626091.979264,-0.99000000,-0.42000000,0.64000000,-22.83000000,-130.49000000,-240.91000000
122,1778626091.991573,-0.99000000,-0.42000000,0.64000000,2.69000000,-203.49000000,-116.39000000
123,1778626091.999268,-0.99000000,-0.42000000,0.64000000,2.69000000,-203.49000000,-116.39000000
124,1778626092.0095081,-0.99000000,-0.42000000,0.64000000,2.69000000,-203.49000000,-116.39000000
125,1778626092.019346,-0.94000000,-0.24000000,0.80000000,-34.36000000,-176.82000000,-143.92000000
126,1778626092.0293372,-0.94000000,-0.24000000,0.80000000,-34.36000000,-176.82000000,-143.92000000
127,1778626092.039198,-0.94000000,-0.24000000,0.80000000,-34.36000000,-176.82000000,-143.92000000
128,1778626092.04932,-0.94000000,-0.24000000,0.80000000,-34.36000000,-176.82000000,-143.92000000
129,1778626092.059541,-1.00000000,-0.08000000,0.84000000,-62.07000000,-179.14000000,-178.41000000
130,1778626092.0692842,-1.00000000,-0.08000000,0.84000000,-62.07000000,-179.14000000,-178.41000000
131,1778626092.07915,-1.00000000,-0.08000000,0.84000000,-62.07000000,-179.14000000,-178.41000000
132,1778626092.090653,-1.00000000,-0.08000000,0.84000000,-62.07000000,-179.14000000,-178.41000000
133,1778626092.0991318,-0.96000000,-0.01000000,0.98000000,-50.66000000,-174.01000000,-205.44000000
134,1778626092.111098,-0.96000000,-0.01000000,0.98000000,-50.66000000,-174.01000000,-205.44000000
135,1778626092.119591,-0.96000000,-0.01000000,0.98000000,-50.66000000,-174.01000000,-205.44000000
136,1778626092.1291652,-0.96000000,-0.01000000,0.98000000,-50.66000000,-174.01000000,-205.44000000
137,1778626092.139491,-1.19000000,-0.29000000,0.96000000,-41.63000000,-190.43000000,-262.02000000
138,1778626092.1515598,-1.19000000,-0.29000000,0.96000000,-41.63000000,-190.43000000,-262.02000000
139,1778626092.15981,-1.19000000,-0.29000000,0.96000000,-41.63000000,-190.43000000,-262.02000000
140,1778626092.169625,-1.19000000,-0.29000000,0.96000000,-41.63000000,-190.43000000,-262.02000000
141,1778626092.179252,-1.19000000,-0.29000000,0.96000000,-41.63000000,-190.43000000,-262.02000000
142,1778626092.190486,-1.19000000,-0.29000000,0.96000000,-41.63000000,-190.43000000,-262.02000000
143,1778626092.201334,-1.19000000,-0.29000000,0.96000000,-41.63000000,-190.43000000,-262.02000000
144,1778626092.209533,-1.19000000,-0.29000000,0.96000000,-41.63000000,-190.43000000,-262.02000000
145,1778626092.219606,-1.19000000,-0.29000000,0.96000000,-41.63000000,-190.43000000,-262.02000000
146,1778626092.229297,-1.19000000,-0.29000000,0.96000000,-41.63000000,-190.43000000,-262.02000000
147,1778626092.241584,-1.79000000,-0.29000000,1.27000000,-28.26000000,-222.05000000,-201.42000000
148,1778626092.2502558,-1.79000000,-0.29000000,1.27000000,-28.26000000,-222.05000000,-201.42000000
149,1778626092.2596061,-2.55000000,-0.50000000,1.67000000,-50.17000000,-160.95000000,-155.46000000
150,1778626092.269658,-2.55000000,-0.50000000,1.67000000,-50.17000000,-160.95000000,-155.46000000
151,1778626092.2801049,-2.55000000,-0.50000000,1.67000000,-50.17000000,-160.95000000,-155.46000000
152,1778626092.289131,-3.08000000,-0.34000000,1.37000000,20.57000000,-104.25000000,-21.12000000
153,1778626092.299368,-3.08000000,-0.34000000,1.37000000,20.57000000,-104.25000000,-21.12000000
154,1778626092.3099608,-3.08000000,-0.23000000,1.21000000,20.57000000,-104.25000000,-21.12000000
155,1778626092.321017,-3.08000000,-0.23000000,1.21000000,-34.91000000,-11.60000000,16.11000000
156,1778626092.330111,-3.08000000,-0.23000000,1.21000000,-34.91000000,-11.60000000,16.11000000
157,1778626092.339763,-3.08000000,-0.23000000,1.21000000,-34.91000000,-11.60000000,16.11000000
158,1778626092.350483,-2.61000000,-0.11000000,1.62000000,13.06000000,100.52000000,70.50000000
159,1778626092.359932,-2.61000000,-0.11000000,1.62000000,13.06000000,100.52000000,70.50000000
160,1778626092.369741,-2.61000000,-0.11000000,1.62000000,13.06000000,100.52000000,70.50000000
161,1778626092.379719,-2.61000000,-0.11000000,1.62000000,13.06000000,100.52000000,70.50000000
162,1778626092.391364,-2.26000000,-0.44000000,1.08000000,13.85000000,123.11000000,157.90000000
163,1778626092.401079,-2.26000000,-0.44000000,1.08000000,13.85000000,123.11000000,157.90000000
164,1778626092.409966,-2.26000000,-0.44000000,1.08000000,13.85000000,123.11000000,157.90000000
165,1778626092.419635,-2.26000000,-0.44000000,1.08000000,13.85000000,123.11000000,157.90000000
166,1778626092.429122,-1.79000000,-0.28000000,1.45000000,12.82000000,159.61000000,196.78000000
167,1778626092.439117,-1.79000000,-0.28000000,1.45000000,12.82000000,159.61000000,196.78000000
168,1778626092.449488,-1.79000000,-0.28000000,1.45000000,12.82000000,159.61000000,196.78000000
169,1778626092.4599402,-1.79000000,-0.28000000,1.45000000,12.82000000,159.61000000,196.78000000
170,1778626092.469661,-1.61000000,-0.37000000,1.62000000,66.41000000,211.43000000,169.07000000
171,1778626092.480129,-1.61000000,-0.37000000,1.62000000,66.41000000,211.43000000,169.07000000
172,1778626092.4900942,-1.61000000,-0.37000000,1.62000000,66.41000000,211.43000000,169.07000000
173,1778626092.500745,-1.35000000,-0.70000000,1.26000000,36.80000000,249.94000000,180.11000000
174,1778626092.509432,-1.35000000,-0.70000000,1.26000000,36.80000000,249.94000000,180.11000000
175,1778626092.520833,-1.35000000,-0.70000000,1.26000000,36.80000000,249.94000000,180.11000000
176,1778626092.5297909,-1.35000000,-0.70000000,1.26000000,36.80000000,249.94000000,180.11000000
177,1778626092.5393128,-1.35000000,-0.70000000,1.26000000,36.80000000,249.94000000,180.11000000
178,1778626092.550072,-1.35000000,-0.70000000,1.26000000,36.80000000,249.94000000,180.11000000
179,1778626092.5596411,-1.35000000,-0.70000000,1.26000000,36.80000000,249.94000000,180.11000000
180,1778626092.5710468,-1.35000000,-0.70000000,1.26000000,36.80000000,249.94000000,180.11000000
181,1778626092.579575,-1.35000000,-0.70000000,1.26000000,36.80000000,249.94000000,180.11000000
182,1778626092.589856,-1.35000000,-0.70000000,1.26000000,36.80000000,249.94000000,180.11000000
183,1778626092.6000352,-1.35000000,-0.70000000,1.26000000,36.80000000,249.94000000,180.11000000
184,1778626092.609971,-1.35000000,-0.70000000,1.26000000,36.80000000,249.94000000,180.11000000
185,1778626092.619634,-1.35000000,-0.70000000,1.26000000,36.80000000,249.94000000,180.11000000
186,1778626092.629463,-0.82000000,-0.94000000,1.10000000,32.78000000,272.64000000,250.43000000
187,1778626092.641536,-0.82000000,-0.94000000,1.10000000,32.78000000,272.64000000,250.43000000
188,1778626092.650989,-0.82000000,-0.94000000,1.10000000,32.78000000,272.64000000,250.43000000
189,1778626092.66051,-0.37000000,-0.75000000,1.07000000,68.66000000,232.36000000,314.03000000
190,1778626092.669636,-0.37000000,-0.75000000,1.07000000,68.66000000,232.36000000,314.03000000
191,1778626092.680207,-0.37000000,-0.75000000,1.07000000,68.66000000,232.36000000,314.03000000
192,1778626092.691338,-0.37000000,-0.75000000,1.07000000,68.66000000,232.36000000,314.03000000
193,1778626092.700211,-0.37000000,-0.75000000,1.07000000,68.66000000,232.36000000,314.03000000
194,1778626092.711096,-0.37000000,-0.75000000,1.07000000,68.66000000,232.36000000,314.03000000
195,1778626092.719928,-0.37000000,-0.75000000,1.07000000,68.66000000,232.36000000,314.03000000
196,1778626092.729877,-0.37000000,-0.75000000,1.07000000,68.66000000,232.36000000,314.03000000
197,1778626092.7406988,-0.37000000,-0.75000000,1.07000000,68.66000000,232.36000000,314.03000000
198,1778626092.749388,-0.37000000,-0.75000000,1.07000000,68.66000000,232.36000000,314.03000000
199,1778626092.761323,0.09000000,-0.19000000,0.35000000,45.17000000,120.12000000,272.03000000
200,1778626092.76977,0.09000000,-0.19000000,0.35000000,45.17000000,120.12000000,272.03000000
201,1778626092.78017,0.09000000,-0.19000000,0.35000000,45.17000000,120.12000000,272.03000000
202,1778626092.789203,0.09000000,-0.19000000,0.35000000,45.17000000,120.12000000,272.03000000
203,1778626092.801249,0.08000000,-0.18000000,0.25000000,64.58000000,138.37000000,225.10000000
204,1778626092.8102,0.08000000,-0.18000000,0.25000000,64.58000000,138.37000000,225.10000000
205,1778626092.820991,0.08000000,-0.18000000,0.25000000,64.58000000,138.37000000,225.10000000
206,1778626092.8302,0.08000000,-0.18000000,0.25000000,64.58000000,138.37000000,225.10000000
207,1778626092.8391309,0.34000000,-0.14000000,0.00000000,35.52000000,146.18000000,206.36000000
208,1778626092.8500228,0.34000000,-0.14000000,0.00000000,35.52000000,146.18000000,206.36000000
209,1778626092.860586,0.34000000,-0.14000000,0.00000000,35.52000000,146.18000000,206.36000000
210,1778626092.86962,0.34000000,-0.14000000,0.00000000,35.52000000,146.18000000,206.36000000
211,1778626092.8802319,0.67000000,-0.08000000,-0.10000000,44.92000000,136.60000000,182.31000000
212,1778626092.889374,0.67000000,-0.08000000,-0.10000000,44.92000000,136.60000000,182.31000000
213,1778626092.899881,0.67000000,-0.08000000,-0.10000000,44.92000000,136.60000000,182.31000000
214,1778626092.910576,0.67000000,-0.08000000,-0.10000000,44.92000000,136.60000000,182.31000000
215,1778626092.919605,1.02000000,-0.08000000,-0.41000000,9.77000000,135.80000000,138.06000000
216,1778626092.929663,1.02000000,-0.08000000,-0.41000000,9.77000000,135.80000000,138.06000000
217,1778626092.941461,1.02000000,-0.08000000,-0.41000000,9.77000000,135.80000000,138.06000000
218,1778626092.9510138,1.02000000,-0.08000000,-0.41000000,9.77000000,135.80000000,138.06000000
219,1778626092.960135,1.43000000,0.23000000,-0.29000000,-21.85000000,42.42000000,189.88000000
220,1778626092.9696121,1.43000000,0.23000000,-0.29000000,-21.85000000,42.42000000,189.88000000
221,1778626092.980221,1.43000000,0.23000000,-0.29000000,-21.85000000,42.42000000,189.88000000
222,1778626092.989109,1.81000000,0.61000000,-0.06000000,21.24000000,46.51000000,94.97000000
223,1778626093.000479,1.81000000,0.61000000,-0.06000000,21.24000000,46.51000000,94.97000000
224,1778626093.010556,1.81000000,0.61000000,-0.06000000,21.24000000,46.51000000,94.97000000
225,1778626093.0204558,1.81000000,0.61000000,-0.06000000,21.24000000,46.51000000,94.97000000
226,1778626093.030247,1.81000000,0.61000000,-0.06000000,21.24000000,46.51000000,94.97000000
227,1778626093.040755,1.81000000,0.61000000,-0.06000000,21.24000000,46.51000000,94.97000000
228,1778626093.05124,2.41000000,-0.03000000,-1.05000000,26.31000000,72.02000000,-38.88000000
229,1778626093.06059,2.41000000,-0.03000000,-1.05000000,26.31000000,72.02000000,-38.88000000
230,1778626093.071172,2.21000000,0.37000000,-0.81000000,15.01000000,-86.12000000,40.47000000
231,1778626093.0802372,2.21000000,0.37000000,-0.81000000,15.01000000,-86.12000000,40.47000000
232,1778626093.089196,2.21000000,0.37000000,-0.81000000,15.01000000,-86.12000000,40.47000000
233,1778626093.099196,1.90000000,0.21000000,-0.77000000,15.01000000,-86.12000000,40.47000000
234,1778626093.110636,1.90000000,0.21000000,-0.77000000,-36.80000000,-80.93000000,-98.51000000
235,1778626093.119623,1.90000000,0.21000000,-0.77000000,-36.80000000,-80.93000000,-98.51000000
236,1778626093.1296031,1.50000000,0.14000000,-0.68000000,-73.67000000,-113.04000000,-116.03000000
237,1778626093.140342,1.50000000,0.14000000,-0.68000000,-73.67000000,-113.04000000,-116.03000000
238,1778626093.151314,1.50000000,0.14000000,-0.68000000,-73.67000000,-113.04000000,-116.03000000
239,1778626093.1605499,1.50000000,0.14000000,-0.68000000,-73.67000000,-113.04000000,-116.03000000
240,1778626093.169633,1.03000000,0.14000000,-0.34000000,-91.13000000,-139.40000000,-138.43000000
241,1778626093.1802711,1.03000000,0.14000000,-0.34000000,-91.13000000,-139.40000000,-138.43000000
242,1778626093.189172,1.03000000,0.14000000,-0.34000000,-91.13000000,-139.40000000,-138.43000000
243,1778626093.200147,1.03000000,0.14000000,-0.34000000,-91.13000000,-139.40000000,-138.43000000
244,1778626093.211048,1.03000000,0.14000000,-0.34000000,-91.13000000,-139.40000000,-138.43000000
245,1778626093.219616,1.03000000,0.14000000,-0.34000000,-91.13000000,-139.40000000,-138.43000000
246,1778626093.2293608,1.03000000,0.14000000,-0.34000000,-91.13000000,-139.40000000,-138.43000000
247,1778626093.2408152,1.03000000,0.14000000,-0.34000000,-91.13000000,-139.40000000,-138.43000000
248,1778626093.250853,1.03000000,0.14000000,-0.34000000,-91.13000000,-139.40000000,-138.43000000
249,1778626093.260601,1.03000000,0.14000000,-0.34000000,-91.13000000,-139.40000000,-138.43000000
250,1778626093.269629,1.03000000,0.14000000,-0.34000000,-91.13000000,-139.40000000,-138.43000000
251,1778626093.280271,1.03000000,0.14000000,-0.34000000,-91.13000000,-139.40000000,-138.43000000
252,1778626093.291318,0.01000000,-0.23000000,0.54000000,-99.30000000,-139.53000000,-228.52000000
253,1778626093.3008819,0.01000000,-0.23000000,0.54000000,-100.52000000,-120.18000000,-260.56000000
254,1778626093.310591,0.01000000,-0.23000000,0.54000000,-100.52000000,-120.18000000,-260.56000000
255,1778626093.3212092,-0.23000000,-0.28000000,0.61000000,-100.52000000,-120.18000000,-260.56000000
256,1778626093.329917,-0.23000000,-0.28000000,0.61000000,-82.40000000,-156.62000000,-254.27000000
257,1778626093.3401878,-0.23000000,-0.28000000,0.61000000,-82.40000000,-156.62000000,-254.27000000
258,1778626093.3513541,-0.23000000,-0.28000000,0.61000000,-82.40000000,-156.62000000,-254.27000000
259,1778626093.3605928,-0.67000000,-0.49000000,0.76000000,-77.94000000,-148.99000000,-268.62000000
260,1778626093.369643,-0.67000000,-0.49000000,0.76000000,-77.94000000,-148.99000000,-268.62000000
261,1778626093.380341,-0.67000000,-0.49000000,0.76000000,-77.94000000,-148.99000000,-268.62000000
262,1778626093.391298,-0.67000000,-0.49000000,0.76000000,-77.94000000,-148.99000000,-268.62000000
263,1778626093.401075,-0.67000000,-0.29000000,0.72000000,-94.79000000,-149.60000000,-197.88000000
264,1778626093.41062,-0.67000000,-0.29000000,0.72000000,-94.79000000,-149.60000000,-197.88000000
265,1778626093.419735,-0.67000000,-0.29000000,0.72000000,-94.79000000,-149.60000000,-197.88000000
266,1778626093.430301,-0.67000000,-0.29000000,0.72000000,-94.79000000,-149.60000000,-197.88000000
267,1778626093.439559,-0.48000000,-0.44000000,0.72000000,-73.06000000,-183.72000000,-194.15000000
268,1778626093.449219,-0.48000000,-0.44000000,0.72000000,-73.06000000,-183.72000000,-194.15000000
269,1778626093.460622,-0.48000000,-0.44000000,0.72000000,-73.06000000,-183.72000000,-194.15000000
270,1778626093.469631,-0.48000000,-0.44000000,0.72000000,-73.06000000,-183.72000000,-194.15000000
271,1778626093.4794261,-0.68000000,-0.41000000,1.03000000,-108.40000000,-154.91000000,-277.40000000
272,1778626093.489229,-0.68000000,-0.41000000,1.03000000,-108.40000000,-154.91000000,-277.40000000
273,1778626093.499617,-0.68000000,-0.41000000,1.03000000,-108.40000000,-154.91000000,-277.40000000
274,1778626093.510658,-0.57000000,-0.85000000,0.91000000,-87.89000000,-138.00000000,-338.26000000
275,1778626093.520446,-0.57000000,-0.85000000,0.91000000,-87.89000000,-138.00000000,-338.26000000
276,1778626093.530401,-0.57000000,-0.85000000,0.91000000,-87.89000000,-138.00000000,-338.26000000
277,1778626093.5401988,-0.57000000,-0.85000000,0.91000000,-87.89000000,-138.00000000,-338.26000000
278,1778626093.549355,-0.61000000,-1.21000000,1.07000000,-68.12000000,-245.79000000,-272.22000000
279,1778626093.560169,-0.61000000,-1.21000000,1.07000000,-68.12000000,-245.79000000,-272.22000000
280,1778626093.5712981,-0.61000000,-1.21000000,1.07000000,-68.12000000,-245.79000000,-272.22000000
281,1778626093.5801651,-1.06000000,-0.91000000,2.16000000,-53.47000000,-245.97000000,-311.34000000
282,1778626093.589459,-1.06000000,-0.91000000,2.16000000,-53.47000000,-245.97000000,-311.34000000
283,1778626093.6013482,-1.06000000,-0.91000000,2.16000000,-53.47000000,-245.97000000,-311.34000000
284,1778626093.6101701,-1.06000000,-0.91000000,2.16000000,-53.47000000,-245.97000000,-311.34000000
285,1778626093.619659,-1.06000000,-0.91000000,2.16000000,-53.47000000,-245.97000000,-311.34000000
286,1778626093.630131,-1.06000000,-0.91000000,2.16000000,-53.47000000,-245.97000000,-311.34000000
287,1778626093.639976,-1.06000000,-0.91000000,2.16000000,-53.47000000,-245.97000000,-311.34000000
288,1778626093.651419,-1.06000000,-0.91000000,2.16000000,-53.47000000,-245.97000000,-311.34000000
289,1778626093.6601841,-1.06000000,-0.91000000,2.16000000,-53.47000000,-245.97000000,-311.34000000
290,1778626093.670739,-2.03000000,-1.47000000,1.30000000,-57.74000000,-222.60000000,-256.65000000
291,1778626093.681032,-2.03000000,-1.47000000,1.30000000,-57.74000000,-222.60000000,-256.65000000
292,1778626093.689164,-2.03000000,-1.47000000,1.30000000,-57.74000000,-222.60000000,-256.65000000
293,1778626093.700214,-2.26000000,-1.06000000,1.24000000,-60.73000000,-267.58000000,-72.81000000
294,1778626093.7110589,-2.26000000,-1.06000000,1.24000000,-60.73000000,-267.58000000,-72.81000000
295,1778626093.719614,-2.26000000,-1.06000000,1.24000000,-60.73000000,-267.58000000,-72.81000000
296,1778626093.7294981,-2.26000000,-1.06000000,1.24000000,-60.73000000,-267.58000000,-72.81000000
297,1778626093.739433,-2.26000000,-1.06000000,1.24000000,-60.73000000,-267.58000000,-72.81000000
298,1778626093.7505689,-2.26000000,-1.06000000,1.24000000,-60.73000000,-267.58000000,-72.81000000
299,1778626093.7601979,-2.26000000,-1.06000000,1.24000000,-60.73000000,-267.58000000,-72.81000000
300,1778626093.7696278,-2.26000000,-1.06000000,1.24000000,-60.73000000,-267.58000000,-72.81000000
301,1778626093.780084,-2.26000000,-1.06000000,1.24000000,-60.73000000,-267.58000000,-72.81000000
302,1778626093.7891462,-2.26000000,-1.06000000,1.24000000,-60.73000000,-267.58000000,-72.81000000
303,1778626093.801644,-2.26000000,-1.06000000,1.24000000,-60.73000000,-267.58000000,-72.81000000
304,1778626093.8102038,-2.36000000,-1.15000000,1.51000000,51.09000000,52.73000000,107.42000000
305,1778626093.8213398,-2.36000000,-1.15000000,1.51000000,51.09000000,52.73000000,107.42000000
306,1778626093.830423,-2.36000000,-1.15000000,1.51000000,51.09000000,52.73000000,107.42000000
307,1778626093.839537,-2.36000000,-1.15000000,1.51000000,51.09000000,52.73000000,107.42000000
308,1778626093.849671,-1.83000000,-0.85000000,1.61000000,11.54000000,134.03000000,139.59000000
309,1778626093.8601909,-1.83000000,-0.85000000,1.61000000,11.54000000,134.03000000,139.59000000
310,1778626093.86961,-1.83000000,-0.85000000,1.61000000,11.54000000,134.03000000,139.59000000
311,1778626093.8802218,-1.83000000,-0.85000000,1.61000000,11.54000000,134.03000000,139.59000000
312,1778626093.890643,-1.45000000,-0.91000000,1.48000000,39.73000000,178.22000000,136.23000000
313,1778626093.901241,-1.45000000,-0.91000000,1.48000000,39.73000000,178.22000000,136.23000000
314,1778626093.910184,-1.45000000,-0.91000000,1.48000000,39.73000000,178.22000000,136.23000000
315,1778626093.919672,-1.28000000,-1.05000000,1.24000000,27.40000000,175.60000000,204.96000000
316,1778626093.9296498,-1.28000000,-1.05000000,1.24000000,27.40000000,175.60000000,204.96000000
317,1778626093.9391959,-1.28000000,-1.05000000,1.24000000,27.40000000,175.60000000,204.96000000
318,1778626093.951102,-1.28000000,-1.05000000,1.24000000,27.40000000,175.60000000,204.96000000
319,1778626093.960212,-1.13000000,-0.93000000,1.30000000,41.38000000,189.70000000,213.26000000
320,1778626093.9691598,-1.13000000,-0.93000000,1.30000000,41.38000000,189.70000000,213.26000000
321,1778626093.979228,-1.13000000,-0.93000000,1.30000000,41.38000000,189.70000000,213.26000000
322,1778626093.9892108,-1.13000000,-0.93000000,1.30000000,41.38000000,189.70000000,213.26000000
323,1778626093.999634,-1.10000000,-1.19000000,1.17000000,54.14000000,178.89000000,260.01000000
324,1778626094.010624,-1.10000000,-1.19000000,1.17000000,54.14000000,178.89000000,260.01000000
325,1778626094.0210571,-1.10000000,-1.19000000,1.17000000,54.14000000,178.89000000,260.01000000
326,1778626094.030556,-1.04000000,-0.94000000,1.16000000,54.14000000,178.89000000,260.01000000
327,1778626094.039946,-1.04000000,-0.94000000,1.16000000,34.73000000,212.34000000,265.38000000
328,1778626094.049552,-1.04000000,-0.94000000,1.16000000,34.73000000,212.34000000,265.38000000
329,1778626094.06021,-1.04000000,-0.94000000,1.16000000,34.73000000,212.34000000,265.38000000
330,1778626094.069497,-0.65000000,-0.77000000,1.00000000,44.25000000,218.14000000,244.81000000
331,1778626094.079786,-0.65000000,-0.77000000,1.00000000,44.25000000,218.14000000,244.81000000
332,1778626094.0891762,-0.65000000,-0.77000000,1.00000000,44.25000000,218.14000000,244.81000000
333,1778626094.1016262,-0.65000000,-0.77000000,1.00000000,44.25000000,218.14000000,244.81000000
334,1778626094.1102378,-0.80000000,-0.74000000,0.76000000,57.13000000,201.72000000,226.26000000
335,1778626094.119831,-0.80000000,-0.74000000,0.76000000,57.13000000,201.72000000,226.26000000
336,1778626094.130095,-0.80000000,-0.74000000,0.76000000,57.13000000,201.72000000,226.26000000
337,1778626094.141366,-0.80000000,-0.74000000,0.76000000,57.13000000,201.72000000,226.26000000
338,1778626094.149909,-0.57000000,-0.72000000,0.59000000,24.48000000,176.70000000,252.32000000
339,1778626094.16023,-0.57000000,-0.72000000,0.59000000,24.48000000,176.70000000,252.32000000
340,1778626094.169728,-0.57000000,-0.72000000,0.59000000,24.48000000,176.70000000,252.32000000
341,1778626094.180385,-0.57000000,-0.72000000,0.59000000,24.48000000,176.70000000,252.32000000
342,1778626094.1898189,-0.39000000,-0.53000000,0.78000000,92.53000000,96.86000000,281.13000000
343,1778626094.199532,-0.39000000,-0.53000000,0.78000000,92.53000000,96.86000000,281.13000000
344,1778626094.210218,-0.39000000,-0.53000000,0.78000000,92.53000000,96.86000000,281.13000000
345,1778626094.219595,-0.32000000,-0.44000000,0.45000000,92.53000000,96.86000000,281.13000000
346,1778626094.230782,-0.32000000,-0.44000000,0.45000000,52.55000000,133.67000000,243.65000000
347,1778626094.2408562,-0.32000000,-0.44000000,0.45000000,52.55000000,133.67000000,243.65000000
348,1778626094.249522,-0.32000000,-0.44000000,0.45000000,52.55000000,133.67000000,243.65000000
349,1778626094.2602172,-0.32000000,-0.44000000,0.45000000,52.55000000,133.67000000,243.65000000
350,1778626094.269654,-0.32000000,-0.44000000,0.45000000,52.55000000,133.67000000,243.65000000
351,1778626094.280622,-0.32000000,-0.44000000,0.45000000,52.55000000,133.67000000,243.65000000
352,1778626094.289143,-0.32000000,-0.44000000,0.45000000,52.55000000,133.67000000,243.65000000
353,1778626094.2992058,-0.32000000,-0.44000000,0.45000000,52.55000000,133.67000000,243.65000000
354,1778626094.3102589,-0.32000000,-0.44000000,0.45000000,52.55000000,133.67000000,243.65000000
355,1778626094.319757,-0.32000000,-0.44000000,0.45000000,52.55000000,133.67000000,243.65000000
356,1778626094.329937,-0.32000000,-0.44000000,0.45000000,52.55000000,133.67000000,243.65000000
357,1778626094.339303,-0.32000000,-0.44000000,0.45000000,52.55000000,133.67000000,243.65000000
358,1778626094.3498828,0.08000000,-0.23000000,0.06000000,75.38000000,133.00000000,239.56000000
359,1778626094.3602471,0.08000000,-0.23000000,0.06000000,75.38000000,133.00000000,239.56000000
360,1778626094.369627,0.08000000,-0.23000000,0.06000000,75.38000000,133.00000000,239.56000000
361,1778626094.380432,0.42000000,-0.21000000,-0.14000000,58.90000000,95.89000000,272.58000000
362,1778626094.3892539,0.42000000,-0.21000000,-0.14000000,58.90000000,95.89000000,272.58000000
363,1778626094.399327,0.42000000,-0.21000000,-0.14000000,58.90000000,95.89000000,272.58000000
364,1778626094.4102552,0.59000000,0.06000000,-0.09000000,54.50000000,76.42000000,265.75000000
365,1778626094.4196632,0.59000000,0.06000000,-0.09000000,54.50000000,76.42000000,265.75000000
366,1778626094.4306629,0.59000000,0.06000000,-0.09000000,54.50000000,76.42000000,265.75000000
367,1778626094.440844,0.59000000,0.06000000,-0.09000000,54.50000000,76.42000000,265.75000000
368,1778626094.449599,1.20000000,0.22000000,-0.24000000,22.52000000,111.51000000,208.68000000
369,1778626094.460299,1.20000000,0.22000000,-0.24000000,22.52000000,111.51000000,208.68000000
370,1778626094.469677,1.20000000,0.22000000,-0.24000000,22.52000000,111.51000000,208.68000000
371,1778626094.480693,1.20000000,0.22000000,-0.24000000,22.52000000,111.51000000,208.68000000
372,1778626094.4891908,1.93000000,0.45000000,-0.36000000,35.16000000,-8.48000000,219.24000000
373,1778626094.499208,1.93000000,0.45000000,-0.36000000,35.16000000,-8.48000000,219.24000000
374,1778626094.510762,1.93000000,0.45000000,-0.36000000,35.16000000,-8.48000000,219.24000000
375,1778626094.520894,1.93000000,0.45000000,-0.36000000,35.16000000,-8.48000000,219.24000000
376,1778626094.530091,2.21000000,0.51000000,-0.37000000,44.68000000,72.33000000,40.41000000
377,1778626094.539115,2.21000000,0.51000000,-0.37000000,44.68000000,72.33000000,40.41000000
378,1778626094.5503712,2.21000000,0.51000000,-0.37000000,44.68000000,72.33000000,40.41000000
379,1778626094.5602639,2.21000000,0.51000000,-0.37000000,44.68000000,72.33000000,40.41000000
380,1778626094.569658,2.36000000,0.12000000,-1.31000000,1.04000000,31.31000000,-38.21000000
381,1778626094.579747,2.36000000,0.12000000,-1.31000000,1.04000000,31.31000000,-38.21000000
382,1778626094.590404,2.36000000,0.12000000,-1.31000000,1.04000000,31.31000000,-38.21000000
383,1778626094.600267,1.99000000,0.60000000,-0.75000000,1.04000000,31.31000000,-38.21000000
384,1778626094.6102998,1.99000000,0.60000000,-0.75000000,35.34000000,-116.82000000,9.58000000
385,1778626094.619643,1.99000000,0.60000000,-0.75000000,35.34000000,-116.82000000,9.58000000
386,1778626094.6302311,1.99000000,0.60000000,-0.75000000,35.34000000,-116.82000000,9.58000000
387,1778626094.6402922,1.99000000,0.60000000,-0.75000000,35.34000000,-116.82000000,9.58000000
388,1778626094.650062,1.99000000,0.60000000,-0.75000000,35.34000000,-116.82000000,9.58000000
389,1778626094.660474,1.99000000,0.60000000,-0.75000000,35.34000000,-116.82000000,9.58000000
390,1778626094.6697018,1.99000000,0.60000000,-0.75000000,35.34000000,-116.82000000,9.58000000
391,1778626094.680289,1.99000000,0.60000000,-0.75000000,35.34000000,-116.82000000,9.58000000
392,1778626094.6906419,1.99000000,0.60000000,-0.75000000,35.34000000,-116.82000000,9.58000000
393,1778626094.701247,1.99000000,0.60000000,-0.75000000,35.34000000,-116.82000000,9.58000000
394,1778626094.710312,1.99000000,0.60000000,-0.75000000,35.34000000,-116.82000000,9.58000000
395,1778626094.720303,0.71000000,0.09000000,-0.21000000,-89.90000000,-126.40000000,-182.07000000
396,1778626094.730724,0.71000000,0.09000000,-0.21000000,-89.90000000,-126.40000000,-182.07000000
397,1778626094.740244,0.71000000,0.09000000,-0.21000000,-89.90000000,-126.40000000,-182.07000000
398,1778626094.751331,0.71000000,0.09000000,-0.21000000,-89.90000000,-126.40000000,-182.07000000
399,1778626094.760298,0.33000000,-0.22000000,0.05000000,-115.23000000,-122.31000000,-225.46000000
400,1778626094.769644,0.33000000,-0.22000000,0.05000000,-115.23000000,-122.31000000,-225.46000000
401,1778626094.7798002,0.33000000,-0.22000000,0.05000000,-115.23000000,-122.31000000,-225.46000000
402,1778626094.791123,0.33000000,-0.22000000,0.05000000,-115.23000000,-122.31000000,-225.46000000
403,1778626094.801111,0.33000000,-0.22000000,0.05000000,-115.23000000,-122.31000000,-225.46000000
404,1778626094.810302,0.33000000,-0.22000000,0.05000000,-115.23000000,-122.31000000,-225.46000000
405,1778626094.819684,0.33000000,-0.22000000,0.05000000,-115.23000000,-122.31000000,-225.46000000
406,1778626094.8305228,0.33000000,-0.22000000,0.05000000,-115.23000000,-122.31000000,-225.46000000
407,1778626094.8400168,0.33000000,-0.22000000,0.05000000,-115.23000000,-122.31000000,-225.46000000
408,1778626094.849718,0.33000000,-0.22000000,0.05000000,-115.23000000,-122.31000000,-225.46000000
409,1778626094.859402,-0.21000000,-0.57000000,0.32000000,-111.15000000,-136.78000000,-202.64000000
410,1778626094.871521,-0.33000000,-0.38000000,0.56000000,-88.38000000,-184.94000000,-143.19000000
411,1778626094.881025,-0.33000000,-0.38000000,0.56000000,-88.38000000,-184.94000000,-143.19000000
412,1778626094.891145,-0.33000000,-0.38000000,0.56000000,-88.38000000,-184.94000000,-143.19000000
413,1778626094.9011142,-0.33000000,-0.38000000,0.56000000,-88.38000000,-184.94000000,-143.19000000
414,1778626094.909421,-0.33000000,-0.38000000,0.56000000,-88.38000000,-184.94000000,-143.19000000
415,1778626094.920342,-0.13000000,-0.20000000,0.66000000,-140.44000000,-93.51000000,-253.11000000
416,1778626094.929781,-0.13000000,-0.20000000,0.66000000,-140.44000000,-93.51000000,-253.11000000
417,1778626094.9391732,-0.13000000,-0.20000000,0.66000000,-140.44000000,-93.51000000,-253.11000000
418,1778626094.951612,-0.15000000,-0.59000000,0.59000000,-113.83000000,-89.36000000,-350.34000000
419,1778626094.9592519,-0.15000000,-0.59000000,0.59000000,-113.83000000,-89.36000000,-350.34000000
420,1778626094.971596,-0.15000000,-0.59000000,0.59000000,-113.83000000,-89.36000000,-350.34000000
421,1778626094.980497,-0.30000000,-0.78000000,0.93000000,-74.58000000,-163.88000000,-322.14000000
422,1778626094.991285,-0.30000000,-0.78000000,0.93000000,-74.58000000,-163.88000000,-322.14000000
423,1778626094.999216,-0.30000000,-0.78000000,0.93000000,-74.58000000,-163.88000000,-322.14000000
424,1778626095.0100951,-0.47000000,-0.78000000,1.42000000,-63.35000000,-187.81000000,-374.69000000
425,1778626095.019639,-0.47000000,-0.78000000,1.42000000,-63.35000000,-187.81000000,-374.69000000
426,1778626095.030088,-0.47000000,-0.78000000,1.42000000,-63.35000000,-187.81000000,-374.69000000
427,1778626095.039171,-0.47000000,-0.78000000,1.42000000,-63.35000000,-187.81000000,-374.69000000
428,1778626095.050018,-1.01000000,-1.47000000,1.51000000,-57.07000000,-224.06000000,-398.56000000
429,1778626095.059123,-1.01000000,-1.47000000,1.51000000,-57.07000000,-224.06000000,-398.56000000
430,1778626095.071219,-1.01000000,-1.47000000,1.51000000,-57.07000000,-224.06000000,-398.56000000
431,1778626095.07987,-1.01000000,-1.47000000,1.51000000,-57.07000000,-224.06000000,-398.56000000
432,1778626095.0914419,-1.75000000,-1.24000000,1.98000000,-78.19000000,-207.21000000,-399.78000000
433,1778626095.100298,-1.75000000,-1.24000000,1.98000000,-78.19000000,-207.21000000,-399.78000000
434,1778626095.110334,-1.75000000,-1.24000000,1.98000000,-78.19000000,-207.21000000,-399.78000000
435,1778626095.1196659,-1.75000000,-1.24000000,1.98000000,-78.19000000,-207.21000000,-399.78000000
436,1778626095.1292129,-1.77000000,-1.74000000,1.30000000,-85.94000000,-146.12000000,-373.54000000
437,1778626095.1391659,-1.77000000,-1.74000000,1.30000000,-85.94000000,-146.12000000,-373.54000000
438,1778626095.149612,-1.77000000,-1.74000000,1.30000000,-85.94000000,-146.12000000,-373.54000000
439,1778626095.159349,-1.77000000,-1.74000000,1.30000000,-85.94000000,-146.12000000,-373.54000000
440,1778626095.169749,-1.56000000,-1.72000000,0.78000000,-4.58000000,-221.31000000,-135.31000000
441,1778626095.180046,-1.56000000,-1.72000000,0.78000000,-4.58000000,-221.31000000,-135.31000000
442,1778626095.190838,-1.56000000,-1.72000000,0.78000000,-4.58000000,-221.31000000,-135.31000000
443,1778626095.2008698,-1.69000000,-0.72000000,1.15000000,-4.58000000,-221.31000000,-135.31000000
444,1778626095.210777,-1.69000000,-0.72000000,1.15000000,-91.74000000,-260.68000000,-40.95000000
445,1778626095.219601,-1.69000000,-0.72000000,1.15000000,-91.74000000,-260.68000000,-40.95000000
446,1778626095.2296152,-1.69000000,-0.72000000,1.15000000,-91.74000000,-260.68000000,-40.95000000
447,1778626095.240062,-1.56000000,-0.82000000,1.53000000,-112.92000000,-109.13000000,-194.64000000
448,1778626095.2513652,-1.56000000,-0.82000000,1.53000000,-112.92000000,-109.13000000,-194.64000000
449,1778626095.2603881,-1.56000000,-0.82000000,1.53000000,-112.92000000,-109.13000000,-194.64000000
450,1778626095.2696881,-1.56000000,-0.82000000,1.53000000,-112.92000000,-109.13000000,-194.64000000
451,1778626095.2808352,-2.36000000,-1.04000000,1.80000000,-62.44000000,-267.94000000,24.66000000
452,1778626095.2891781,-2.36000000,-1.04000000,1.80000000,-62.44000000,-267.94000000,24.66000000
453,1778626095.299273,-2.36000000,-1.04000000,1.80000000,-62.44000000,-267.94000000,24.66000000
454,1778626095.3092911,-2.36000000,-1.04000000,1.80000000,-62.44000000,-267.94000000,24.66000000
455,1778626095.320014,-2.36000000,-1.04000000,1.80000000,-62.44000000,-267.94000000,24.66000000
456,1778626095.330154,-2.36000000,-1.04000000,1.80000000,-62.44000000,-267.94000000,24.66000000
457,1778626095.3396401,-2.36000000,-1.04000000,1.80000000,-62.44000000,-267.94000000,24.66000000
458,1778626095.350236,-2.36000000,-1.04000000,1.80000000,-62.44000000,-267.94000000,24.66000000
459,1778626095.360148,-2.36000000,-1.04000000,1.80000000,-62.44000000,-267.94000000,24.66000000
460,1778626095.369138,-2.36000000,-1.04000000,1.80000000,-62.44000000,-267.94000000,24.66000000
461,1778626095.379254,-2.36000000,-1.04000000,1.80000000,-62.44000000,-267.94000000,24.66000000
462,1778626095.389623,-1.88000000,-1.00000000,1.76000000,20.32000000,158.33000000,67.26000000
463,1778626095.399713,-1.88000000,-1.00000000,1.76000000,20.32000000,158.33000000,67.26000000
464,1778626095.4096231,-1.88000000,-1.00000000,1.76000000,20.32000000,158.33000000,67.26000000
465,1778626095.41961,-1.88000000,-1.00000000,1.76000000,20.32000000,158.33000000,67.26000000
466,1778626095.430586,-1.43000000,-1.25000000,1.66000000,78.98000000,181.46000000,177.61000000
467,1778626095.4412348,-1.43000000,-1.25000000,1.66000000,78.98000000,181.46000000,177.61000000
468,1778626095.4494212,-1.43000000,-1.25000000,1.66000000,78.98000000,181.46000000,177.61000000
469,1778626095.4603531,-1.43000000,-1.25000000,1.66000000,78.98000000,181.46000000,177.61000000
470,1778626095.469621,-1.43000000,-1.25000000,1.66000000,78.98000000,181.46000000,177.61000000
471,1778626095.4809139,-1.10000000,-1.46000000,1.39000000,78.98000000,181.46000000,177.61000000
472,1778626095.4912078,-1.10000000,-1.46000000,1.39000000,75.38000000,183.35000000,230.77000000
473,1778626095.49964,-1.09000000,-1.45000000,1.42000000,43.82000000,216.19000000,233.15000000
474,1778626095.509511,-1.09000000,-1.45000000,1.42000000,43.82000000,216.19000000,233.15000000
475,1778626095.5197241,-1.09000000,-1.45000000,1.42000000,43.82000000,216.19000000,233.15000000
476,1778626095.5298061,-1.09000000,-1.45000000,1.42000000,43.82000000,216.19000000,233.15000000
477,1778626095.5400121,-1.09000000,-1.45000000,1.42000000,43.82000000,216.19000000,233.15000000
478,1778626095.5514,-1.09000000,-1.45000000,1.42000000,43.82000000,216.19000000,233.15000000
479,1778626095.560388,-1.09000000,-1.45000000,1.42000000,43.82000000,216.19000000,233.15000000
480,1778626095.569152,-0.88000000,-1.41000000,1.26000000,47.55000000,256.59000000,258.61000000
481,1778626095.579257,-0.71000000,-1.47000000,1.03000000,65.55000000,218.44000000,321.78000000
482,1778626095.589155,-0.71000000,-1.47000000,1.03000000,65.55000000,218.44000000,321.78000000
483,1778626095.60159,-0.71000000,-1.47000000,1.03000000,65.55000000,218.44000000,321.78000000
484,1778626095.609214,-0.67000000,-1.08000000,0.90000000,65.55000000,218.44000000,321.78000000
485,1778626095.6195881,-0.67000000,-1.08000000,0.90000000,4.82000000,283.33000000,250.73000000
486,1778626095.629121,-0.67000000,-1.08000000,0.90000000,4.82000000,283.33000000,250.73000000
487,1778626095.639532,-0.67000000,-1.08000000,0.90000000,4.82000000,283.33000000,250.73000000
488,1778626095.6492832,-0.67000000,-1.08000000,0.90000000,4.82000000,283.33000000,250.73000000
489,1778626095.6593301,-0.41000000,-1.09000000,0.31000000,-18.43000000,250.18000000,245.24000000
490,1778626095.669922,-0.41000000,-1.09000000,0.31000000,-18.43000000,250.18000000,245.24000000
491,1778626095.68048,-0.41000000,-1.09000000,0.31000000,-18.43000000,250.18000000,245.24000000
492,1778626095.691277,-0.34000000,-0.58000000,0.45000000,-18.43000000,250.18000000,245.24000000
493,1778626095.700338,-0.34000000,-0.58000000,0.45000000,-18.43000000,250.18000000,245.24000000
494,1778626095.710319,-0.34000000,-0.58000000,0.45000000,-18.43000000,250.18000000,245.24000000
495,1778626095.719622,-0.34000000,-0.58000000,0.45000000,-18.43000000,250.18000000,245.24000000
496,1778626095.731384,-0.34000000,-0.58000000,0.45000000,-18.43000000,250.18000000,245.24000000
497,1778626095.7410429,-0.34000000,-0.58000000,0.45000000,-18.43000000,250.18000000,245.24000000
498,1778626095.751067,-0.34000000,-0.58000000,0.45000000,-18.43000000,250.18000000,245.24000000
499,1778626095.7600892,-0.34000000,-0.58000000,0.45000000,-18.43000000,250.18000000,245.24000000
500,1778626095.76961,0.06000000,-0.34000000,0.15000000,33.08000000,115.48000000,288.09000000
501,1778626095.7793899,0.06000000,-0.34000000,0.15000000,33.08000000,115.48000000,288.09000000
502,1778626095.7915268,0.06000000,-0.34000000,0.15000000,33.08000000,115.48000000,288.09000000
503,1778626095.801027,-0.03000000,0.04000000,0.45000000,99.79000000,37.72000000,326.72000000
504,1778626095.810424,-0.03000000,0.04000000,0.45000000,99.79000000,37.72000000,326.72000000
505,1778626095.819687,-0.03000000,0.04000000,0.45000000,99.79000000,37.72000000,326.72000000
506,1778626095.830432,-0.03000000,0.04000000,0.45000000,99.79000000,37.72000000,326.72000000
507,1778626095.841325,-0.03000000,0.04000000,0.45000000,99.79000000,37.72000000,326.72000000
508,1778626095.851101,-0.03000000,0.04000000,0.45000000,99.79000000,37.72000000,326.72000000
509,1778626095.8611379,-0.03000000,0.04000000,0.45000000,99.79000000,37.72000000,326.72000000
510,1778626095.869635,-0.03000000,0.04000000,0.45000000,99.79000000,37.72000000,326.72000000
511,1778626095.8812218,-0.03000000,0.04000000,0.45000000,99.79000000,37.72000000,326.72000000
512,1778626095.891113,-0.03000000,0.04000000,0.45000000,99.79000000,37.72000000,326.72000000
513,1778626095.899227,0.46000000,-0.11000000,0.05000000,94.48000000,78.86000000,289.92000000
514,1778626095.9096,0.46000000,-0.11000000,0.05000000,94.48000000,78.86000000,289.92000000
515,1778626095.9197628,0.77000000,-0.05000000,-0.02000000,123.05000000,13.49000000,304.50000000
516,1778626095.931084,0.77000000,-0.05000000,-0.02000000,123.05000000,13.49000000,304.50000000
517,1778626095.939987,0.77000000,-0.05000000,-0.02000000,123.05000000,13.49000000,304.50000000
518,1778626095.951369,1.45000000,0.12000000,-0.29000000,55.85000000,74.52000000,243.84000000
519,1778626095.9604118,1.45000000,0.12000000,-0.29000000,55.85000000,74.52000000,243.84000000
520,1778626095.969741,1.45000000,0.12000000,-0.29000000,55.85000000,74.52000000,243.84000000
521,1778626095.98126,1.45000000,0.12000000,-0.29000000,55.85000000,74.52000000,243.84000000
522,1778626095.9901178,1.92000000,0.40000000,-0.27000000,41.20000000,55.73000000,68.73000000
523,1778626096.0006342,1.92000000,0.40000000,-0.27000000,41.20000000,55.73000000,68.73000000
524,1778626096.0109382,1.92000000,0.40000000,-0.27000000,41.20000000,55.73000000,68.73000000
525,1778626096.019851,1.92000000,0.40000000,-0.27000000,41.20000000,55.73000000,68.73000000
526,1778626096.030993,2.09000000,-0.03000000,-0.66000000,49.93000000,58.78000000,-43.88000000
527,1778626096.040632,2.09000000,-0.03000000,-0.66000000,49.93000000,58.78000000,-43.88000000
528,1778626096.050466,2.09000000,-0.03000000,-0.66000000,49.93000000,58.78000000,-43.88000000
529,1778626096.0591629,2.09000000,-0.03000000,-0.66000000,49.93000000,58.78000000,-43.88000000
530,1778626096.0697641,2.08000000,0.21000000,-0.81000000,-1.95000000,-88.75000000,41.81000000
531,1778626096.079711,2.08000000,0.21000000,-0.81000000,-1.95000000,-88.75000000,41.81000000
532,1778626096.091459,2.08000000,0.21000000,-0.81000000,-1.95000000,-88.75000000,41.81000000
533,1778626096.1010308,2.08000000,0.21000000,-0.81000000,-1.95000000,-88.75000000,41.81000000
534,1778626096.110935,1.71000000,0.32000000,-0.62000000,-11.05000000,-84.11000000,-75.56000000
535,1778626096.119745,1.71000000,0.32000000,-0.62000000,-11.05000000,-84.11000000,-75.56000000
536,1778626096.130174,1.71000000,0.32000000,-0.62000000,-11.05000000,-84.11000000,-75.56000000
537,1778626096.140142,1.42000000,0.07000000,-0.76000000,-52.86000000,-115.30000000,-107.97000000
538,1778626096.149212,1.42000000,0.07000000,-0.76000000,-52.86000000,-115.30000000,-107.97000000
539,1778626096.16153,1.42000000,0.07000000,-0.76000000,-52.86000000,-115.30000000,-107.97000000
540,1778626096.169822,1.42000000,0.07000000,-0.76000000,-52.86000000,-115.30000000,-107.97000000
541,1778626096.1814542,1.04000000,0.02000000,-0.49000000,-92.22000000,-150.94000000,-121.52000000
542,1778626096.190788,1.04000000,0.02000000,-0.49000000,-92.22000000,-150.94000000,-121.52000000
543,1778626096.1996999,1.04000000,0.02000000,-0.49000000,-92.22000000,-150.94000000,-121.52000000
544,1778626096.210455,1.04000000,0.02000000,-0.49000000,-92.22000000,-150.94000000,-121.52000000
545,1778626096.220372,0.69000000,-0.13000000,-0.11000000,-115.11000000,-162.23000000,-164.55000000
546,1778626096.230489,0.69000000,-0.13000000,-0.11000000,-115.11000000,-162.23000000,-164.55000000
547,1778626096.239178,0.69000000,-0.13000000,-0.11000000,-115.11000000,-162.23000000,-164.55000000
548,1778626096.2497761,0.33000000,-0.44000000,0.24000000,-115.11000000,-162.23000000,-164.55000000
549,1778626096.25914,0.33000000,-0.44000000,0.24000000,-147.28000000,-169.56000000,-215.94000000
550,1778626096.269681,0.33000000,-0.44000000,0.24000000,-147.28000000,-169.56000000,-215.94000000
551,1778626096.2801652,0.33000000,-0.44000000,0.24000000,-147.28000000,-169.56000000,-215.94000000
552,1778626096.290536,-0.00000000,-0.63000000,0.53000000,-147.28000000,-169.56000000,-215.94000000
553,1778626096.301247,-0.00000000,-0.63000000,0.53000000,-162.48000000,-171.08000000,-237.67000000
554,1778626096.3104799,-0.00000000,-0.63000000,0.53000000,-162.48000000,-171.08000000,-237.67000000
555,1778626096.319673,-0.00000000,-0.63000000,0.53000000,-162.48000000,-171.08000000,-237.67000000
556,1778626096.3312771,-0.45000000,-0.52000000,1.03000000,-164.12000000,-165.59000000,-258.12000000
557,1778626096.3411121,-0.45000000,-0.52000000,1.03000000,-164.12000000,-165.59000000,-258.12000000
558,1778626096.349817,-0.45000000,-0.52000000,1.03000000,-164.12000000,-165.59000000,-258.12000000
559,1778626096.359995,-0.45000000,-0.52000000,1.03000000,-164.12000000,-165.59000000,-258.12000000
560,1778626096.369647,-0.45000000,-0.52000000,1.03000000,-164.12000000,-165.59000000,-258.12000000
561,1778626096.379539,-0.45000000,-0.52000000,1.03000000,-164.12000000,-165.59000000,-258.12000000
562,1778626096.389314,-0.45000000,-0.52000000,1.03000000,-164.12000000,-165.59000000,-258.12000000
563,1778626096.400474,-0.45000000,-0.52000000,1.03000000,-164.12000000,-165.59000000,-258.12000000
564,1778626096.409698,-0.45000000,-0.52000000,1.03000000,-164.12000000,-165.59000000,-258.12000000
565,1778626096.419754,-0.45000000,-0.52000000,1.03000000,-164.12000000,-165.59000000,-258.12000000
566,1778626096.429396,-0.49000000,-0.46000000,0.75000000,-147.83000000,-191.89000000,-184.94000000
567,1778626096.439414,-0.49000000,-0.46000000,0.75000000,-147.83000000,-191.89000000,-184.94000000
568,1778626096.4506721,-0.30000000,-0.45000000,1.05000000,-151.92000000,-221.86000000,-241.27000000
569,1778626096.461015,-0.30000000,-0.45000000,1.05000000,-151.92000000,-221.86000000,-241.27000000
570,1778626096.469656,-0.30000000,-0.45000000,1.05000000,-151.92000000,-221.86000000,-241.27000000
571,1778626096.481288,-0.55000000,-0.85000000,1.70000000,-151.92000000,-221.86000000,-241.27000000
572,1778626096.489173,-0.55000000,-0.85000000,1.70000000,-163.88000000,-224.67000000,-347.66000000
573,1778626096.499358,-0.55000000,-0.85000000,1.70000000,-163.88000000,-224.67000000,-347.66000000
574,1778626096.5112572,-1.04000000,-1.14000000,2.14000000,-163.88000000,-224.67000000,-347.66000000
575,1778626096.521081,-1.04000000,-1.14000000,2.14000000,-166.81000000,-217.35000000,-430.48000000
576,1778626096.531146,-1.04000000,-1.14000000,2.14000000,-166.81000000,-217.35000000,-430.48000000
577,1778626096.539329,-1.04000000,-1.14000000,2.14000000,-166.81000000,-217.35000000,-430.48000000
578,1778626096.5491352,-1.04000000,-1.14000000,2.14000000,-166.81000000,-217.35000000,-430.48000000
579,1778626096.5606148,-1.31000000,-1.78000000,1.57000000,-154.24000000,-221.44000000,-385.99000000
580,1778626096.569131,-1.31000000,-1.78000000,1.57000000,-154.24000000,-221.44000000,-385.99000000
581,1778626096.5791821,-1.31000000,-1.78000000,1.57000000,-154.24000000,-221.44000000,-385.99000000
582,1778626096.5891368,-1.57000000,-1.26000000,2.35000000,-111.45000000,-250.85000000,-243.96000000
583,1778626096.600348,-1.57000000,-1.26000000,2.35000000,-111.45000000,-250.85000000,-243.96000000
584,1778626096.610922,-1.57000000,-1.26000000,2.35000000,-111.45000000,-250.85000000,-243.96000000
585,1778626096.6195729,-1.57000000,-1.26000000,2.35000000,-111.45000000,-250.85000000,-243.96000000
586,1778626096.630611,-1.73000000,-0.99000000,1.75000000,-85.57000000,-174.50000000,-208.68000000
587,1778626096.639443,-1.73000000,-0.99000000,1.75000000,-85.57000000,-174.50000000,-208.68000000
588,1778626096.649288,-1.73000000,-0.99000000,1.75000000,-85.57000000,-174.50000000,-208.68000000
589,1778626096.659126,-1.73000000,-0.99000000,1.75000000,-85.57000000,-174.50000000,-208.68000000
590,1778626096.6695948,-1.78000000,-0.74000000,1.35000000,-78.74000000,-134.64000000,-150.27000000
591,1778626096.6814988,-1.78000000,-0.74000000,1.35000000,-78.74000000,-134.64000000,-150.27000000
592,1778626096.6892219,-1.78000000,-0.74000000,1.35000000,-78.74000000,-134.64000000,-150.27000000
593,1778626096.700305,-1.78000000,-0.74000000,1.35000000,-78.74000000,-134.64000000,-150.27000000
594,1778626096.711325,-2.48000000,-0.08000000,1.95000000,-97.84000000,-153.75000000,-90.15000000
595,1778626096.7196422,-2.48000000,-0.08000000,1.95000000,-97.84000000,-153.75000000,-90.15000000
596,1778626096.729146,-2.48000000,-0.08000000,1.95000000,-97.84000000,-153.75000000,-90.15000000
597,1778626096.7391832,-2.48000000,-0.08000000,1.95000000,-97.84000000,-153.75000000,-90.15000000
598,1778626096.7497249,-2.48000000,-0.08000000,1.95000000,-97.84000000,-153.75000000,-90.15000000
599,1778626096.759267,-2.48000000,-0.08000000,1.95000000,-97.84000000,-153.75000000,-90.15000000
600,1778626096.7697,-2.48000000,-0.08000000,1.95000000,-97.84000000,-153.75000000,-90.15000000
601,1778626096.7791371,-2.48000000,-0.08000000,1.95000000,-97.84000000,-153.75000000,-90.15000000
602,1778626096.789174,-2.48000000,-0.08000000,1.95000000,-97.84000000,-153.75000000,-90.15000000
603,1778626096.801644,-2.48000000,-0.08000000,1.95000000,-97.84000000,-153.75000000,-90.15000000
604,1778626096.810542,-2.48000000,-0.08000000,1.95000000,-97.84000000,-153.75000000,-90.15000000
605,1778626096.8237472,-1.87000000,-1.00000000,1.86000000,43.88000000,132.75000000,197.57000000
606,1778626096.848175,-1.87000000,-1.00000000,1.86000000,43.88000000,132.75000000,197.57000000
607,1778626096.848219,-1.87000000,-1.00000000,1.86000000,43.88000000,132.75000000,197.57000000
608,1778626096.849417,-1.87000000,-1.00000000,1.86000000,43.88000000,132.75000000,197.57000000
609,1778626096.8606431,-1.27000000,-1.07000000,1.82000000,43.88000000,132.75000000,197.57000000
610,1778626096.869644,-1.27000000,-1.07000000,1.82000000,41.69000000,223.63000000,172.36000000
611,1778626096.880353,-1.27000000,-1.07000000,1.82000000,41.69000000,223.63000000,172.36000000
612,1778626096.889707,-1.27000000,-1.07000000,1.82000000,41.69000000,223.63000000,172.36000000
613,1778626096.899217,-1.27000000,-1.07000000,1.82000000,41.69000000,223.63000000,172.36000000
614,1778626096.9106162,-1.27000000,-1.07000000,1.82000000,41.69000000,223.63000000,172.36000000
615,1778626096.920934,-1.27000000,-1.07000000,1.82000000,41.69000000,223.63000000,172.36000000
616,1778626096.931166,-1.27000000,-1.07000000,1.82000000,41.69000000,223.63000000,172.36000000
617,1778626096.939929,-1.27000000,-1.07000000,1.82000000,41.69000000,223.63000000,172.36000000
618,1778626096.949155,-1.27000000,-1.07000000,1.82000000,41.69000000,223.63000000,172.36000000
619,1778626096.960555,-1.02000000,-1.13000000,1.67000000,50.23000000,260.93000000,238.71000000
620,1778626096.970237,-1.02000000,-1.13000000,1.67000000,50.23000000,260.93000000,238.71000000
621,1778626096.9791338,-1.02000000,-1.13000000,1.67000000,50.23000000,260.93000000,238.71000000
622,1778626096.991628,-1.02000000,-1.13000000,1.67000000,50.23000000,260.93000000,238.71000000
623,1778626097.000993,-0.69000000,-1.26000000,1.20000000,61.22000000,253.78000000,290.95000000
624,1778626097.01104,-0.69000000,-1.26000000,1.20000000,61.22000000,253.78000000,290.95000000
625,1778626097.02016,-0.69000000,-1.26000000,1.20000000,61.22000000,253.78000000,290.95000000
626,1778626097.031337,-0.69000000,-1.26000000,1.20000000,61.22000000,253.78000000,290.95000000
627,1778626097.041095,-0.56000000,-0.85000000,0.88000000,21.06000000,255.00000000,275.39000000
628,1778626097.051143,-0.56000000,-0.85000000,0.88000000,21.06000000,255.00000000,275.39000000
629,1778626097.059485,-0.56000000,-0.85000000,0.88000000,21.06000000,255.00000000,275.39000000
630,1778626097.0695848,-0.56000000,-0.85000000,0.88000000,21.06000000,255.00000000,275.39000000
631,1778626097.080532,-0.28000000,-0.67000000,0.48000000,11.54000000,250.00000000,242.13000000
632,1778626097.090111,-0.28000000,-0.67000000,0.48000000,11.54000000,250.00000000,242.13000000
633,1778626097.1003351,-0.28000000,-0.67000000,0.48000000,11.54000000,250.00000000,242.13000000
634,1778626097.110569,-0.38000000,-0.29000000,0.43000000,87.10000000,132.45000000,322.27000000
635,1778626097.1196349,-0.38000000,-0.29000000,0.43000000,87.10000000,132.45000000,322.27000000
636,1778626097.131378,-0.38000000,-0.29000000,0.43000000,87.10000000,132.45000000,322.27000000
637,1778626097.14104,-0.38000000,-0.29000000,0.43000000,87.10000000,132.45000000,322.27000000
638,1778626097.149191,-0.45000000,-0.08000000,0.07000000,60.49000000,174.13000000,238.10000000
639,1778626097.160605,-0.45000000,-0.08000000,0.07000000,60.49000000,174.13000000,238.10000000
640,1778626097.169667,-0.45000000,-0.08000000,0.07000000,60.49000000,174.13000000,238.10000000
641,1778626097.181422,-0.45000000,-0.08000000,0.07000000,60.49000000,174.13000000,238.10000000
642,1778626097.189165,-0.24000000,-0.15000000,0.03000000,2.62000000,126.46000000,231.08000000
643,1778626097.201619,-0.24000000,-0.15000000,0.03000000,2.62000000,126.46000000,231.08000000
644,1778626097.210609,-0.24000000,-0.15000000,0.03000000,2.62000000,126.46000000,231.08000000
645,1778626097.2196548,-0.24000000,-0.15000000,0.03000000,2.62000000,126.46000000,231.08000000
646,1778626097.2314382,-0.22000000,0.08000000,0.45000000,40.95000000,101.68000000,223.39000000
647,1778626097.241104,-0.22000000,0.08000000,0.45000000,40.95000000,101.68000000,223.39000000
648,1778626097.2491698,-0.22000000,0.08000000,0.45000000,40.95000000,101.68000000,223.39000000
649,1778626097.260604,0.07000000,-0.07000000,0.30000000,38.57000000,85.27000000,229.86000000
650,1778626097.269821,0.07000000,-0.07000000,0.30000000,38.57000000,85.27000000,229.86000000
651,1778626097.28059,0.07000000,-0.07000000,0.30000000,38.57000000,85.27000000,229.86000000
652,1778626097.289433,0.07000000,-0.07000000,0.30000000,38.57000000,85.27000000,229.86000000
653,1778626097.299802,0.38000000,0.03000000,0.28000000,52.49000000,40.16000000,263.00000000
654,1778626097.311247,0.38000000,0.03000000,0.28000000,52.49000000,40.16000000,263.00000000
655,1778626097.319839,0.38000000,0.03000000,0.28000000,52.49000000,40.16000000,263.00000000
656,1778626097.329675,0.54000000,0.07000000,0.20000000,52.98000000,43.88000000,231.20000000
657,1778626097.339691,0.54000000,0.07000000,0.20000000,52.98000000,43.88000000,231.20000000
658,1778626097.349162,0.54000000,0.07000000,0.20000000,52.98000000,43.88000000,231.20000000
659,1778626097.361228,0.54000000,0.07000000,0.20000000,52.98000000,43.88000000,231.20000000
660,1778626097.369738,0.80000000,-0.00000000,-0.11000000,-3.97000000,78.74000000,185.36000000
661,1778626097.379699,0.80000000,-0.00000000,-0.11000000,-3.97000000,78.74000000,185.36000000
662,1778626097.390761,0.80000000,-0.00000000,-0.11000000,-3.97000000,78.74000000,185.36000000
663,1778626097.399248,0.80000000,-0.00000000,-0.11000000,-3.97000000,78.74000000,185.36000000
664,1778626097.409964,0.80000000,-0.00000000,-0.11000000,-3.97000000,78.74000000,185.36000000
665,1778626097.419779,0.80000000,-0.00000000,-0.11000000,-3.97000000,78.74000000,185.36000000
666,1778626097.4299982,0.80000000,-0.00000000,-0.11000000,-3.97000000,78.74000000,185.36000000
667,1778626097.43952,0.80000000,-0.00000000,-0.11000000,-3.97000000,78.74000000,185.36000000
668,1778626097.451539,0.80000000,-0.00000000,-0.11000000,-3.97000000,78.74000000,185.36000000
669,1778626097.45996,0.80000000,-0.00000000,-0.11000000,-3.97000000,78.74000000,185.36000000
670,1778626097.4697652,0.80000000,-0.00000000,-0.11000000,-3.97000000,78.74000000,185.36000000
671,1778626097.479223,0.80000000,-0.00000000,-0.11000000,-3.97000000,78.74000000,185.36000000
672,1778626097.4894102,2.02000000,0.07000000,-0.79000000,-30.58000000,-116.94000000,97.72000000
673,1778626097.4991832,2.02000000,0.07000000,-0.79000000,-30.58000000,-116.94000000,97.72000000
674,1778626097.511273,2.02000000,0.07000000,-0.79000000,-30.58000000,-116.94000000,97.72000000
675,1778626097.519882,1.16000000,0.80000000,-0.20000000,76.84000000,-133.79000000,31.01000000
676,1778626097.530594,1.16000000,0.80000000,-0.20000000,76.84000000,-133.79000000,31.01000000
677,1778626097.540462,1.16000000,0.80000000,-0.20000000,76.84000000,-133.79000000,31.01000000
678,1778626097.551275,1.16000000,0.80000000,-0.20000000,76.84000000,-133.79000000,31.01000000
679,1778626097.5610938,1.35000000,0.74000000,-0.57000000,-20.87000000,-103.33000000,-42.66000000
680,1778626097.56977,1.35000000,0.74000000,-0.57000000,-20.87000000,-103.33000000,-42.66000000
681,1778626097.579606,1.35000000,0.74000000,-0.57000000,-20.87000000,-103.33000000,-42.66000000
682,1778626097.589309,1.35000000,0.74000000,-0.57000000,-20.87000000,-103.33000000,-42.66000000
683,1778626097.601426,1.09000000,0.82000000,-0.22000000,-43.09000000,-122.68000000,-89.90000000
684,1778626097.611049,1.09000000,0.82000000,-0.22000000,-43.09000000,-122.68000000,-89.90000000
685,1778626097.62076,1.09000000,0.82000000,-0.22000000,-43.09000000,-122.68000000,-89.90000000
686,1778626097.6296918,1.09000000,0.82000000,-0.22000000,-43.09000000,-122.68000000,-89.90000000
687,1778626097.6392162,0.64000000,0.56000000,-0.21000000,-32.35000000,-116.15000000,-139.53000000
688,1778626097.650545,0.64000000,0.56000000,-0.21000000,-32.35000000,-116.15000000,-139.53000000
689,1778626097.659279,0.64000000,0.56000000,-0.21000000,-32.35000000,-116.15000000,-139.53000000
690,1778626097.669795,0.44000000,0.23000000,-0.34000000,-32.35000000,-116.15000000,-139.53000000
691,1778626097.681484,0.44000000,0.23000000,-0.34000000,-33.75000000,-125.98000000,-136.05000000
692,1778626097.690658,0.44000000,0.23000000,-0.34000000,-33.75000000,-125.98000000,-136.05000000
693,1778626097.7012448,0.44000000,0.23000000,-0.34000000,-33.75000000,-125.98000000,-136.05000000
694,1778626097.709444,0.29000000,0.05000000,-0.21000000,-54.99000000,-161.19000000,-121.77000000
695,1778626097.7208052,0.29000000,0.05000000,-0.21000000,-54.99000000,-161.19000000,-121.77000000
696,1778626097.7294059,0.29000000,0.05000000,-0.21000000,-54.99000000,-161.19000000,-121.77000000
697,1778626097.739977,0.29000000,0.05000000,-0.21000000,-54.99000000,-161.19000000,-121.77000000
698,1778626097.749429,0.02000000,-0.00000000,0.17000000,-71.84000000,-172.79000000,-137.51000000
699,1778626097.761308,0.02000000,-0.00000000,0.17000000,-71.84000000,-172.79000000,-137.51000000
700,1778626097.7700748,0.02000000,-0.00000000,0.17000000,-71.84000000,-172.79000000,-137.51000000
701,1778626097.779221,0.02000000,-0.00000000,0.17000000,-71.84000000,-172.79000000,-137.51000000
702,1778626097.789181,0.02000000,-0.00000000,0.17000000,-71.84000000,-172.79000000,-137.51000000
703,1778626097.799789,0.02000000,-0.00000000,0.17000000,-71.84000000,-172.79000000,-137.51000000
704,1778626097.811299,0.02000000,-0.00000000,0.17000000,-71.84000000,-172.79000000,-137.51000000
705,1778626097.820004,0.02000000,-0.00000000,0.17000000,-71.84000000,-172.79000000,-137.51000000
706,1778626097.830312,0.02000000,-0.00000000,0.17000000,-71.84000000,-172.79000000,-137.51000000
707,1778626097.839318,0.02000000,-0.00000000,0.17000000,-71.84000000,-172.79000000,-137.51000000
708,1778626097.851552,0.02000000,-0.00000000,0.17000000,-71.84000000,-172.79000000,-137.51000000
709,1778626097.860905,0.02000000,-0.00000000,0.17000000,-71.84000000,-172.79000000,-137.51000000
710,1778626097.8698711,-0.42000000,-0.22000000,0.74000000,-99.91000000,-171.02000000,-167.42000000
711,1778626097.879206,-0.42000000,-0.22000000,0.74000000,-99.91000000,-171.02000000,-167.42000000
712,1778626097.889152,-0.42000000,-0.22000000,0.74000000,-99.91000000,-171.02000000,-167.42000000
713,1778626097.900873,-0.52000000,-0.10000000,0.71000000,-149.48000000,-128.78000000,-212.10000000
714,1778626097.909431,-0.52000000,-0.10000000,0.71000000,-149.48000000,-128.78000000,-212.10000000
715,1778626097.9208262,-0.52000000,-0.10000000,0.71000000,-149.48000000,-128.78000000,-212.10000000
716,1778626097.929795,-0.52000000,-0.10000000,0.71000000,-149.48000000,-128.78000000,-212.10000000
717,1778626097.939945,-0.52000000,-0.10000000,0.71000000,-149.48000000,-128.78000000,-212.10000000
718,1778626097.950007,-0.52000000,-0.10000000,0.71000000,-149.48000000,-128.78000000,-212.10000000
719,1778626097.961328,-0.52000000,-0.10000000,0.71000000,-149.48000000,-128.78000000,-212.10000000
720,1778626097.970665,-0.52000000,-0.10000000,0.71000000,-149.48000000,-128.78000000,-212.10000000
721,1778626097.979157,-0.52000000,-0.10000000,0.71000000,-149.48000000,-128.78000000,-212.10000000
722,1778626097.991628,-0.52000000,-0.10000000,0.71000000,-149.48000000,-128.78000000,-212.10000000
723,1778626097.999956,-0.59000000,-0.63000000,1.12000000,-98.39000000,-208.68000000,-224.55000000
724,1778626098.011317,-0.70000000,-0.80000000,1.43000000,-98.39000000,-208.68000000,-224.55000000
725,1778626098.020328,-0.70000000,-0.80000000,1.43000000,-89.54000000,-152.04000000,-308.59000000
726,1778626098.0300841,-0.70000000,-0.80000000,1.43000000,-89.54000000,-152.04000000,-308.59000000
727,1778626098.039354,-0.70000000,-0.80000000,1.43000000,-89.54000000,-152.04000000,-308.59000000
728,1778626098.049242,-0.82000000,-1.28000000,1.27000000,-116.70000000,-193.24000000,-306.58000000
729,1778626098.0613608,-0.82000000,-1.28000000,1.27000000,-116.70000000,-193.24000000,-306.58000000
730,1778626098.070888,-0.82000000,-1.28000000,1.27000000,-116.70000000,-193.24000000,-306.58000000
731,1778626098.079309,-0.82000000,-1.28000000,1.27000000,-116.70000000,-193.24000000,-306.58000000
732,1778626098.089769,-1.09000000,-1.06000000,1.89000000,-78.74000000,-258.79000000,-203.43000000
733,1778626098.099287,-1.09000000,-1.06000000,1.89000000,-78.74000000,-258.79000000,-203.43000000
734,1778626098.111348,-1.09000000,-1.06000000,1.89000000,-78.74000000,-258.79000000,-203.43000000
735,1778626098.1199281,-1.09000000,-1.06000000,1.89000000,-78.74000000,-258.79000000,-203.43000000
736,1778626098.129864,-1.46000000,-0.94000000,1.79000000,-114.01000000,-212.10000000,-205.08000000
737,1778626098.139251,-1.46000000,-0.94000000,1.79000000,-114.01000000,-212.10000000,-205.08000000
738,1778626098.150639,-1.46000000,-0.94000000,1.79000000,-114.01000000,-212.10000000,-205.08000000
739,1778626098.1611211,-1.46000000,-0.94000000,1.79000000,-114.01000000,-212.10000000,-205.08000000
740,1778626098.1709352,-1.73000000,-0.66000000,1.72000000,-118.23000000,-161.93000000,-200.87000000
741,1778626098.181154,-1.73000000,-0.66000000,1.72000000,-118.23000000,-161.93000000,-200.87000000
742,1778626098.1903129,-1.73000000,-0.66000000,1.72000000,-118.23000000,-161.93000000,-200.87000000
743,1778626098.200802,-1.73000000,-0.66000000,1.72000000,-118.23000000,-161.93000000,-200.87000000
744,1778626098.210884,-2.21000000,-0.51000000,1.45000000,-88.93000000,-146.18000000,-103.88000000
745,1778626098.2206888,-2.21000000,-0.51000000,1.45000000,-88.93000000,-146.18000000,-103.88000000
746,1778626098.229552,-2.21000000,-0.51000000,1.45000000,-88.93000000,-146.18000000,-103.88000000
747,1778626098.240563,-2.61000000,0.22000000,2.06000000,-98.82000000,-111.51000000,-13.37000000
748,1778626098.249316,-2.61000000,0.22000000,2.06000000,-98.82000000,-111.51000000,-13.37000000
749,1778626098.2613928,-2.61000000,0.22000000,2.06000000,-98.82000000,-111.51000000,-13.37000000
750,1778626098.270008,-2.61000000,0.22000000,2.06000000,-98.82000000,-111.51000000,-13.37000000
751,1778626098.279382,-2.96000000,0.01000000,2.73000000,12.57000000,46.08000000,0.18000000
752,1778626098.289251,-2.96000000,0.01000000,2.73000000,12.57000000,46.08000000,0.18000000
753,1778626098.29951,-2.96000000,0.01000000,2.73000000,12.57000000,46.08000000,0.18000000
754,1778626098.3113768,-2.96000000,0.01000000,2.73000000,12.57000000,46.08000000,0.18000000
755,1778626098.3199859,-2.63000000,-1.00000000,1.85000000,21.73000000,152.16000000,89.29000000
756,1778626098.330517,-2.63000000,-1.00000000,1.85000000,21.73000000,152.16000000,89.29000000
757,1778626098.339541,-2.63000000,-1.00000000,1.85000000,21.73000000,152.16000000,89.29000000
758,1778626098.3507771,-2.63000000,-1.00000000,1.85000000,21.73000000,152.16000000,89.29000000
759,1778626098.360726,-1.77000000,-0.95000000,2.17000000,32.17000000,153.93000000,258.97000000
760,1778626098.370742,-1.77000000,-0.95000000,2.17000000,32.17000000,153.93000000,258.97000000
761,1778626098.3796391,-1.77000000,-0.95000000,2.17000000,32.17000000,153.93000000,258.97000000
762,1778626098.3907452,-1.77000000,-0.95000000,2.17000000,32.17000000,153.93000000,258.97000000
763,1778626098.399471,-1.48000000,-0.94000000,2.11000000,76.29000000,195.62000000,208.19000000
764,1778626098.411406,-1.48000000,-0.94000000,2.11000000,76.29000000,195.62000000,208.19000000
765,1778626098.420737,-1.48000000,-0.94000000,2.11000000,76.29000000,195.62000000,208.19000000
766,1778626098.4304352,-1.37000000,-1.35000000,1.74000000,76.29000000,195.62000000,208.19000000
767,1778626098.439321,-1.37000000,-1.35000000,1.74000000,76.29000000,195.62000000,208.19000000
768,1778626098.451641,-1.37000000,-1.35000000,1.74000000,76.29000000,195.62000000,208.19000000
769,1778626098.4592252,-1.37000000,-1.35000000,1.74000000,76.29000000,195.62000000,208.19000000
770,1778626098.47004,-1.37000000,-1.35000000,1.74000000,76.29000000,195.62000000,208.19000000
771,1778626098.480149,-1.37000000,-1.35000000,1.74000000,76.29000000,195.62000000,208.19000000
772,1778626098.489494,-1.37000000,-1.35000000,1.74000000,76.29000000,195.62000000,208.19000000
773,1778626098.500057,-1.37000000,-1.35000000,1.74000000,76.29000000,195.62000000,208.19000000
774,1778626098.511408,-1.37000000,-1.35000000,1.74000000,76.29000000,195.62000000,208.19000000
775,1778626098.520502,-1.37000000,-1.35000000,1.74000000,76.29000000,195.62000000,208.19000000
776,1778626098.5301518,-0.99000000,-1.16000000,1.55000000,70.37000000,218.81000000,280.09000000
777,1778626098.539367,-0.99000000,-1.16000000,1.55000000,70.37000000,218.81000000,280.09000000
778,1778626098.551584,-0.79000000,-1.03000000,1.67000000,37.84000000,237.30000000,273.07000000
779,1778626098.560022,-0.79000000,-1.03000000,1.67000000,37.84000000,237.30000000,273.07000000
780,1778626098.5700731,-0.79000000,-1.03000000,1.67000000,37.84000000,237.30000000,273.07000000
781,1778626098.580066,-0.79000000,-1.03000000,1.67000000,37.84000000,237.30000000,273.07000000
782,1778626098.5892942,-0.40000000,-1.00000000,1.55000000,100.16000000,240.48000000,293.64000000
783,1778626098.599308,-0.40000000,-1.00000000,1.55000000,100.16000000,240.48000000,293.64000000
784,1778626098.6114078,-0.40000000,-1.00000000,1.55000000,100.16000000,240.48000000,293.64000000
785,1778626098.6201448,-0.14000000,-0.96000000,1.01000000,102.29000000,228.03000000,293.58000000
786,1778626098.630168,-0.14000000,-0.96000000,1.01000000,102.29000000,228.03000000,293.58000000
787,1778626098.639779,-0.14000000,-0.96000000,1.01000000,102.29000000,228.03000000,293.58000000
788,1778626098.649777,-0.14000000,-0.96000000,1.01000000,102.29000000,228.03000000,293.58000000
789,1778626098.6614468,-0.01000000,-0.72000000,0.65000000,72.14000000,192.99000000,278.14000000
790,1778626098.669677,-0.01000000,-0.72000000,0.65000000,72.14000000,192.99000000,278.14000000
791,1778626098.679231,-0.01000000,-0.72000000,0.65000000,72.14000000,192.99000000,278.14000000
792,1778626098.689142,-0.01000000,-0.72000000,0.65000000,72.14000000,192.99000000,278.14000000
793,1778626098.699611,0.26000000,-0.60000000,0.31000000,62.01000000,123.90000000,297.24000000
794,1778626098.711421,0.26000000,-0.60000000,0.31000000,62.01000000,123.90000000,297.24000000
795,1778626098.7192068,0.26000000,-0.60000000,0.31000000,62.01000000,123.90000000,297.24000000
796,1778626098.72946,0.26000000,-0.60000000,0.31000000,62.01000000,123.90000000,297.24000000
797,1778626098.740709,0.27000000,-0.25000000,0.35000000,93.38000000,81.85000000,284.79000000
798,1778626098.7512078,0.27000000,-0.25000000,0.35000000,93.38000000,81.85000000,284.79000000
799,1778626098.759913,0.27000000,-0.25000000,0.35000000,93.38000000,81.85000000,284.79000000
800,1778626098.771057,0.29000000,-0.26000000,0.30000000,80.69000000,126.16000000,202.94000000
801,1778626098.779207,0.29000000,-0.26000000,0.30000000,80.69000000,126.16000000,202.94000000
802,1778626098.7913349,0.29000000,-0.26000000,0.30000000,80.69000000,126.16000000,202.94000000
803,1778626098.799547,0.37000000,-0.34000000,-0.00000000,80.69000000,126.16000000,202.94000000
804,1778626098.810685,0.37000000,-0.34000000,-0.00000000,47.24000000,166.44000000,134.70000000
805,1778626098.8197818,0.37000000,-0.34000000,-0.00000000,47.24000000,166.44000000,134.70000000
806,1778626098.830485,0.37000000,-0.34000000,-0.00000000,47.24000000,166.44000000,134.70000000
807,1778626098.839583,0.37000000,-0.34000000,-0.00000000,47.24000000,166.44000000,134.70000000
808,1778626098.851546,0.37000000,-0.34000000,-0.00000000,47.24000000,166.44000000,134.70000000
809,1778626098.8610618,0.37000000,-0.34000000,-0.00000000,47.24000000,166.44000000,134.70000000
810,1778626098.8694131,0.37000000,-0.34000000,-0.00000000,47.24000000,166.44000000,134.70000000
811,1778626098.881558,0.37000000,-0.34000000,-0.00000000,47.24000000,166.44000000,134.70000000
812,1778626098.8902662,0.37000000,-0.34000000,-0.00000000,47.24000000,166.44000000,134.70000000
813,1778626098.901342,0.37000000,-0.34000000,-0.00000000,47.24000000,166.44000000,134.70000000
814,1778626098.909407,0.37000000,-0.34000000,-0.00000000,47.24000000,166.44000000,134.70000000
815,1778626098.920034,1.61000000,0.42000000,-0.26000000,13.61000000,79.83000000,147.28000000
816,1778626098.9291542,1.61000000,0.42000000,-0.26000000,13.61000000,79.83000000,147.28000000
817,1778626098.9391391,1.61000000,0.42000000,-0.26000000,13.61000000,79.83000000,147.28000000
818,1778626098.950467,1.61000000,0.42000000,-0.26000000,13.61000000,79.83000000,147.28000000
819,1778626098.961289,1.83000000,0.36000000,-0.46000000,-1.71000000,63.54000000,76.60000000
820,1778626098.970816,1.83000000,0.36000000,-0.46000000,-1.71000000,63.54000000,76.60000000
821,1778626098.979133,1.83000000,0.36000000,-0.46000000,-1.71000000,63.54000000,76.60000000
822,1778626098.990489,1.83000000,0.36000000,-0.46000000,-1.71000000,63.54000000,76.60000000
823,1778626098.999169,1.83000000,0.36000000,-0.46000000,-1.71000000,63.54000000,76.60000000
824,1778626099.0094662,1.83000000,0.36000000,-0.46000000,-1.71000000,63.54000000,76.60000000
825,1778626099.019179,1.83000000,0.36000000,-0.46000000,-1.71000000,63.54000000,76.60000000
826,1778626099.029717,1.83000000,0.36000000,-0.46000000,-1.71000000,63.54000000,76.60000000
827,1778626099.039244,1.83000000,0.36000000,-0.46000000,-1.71000000,63.54000000,76.60000000
828,1778626099.05163,2.47000000,0.48000000,-0.73000000,6.23000000,-70.37000000,-1.65000000
829,1778626099.060056,2.47000000,0.48000000,-0.73000000,6.23000000,-70.37000000,-1.65000000
830,1778626099.0699399,2.47000000,0.48000000,-0.73000000,6.23000000,-70.37000000,-1.65000000
831,1778626099.0799081,1.94000000,0.31000000,-0.65000000,-47.97000000,-75.93000000,-127.87000000
832,1778626099.0892081,1.94000000,0.31000000,-0.65000000,-47.97000000,-75.93000000,-127.87000000
833,1778626099.099246,1.94000000,0.31000000,-0.65000000,-47.97000000,-75.93000000,-127.87000000
834,1778626099.109868,1.34000000,0.17000000,-0.38000000,-70.68000000,-110.72000000,-169.98000000
835,1778626099.1214468,1.34000000,0.17000000,-0.38000000,-70.68000000,-110.72000000,-169.98000000
836,1778626099.129355,1.34000000,0.17000000,-0.38000000,-70.68000000,-110.72000000,-169.98000000
837,1778626099.1415732,0.90000000,0.07000000,-0.14000000,-70.98000000,-136.54000000,-192.08000000
838,1778626099.151021,0.90000000,0.07000000,-0.14000000,-70.98000000,-136.54000000,-192.08000000
839,1778626099.159179,0.90000000,0.07000000,-0.14000000,-70.98000000,-136.54000000,-192.08000000
840,1778626099.169284,0.90000000,0.07000000,-0.14000000,-70.98000000,-136.54000000,-192.08000000
841,1778626099.179321,0.90000000,0.07000000,-0.14000000,-70.98000000,-136.54000000,-192.08000000
842,1778626099.191605,0.54000000,-0.16000000,0.06000000,-72.69000000,-143.92000000,-217.10000000
843,1778626099.199498,0.54000000,-0.16000000,0.06000000,-72.69000000,-143.92000000,-217.10000000
844,1778626099.211458,0.54000000,-0.16000000,0.06000000,-72.69000000,-143.92000000,-217.10000000
845,1778626099.220766,0.22000000,-0.31000000,0.25000000,-95.03000000,-173.52000000,-234.86000000
846,1778626099.231196,0.22000000,-0.31000000,0.25000000,-95.03000000,-173.52000000,-234.86000000
847,1778626099.239143,0.22000000,-0.31000000,0.25000000,-95.03000000,-173.52000000,-234.86000000
848,1778626099.251599,0.22000000,-0.31000000,0.25000000,-95.03000000,-173.52000000,-234.86000000
849,1778626099.259518,0.22000000,-0.31000000,0.25000000,-95.03000000,-173.52000000,-234.86000000
850,1778626099.269716,0.22000000,-0.31000000,0.25000000,-95.03000000,-173.52000000,-234.86000000
851,1778626099.27919,-0.09000000,-0.48000000,0.67000000,-106.99000000,-173.52000000,-274.48000000
852,1778626099.289729,-0.09000000,-0.48000000,0.67000000,-106.99000000,-173.52000000,-274.48000000
853,1778626099.301495,-0.34000000,-0.59000000,0.75000000,-136.05000000,-160.03000000,-309.33000000
854,1778626099.309831,-0.34000000,-0.59000000,0.75000000,-136.05000000,-160.03000000,-309.33000000
855,1778626099.319288,-0.34000000,-0.59000000,0.75000000,-136.05000000,-160.03000000,-309.33000000
856,1778626099.329939,-0.34000000,-0.59000000,0.75000000,-136.05000000,-160.03000000,-309.33000000
857,1778626099.339351,-0.57000000,-0.68000000,1.01000000,-87.10000000,-176.03000000,-326.42000000
858,1778626099.3515651,-0.57000000,-0.68000000,1.01000000,-87.10000000,-176.03000000,-326.42000000
859,1778626099.3610282,-0.57000000,-0.68000000,1.01000000,-87.10000000,-176.03000000,-326.42000000
860,1778626099.369884,-0.57000000,-0.68000000,1.01000000,-87.10000000,-176.03000000,-326.42000000
861,1778626099.379206,-0.80000000,-0.95000000,1.06000000,-77.94000000,-217.53000000,-298.83000000
862,1778626099.389227,-0.80000000,-0.95000000,1.06000000,-77.94000000,-217.53000000,-298.83000000
863,1778626099.399848,-0.80000000,-0.95000000,1.06000000,-77.94000000,-217.53000000,-298.83000000
864,1778626099.409127,-0.80000000,-0.95000000,1.06000000,-77.94000000,-217.53000000,-298.83000000
865,1778626099.419635,-0.89000000,-0.94000000,1.12000000,-115.78000000,-189.09000000,-331.36000000
866,1778626099.431194,-0.89000000,-0.94000000,1.12000000,-115.78000000,-189.09000000,-331.36000000
867,1778626099.439339,-0.89000000,-0.94000000,1.12000000,-115.78000000,-189.09000000,-331.36000000
868,1778626099.451572,-1.05000000,-1.06000000,1.25000000,-42.85000000,-183.41000000,-312.32000000
869,1778626099.460811,-1.05000000,-1.06000000,1.25000000,-42.85000000,-183.41000000,-312.32000000
870,1778626099.469831,-1.05000000,-1.06000000,1.25000000,-42.85000000,-183.41000000,-312.32000000
871,1778626099.481463,-0.94000000,-1.20000000,1.22000000,-13.12000000,-239.50000000,-203.12000000
872,1778626099.4900632,-0.94000000,-1.20000000,1.22000000,-13.12000000,-239.50000000,-203.12000000
873,1778626099.5014029,-0.94000000,-1.20000000,1.22000000,-13.12000000,-239.50000000,-203.12000000
874,1778626099.511073,-0.94000000,-1.20000000,1.22000000,-13.12000000,-239.50000000,-203.12000000
875,1778626099.521138,-0.94000000,-1.20000000,1.22000000,-13.12000000,-239.50000000,-203.12000000
876,1778626099.5302558,-0.94000000,-1.20000000,1.22000000,-13.12000000,-239.50000000,-203.12000000
877,1778626099.540919,-0.94000000,-1.20000000,1.22000000,-13.12000000,-239.50000000,-203.12000000
878,1778626099.551179,-0.94000000,-1.20000000,1.22000000,-13.12000000,-239.50000000,-203.12000000
879,1778626099.560108,-0.94000000,-1.20000000,1.22000000,-13.12000000,-239.50000000,-203.12000000
880,1778626099.570684,-0.94000000,-1.20000000,1.22000000,-13.12000000,-239.50000000,-203.12000000
881,1778626099.579629,-1.19000000,-1.08000000,1.66000000,-71.53000000,-172.30000000,-319.70000000
882,1778626099.5891662,-1.19000000,-1.08000000,1.66000000,-71.53000000,-172.30000000,-319.70000000
883,1778626099.599144,-1.44000000,-1.20000000,1.47000000,-71.53000000,-172.30000000,-319.70000000
884,1778626099.611541,-1.44000000,-1.20000000,1.47000000,-71.53000000,-172.30000000,-319.70000000
885,1778626099.620408,-1.44000000,-1.20000000,1.47000000,-71.53000000,-172.30000000,-319.70000000
886,1778626099.6297758,-1.44000000,-1.20000000,1.47000000,-71.53000000,-172.30000000,-319.70000000
887,1778626099.63922,-2.13000000,-0.65000000,1.76000000,-45.65000000,-201.42000000,-135.50000000
888,1778626099.650709,-2.13000000,-0.65000000,1.76000000,-45.65000000,-201.42000000,-135.50000000
889,1778626099.659335,-2.13000000,-0.65000000,1.76000000,-45.65000000,-201.42000000,-135.50000000
890,1778626099.6708531,-2.47000000,-0.52000000,1.45000000,-88.50000000,-123.60000000,-87.46000000
891,1778626099.6791759,-2.47000000,-0.52000000,1.45000000,-88.50000000,-123.60000000,-87.46000000
892,1778626099.6892538,-2.47000000,-0.52000000,1.45000000,-88.50000000,-123.60000000,-87.46000000
893,1778626099.7016058,-2.47000000,-0.52000000,1.45000000,-88.50000000,-123.60000000,-87.46000000
894,1778626099.709804,-2.47000000,-0.52000000,1.45000000,-88.50000000,-123.60000000,-87.46000000
895,1778626099.719751,-2.64000000,-0.20000000,2.07000000,-20.81000000,-90.39000000,63.72000000
896,1778626099.729472,-2.64000000,-0.20000000,2.07000000,-20.81000000,-90.39000000,63.72000000
897,1778626099.7411149,-2.64000000,-0.20000000,2.07000000,-20.81000000,-90.39000000,63.72000000
898,1778626099.750008,-2.21000000,-0.76000000,1.81000000,10.80000000,101.56000000,68.05000000
899,1778626099.761417,-2.21000000,-0.76000000,1.81000000,10.80000000,101.56000000,68.05000000
900,1778626099.769814,-2.21000000,-0.76000000,1.81000000,10.80000000,101.56000000,68.05000000
901,1778626099.779181,-2.21000000,-0.76000000,1.81000000,10.80000000,101.56000000,68.05000000
902,1778626099.789224,-1.44000000,-0.94000000,1.43000000,-3.42000000,133.91000000,140.26000000
903,1778626099.8016279,-1.44000000,-0.94000000,1.43000000,-3.42000000,133.91000000,140.26000000
904,1778626099.810124,-1.44000000,-0.94000000,1.43000000,-3.42000000,133.91000000,140.26000000
905,1778626099.8197691,-1.44000000,-0.94000000,1.43000000,-3.42000000,133.91000000,140.26000000
906,1778626099.829195,-1.20000000,-0.85000000,1.58000000,32.96000000,157.53000000,166.38000000
907,1778626099.840076,-1.20000000,-0.85000000,1.58000000,32.96000000,157.53000000,166.38000000
908,1778626099.851393,-1.20000000,-0.85000000,1.58000000,32.96000000,157.53000000,166.38000000
909,1778626099.860749,-1.16000000,-0.97000000,1.48000000,16.91000000,188.42000000,142.21000000
910,1778626099.8707662,-1.16000000,-0.97000000,1.48000000,16.91000000,188.42000000,142.21000000
911,1778626099.8791869,-1.16000000,-0.97000000,1.48000000,16.91000000,188.42000000,142.21000000
912,1778626099.8891861,-1.16000000,-0.97000000,1.48000000,16.91000000,188.42000000,142.21000000
913,1778626099.9016151,-1.16000000,-0.97000000,1.48000000,16.91000000,188.42000000,142.21000000
914,1778626099.9096088,-1.16000000,-0.97000000,1.48000000,16.91000000,188.42000000,142.21000000
915,1778626099.919797,-1.16000000,-0.97000000,1.48000000,16.91000000,188.42000000,142.21000000
916,1778626099.9314802,-1.16000000,-0.97000000,1.48000000,16.91000000,188.42000000,142.21000000
917,1778626099.940125,-1.16000000,-0.97000000,1.48000000,16.91000000,188.42000000,142.21000000
918,1778626099.951404,-1.16000000,-0.97000000,1.48000000,16.91000000,188.42000000,142.21000000
919,1778626099.961091,-1.16000000,-0.97000000,1.48000000,16.91000000,188.42000000,142.21000000
920,1778626099.971137,-1.08000000,-0.94000000,0.98000000,-9.52000000,219.97000000,189.94000000
921,1778626099.979487,-1.08000000,-0.94000000,0.98000000,-9.52000000,219.97000000,189.94000000
922,1778626099.9915361,-1.08000000,-0.94000000,0.98000000,-9.52000000,219.97000000,189.94000000
923,1778626100.00014,-1.01000000,-0.88000000,0.59000000,-9.52000000,219.97000000,189.94000000
924,1778626100.011372,-1.01000000,-0.88000000,0.59000000,-7.63000000,221.56000000,223.88000000
925,1778626100.020363,-1.01000000,-0.88000000,0.59000000,-7.63000000,221.56000000,223.88000000
926,1778626100.031212,-1.01000000,-0.88000000,0.59000000,-7.63000000,221.56000000,223.88000000
927,1778626100.040948,-1.01000000,-0.88000000,0.59000000,-7.63000000,221.56000000,223.88000000
928,1778626100.051148,-1.01000000,-0.88000000,0.59000000,-7.63000000,221.56000000,223.88000000
929,1778626100.060019,-1.01000000,-0.88000000,0.59000000,-7.63000000,221.56000000,223.88000000
930,1778626100.069979,-1.01000000,-0.88000000,0.59000000,-7.63000000,221.56000000,223.88000000
931,1778626100.079139,-1.01000000,-0.88000000,0.59000000,-7.63000000,221.56000000,223.88000000
932,1778626100.089119,-1.01000000,-0.88000000,0.59000000,-7.63000000,221.56000000,223.88000000
933,1778626100.101656,-0.92000000,-0.89000000,1.21000000,1.22000000,148.80000000,297.12000000
934,1778626100.110789,-0.92000000,-0.89000000,1.21000000,1.22000000,148.80000000,297.12000000
935,1778626100.119657,-0.52000000,-0.67000000,0.89000000,1.22000000,148.80000000,297.12000000
936,1778626100.129292,-0.52000000,-0.67000000,0.89000000,34.48000000,165.34000000,317.38000000
937,1778626100.139651,-0.52000000,-0.67000000,0.89000000,34.48000000,165.34000000,317.38000000
938,1778626100.151517,-0.52000000,-0.67000000,0.89000000,34.48000000,165.34000000,317.38000000
939,1778626100.159604,-0.31000000,-0.49000000,0.68000000,50.90000000,164.86000000,316.96000000
940,1778626100.169739,-0.31000000,-0.49000000,0.68000000,50.90000000,164.86000000,316.96000000
941,1778626100.1811829,-0.31000000,-0.49000000,0.68000000,50.90000000,164.86000000,316.96000000
942,1778626100.191125,-0.31000000,-0.49000000,0.68000000,50.90000000,164.86000000,316.96000000
943,1778626100.199184,0.03000000,-0.35000000,0.44000000,48.65000000,153.32000000,297.85000000
944,1778626100.210498,0.03000000,-0.35000000,0.44000000,48.65000000,153.32000000,297.85000000
945,1778626100.2218492,0.03000000,-0.35000000,0.44000000,48.65000000,153.32000000,297.85000000
946,1778626100.239846,0.03000000,-0.35000000,0.44000000,48.65000000,153.32000000,297.85000000
947,1778626100.239868,0.03000000,-0.35000000,0.44000000,48.65000000,153.32000000,297.85000000
948,1778626100.249459,0.22000000,-0.15000000,0.39000000,68.54000000,92.53000000,304.63000000
949,1778626100.259413,0.22000000,-0.15000000,0.39000000,68.54000000,92.53000000,304.63000000
950,1778626100.26987,0.46000000,0.05000000,0.30000000,68.54000000,92.53000000,304.63000000
951,1778626100.281458,0.46000000,0.05000000,0.30000000,52.61000000,139.28000000,231.57000000
952,1778626100.289342,0.46000000,0.05000000,0.30000000,52.61000000,139.28000000,231.57000000
953,1778626100.299246,0.46000000,0.05000000,0.30000000,52.61000000,139.28000000,231.57000000
954,1778626100.311591,0.79000000,-0.02000000,-0.24000000,4.09000000,142.64000000,148.13000000
955,1778626100.319764,0.79000000,-0.02000000,-0.24000000,4.09000000,142.64000000,148.13000000
956,1778626100.329747,0.79000000,-0.02000000,-0.24000000,4.09000000,142.64000000,148.13000000
957,1778626100.341025,0.79000000,-0.02000000,-0.24000000,4.09000000,142.64000000,148.13000000
958,1778626100.350946,0.88000000,0.05000000,-0.26000000,6.29000000,62.32000000,208.98000000
959,1778626100.3597639,0.88000000,0.05000000,-0.26000000,6.29000000,62.32000000,208.98000000
960,1778626100.370892,0.88000000,0.05000000,-0.26000000,6.29000000,62.32000000,208.98000000
961,1778626100.379232,0.88000000,0.05000000,-0.26000000,6.29000000,62.32000000,208.98000000
962,1778626100.389556,1.28000000,0.46000000,-0.07000000,-22.77000000,25.21000000,212.95000000
963,1778626100.3996959,1.28000000,0.46000000,-0.07000000,-22.77000000,25.21000000,212.95000000
964,1778626100.409441,1.28000000,0.46000000,-0.07000000,-22.77000000,25.21000000,212.95000000
965,1778626100.419222,1.28000000,0.46000000,-0.07000000,-22.77000000,25.21000000,212.95000000
966,1778626100.431198,1.51000000,0.73000000,0.05000000,-24.23000000,38.09000000,65.12000000
967,1778626100.43921,1.51000000,0.73000000,0.05000000,-24.23000000,38.09000000,65.12000000
968,1778626100.449444,1.51000000,0.73000000,0.05000000,-24.23000000,38.09000000,65.12000000
969,1778626100.460564,1.69000000,0.61000000,-0.24000000,2.56000000,-6.90000000,38.51000000
970,1778626100.470737,1.69000000,0.61000000,-0.24000000,2.56000000,-6.90000000,38.51000000
971,1778626100.4812522,1.69000000,0.61000000,-0.24000000,2.56000000,-6.90000000,38.51000000
972,1778626100.4891598,1.69000000,0.61000000,-0.24000000,2.56000000,-6.90000000,38.51000000
973,1778626100.499178,1.69000000,0.61000000,-0.24000000,2.56000000,-6.90000000,38.51000000
974,1778626100.511639,1.55000000,0.66000000,-0.30000000,-1.53000000,-44.19000000,-57.56000000
975,1778626100.5201259,1.55000000,0.66000000,-0.30000000,-1.53000000,-44.19000000,-57.56000000
976,1778626100.529989,1.55000000,0.66000000,-0.30000000,-1.53000000,-44.19000000,-57.56000000
977,1778626100.539362,1.55000000,0.66000000,-0.30000000,-1.53000000,-44.19000000,-57.56000000
978,1778626100.549458,1.55000000,0.66000000,-0.30000000,-1.53000000,-44.19000000,-57.56000000
979,1778626100.55915,1.55000000,0.66000000,-0.30000000,-1.53000000,-44.19000000,-57.56000000
980,1778626100.5696378,1.55000000,0.66000000,-0.30000000,-1.53000000,-44.19000000,-57.56000000
981,1778626100.579832,1.55000000,0.66000000,-0.30000000,-1.53000000,-44.19000000,-57.56000000
982,1778626100.589228,1.55000000,0.66000000,-0.30000000,-1.53000000,-44.19000000,-57.56000000
983,1778626100.599136,1.55000000,0.66000000,-0.30000000,-1.53000000,-44.19000000,-57.56000000
984,1778626100.6092522,1.55000000,0.66000000,-0.30000000,-1.53000000,-44.19000000,-57.56000000
985,1778626100.620065,1.55000000,0.66000000,-0.30000000,-1.53000000,-44.19000000,-57.56000000
986,1778626100.631412,0.95000000,0.45000000,-0.33000000,-66.22000000,-87.10000000,-194.46000000
987,1778626100.6412249,0.95000000,0.45000000,-0.33000000,-66.22000000,-87.10000000,-194.46000000
988,1778626100.651105,0.65000000,0.21000000,-0.25000000,-66.22000000,-87.10000000,-194.46000000
989,1778626100.659595,0.65000000,0.21000000,-0.25000000,-87.10000000,-113.77000000,-283.57000000
990,1778626100.670948,0.65000000,0.21000000,-0.25000000,-87.10000000,-113.77000000,-283.57000000
991,1778626100.679223,0.65000000,0.21000000,-0.25000000,-87.10000000,-113.77000000,-283.57000000
992,1778626100.68919,0.38000000,-0.22000000,0.02000000,-87.10000000,-113.77000000,-283.57000000
993,1778626100.699133,0.38000000,-0.22000000,0.02000000,-99.06000000,-143.74000000,-275.88000000
994,1778626100.709644,0.38000000,-0.22000000,0.02000000,-99.06000000,-143.74000000,-275.88000000
995,1778626100.719607,0.38000000,-0.22000000,0.02000000,-99.06000000,-143.74000000,-275.88000000
996,1778626100.7304058,0.12000000,-0.48000000,0.20000000,-135.25000000,-137.39000000,-289.61000000
997,1778626100.7392,0.12000000,-0.48000000,0.20000000,-135.25000000,-137.39000000,-289.61000000
998,1778626100.751125,0.12000000,-0.48000000,0.20000000,-135.25000000,-137.39000000,-289.61000000
999,1778626100.761137,0.12000000,-0.48000000,0.20000000,-135.25000000,-137.39000000,-289.61000000
1000,1778626100.769648,-0.26000000,-0.66000000,0.40000000,-130.86000000,-93.20000000,-243.65000000
