id,timestamp,acc_x,acc_y,acc_z,gyro_x,gyro_y,gyro_z
1,1778626323.424566,-0.03000000,1.57000000,0.14000000,26.06000000,-50.42000000,-31.68000000
2,1778626323.435037,-0.03000000,1.57000000,0.14000000,26.06000000,-50.42000000,-31.68000000
3,1778626323.445741,0.51000000,1.69000000,-0.24000000,61.10000000,-5.86000000,65.31000000
4,1778626323.457493,0.51000000,1.69000000,-0.24000000,69.27000000,-131.16000000,15.08000000
5,1778626323.4667351,-0.42000000,1.02000000,0.37000000,117.98000000,96.56000000,55.05000000
6,1778626323.474585,-0.42000000,1.02000000,0.37000000,117.98000000,96.56000000,55.05000000
7,1778626323.486153,-0.42000000,1.02000000,0.37000000,117.98000000,96.56000000,55.05000000
8,1778626323.494899,-0.42000000,1.02000000,0.37000000,117.98000000,96.56000000,55.05000000
9,1778626323.5077078,-0.46000000,0.12000000,0.38000000,99.00000000,54.75000000,-10.80000000
10,1778626323.517589,-0.46000000,0.12000000,0.38000000,99.00000000,54.75000000,-10.80000000
11,1778626323.526243,-0.46000000,0.12000000,0.38000000,99.00000000,54.75000000,-10.80000000
12,1778626323.536521,-0.46000000,0.12000000,0.38000000,99.00000000,54.75000000,-10.80000000
13,1778626323.5454211,0.34000000,-0.13000000,0.08000000,78.67000000,-78.92000000,-41.08000000
14,1778626323.554692,0.34000000,-0.13000000,0.08000000,78.67000000,-78.92000000,-41.08000000
15,1778626323.566821,0.34000000,-0.13000000,0.08000000,78.67000000,-78.92000000,-41.08000000
16,1778626323.5768058,0.34000000,-0.13000000,0.08000000,78.67000000,-78.92000000,-41.08000000
17,1778626323.584647,0.30000000,0.36000000,0.15000000,-4.15000000,0.55000000,-40.65000000
18,1778626323.594866,0.30000000,0.36000000,0.15000000,-4.15000000,0.55000000,-40.65000000
19,1778626323.6077352,0.30000000,0.36000000,0.15000000,-4.15000000,0.55000000,-40.65000000
20,1778626323.617687,-0.13000000,0.28000000,-0.06000000,18.19000000,-47.91000000,-35.77000000
21,1778626323.625058,-0.13000000,0.28000000,-0.06000000,18.19000000,-47.91000000,-35.77000000
22,1778626323.636836,-0.13000000,0.28000000,-0.06000000,18.19000000,-47.91000000,-35.77000000
23,1778626323.6448882,-0.13000000,0.28000000,-0.06000000,18.19000000,-47.91000000,-35.77000000
24,1778626323.657739,-0.35000000,0.28000000,0.02000000,-10.80000000,-21.18000000,-83.56000000
25,1778626323.666977,-0.35000000,0.28000000,0.02000000,-10.80000000,-21.18000000,-83.56000000
26,1778626323.6760478,-0.35000000,0.28000000,0.02000000,-10.80000000,-21.18000000,-83.56000000
27,1778626323.687851,-0.35000000,0.28000000,0.02000000,-10.80000000,-21.18000000,-83.56000000
28,1778626323.695307,-0.10000000,0.17000000,0.19000000,-32.71000000,32.35000000,-130.19000000
29,1778626323.704669,-0.10000000,0.17000000,0.19000000,-32.71000000,32.35000000,-130.19000000
30,1778626323.717658,-0.10000000,0.17000000,0.19000000,-32.71000000,32.35000000,-130.19000000
31,1778626323.7255838,-0.10000000,0.17000000,0.19000000,-32.71000000,32.35000000,-130.19000000
32,1778626323.73634,0.37000000,0.54000000,-0.26000000,-89.60000000,-29.48000000,-121.46000000
33,1778626323.744863,0.37000000,0.54000000,-0.26000000,-89.60000000,-29.48000000,-121.46000000
34,1778626323.7546592,0.37000000,0.54000000,-0.26000000,-89.60000000,-29.48000000,-121.46000000
35,1778626323.766352,0.37000000,0.54000000,-0.26000000,-89.60000000,-29.48000000,-121.46000000
36,1778626323.7747588,-1.46000000,2.10000000,0.80000000,-105.29000000,319.52000000,-190.49000000
37,1778626323.784659,-1.46000000,2.10000000,0.80000000,-105.29000000,319.52000000,-190.49000000
38,1778626323.794579,-1.46000000,2.10000000,0.80000000,-105.29000000,319.52000000,-190.49000000
39,1778626323.804599,0.54000000,2.29000000,0.24000000,-37.23000000,-317.87000000,-87.22000000
40,1778626323.816308,0.54000000,2.29000000,0.24000000,-37.23000000,-317.87000000,-87.22000000
41,1778626323.828678,0.54000000,2.29000000,0.24000000,-37.23000000,-317.87000000,-87.22000000
42,1778626323.83671,0.54000000,2.29000000,0.24000000,-37.23000000,-317.87000000,-87.22000000
43,1778626323.848495,-0.08000000,0.60000000,0.09000000,-55.66000000,41.38000000,-11.29000000
44,1778626323.856786,-0.08000000,0.60000000,0.09000000,-55.66000000,41.38000000,-11.29000000
45,1778626323.8649511,-0.08000000,0.60000000,0.09000000,-55.66000000,41.38000000,-11.29000000
46,1778626323.8763158,-1.01000000,2.65000000,0.32000000,-17.27000000,33.57000000,25.45000000
47,1778626323.886085,-1.01000000,2.65000000,0.32000000,-17.27000000,33.57000000,25.45000000
48,1778626323.898774,-1.01000000,2.65000000,0.32000000,-17.27000000,33.57000000,25.45000000
49,1778626323.905973,-1.01000000,2.65000000,0.32000000,-17.27000000,33.57000000,25.45000000
50,1778626323.916102,-1.01000000,2.65000000,0.32000000,-17.27000000,33.57000000,25.45000000
51,1778626323.927105,-1.01000000,2.65000000,0.32000000,-17.27000000,33.57000000,25.45000000
52,1778626323.934927,-1.01000000,2.65000000,0.32000000,-17.27000000,33.57000000,25.45000000
53,1778626323.9448938,-1.01000000,2.65000000,0.32000000,-17.27000000,33.57000000,25.45000000
54,1778626323.9570801,-1.01000000,2.65000000,0.32000000,-17.27000000,33.57000000,25.45000000
55,1778626323.967577,-1.01000000,2.65000000,0.32000000,-17.27000000,33.57000000,25.45000000
56,1778626323.9763432,0.30000000,0.94000000,0.22000000,134.70000000,-90.82000000,166.44000000
57,1778626323.9850729,0.30000000,0.94000000,0.22000000,134.70000000,-90.82000000,166.44000000
58,1778626323.995141,0.30000000,0.94000000,0.22000000,134.70000000,-90.82000000,166.44000000
59,1778626324.007633,0.30000000,0.94000000,0.22000000,134.70000000,-90.82000000,166.44000000
60,1778626324.016652,0.53000000,-0.01000000,-0.03000000,70.25000000,-107.30000000,206.05000000
61,1778626324.025384,0.53000000,-0.01000000,-0.03000000,70.25000000,-107.30000000,206.05000000
62,1778626324.034571,0.53000000,-0.01000000,-0.03000000,70.25000000,-107.30000000,206.05000000
63,1778626324.0457458,0.53000000,-0.01000000,-0.03000000,70.25000000,-107.30000000,206.05000000
64,1778626324.057386,-0.29000000,0.49000000,-0.26000000,10.68000000,8.06000000,136.60000000
65,1778626324.0677319,-0.29000000,0.49000000,-0.26000000,10.68000000,8.06000000,136.60000000
66,1778626324.076577,-0.29000000,0.49000000,-0.26000000,10.68000000,8.06000000,136.60000000
67,1778626324.0862231,-0.29000000,0.49000000,-0.26000000,10.68000000,8.06000000,136.60000000
68,1778626324.094765,-0.59000000,0.58000000,0.47000000,-42.30000000,136.96000000,30.94000000
69,1778626324.107827,-0.59000000,0.58000000,0.47000000,-42.30000000,136.96000000,30.94000000
70,1778626324.1177359,-0.59000000,0.58000000,0.47000000,-42.30000000,136.96000000,30.94000000
71,1778626324.127368,0.14000000,0.10000000,0.59000000,-42.30000000,136.96000000,30.94000000
72,1778626324.135189,0.14000000,0.10000000,0.59000000,-38.64000000,234.56000000,56.03000000
73,1778626324.148306,0.14000000,0.10000000,0.59000000,-38.64000000,234.56000000,56.03000000
74,1778626324.154647,0.14000000,0.10000000,0.59000000,-38.64000000,234.56000000,56.03000000
75,1778626324.166498,0.03000000,0.24000000,0.13000000,-57.56000000,-94.06000000,43.21000000
76,1778626324.175046,0.03000000,0.24000000,0.13000000,-57.56000000,-94.06000000,43.21000000
77,1778626324.185301,0.03000000,0.24000000,0.13000000,-57.56000000,-94.06000000,43.21000000
78,1778626324.194705,0.03000000,0.24000000,0.13000000,-57.56000000,-94.06000000,43.21000000
79,1778626324.207048,-0.10000000,0.41000000,0.09000000,-68.97000000,24.48000000,8.73000000
80,1778626324.2180018,-0.10000000,0.41000000,0.09000000,-68.97000000,24.48000000,8.73000000
81,1778626324.227061,-0.10000000,0.41000000,0.09000000,-68.97000000,24.48000000,8.73000000
82,1778626324.2382889,-0.32000000,0.09000000,0.02000000,-100.46000000,-0.18000000,-2.20000000
83,1778626324.245777,-0.32000000,0.09000000,0.02000000,-100.46000000,-0.18000000,-2.20000000
84,1778626324.257874,-0.32000000,0.09000000,0.02000000,-100.46000000,-0.18000000,-2.20000000
85,1778626324.266123,-0.32000000,0.09000000,0.02000000,-100.46000000,-0.18000000,-2.20000000
86,1778626324.2746618,-0.32000000,0.09000000,0.02000000,-100.46000000,-0.18000000,-2.20000000
87,1778626324.287035,-0.32000000,0.09000000,0.02000000,-100.46000000,-0.18000000,-2.20000000
88,1778626324.294699,-0.32000000,0.09000000,0.02000000,-100.46000000,-0.18000000,-2.20000000
89,1778626324.307777,-0.32000000,0.09000000,0.02000000,-100.46000000,-0.18000000,-2.20000000
90,1778626324.316624,-0.32000000,0.09000000,0.02000000,-100.46000000,-0.18000000,-2.20000000
91,1778626324.325001,-0.32000000,0.09000000,0.02000000,-100.46000000,-0.18000000,-2.20000000
92,1778626324.337025,-0.32000000,0.09000000,0.02000000,-100.46000000,-0.18000000,-2.20000000
93,1778626324.344908,-0.32000000,0.09000000,0.02000000,-100.46000000,-0.18000000,-2.20000000
94,1778626324.357884,0.79000000,4.16000000,0.68000000,66.47000000,-266.91000000,-39.06000000
95,1778626324.365122,0.79000000,4.16000000,0.68000000,66.47000000,-266.91000000,-39.06000000
96,1778626324.3769338,0.79000000,4.16000000,0.68000000,66.47000000,-266.91000000,-39.06000000
97,1778626324.38485,0.23000000,2.95000000,-0.06000000,66.47000000,-266.91000000,-39.06000000
98,1778626324.395613,0.23000000,2.95000000,-0.06000000,31.68000000,-20.14000000,-5.68000000
99,1778626324.4058769,0.23000000,2.95000000,-0.06000000,31.68000000,-20.14000000,-5.68000000
100,1778626324.416476,0.23000000,2.95000000,-0.06000000,31.68000000,-20.14000000,-5.68000000
101,1778626324.42464,0.23000000,2.95000000,-0.06000000,31.68000000,-20.14000000,-5.68000000
102,1778626324.434913,0.23000000,2.95000000,-0.06000000,31.68000000,-20.14000000,-5.68000000
103,1778626324.445034,0.23000000,2.95000000,-0.06000000,31.68000000,-20.14000000,-5.68000000
104,1778626324.4569228,0.23000000,2.95000000,-0.06000000,31.68000000,-20.14000000,-5.68000000
105,1778626324.467798,0.23000000,2.95000000,-0.06000000,31.68000000,-20.14000000,-5.68000000
106,1778626324.4753191,0.23000000,2.95000000,-0.06000000,31.68000000,-20.14000000,-5.68000000
107,1778626324.485878,0.23000000,2.95000000,-0.06000000,31.68000000,-20.14000000,-5.68000000
108,1778626324.4952269,-0.36000000,1.03000000,0.33000000,103.64000000,59.27000000,45.10000000
109,1778626324.507914,-0.13000000,0.16000000,0.13000000,92.96000000,-6.59000000,0.43000000
110,1778626324.514751,-0.13000000,0.16000000,0.13000000,92.96000000,-6.59000000,0.43000000
111,1778626324.524606,-0.13000000,0.16000000,0.13000000,92.96000000,-6.59000000,0.43000000
112,1778626324.535477,-0.13000000,0.16000000,0.13000000,92.96000000,-6.59000000,0.43000000
113,1778626324.544644,-0.09000000,-0.26000000,0.46000000,34.36000000,70.86000000,-41.20000000
114,1778626324.556443,-0.09000000,-0.26000000,0.46000000,34.36000000,70.86000000,-41.20000000
115,1778626324.565969,-0.09000000,-0.26000000,0.46000000,34.36000000,70.86000000,-41.20000000
116,1778626324.574573,-0.33000000,0.21000000,-0.48000000,34.36000000,70.86000000,-41.20000000
117,1778626324.584676,-0.33000000,0.21000000,-0.48000000,-32.41000000,-194.52000000,-76.35000000
118,1778626324.594624,-0.33000000,0.21000000,-0.48000000,-32.41000000,-194.52000000,-76.35000000
119,1778626324.607924,0.16000000,0.28000000,-0.30000000,-32.41000000,-194.52000000,-76.35000000
120,1778626324.617841,0.16000000,0.28000000,-0.30000000,-40.71000000,4.52000000,-95.34000000
121,1778626324.624577,0.16000000,0.28000000,-0.30000000,-40.71000000,4.52000000,-95.34000000
122,1778626324.634607,0.16000000,0.28000000,-0.30000000,-40.71000000,4.52000000,-95.34000000
123,1778626324.647713,0.36000000,0.09000000,-0.21000000,10.93000000,-19.53000000,-106.45000000
124,1778626324.655097,0.36000000,0.09000000,-0.21000000,10.93000000,-19.53000000,-106.45000000
125,1778626324.6676228,0.36000000,0.09000000,-0.21000000,10.93000000,-19.53000000,-106.45000000
126,1778626324.67472,0.36000000,0.09000000,-0.21000000,10.93000000,-19.53000000,-106.45000000
127,1778626324.684597,0.36000000,0.09000000,-0.21000000,10.93000000,-19.53000000,-106.45000000
128,1778626324.694632,0.26000000,0.24000000,-0.18000000,-74.65000000,83.07000000,-120.30000000
129,1778626324.705911,0.26000000,0.24000000,-0.18000000,-74.65000000,83.07000000,-120.30000000
130,1778626324.716681,0.26000000,0.24000000,-0.18000000,-74.65000000,83.07000000,-120.30000000
131,1778626324.724651,-0.34000000,0.60000000,0.75000000,-74.65000000,83.07000000,-120.30000000
132,1778626324.734613,-0.34000000,0.60000000,0.75000000,-92.47000000,44.62000000,-119.26000000
133,1778626324.745266,-0.34000000,0.60000000,0.75000000,-92.47000000,44.62000000,-119.26000000
134,1778626324.754842,-0.34000000,0.60000000,0.75000000,-92.47000000,44.62000000,-119.26000000
135,1778626324.7659452,-1.09000000,2.35000000,-0.26000000,-109.50000000,82.76000000,-280.46000000
136,1778626324.7748559,-1.09000000,2.35000000,-0.26000000,-109.50000000,82.76000000,-280.46000000
137,1778626324.784985,-1.09000000,2.35000000,-0.26000000,-109.50000000,82.76000000,-280.46000000
138,1778626324.795014,-1.09000000,2.35000000,-0.26000000,-109.50000000,82.76000000,-280.46000000
139,1778626324.807884,1.01000000,1.37000000,0.74000000,-71.96000000,-115.54000000,-10.13000000
140,1778626324.816592,1.01000000,1.37000000,0.74000000,-71.96000000,-115.54000000,-10.13000000
141,1778626324.828127,1.01000000,1.37000000,0.74000000,-71.96000000,-115.54000000,-10.13000000
142,1778626324.834841,-0.81000000,2.10000000,0.44000000,-71.96000000,-115.54000000,-10.13000000
143,1778626324.8448699,-0.81000000,2.10000000,0.44000000,-71.96000000,-115.54000000,-10.13000000
144,1778626324.8574982,-0.81000000,2.10000000,0.44000000,-39.73000000,19.65000000,-20.39000000
145,1778626324.866438,-0.81000000,2.10000000,0.44000000,-39.73000000,19.65000000,-20.39000000
146,1778626324.8745909,-0.81000000,2.10000000,0.44000000,-39.73000000,19.65000000,-20.39000000
147,1778626324.885463,-0.35000000,1.92000000,0.67000000,17.76000000,-39.06000000,-19.96000000
148,1778626324.894923,-0.35000000,1.92000000,0.67000000,17.76000000,-39.06000000,-19.96000000
149,1778626324.907435,-0.35000000,1.92000000,0.67000000,17.76000000,-39.06000000,-19.96000000
150,1778626324.915841,-0.43000000,1.78000000,0.46000000,52.43000000,42.05000000,41.08000000
151,1778626324.926646,-0.43000000,1.78000000,0.46000000,52.43000000,42.05000000,41.08000000
152,1778626324.934596,-0.43000000,1.78000000,0.46000000,52.43000000,42.05000000,41.08000000
153,1778626324.946871,-0.43000000,1.78000000,0.46000000,52.43000000,42.05000000,41.08000000
154,1778626324.957477,-0.43000000,1.78000000,0.46000000,52.43000000,42.05000000,41.08000000
155,1778626324.9678452,-0.43000000,1.78000000,0.46000000,52.43000000,42.05000000,41.08000000
156,1778626324.974915,-0.43000000,1.78000000,0.46000000,52.43000000,42.05000000,41.08000000
157,1778626324.988062,-0.43000000,1.78000000,0.46000000,52.43000000,42.05000000,41.08000000
158,1778626324.9952981,-0.43000000,1.78000000,0.46000000,52.43000000,42.05000000,41.08000000
159,1778626325.007968,-0.43000000,1.78000000,0.46000000,52.43000000,42.05000000,41.08000000
160,1778626325.015923,-0.04000000,1.36000000,-0.07000000,153.56000000,-22.52000000,146.73000000
161,1778626325.028646,0.17000000,0.51000000,0.22000000,160.16000000,-36.01000000,176.70000000
162,1778626325.035224,0.17000000,0.51000000,0.22000000,160.16000000,-36.01000000,176.70000000
163,1778626325.0458539,0.17000000,0.51000000,0.22000000,160.16000000,-36.01000000,176.70000000
164,1778626325.057503,0.17000000,0.51000000,0.22000000,160.16000000,-36.01000000,176.70000000
165,1778626325.067704,0.17000000,0.51000000,0.22000000,160.16000000,-36.01000000,176.70000000
166,1778626325.075571,-0.50000000,-0.11000000,0.09000000,59.94000000,3.72000000,125.85000000
167,1778626325.0849578,-0.50000000,-0.11000000,0.09000000,59.94000000,3.72000000,125.85000000
168,1778626325.095098,-0.50000000,-0.11000000,0.09000000,59.94000000,3.72000000,125.85000000
169,1778626325.108483,-0.15000000,0.73000000,0.37000000,-17.58000000,52.80000000,94.91000000
170,1778626325.1164732,-0.15000000,0.73000000,0.37000000,-17.58000000,52.80000000,94.91000000
171,1778626325.124635,-0.15000000,0.73000000,0.37000000,-17.58000000,52.80000000,94.91000000
172,1778626325.1352372,-0.15000000,0.73000000,0.37000000,-17.58000000,52.80000000,94.91000000
173,1778626325.1470778,0.07000000,0.51000000,0.41000000,-72.75000000,163.39000000,56.64000000
174,1778626325.157535,0.07000000,0.51000000,0.41000000,-72.75000000,163.39000000,56.64000000
175,1778626325.1657732,0.07000000,0.51000000,0.41000000,-72.75000000,163.39000000,56.64000000
176,1778626325.178598,0.07000000,0.51000000,0.41000000,-72.75000000,163.39000000,56.64000000
177,1778626325.184632,-0.25000000,-0.24000000,-0.23000000,-42.91000000,-18.37000000,79.47000000
178,1778626325.195412,-0.25000000,-0.24000000,-0.23000000,-42.91000000,-18.37000000,79.47000000
179,1778626325.207513,-0.25000000,-0.24000000,-0.23000000,-42.91000000,-18.37000000,79.47000000
180,1778626325.2158,-0.33000000,0.23000000,-0.61000000,-53.71000000,-155.76000000,30.64000000
181,1778626325.230108,-0.33000000,0.23000000,-0.61000000,-53.71000000,-155.76000000,30.64000000
182,1778626325.235018,-0.33000000,0.23000000,-0.61000000,-53.71000000,-155.76000000,30.64000000
183,1778626325.2459269,-0.33000000,0.23000000,-0.61000000,-53.71000000,-155.76000000,30.64000000
184,1778626325.2575412,0.01000000,0.35000000,0.16000000,-67.99000000,-67.87000000,17.70000000
185,1778626325.266094,0.01000000,0.35000000,0.16000000,-67.99000000,-67.87000000,17.70000000
186,1778626325.276261,0.01000000,0.35000000,0.16000000,-67.99000000,-67.87000000,17.70000000
187,1778626325.2852569,0.01000000,0.35000000,0.16000000,-67.99000000,-67.87000000,17.70000000
188,1778626325.295232,0.16000000,1.49000000,1.01000000,-118.29000000,355.65000000,-108.89000000
189,1778626325.307518,0.16000000,1.49000000,1.01000000,-118.29000000,355.65000000,-108.89000000
190,1778626325.318104,0.16000000,1.49000000,1.01000000,-118.29000000,355.65000000,-108.89000000
191,1778626325.3246222,0.16000000,1.49000000,1.01000000,-118.29000000,355.65000000,-108.89000000
192,1778626325.3387468,0.16000000,1.49000000,1.01000000,-118.29000000,355.65000000,-108.89000000
193,1778626325.344969,0.16000000,1.49000000,1.01000000,-118.29000000,355.65000000,-108.89000000
194,1778626325.35479,0.16000000,1.49000000,1.01000000,-118.29000000,355.65000000,-108.89000000
195,1778626325.368876,0.16000000,1.49000000,1.01000000,-118.29000000,355.65000000,-108.89000000
196,1778626325.375047,0.16000000,1.49000000,1.01000000,-118.29000000,355.65000000,-108.89000000
197,1778626325.38665,0.16000000,1.49000000,1.01000000,-118.29000000,355.65000000,-108.89000000
198,1778626325.395828,0.16000000,1.49000000,1.01000000,-118.29000000,355.65000000,-108.89000000
199,1778626325.407517,0.00000000,2.64000000,-0.16000000,88.99000000,-108.83000000,5.37000000
200,1778626325.417888,0.00000000,2.64000000,-0.16000000,88.99000000,-108.83000000,5.37000000
201,1778626325.424604,0.00000000,2.64000000,-0.16000000,88.99000000,-108.83000000,5.37000000
202,1778626325.4370759,0.00000000,2.64000000,-0.16000000,88.99000000,-108.83000000,5.37000000
203,1778626325.4464839,0.42000000,2.09000000,-0.14000000,99.61000000,7.93000000,25.15000000
204,1778626325.457536,0.42000000,2.09000000,-0.14000000,99.61000000,7.93000000,25.15000000
205,1778626325.4679081,0.42000000,2.09000000,-0.14000000,99.61000000,7.93000000,25.15000000
206,1778626325.476901,0.42000000,2.09000000,-0.14000000,99.61000000,7.93000000,25.15000000
207,1778626325.48817,0.42000000,2.09000000,-0.14000000,99.61000000,7.93000000,25.15000000
208,1778626325.495115,0.42000000,2.09000000,-0.14000000,99.61000000,7.93000000,25.15000000
209,1778626325.5080352,0.42000000,2.09000000,-0.14000000,99.61000000,7.93000000,25.15000000
210,1778626325.517378,0.42000000,2.09000000,-0.14000000,99.61000000,7.93000000,25.15000000
211,1778626325.524618,0.42000000,2.09000000,-0.14000000,99.61000000,7.93000000,25.15000000
212,1778626325.537722,0.42000000,2.09000000,-0.14000000,99.61000000,7.93000000,25.15000000
213,1778626325.545343,0.41000000,-0.22000000,0.41000000,105.53000000,-30.21000000,-36.68000000
214,1778626325.557529,0.41000000,-0.22000000,0.41000000,105.53000000,-30.21000000,-36.68000000
215,1778626325.568133,0.41000000,-0.22000000,0.41000000,105.53000000,-30.21000000,-36.68000000
216,1778626325.574673,-0.13000000,0.28000000,0.20000000,-8.67000000,-58.41000000,-48.65000000
217,1778626325.586833,-0.13000000,0.28000000,0.20000000,-8.67000000,-58.41000000,-48.65000000
218,1778626325.5949209,-0.13000000,0.28000000,0.20000000,-8.67000000,-58.41000000,-48.65000000
219,1778626325.6046789,-0.13000000,0.28000000,0.20000000,-8.67000000,-58.41000000,-48.65000000
220,1778626325.6184099,-0.12000000,0.19000000,-0.20000000,6.65000000,-123.23000000,-50.60000000
221,1778626325.6262841,-0.12000000,0.19000000,-0.20000000,6.65000000,-123.23000000,-50.60000000
222,1778626325.6368158,-0.12000000,0.19000000,-0.20000000,6.65000000,-123.23000000,-50.60000000
223,1778626325.645532,-0.12000000,0.19000000,-0.20000000,6.65000000,-123.23000000,-50.60000000
224,1778626325.65755,0.11000000,0.29000000,-0.16000000,5.80000000,-55.85000000,-85.82000000
225,1778626325.665731,0.11000000,0.29000000,-0.16000000,5.80000000,-55.85000000,-85.82000000
226,1778626325.6753411,0.11000000,0.29000000,-0.16000000,5.80000000,-55.85000000,-85.82000000
227,1778626325.687836,0.11000000,0.29000000,-0.16000000,5.80000000,-55.85000000,-85.82000000
228,1778626325.69513,0.16000000,0.30000000,0.00000000,-64.70000000,34.24000000,-137.63000000
229,1778626325.706007,0.16000000,0.30000000,0.00000000,-64.70000000,34.24000000,-137.63000000
230,1778626325.71741,0.16000000,0.30000000,0.00000000,-64.70000000,34.24000000,-137.63000000
231,1778626325.724719,0.16000000,0.30000000,0.00000000,-64.70000000,34.24000000,-137.63000000
232,1778626325.737566,0.59000000,0.19000000,0.07000000,-36.50000000,68.30000000,-86.73000000
233,1778626325.744627,0.59000000,0.19000000,0.07000000,-36.50000000,68.30000000,-86.73000000
234,1778626325.757596,0.59000000,0.19000000,0.07000000,-36.50000000,68.30000000,-86.73000000
235,1778626325.768065,0.59000000,0.19000000,0.07000000,-36.50000000,68.30000000,-86.73000000
236,1778626325.7751691,-0.81000000,0.41000000,0.01000000,-36.62000000,100.59000000,-106.69000000
237,1778626325.7878542,-0.81000000,0.41000000,0.01000000,-36.62000000,100.59000000,-106.69000000
238,1778626325.795081,-0.81000000,0.41000000,0.01000000,-36.62000000,100.59000000,-106.69000000
239,1778626325.805154,-0.81000000,0.41000000,0.01000000,-36.62000000,100.59000000,-106.69000000
240,1778626325.817046,-1.26000000,2.86000000,0.41000000,-150.63000000,-159.85000000,-227.23000000
241,1778626325.826636,-1.26000000,2.86000000,0.41000000,-150.63000000,-159.85000000,-227.23000000
242,1778626325.834624,-1.26000000,2.86000000,0.41000000,-150.63000000,-159.85000000,-227.23000000
243,1778626325.8452952,-1.26000000,2.86000000,0.41000000,-150.63000000,-159.85000000,-227.23000000
244,1778626325.858283,0.41000000,2.05000000,0.54000000,-35.10000000,3.42000000,-71.78000000
245,1778626325.865186,0.41000000,2.05000000,0.54000000,-35.10000000,3.42000000,-71.78000000
246,1778626325.8787682,0.41000000,2.05000000,0.54000000,-35.10000000,3.42000000,-71.78000000
247,1778626325.886818,-0.43000000,1.08000000,0.01000000,-38.15000000,49.01000000,-15.44000000
248,1778626325.89489,-0.43000000,1.08000000,0.01000000,-38.15000000,49.01000000,-15.44000000
249,1778626325.908606,-0.43000000,1.08000000,0.01000000,-38.15000000,49.01000000,-15.44000000
250,1778626325.9148412,-0.43000000,1.08000000,0.01000000,-38.15000000,49.01000000,-15.44000000
251,1778626325.928706,-1.13000000,1.96000000,0.55000000,43.52000000,-34.18000000,48.16000000
252,1778626325.9346728,-1.13000000,1.96000000,0.55000000,43.52000000,-34.18000000,48.16000000
253,1778626325.945348,-1.13000000,1.96000000,0.55000000,43.52000000,-34.18000000,48.16000000
254,1778626325.958117,-0.42000000,2.50000000,0.15000000,71.78000000,-56.40000000,81.67000000
255,1778626325.964876,-0.42000000,2.50000000,0.15000000,71.78000000,-56.40000000,81.67000000
256,1778626325.977599,-0.42000000,2.50000000,0.15000000,71.78000000,-56.40000000,81.67000000
257,1778626325.9858198,-0.42000000,2.50000000,0.15000000,71.78000000,-56.40000000,81.67000000
258,1778626325.995338,-0.42000000,2.50000000,0.15000000,71.78000000,-56.40000000,81.67000000
259,1778626326.008128,-0.42000000,2.50000000,0.15000000,71.78000000,-56.40000000,81.67000000
260,1778626326.016129,-0.42000000,2.50000000,0.15000000,71.78000000,-56.40000000,81.67000000
261,1778626326.024767,-0.42000000,2.50000000,0.15000000,71.78000000,-56.40000000,81.67000000
262,1778626326.038786,-0.42000000,2.50000000,0.15000000,71.78000000,-56.40000000,81.67000000
263,1778626326.045791,-0.42000000,2.50000000,0.15000000,71.78000000,-56.40000000,81.67000000
264,1778626326.0576022,-0.42000000,2.50000000,0.15000000,71.78000000,-56.40000000,81.67000000
265,1778626326.065639,0.02000000,0.15000000,0.16000000,80.44000000,12.57000000,181.58000000
266,1778626326.074811,0.02000000,0.15000000,0.16000000,80.44000000,12.57000000,181.58000000
267,1778626326.085716,0.02000000,0.15000000,0.16000000,80.44000000,12.57000000,181.58000000
268,1778626326.0951848,-0.34000000,0.25000000,-0.19000000,38.76000000,12.27000000,147.64000000
269,1778626326.107611,-0.34000000,0.25000000,-0.19000000,38.76000000,12.27000000,147.64000000
270,1778626326.118098,-0.34000000,0.25000000,-0.19000000,38.76000000,12.27000000,147.64000000
271,1778626326.126374,-0.44000000,0.39000000,-0.03000000,-62.87000000,-35.28000000,41.02000000
272,1778626326.136876,-0.44000000,0.39000000,-0.03000000,-62.87000000,-35.28000000,41.02000000
273,1778626326.1451929,-0.44000000,0.39000000,-0.03000000,-62.87000000,-35.28000000,41.02000000
274,1778626326.157666,-0.44000000,0.39000000,-0.03000000,-62.87000000,-35.28000000,41.02000000
275,1778626326.165241,-0.05000000,0.26000000,0.50000000,-77.09000000,97.66000000,39.67000000
276,1778626326.174944,-0.05000000,0.26000000,0.50000000,-77.09000000,97.66000000,39.67000000
277,1778626326.184823,-0.05000000,0.26000000,0.50000000,-77.09000000,97.66000000,39.67000000
278,1778626326.194921,0.11000000,0.02000000,0.41000000,-70.13000000,152.28000000,77.76000000
279,1778626326.207627,0.11000000,0.02000000,0.41000000,-70.13000000,152.28000000,77.76000000
280,1778626326.217952,0.11000000,0.02000000,0.41000000,-70.13000000,152.28000000,77.76000000
281,1778626326.224732,0.11000000,0.02000000,0.41000000,-70.13000000,152.28000000,77.76000000
282,1778626326.236253,0.23000000,0.15000000,0.10000000,-35.95000000,-46.81000000,52.61000000
283,1778626326.245038,0.23000000,0.15000000,0.10000000,-35.95000000,-46.81000000,52.61000000
284,1778626326.257697,0.23000000,0.15000000,0.10000000,-35.95000000,-46.81000000,52.61000000
285,1778626326.266148,0.07000000,0.32000000,-0.22000000,-35.95000000,-46.81000000,52.61000000
286,1778626326.2749288,0.07000000,0.32000000,-0.22000000,-73.06000000,26.79000000,12.39000000
287,1778626326.2853389,0.07000000,0.32000000,-0.22000000,-73.06000000,26.79000000,12.39000000
288,1778626326.295271,0.07000000,0.32000000,-0.22000000,-73.06000000,26.79000000,12.39000000
289,1778626326.307658,-0.43000000,0.08000000,-0.47000000,-161.01000000,-4.27000000,-19.35000000
290,1778626326.318058,-0.43000000,0.08000000,-0.47000000,-161.01000000,-4.27000000,-19.35000000
291,1778626326.324969,-0.43000000,0.08000000,-0.47000000,-161.01000000,-4.27000000,-19.35000000
292,1778626326.3346539,-0.43000000,0.08000000,-0.47000000,-161.01000000,-4.27000000,-19.35000000
293,1778626326.344897,-0.25000000,1.08000000,0.99000000,-161.01000000,-4.27000000,-19.35000000
294,1778626326.355325,-0.25000000,1.08000000,0.99000000,-161.01000000,-4.27000000,-19.35000000
295,1778626326.3682811,-0.25000000,1.08000000,0.99000000,-66.10000000,304.50000000,-78.74000000
296,1778626326.3755121,-0.25000000,1.08000000,0.99000000,-66.10000000,304.50000000,-78.74000000
297,1778626326.386955,-0.25000000,1.08000000,0.99000000,-66.10000000,304.50000000,-78.74000000
298,1778626326.3950222,-0.25000000,1.08000000,0.99000000,-66.10000000,304.50000000,-78.74000000
299,1778626326.4081159,-0.25000000,1.08000000,0.99000000,-66.10000000,304.50000000,-78.74000000
300,1778626326.41776,-0.25000000,1.08000000,0.99000000,-66.10000000,304.50000000,-78.74000000
301,1778626326.424738,-0.25000000,1.08000000,0.99000000,-66.10000000,304.50000000,-78.74000000
302,1778626326.434649,-0.25000000,1.08000000,0.99000000,-66.10000000,304.50000000,-78.74000000
303,1778626326.4451551,-0.25000000,1.08000000,0.99000000,-66.10000000,304.50000000,-78.74000000
304,1778626326.4576588,1.18000000,2.65000000,0.11000000,22.40000000,-72.20000000,29.66000000
305,1778626326.466176,-0.30000000,2.79000000,-0.07000000,53.96000000,23.80000000,11.17000000
306,1778626326.477686,-0.30000000,2.79000000,-0.07000000,53.96000000,23.80000000,11.17000000
307,1778626326.484713,-0.30000000,2.79000000,-0.07000000,53.96000000,23.80000000,11.17000000
308,1778626326.495312,-0.45000000,1.75000000,-0.17000000,98.57000000,37.60000000,20.87000000
309,1778626326.5057201,-0.45000000,1.75000000,-0.17000000,98.57000000,37.60000000,20.87000000
310,1778626326.517547,-0.45000000,1.75000000,-0.17000000,98.57000000,37.60000000,20.87000000
311,1778626326.524738,-0.45000000,1.75000000,-0.17000000,98.57000000,37.60000000,20.87000000
312,1778626326.534644,-0.45000000,1.75000000,-0.17000000,98.57000000,37.60000000,20.87000000
313,1778626326.547449,-0.45000000,1.75000000,-0.17000000,98.57000000,37.60000000,20.87000000
314,1778626326.557662,-0.45000000,1.75000000,-0.17000000,98.57000000,37.60000000,20.87000000
315,1778626326.568015,-0.45000000,1.75000000,-0.17000000,98.57000000,37.60000000,20.87000000
316,1778626326.575826,-0.45000000,1.75000000,-0.17000000,98.57000000,37.60000000,20.87000000
317,1778626326.5869892,-0.45000000,1.75000000,-0.17000000,98.57000000,37.60000000,20.87000000
318,1778626326.595928,0.04000000,0.32000000,0.48000000,124.88000000,-48.58000000,39.25000000
319,1778626326.6069381,0.12000000,-0.42000000,0.59000000,93.20000000,-17.15000000,13.79000000
320,1778626326.6180422,0.12000000,-0.42000000,0.59000000,93.20000000,-17.15000000,13.79000000
321,1778626326.6249752,0.12000000,-0.42000000,0.59000000,93.20000000,-17.15000000,13.79000000
322,1778626326.637546,-0.19000000,0.16000000,0.06000000,15.01000000,-118.90000000,-4.76000000
323,1778626326.645072,-0.19000000,0.16000000,0.06000000,15.01000000,-118.90000000,-4.76000000
324,1778626326.6576462,-0.19000000,0.16000000,0.06000000,15.01000000,-118.90000000,-4.76000000
325,1778626326.666136,-0.19000000,0.16000000,0.06000000,15.01000000,-118.90000000,-4.76000000
326,1778626326.674609,-0.19000000,0.16000000,0.06000000,15.01000000,-118.90000000,-4.76000000
327,1778626326.687831,-0.27000000,0.32000000,-0.22000000,-8.00000000,-174.68000000,-28.63000000
328,1778626326.695122,-0.27000000,0.32000000,-0.22000000,-8.00000000,-174.68000000,-28.63000000
329,1778626326.707714,-0.27000000,0.32000000,-0.22000000,-8.00000000,-174.68000000,-28.63000000
330,1778626326.718039,-0.16000000,0.37000000,0.14000000,-9.22000000,114.26000000,-104.19000000
331,1778626326.725016,-0.16000000,0.37000000,0.14000000,-9.22000000,114.26000000,-104.19000000
332,1778626326.734623,-0.16000000,0.37000000,0.14000000,-9.22000000,114.26000000,-104.19000000
333,1778626326.745304,-0.16000000,0.37000000,0.14000000,-9.22000000,114.26000000,-104.19000000
334,1778626326.758374,0.10000000,0.38000000,-0.08000000,-66.10000000,-37.41000000,-124.27000000
335,1778626326.764991,0.10000000,0.38000000,-0.08000000,-66.10000000,-37.41000000,-124.27000000
336,1778626326.7757351,0.10000000,0.38000000,-0.08000000,-66.10000000,-37.41000000,-124.27000000
337,1778626326.7878342,0.10000000,0.38000000,-0.08000000,-66.10000000,-37.41000000,-124.27000000
338,1778626326.7950878,0.07000000,0.25000000,-0.27000000,-83.74000000,2.81000000,-106.32000000
339,1778626326.80771,0.07000000,0.25000000,-0.27000000,-83.74000000,2.81000000,-106.32000000
340,1778626326.814625,0.07000000,0.25000000,-0.27000000,-83.74000000,2.81000000,-106.32000000
341,1778626326.824773,0.07000000,0.25000000,-0.27000000,-83.74000000,2.81000000,-106.32000000
342,1778626326.83527,-0.76000000,1.72000000,0.02000000,-114.26000000,228.27000000,-161.38000000
343,1778626326.845267,-0.76000000,1.72000000,0.02000000,-114.26000000,228.27000000,-161.38000000
344,1778626326.85769,-0.76000000,1.72000000,0.02000000,-114.26000000,228.27000000,-161.38000000
345,1778626326.865664,-0.66000000,2.27000000,0.42000000,-114.26000000,228.27000000,-161.38000000
346,1778626326.875934,-0.66000000,2.27000000,0.42000000,-114.26000000,228.27000000,-161.38000000
347,1778626326.884597,-0.66000000,2.27000000,0.42000000,-114.26000000,228.27000000,-161.38000000
348,1778626326.8952162,-0.66000000,2.27000000,0.42000000,-78.55000000,-66.53000000,-139.10000000
349,1778626326.9077172,-0.66000000,2.27000000,0.42000000,-78.55000000,-66.53000000,-139.10000000
350,1778626326.91804,-0.32000000,0.89000000,0.38000000,-63.78000000,31.25000000,-61.16000000
351,1778626326.925045,-0.32000000,0.89000000,0.38000000,-63.78000000,31.25000000,-61.16000000
352,1778626326.935906,-0.32000000,0.89000000,0.38000000,-63.78000000,31.25000000,-61.16000000
353,1778626326.944875,0.17000000,1.36000000,0.31000000,41.93000000,-22.83000000,34.42000000
354,1778626326.95699,0.17000000,1.36000000,0.31000000,41.93000000,-22.83000000,34.42000000
355,1778626326.966649,0.17000000,1.36000000,0.31000000,41.93000000,-22.83000000,34.42000000
356,1778626326.976744,0.17000000,1.36000000,0.31000000,41.93000000,-22.83000000,34.42000000
357,1778626326.986217,-0.62000000,2.75000000,0.58000000,41.93000000,-22.83000000,34.42000000
358,1778626326.9950762,-0.62000000,2.75000000,0.58000000,80.63000000,-51.45000000,67.38000000
359,1778626327.0082161,-0.62000000,2.75000000,0.58000000,80.63000000,-51.45000000,67.38000000
360,1778626327.0155652,-0.16000000,2.43000000,0.11000000,154.85000000,-75.56000000,127.69000000
361,1778626327.024807,-0.16000000,2.43000000,0.11000000,154.85000000,-75.56000000,127.69000000
362,1778626327.03757,-0.16000000,2.43000000,0.11000000,154.85000000,-75.56000000,127.69000000
363,1778626327.045245,-0.16000000,2.43000000,0.11000000,154.85000000,-75.56000000,127.69000000
364,1778626327.054631,-0.16000000,2.43000000,0.11000000,154.85000000,-75.56000000,127.69000000
365,1778626327.068845,-0.16000000,2.43000000,0.11000000,154.85000000,-75.56000000,127.69000000
366,1778626327.075116,-0.16000000,2.43000000,0.11000000,154.85000000,-75.56000000,127.69000000
367,1778626327.085162,-0.16000000,2.43000000,0.11000000,154.85000000,-75.56000000,127.69000000
368,1778626327.095211,-0.16000000,2.43000000,0.11000000,154.85000000,-75.56000000,127.69000000
369,1778626327.107734,-0.16000000,2.43000000,0.11000000,154.85000000,-75.56000000,127.69000000
370,1778626327.117377,-0.75000000,0.18000000,0.29000000,114.81000000,-39.12000000,182.74000000
371,1778626327.1280372,-0.27000000,0.03000000,0.50000000,114.81000000,-39.12000000,182.74000000
372,1778626327.137156,-0.27000000,0.03000000,0.50000000,0.49000000,-12.63000000,96.07000000
373,1778626327.147136,-0.27000000,0.03000000,0.50000000,0.49000000,-12.63000000,96.07000000
374,1778626327.15776,-0.27000000,0.03000000,0.50000000,0.49000000,-12.63000000,96.07000000
375,1778626327.168064,0.26000000,0.26000000,0.02000000,-109.01000000,-114.01000000,31.19000000
376,1778626327.1751208,0.26000000,0.26000000,0.02000000,-109.01000000,-114.01000000,31.19000000
377,1778626327.184611,0.26000000,0.26000000,0.02000000,-109.01000000,-114.01000000,31.19000000
378,1778626327.195231,0.26000000,0.26000000,0.02000000,-109.01000000,-114.01000000,31.19000000
379,1778626327.208211,0.46000000,0.14000000,-0.02000000,33.08000000,-38.33000000,88.13000000
380,1778626327.2147672,0.46000000,0.14000000,-0.02000000,33.08000000,-38.33000000,88.13000000
381,1778626327.229509,0.46000000,0.14000000,-0.02000000,33.08000000,-38.33000000,88.13000000
382,1778626327.234602,0.46000000,0.14000000,-0.02000000,33.08000000,-38.33000000,88.13000000
383,1778626327.245001,0.34000000,0.28000000,0.09000000,-8.36000000,159.36000000,90.45000000
384,1778626327.257767,0.34000000,0.28000000,0.09000000,-8.36000000,159.36000000,90.45000000
385,1778626327.266117,0.34000000,0.28000000,0.09000000,-8.36000000,159.36000000,90.45000000
386,1778626327.274969,-0.12000000,0.31000000,0.13000000,-76.11000000,250.24000000,31.13000000
387,1778626327.2847638,-0.12000000,0.31000000,0.13000000,-76.11000000,250.24000000,31.13000000
388,1778626327.295084,-0.12000000,0.31000000,0.13000000,-76.11000000,250.24000000,31.13000000
389,1778626327.3077881,-0.12000000,0.31000000,0.13000000,-76.11000000,250.24000000,31.13000000
390,1778626327.315019,-0.20000000,0.36000000,0.25000000,-62.26000000,39.37000000,-2.38000000
391,1778626327.3248482,-0.20000000,0.36000000,0.25000000,-62.26000000,39.37000000,-2.38000000
392,1778626327.33517,-0.20000000,0.36000000,0.25000000,-62.26000000,39.37000000,-2.38000000
393,1778626327.3484302,-0.20000000,0.36000000,0.25000000,-62.26000000,39.37000000,-2.38000000
394,1778626327.355207,-1.11000000,0.36000000,-0.12000000,-166.56000000,-30.09000000,-50.72000000
395,1778626327.3672352,-1.11000000,0.36000000,-0.12000000,-166.56000000,-30.09000000,-50.72000000
396,1778626327.3757582,-1.11000000,0.36000000,-0.12000000,-166.56000000,-30.09000000,-50.72000000
397,1778626327.387213,-0.35000000,1.09000000,1.40000000,-60.49000000,-27.83000000,-70.31000000
398,1778626327.3949928,-0.35000000,1.09000000,1.40000000,-60.49000000,-27.83000000,-70.31000000
399,1778626327.407764,-0.35000000,1.09000000,1.40000000,-60.49000000,-27.83000000,-70.31000000
400,1778626327.41522,-0.35000000,1.09000000,1.40000000,-60.49000000,-27.83000000,-70.31000000
401,1778626327.426497,-0.35000000,1.09000000,1.40000000,-60.49000000,-27.83000000,-70.31000000
402,1778626327.438118,-0.35000000,1.09000000,1.40000000,-60.49000000,-27.83000000,-70.31000000
403,1778626327.4450822,-0.35000000,1.09000000,1.40000000,-60.49000000,-27.83000000,-70.31000000
404,1778626327.4568708,-0.35000000,1.09000000,1.40000000,-60.49000000,-27.83000000,-70.31000000
405,1778626327.468143,-0.35000000,1.09000000,1.40000000,-60.49000000,-27.83000000,-70.31000000
406,1778626327.477689,-0.35000000,1.09000000,1.40000000,-60.49000000,-27.83000000,-70.31000000
407,1778626327.4845922,-0.35000000,1.09000000,1.40000000,-60.49000000,-27.83000000,-70.31000000
408,1778626327.495312,-0.35000000,1.09000000,1.40000000,-60.49000000,-27.83000000,-70.31000000
409,1778626327.508366,-0.17000000,3.30000000,0.34000000,48.40000000,13.18000000,-3.30000000
410,1778626327.5156,-0.17000000,3.30000000,0.34000000,48.40000000,13.18000000,-3.30000000
411,1778626327.524874,-0.10000000,2.18000000,0.07000000,82.15000000,73.55000000,14.34000000
412,1778626327.53872,-0.10000000,2.18000000,0.07000000,82.15000000,73.55000000,14.34000000
413,1778626327.54529,-0.10000000,2.18000000,0.07000000,82.15000000,73.55000000,14.34000000
414,1778626327.557784,-0.10000000,2.18000000,0.07000000,82.15000000,73.55000000,14.34000000
415,1778626327.565315,-0.10000000,2.18000000,0.07000000,82.15000000,73.55000000,14.34000000
416,1778626327.5772102,-0.10000000,2.18000000,0.07000000,82.15000000,73.55000000,14.34000000
417,1778626327.58703,-0.10000000,2.18000000,0.07000000,82.15000000,73.55000000,14.34000000
418,1778626327.595375,-0.10000000,2.18000000,0.07000000,82.15000000,73.55000000,14.34000000
419,1778626327.608261,-0.10000000,2.18000000,0.07000000,82.15000000,73.55000000,14.34000000
420,1778626327.617045,-0.10000000,2.18000000,0.07000000,82.15000000,73.55000000,14.34000000
421,1778626327.626554,-0.10000000,2.18000000,0.07000000,82.15000000,73.55000000,14.34000000
422,1778626327.637279,-0.30000000,-0.21000000,0.42000000,116.27000000,65.12000000,30.64000000
423,1778626327.645067,-0.30000000,-0.21000000,0.42000000,116.27000000,65.12000000,30.64000000
424,1778626327.65781,-0.30000000,-0.21000000,0.42000000,116.27000000,65.12000000,30.64000000
425,1778626327.667957,-0.30000000,-0.21000000,0.42000000,116.27000000,65.12000000,30.64000000
426,1778626327.6767519,-0.30000000,-0.21000000,0.42000000,116.27000000,65.12000000,30.64000000
427,1778626327.688011,0.02000000,-0.06000000,0.19000000,102.54000000,36.01000000,-1.40000000
428,1778626327.695096,0.02000000,-0.06000000,0.19000000,102.54000000,36.01000000,-1.40000000
429,1778626327.7046258,-0.22000000,0.34000000,-0.14000000,4.39000000,-26.67000000,-34.67000000
430,1778626327.714644,-0.22000000,0.34000000,-0.14000000,4.39000000,-26.67000000,-34.67000000
431,1778626327.72534,-0.22000000,0.34000000,-0.14000000,4.39000000,-26.67000000,-34.67000000
432,1778626327.735084,-0.22000000,0.34000000,-0.14000000,4.39000000,-26.67000000,-34.67000000
433,1778626327.745197,-0.20000000,0.38000000,-0.01000000,6.71000000,-7.75000000,-65.80000000
434,1778626327.754904,-0.20000000,0.38000000,-0.01000000,6.71000000,-7.75000000,-65.80000000
435,1778626327.768495,-0.20000000,0.38000000,-0.01000000,6.71000000,-7.75000000,-65.80000000
436,1778626327.7752872,-0.20000000,0.38000000,-0.01000000,6.71000000,-7.75000000,-65.80000000
437,1778626327.788364,-0.11000000,0.36000000,0.12000000,-17.46000000,32.35000000,-115.36000000
438,1778626327.796559,-0.11000000,0.36000000,0.12000000,-17.46000000,32.35000000,-115.36000000
439,1778626327.808022,-0.11000000,0.36000000,0.12000000,-17.46000000,32.35000000,-115.36000000
440,1778626327.8178911,-0.11000000,0.36000000,0.12000000,-17.46000000,32.35000000,-115.36000000
441,1778626327.825331,0.11000000,0.37000000,-0.02000000,-83.19000000,12.45000000,-144.53000000
442,1778626327.834856,0.11000000,0.37000000,-0.02000000,-83.19000000,12.45000000,-144.53000000
443,1778626327.846559,0.11000000,0.37000000,-0.02000000,-83.19000000,12.45000000,-144.53000000
444,1778626327.8575099,0.00000000,0.72000000,-0.15000000,-95.58000000,104.37000000,-146.61000000
445,1778626327.8676019,0.00000000,0.72000000,-0.15000000,-95.58000000,104.37000000,-146.61000000
446,1778626327.875371,0.00000000,0.72000000,-0.15000000,-95.58000000,104.37000000,-146.61000000
447,1778626327.885269,0.00000000,0.72000000,-0.15000000,-95.58000000,104.37000000,-146.61000000
448,1778626327.895067,-1.11000000,2.73000000,0.59000000,-131.77000000,-113.77000000,-157.53000000
449,1778626327.906091,-1.11000000,2.73000000,0.59000000,-131.77000000,-113.77000000,-157.53000000
450,1778626327.9185228,-1.11000000,2.73000000,0.59000000,-131.77000000,-113.77000000,-157.53000000
451,1778626327.925374,-0.27000000,1.35000000,0.26000000,-131.77000000,-113.77000000,-157.53000000
452,1778626327.935817,-0.27000000,1.35000000,0.26000000,-82.28000000,-43.82000000,-30.40000000
453,1778626327.945097,-0.27000000,1.35000000,0.26000000,-82.28000000,-43.82000000,-30.40000000
454,1778626327.958605,-0.27000000,1.35000000,0.26000000,-82.28000000,-43.82000000,-30.40000000
455,1778626327.9675698,-0.57000000,1.95000000,0.06000000,-10.93000000,23.93000000,-22.64000000
456,1778626327.978082,-0.57000000,1.95000000,0.06000000,-10.93000000,23.93000000,-22.64000000
457,1778626327.985871,-0.57000000,1.95000000,0.06000000,-10.93000000,23.93000000,-22.64000000
458,1778626327.994955,-0.57000000,1.95000000,0.06000000,-10.93000000,23.93000000,-22.64000000
459,1778626328.0046568,-0.57000000,1.95000000,0.06000000,-10.93000000,23.93000000,-22.64000000
460,1778626328.018075,-0.45000000,2.05000000,0.56000000,65.80000000,-25.76000000,41.69000000
461,1778626328.025476,-0.45000000,2.05000000,0.56000000,65.80000000,-25.76000000,41.69000000
462,1778626328.036816,0.04000000,2.12000000,0.21000000,109.13000000,-68.42000000,97.41000000
463,1778626328.044605,0.04000000,2.12000000,0.21000000,109.13000000,-68.42000000,97.41000000
464,1778626328.058692,0.04000000,2.12000000,0.21000000,109.13000000,-68.42000000,97.41000000
465,1778626328.0657248,0.10000000,1.58000000,0.07000000,109.13000000,-68.42000000,97.41000000
466,1778626328.0746639,0.10000000,1.58000000,0.07000000,109.13000000,-68.42000000,97.41000000
467,1778626328.084645,0.10000000,1.58000000,0.07000000,109.13000000,-68.42000000,97.41000000
468,1778626328.0955698,0.10000000,1.58000000,0.07000000,109.13000000,-68.42000000,97.41000000
469,1778626328.104657,0.10000000,1.58000000,0.07000000,109.13000000,-68.42000000,97.41000000
470,1778626328.119115,0.10000000,1.58000000,0.07000000,109.13000000,-68.42000000,97.41000000
471,1778626328.124667,0.10000000,1.58000000,0.07000000,109.13000000,-68.42000000,97.41000000
472,1778626328.1346471,0.10000000,1.58000000,0.07000000,109.13000000,-68.42000000,97.41000000
473,1778626328.1450071,0.10000000,1.58000000,0.07000000,109.13000000,-68.42000000,97.41000000
474,1778626328.1551108,0.10000000,1.58000000,0.07000000,109.13000000,-68.42000000,97.41000000
475,1778626328.166667,0.10000000,1.58000000,0.07000000,109.13000000,-68.42000000,97.41000000
476,1778626328.1785479,-0.24000000,0.11000000,0.30000000,-47.12000000,2.14000000,59.94000000
477,1778626328.186722,-0.24000000,0.11000000,0.30000000,-47.12000000,2.14000000,59.94000000
478,1778626328.1969228,-0.24000000,0.11000000,0.30000000,-47.12000000,2.14000000,59.94000000
479,1778626328.2046962,-0.24000000,0.11000000,0.30000000,-47.12000000,2.14000000,59.94000000
480,1778626328.214897,-0.24000000,0.11000000,0.30000000,-47.12000000,2.14000000,59.94000000
481,1778626328.22461,-0.24000000,0.11000000,0.30000000,-47.12000000,2.14000000,59.94000000
482,1778626328.234844,-0.24000000,0.11000000,0.30000000,-47.12000000,2.14000000,59.94000000
483,1778626328.2446342,-0.24000000,0.11000000,0.30000000,-47.12000000,2.14000000,59.94000000
484,1778626328.254588,0.19000000,0.18000000,-0.09000000,-30.27000000,-60.12000000,89.97000000
485,1778626328.265495,0.19000000,0.18000000,-0.09000000,-30.27000000,-60.12000000,89.97000000
486,1778626328.275033,0.19000000,0.18000000,-0.09000000,-30.27000000,-60.12000000,89.97000000
487,1778626328.2855098,0.19000000,0.18000000,-0.09000000,-30.27000000,-60.12000000,89.97000000
488,1778626328.294815,0.19000000,0.18000000,-0.09000000,-30.27000000,-60.12000000,89.97000000
489,1778626328.3066409,0.08000000,0.31000000,0.21000000,-58.59000000,67.75000000,42.85000000
490,1778626328.318033,-0.19000000,0.17000000,0.35000000,-58.59000000,67.75000000,42.85000000
491,1778626328.3257458,-0.19000000,0.17000000,0.35000000,-46.75000000,147.89000000,12.82000000
492,1778626328.335071,-0.19000000,0.17000000,0.35000000,-46.75000000,147.89000000,12.82000000
493,1778626328.344675,-0.19000000,0.17000000,0.35000000,-46.75000000,147.89000000,12.82000000
494,1778626328.356873,-0.19000000,0.17000000,0.35000000,-46.75000000,147.89000000,12.82000000
495,1778626328.366654,-1.20000000,0.59000000,0.17000000,-78.80000000,-63.78000000,-55.85000000
496,1778626328.3745868,-1.20000000,0.59000000,0.17000000,-78.80000000,-63.78000000,-55.85000000
497,1778626328.3883111,-1.20000000,0.59000000,0.17000000,-78.80000000,-63.78000000,-55.85000000
498,1778626328.396679,-0.12000000,2.07000000,2.02000000,-78.80000000,-63.78000000,-55.85000000
499,1778626328.406893,-0.12000000,2.07000000,2.02000000,-78.80000000,-63.78000000,-55.85000000
500,1778626328.4183092,-0.12000000,2.07000000,2.02000000,-78.80000000,-63.78000000,-55.85000000
501,1778626328.4252129,-0.12000000,2.07000000,2.02000000,-78.80000000,-63.78000000,-55.85000000
502,1778626328.435911,0.86000000,3.04000000,-0.66000000,-22.64000000,-517.21000000,39.12000000
503,1778626328.448896,0.86000000,3.04000000,-0.66000000,-22.64000000,-517.21000000,39.12000000
504,1778626328.455776,0.86000000,3.04000000,-0.66000000,-22.64000000,-517.21000000,39.12000000
505,1778626328.468617,0.86000000,3.04000000,-0.66000000,-22.64000000,-517.21000000,39.12000000
506,1778626328.474711,0.86000000,3.04000000,-0.66000000,-22.64000000,-517.21000000,39.12000000
507,1778626328.4857721,0.86000000,3.04000000,-0.66000000,-22.64000000,-517.21000000,39.12000000
508,1778626328.4949288,0.86000000,3.04000000,-0.66000000,-22.64000000,-517.21000000,39.12000000
509,1778626328.504779,0.86000000,3.04000000,-0.66000000,-22.64000000,-517.21000000,39.12000000
510,1778626328.514705,0.86000000,3.04000000,-0.66000000,-22.64000000,-517.21000000,39.12000000
511,1778626328.5246248,0.86000000,3.04000000,-0.66000000,-22.64000000,-517.21000000,39.12000000
512,1778626328.5373352,0.86000000,3.04000000,-0.66000000,-22.64000000,-517.21000000,39.12000000
513,1778626328.544925,0.86000000,3.04000000,-0.66000000,-22.64000000,-517.21000000,39.12000000
514,1778626328.555624,-0.08000000,2.51000000,-0.18000000,36.93000000,118.35000000,20.02000000
515,1778626328.566247,-0.67000000,1.67000000,0.02000000,92.77000000,58.78000000,42.05000000
516,1778626328.575331,-0.67000000,1.67000000,0.02000000,92.77000000,58.78000000,42.05000000
517,1778626328.585301,-0.67000000,1.67000000,0.02000000,92.77000000,58.78000000,42.05000000
518,1778626328.5948958,-0.16000000,0.83000000,0.33000000,75.56000000,-10.31000000,15.01000000
519,1778626328.608671,-0.16000000,0.83000000,0.33000000,75.56000000,-10.31000000,15.01000000
520,1778626328.61468,-0.16000000,0.83000000,0.33000000,75.56000000,-10.31000000,15.01000000
521,1778626328.624723,-0.16000000,0.83000000,0.33000000,75.56000000,-10.31000000,15.01000000
522,1778626328.637493,-0.16000000,0.83000000,0.33000000,75.56000000,-10.31000000,15.01000000
523,1778626328.6477141,-0.16000000,0.83000000,0.33000000,75.56000000,-10.31000000,15.01000000
524,1778626328.654598,-0.16000000,0.83000000,0.33000000,75.56000000,-10.31000000,15.01000000
525,1778626328.669559,-0.16000000,0.83000000,0.33000000,75.56000000,-10.31000000,15.01000000
526,1778626328.675475,-0.16000000,0.83000000,0.33000000,75.56000000,-10.31000000,15.01000000
527,1778626328.687862,0.06000000,-0.11000000,0.27000000,33.94000000,36.56000000,-28.63000000
528,1778626328.694734,0.06000000,-0.11000000,0.27000000,33.94000000,36.56000000,-28.63000000
529,1778626328.7087371,0.06000000,-0.11000000,0.27000000,33.94000000,36.56000000,-28.63000000
530,1778626328.717333,-0.30000000,0.39000000,0.15000000,-8.12000000,-12.33000000,-44.62000000
531,1778626328.724697,-0.30000000,0.39000000,0.15000000,-8.12000000,-12.33000000,-44.62000000
532,1778626328.737459,-0.30000000,0.39000000,0.15000000,-8.12000000,-12.33000000,-44.62000000
533,1778626328.747734,-0.10000000,0.41000000,-0.05000000,-8.42000000,-27.77000000,-62.93000000
534,1778626328.7579808,-0.10000000,0.41000000,-0.05000000,-8.42000000,-27.77000000,-62.93000000
535,1778626328.76739,-0.10000000,0.41000000,-0.05000000,-8.42000000,-27.77000000,-62.93000000
536,1778626328.77558,-0.10000000,0.41000000,-0.05000000,-8.42000000,-27.77000000,-62.93000000
537,1778626328.786624,0.09000000,0.26000000,0.02000000,-19.59000000,46.45000000,-87.46000000
538,1778626328.796911,0.09000000,0.26000000,0.02000000,-19.59000000,46.45000000,-87.46000000
539,1778626328.807922,0.09000000,0.26000000,0.02000000,-19.59000000,46.45000000,-87.46000000
540,1778626328.817916,0.09000000,0.26000000,0.02000000,-19.59000000,46.45000000,-87.46000000
541,1778626328.825402,0.09000000,0.26000000,0.02000000,-19.59000000,46.45000000,-87.46000000
542,1778626328.835045,0.05000000,0.28000000,-0.01000000,-86.85000000,-14.59000000,-119.08000000
543,1778626328.844901,0.05000000,0.28000000,-0.01000000,-86.85000000,-14.59000000,-119.08000000
544,1778626328.854862,-0.02000000,0.34000000,-0.57000000,-108.76000000,62.74000000,-129.52000000
545,1778626328.865,-0.02000000,0.34000000,-0.57000000,-108.76000000,62.74000000,-129.52000000
546,1778626328.874708,-0.02000000,0.34000000,-0.57000000,-108.76000000,62.74000000,-129.52000000
547,1778626328.888327,-0.02000000,0.34000000,-0.57000000,-108.76000000,62.74000000,-129.52000000
548,1778626328.894917,-1.13000000,2.44000000,0.37000000,-101.56000000,102.11000000,-119.32000000
549,1778626328.908715,-1.13000000,2.44000000,0.37000000,-101.56000000,102.11000000,-119.32000000
550,1778626328.916679,-1.13000000,2.44000000,0.37000000,-101.56000000,102.11000000,-119.32000000
551,1778626328.925436,-1.13000000,2.44000000,0.37000000,-101.56000000,102.11000000,-119.32000000
552,1778626328.9345798,-1.13000000,2.44000000,0.37000000,-101.56000000,102.11000000,-119.32000000
553,1778626328.945332,0.39000000,1.69000000,0.38000000,-99.24000000,-113.59000000,-46.45000000
554,1778626328.956985,0.39000000,1.69000000,0.38000000,-99.24000000,-113.59000000,-46.45000000
555,1778626328.968361,0.39000000,1.69000000,0.38000000,-99.24000000,-113.59000000,-46.45000000
556,1778626328.977661,-0.65000000,1.48000000,0.09000000,-51.94000000,36.87000000,-28.93000000
557,1778626328.985755,-0.65000000,1.48000000,0.09000000,-51.94000000,36.87000000,-28.93000000
558,1778626328.996554,-0.65000000,1.48000000,0.09000000,-51.94000000,36.87000000,-28.93000000
559,1778626329.008595,-0.95000000,2.35000000,0.28000000,31.56000000,-4.27000000,13.98000000
560,1778626329.0150552,-0.95000000,2.35000000,0.28000000,31.56000000,-4.27000000,13.98000000
561,1778626329.0246909,-0.95000000,2.35000000,0.28000000,31.56000000,-4.27000000,13.98000000
562,1778626329.035818,-0.95000000,2.35000000,0.28000000,31.56000000,-4.27000000,13.98000000
563,1778626329.045834,-0.79000000,1.72000000,0.16000000,31.56000000,-4.27000000,13.98000000
564,1778626329.058902,-0.79000000,1.72000000,0.16000000,40.59000000,40.77000000,49.38000000
565,1778626329.0645828,-0.79000000,1.72000000,0.16000000,40.59000000,40.77000000,49.38000000
566,1778626329.075399,-0.79000000,1.72000000,0.16000000,40.59000000,40.77000000,49.38000000
567,1778626329.0858822,-0.16000000,1.44000000,0.33000000,85.02000000,20.45000000,83.98000000
568,1778626329.0949929,-0.16000000,1.44000000,0.33000000,85.02000000,20.45000000,83.98000000
569,1778626329.104939,-0.16000000,1.44000000,0.33000000,85.02000000,20.45000000,83.98000000
570,1778626329.1193879,0.20000000,0.88000000,0.30000000,141.24000000,-52.73000000,200.93000000
571,1778626329.124655,0.20000000,0.88000000,0.30000000,141.24000000,-52.73000000,200.93000000
572,1778626329.134604,0.20000000,0.88000000,0.30000000,141.24000000,-52.73000000,200.93000000
573,1778626329.1495621,0.20000000,0.88000000,0.30000000,141.24000000,-52.73000000,200.93000000
574,1778626329.155225,0.20000000,0.88000000,0.30000000,141.24000000,-52.73000000,200.93000000
575,1778626329.169268,0.20000000,0.88000000,0.30000000,141.24000000,-52.73000000,200.93000000
576,1778626329.177231,0.20000000,0.88000000,0.30000000,141.24000000,-52.73000000,200.93000000
577,1778626329.1860669,0.20000000,0.88000000,0.30000000,141.24000000,-52.73000000,200.93000000
578,1778626329.194987,0.20000000,0.88000000,0.30000000,141.24000000,-52.73000000,200.93000000
579,1778626329.2047648,0.05000000,1.18000000,0.64000000,134.89000000,-289.98000000,144.53000000
580,1778626329.217937,0.31000000,0.00000000,-0.06000000,71.59000000,4.70000000,140.62000000
581,1778626329.22547,0.31000000,0.00000000,-0.06000000,71.59000000,4.70000000,140.62000000
582,1778626329.2357178,0.31000000,0.00000000,-0.06000000,71.59000000,4.70000000,140.62000000
583,1778626329.244659,-0.07000000,0.19000000,0.09000000,-51.27000000,-32.96000000,60.73000000
584,1778626329.258778,-0.50000000,-0.02000000,0.26000000,-46.69000000,195.92000000,76.23000000
585,1778626329.265226,-0.50000000,-0.02000000,0.26000000,-46.69000000,195.92000000,76.23000000
586,1778626329.2762408,-0.50000000,-0.02000000,0.26000000,-46.69000000,195.92000000,76.23000000
587,1778626329.288055,-0.50000000,-0.02000000,0.26000000,-46.69000000,195.92000000,76.23000000
588,1778626329.296984,-0.50000000,-0.02000000,0.26000000,-46.69000000,195.92000000,76.23000000
589,1778626329.307999,0.99000000,0.02000000,0.90000000,49.13000000,-74.89000000,84.72000000
590,1778626329.317879,0.99000000,0.02000000,0.90000000,49.13000000,-74.89000000,84.72000000
591,1778626329.327905,0.99000000,0.02000000,0.90000000,49.13000000,-74.89000000,84.72000000
592,1778626329.335972,0.99000000,0.02000000,0.90000000,49.13000000,-74.89000000,84.72000000
593,1778626329.348864,0.99000000,0.02000000,0.90000000,49.13000000,-74.89000000,84.72000000
594,1778626329.356587,-0.45000000,0.27000000,-0.23000000,-102.36000000,60.97000000,-12.39000000
595,1778626329.3685539,-0.45000000,0.27000000,-0.23000000,-102.36000000,60.97000000,-12.39000000
596,1778626329.375487,-0.45000000,0.27000000,-0.23000000,-102.36000000,60.97000000,-12.39000000
597,1778626329.385792,-0.36000000,0.18000000,0.27000000,-57.98000000,80.99000000,-43.09000000
598,1778626329.394708,-0.36000000,0.18000000,0.27000000,-57.98000000,80.99000000,-43.09000000
599,1778626329.408812,-0.36000000,0.18000000,0.27000000,-57.98000000,80.99000000,-43.09000000
600,1778626329.4147809,-0.15000000,1.67000000,1.23000000,-76.29000000,154.24000000,-66.77000000
601,1778626329.425882,-0.15000000,1.67000000,1.23000000,-76.29000000,154.24000000,-66.77000000
602,1778626329.438635,-0.15000000,1.67000000,1.23000000,-76.29000000,154.24000000,-66.77000000
603,1778626329.4446561,-0.15000000,1.67000000,1.23000000,-76.29000000,154.24000000,-66.77000000
604,1778626329.458844,0.58000000,2.26000000,-0.66000000,-66.96000000,-135.19000000,-55.36000000
605,1778626329.467479,0.58000000,2.26000000,-0.66000000,-66.96000000,-135.19000000,-55.36000000
606,1778626329.477558,0.58000000,2.26000000,-0.66000000,-66.96000000,-135.19000000,-55.36000000
607,1778626329.484612,0.58000000,2.26000000,-0.66000000,-66.96000000,-135.19000000,-55.36000000
608,1778626329.496976,0.96000000,1.91000000,0.10000000,1.77000000,-157.96000000,56.21000000
609,1778626329.508364,0.96000000,1.91000000,0.10000000,1.77000000,-157.96000000,56.21000000
610,1778626329.5158389,0.96000000,1.91000000,0.10000000,1.77000000,-157.96000000,56.21000000
611,1778626329.525911,0.96000000,1.91000000,0.10000000,1.77000000,-157.96000000,56.21000000
612,1778626329.536879,0.96000000,1.91000000,0.10000000,1.77000000,-157.96000000,56.21000000
613,1778626329.548306,0.96000000,1.91000000,0.10000000,1.77000000,-157.96000000,56.21000000
614,1778626329.5558138,0.96000000,1.91000000,0.10000000,1.77000000,-157.96000000,56.21000000
615,1778626329.569,0.96000000,1.91000000,0.10000000,1.77000000,-157.96000000,56.21000000
616,1778626329.5766678,0.96000000,1.91000000,0.10000000,1.77000000,-157.96000000,56.21000000
617,1778626329.5858188,0.96000000,1.91000000,0.10000000,1.77000000,-157.96000000,56.21000000
618,1778626329.595392,-0.24000000,1.98000000,-0.19000000,28.50000000,89.72000000,-8.54000000
619,1778626329.608876,-0.32000000,1.06000000,0.03000000,121.64000000,64.51000000,7.51000000
620,1778626329.617444,-0.32000000,1.06000000,0.03000000,121.64000000,64.51000000,7.51000000
621,1778626329.625893,-0.32000000,1.06000000,0.03000000,121.64000000,64.51000000,7.51000000
622,1778626329.637779,0.26000000,0.23000000,0.41000000,115.97000000,-16.24000000,-0.61000000
623,1778626329.647018,0.26000000,0.23000000,0.41000000,115.97000000,-16.24000000,-0.61000000
624,1778626329.65835,0.26000000,0.23000000,0.41000000,115.97000000,-16.24000000,-0.61000000
625,1778626329.665128,0.26000000,0.23000000,0.41000000,115.97000000,-16.24000000,-0.61000000
626,1778626329.67758,0.26000000,0.23000000,0.41000000,115.97000000,-16.24000000,-0.61000000
627,1778626329.684649,0.26000000,0.23000000,0.41000000,115.97000000,-16.24000000,-0.61000000
628,1778626329.6951628,0.26000000,0.23000000,0.41000000,115.97000000,-16.24000000,-0.61000000
629,1778626329.7088268,0.26000000,0.23000000,0.41000000,115.97000000,-16.24000000,-0.61000000
630,1778626329.714628,0.26000000,0.23000000,0.41000000,115.97000000,-16.24000000,-0.61000000
631,1778626329.726481,0.26000000,0.23000000,0.41000000,115.97000000,-16.24000000,-0.61000000
632,1778626329.7364328,0.21000000,-0.07000000,0.02000000,95.89000000,-109.25000000,-32.78000000
633,1778626329.745155,0.21000000,-0.07000000,0.02000000,95.89000000,-109.25000000,-32.78000000
634,1778626329.7588558,-0.50000000,0.02000000,0.04000000,69.89000000,-45.10000000,-83.44000000
635,1778626329.764684,-0.50000000,0.02000000,0.04000000,69.89000000,-45.10000000,-83.44000000
636,1778626329.776818,-0.50000000,0.02000000,0.04000000,69.89000000,-45.10000000,-83.44000000
637,1778626329.7853298,-0.50000000,0.02000000,0.04000000,69.89000000,-45.10000000,-83.44000000
638,1778626329.7970738,-0.20000000,0.17000000,0.10000000,-21.30000000,59.63000000,-92.41000000
639,1778626329.804925,-0.20000000,0.17000000,0.10000000,-21.30000000,59.63000000,-92.41000000
640,1778626329.81682,-0.20000000,0.17000000,0.10000000,-21.30000000,59.63000000,-92.41000000
641,1778626329.8275788,-0.20000000,0.17000000,0.10000000,-21.30000000,59.63000000,-92.41000000
642,1778626329.835886,-0.19000000,0.38000000,0.21000000,-23.99000000,-21.36000000,-117.37000000
643,1778626329.848205,-0.19000000,0.38000000,0.21000000,-23.99000000,-21.36000000,-117.37000000
644,1778626329.8546848,-0.19000000,0.38000000,0.21000000,-23.99000000,-21.36000000,-117.37000000
645,1778626329.868246,0.61000000,0.42000000,0.33000000,-85.08000000,135.38000000,-140.08000000
646,1778626329.876118,0.61000000,0.42000000,0.33000000,-85.08000000,135.38000000,-140.08000000
647,1778626329.8878982,0.61000000,0.42000000,0.33000000,-85.08000000,135.38000000,-140.08000000
648,1778626329.895808,0.61000000,0.42000000,0.33000000,-85.08000000,135.38000000,-140.08000000
649,1778626329.908957,-0.07000000,0.55000000,0.21000000,-186.89000000,68.12000000,-112.06000000
650,1778626329.917393,-0.07000000,0.55000000,0.21000000,-186.89000000,68.12000000,-112.06000000
651,1778626329.925924,-0.07000000,0.55000000,0.21000000,-186.89000000,68.12000000,-112.06000000
652,1778626329.9359202,-0.07000000,0.55000000,0.21000000,-186.89000000,68.12000000,-112.06000000
653,1778626329.947144,-1.02000000,1.23000000,1.08000000,-102.11000000,9.03000000,-34.48000000
654,1778626329.956838,-1.02000000,1.23000000,1.08000000,-102.11000000,9.03000000,-34.48000000
655,1778626329.967561,-1.02000000,1.23000000,1.08000000,-102.11000000,9.03000000,-34.48000000
656,1778626329.976885,-1.06000000,3.11000000,-0.00000000,-80.38000000,40.47000000,-28.56000000
657,1778626329.98663,-1.06000000,3.11000000,-0.00000000,-80.38000000,40.47000000,-28.56000000
658,1778626329.99598,-1.06000000,3.11000000,-0.00000000,-80.38000000,40.47000000,-28.56000000
659,1778626330.0089018,-1.06000000,3.11000000,-0.00000000,-80.38000000,40.47000000,-28.56000000
660,1778626330.015361,-1.06000000,3.11000000,-0.00000000,-80.38000000,40.47000000,-28.56000000
661,1778626330.029013,-1.06000000,2.34000000,-0.40000000,-26.55000000,-5.07000000,-27.40000000
662,1778626330.036062,-1.06000000,2.34000000,-0.40000000,-26.55000000,-5.07000000,-27.40000000
663,1778626330.045252,-1.06000000,2.34000000,-0.40000000,-26.55000000,-5.07000000,-27.40000000
664,1778626330.058889,-0.63000000,1.90000000,0.05000000,104.13000000,-30.46000000,21.00000000
665,1778626330.066064,-0.63000000,1.90000000,0.05000000,104.13000000,-30.46000000,21.00000000
666,1778626330.074629,-0.63000000,1.90000000,0.05000000,104.13000000,-30.46000000,21.00000000
667,1778626330.0860941,-0.63000000,1.90000000,0.05000000,104.13000000,-30.46000000,21.00000000
668,1778626330.094751,-0.35000000,1.95000000,0.26000000,105.04000000,-52.73000000,73.55000000
669,1778626330.105482,-0.35000000,1.95000000,0.26000000,105.04000000,-52.73000000,73.55000000
670,1778626330.115137,-0.35000000,1.95000000,0.26000000,105.04000000,-52.73000000,73.55000000
671,1778626330.125976,-0.35000000,1.95000000,0.26000000,105.04000000,-52.73000000,73.55000000
672,1778626330.135587,-0.06000000,1.34000000,0.19000000,122.86000000,-92.90000000,107.18000000
673,1778626330.1446311,-0.06000000,1.34000000,0.19000000,122.86000000,-92.90000000,107.18000000
674,1778626330.154963,-0.06000000,1.34000000,0.19000000,122.86000000,-92.90000000,107.18000000
675,1778626330.164737,-0.06000000,1.34000000,0.19000000,122.86000000,-92.90000000,107.18000000
676,1778626330.175561,-0.06000000,1.34000000,0.19000000,122.86000000,-92.90000000,107.18000000
677,1778626330.1845708,-0.06000000,1.34000000,0.19000000,122.86000000,-92.90000000,107.18000000
678,1778626330.195649,-0.06000000,1.34000000,0.19000000,122.86000000,-92.90000000,107.18000000
679,1778626330.2088919,-0.06000000,1.34000000,0.19000000,122.86000000,-92.90000000,107.18000000
680,1778626330.217406,-0.06000000,1.34000000,0.19000000,122.86000000,-92.90000000,107.18000000
681,1778626330.228148,-0.06000000,1.34000000,0.19000000,122.86000000,-92.90000000,107.18000000
682,1778626330.2347252,-0.06000000,1.34000000,0.19000000,122.86000000,-92.90000000,107.18000000
683,1778626330.24512,-0.06000000,1.34000000,0.19000000,122.86000000,-92.90000000,107.18000000
684,1778626330.255713,-0.06000000,1.34000000,0.19000000,122.86000000,-92.90000000,107.18000000
685,1778626330.2668328,-0.11000000,0.04000000,0.23000000,-33.20000000,-83.19000000,78.86000000
686,1778626330.276043,-0.11000000,0.04000000,0.23000000,-33.20000000,-83.19000000,78.86000000
687,1778626330.2846951,-0.11000000,0.04000000,0.23000000,-33.20000000,-83.19000000,78.86000000
688,1778626330.297239,0.25000000,0.35000000,0.27000000,-78.61000000,111.39000000,66.16000000
689,1778626330.308258,0.25000000,0.35000000,0.27000000,-78.61000000,111.39000000,66.16000000
690,1778626330.314807,0.25000000,0.35000000,0.27000000,-78.61000000,111.39000000,66.16000000
691,1778626330.324725,0.12000000,0.29000000,0.30000000,-66.65000000,80.75000000,89.72000000
692,1778626330.334593,0.12000000,0.29000000,0.30000000,-66.65000000,80.75000000,89.72000000
693,1778626330.344954,0.12000000,0.29000000,0.30000000,-66.65000000,80.75000000,89.72000000
694,1778626330.35474,0.22000000,0.33000000,-0.03000000,-66.65000000,80.75000000,89.72000000
695,1778626330.3649652,0.22000000,0.33000000,-0.03000000,-66.65000000,80.75000000,89.72000000
696,1778626330.3765702,0.22000000,0.33000000,-0.03000000,-84.47000000,19.71000000,63.78000000
697,1778626330.3846111,-0.05000000,0.01000000,-0.56000000,-134.52000000,1.53000000,38.94000000
698,1778626330.395454,-0.05000000,0.01000000,-0.56000000,-134.52000000,1.53000000,38.94000000
699,1778626330.408724,-0.05000000,0.01000000,-0.56000000,-134.52000000,1.53000000,38.94000000
700,1778626330.417504,-0.05000000,0.01000000,-0.56000000,-134.52000000,1.53000000,38.94000000
701,1778626330.4253519,-0.05000000,0.01000000,-0.56000000,-134.52000000,1.53000000,38.94000000
702,1778626330.4350011,-0.53000000,0.51000000,-0.43000000,-83.56000000,207.89000000,-46.02000000
703,1778626330.449344,-0.53000000,0.51000000,-0.43000000,-83.56000000,207.89000000,-46.02000000
704,1778626330.4569159,-0.53000000,0.51000000,-0.43000000,-83.56000000,207.89000000,-46.02000000
705,1778626330.4683928,-1.84000000,2.92000000,-0.07000000,-178.65000000,38.39000000,-42.30000000
706,1778626330.476058,-1.84000000,2.92000000,-0.07000000,-178.65000000,38.39000000,-42.30000000
707,1778626330.48585,-1.84000000,2.92000000,-0.07000000,-178.65000000,38.39000000,-42.30000000
708,1778626330.4959092,-0.59000000,1.27000000,0.24000000,-88.81000000,-170.41000000,6.84000000
709,1778626330.508938,-0.59000000,1.27000000,0.24000000,-88.81000000,-170.41000000,6.84000000
710,1778626330.517056,-0.59000000,1.27000000,0.24000000,-88.81000000,-170.41000000,6.84000000
711,1778626330.527688,0.63000000,2.04000000,0.11000000,-88.81000000,-170.41000000,6.84000000
712,1778626330.535425,0.63000000,2.04000000,0.11000000,-19.10000000,-108.40000000,-68.73000000
713,1778626330.5453,0.63000000,2.04000000,0.11000000,-19.10000000,-108.40000000,-68.73000000
714,1778626330.5589929,0.63000000,2.04000000,0.11000000,-19.10000000,-108.40000000,-68.73000000
715,1778626330.5654452,0.63000000,2.04000000,0.11000000,-19.10000000,-108.40000000,-68.73000000
716,1778626330.576117,0.63000000,2.04000000,0.11000000,-19.10000000,-108.40000000,-68.73000000
717,1778626330.5854988,0.63000000,2.04000000,0.11000000,-19.10000000,-108.40000000,-68.73000000
718,1778626330.597582,0.63000000,2.04000000,0.11000000,-19.10000000,-108.40000000,-68.73000000
719,1778626330.60547,0.63000000,2.04000000,0.11000000,-19.10000000,-108.40000000,-68.73000000
720,1778626330.614666,0.63000000,2.04000000,0.11000000,-19.10000000,-108.40000000,-68.73000000
721,1778626330.625473,0.63000000,2.04000000,0.11000000,-19.10000000,-108.40000000,-68.73000000
722,1778626330.634648,0.63000000,2.04000000,0.11000000,-19.10000000,-108.40000000,-68.73000000
723,1778626330.6446831,0.63000000,2.04000000,0.11000000,-19.10000000,-108.40000000,-68.73000000
724,1778626330.655124,-0.33000000,1.69000000,0.09000000,112.67000000,31.92000000,-1.95000000
725,1778626330.667443,-0.33000000,1.69000000,0.09000000,112.67000000,31.92000000,-1.95000000
726,1778626330.67569,-0.34000000,0.92000000,0.30000000,108.58000000,-12.21000000,20.69000000
727,1778626330.68542,-0.34000000,0.92000000,0.30000000,108.58000000,-12.21000000,20.69000000
728,1778626330.694667,-0.34000000,0.92000000,0.30000000,108.58000000,-12.21000000,20.69000000
729,1778626330.708954,-0.34000000,0.92000000,0.30000000,108.58000000,-12.21000000,20.69000000
730,1778626330.717406,-0.34000000,0.92000000,0.30000000,108.58000000,-12.21000000,20.69000000
731,1778626330.726263,-0.34000000,0.92000000,0.30000000,108.58000000,-12.21000000,20.69000000
732,1778626330.734626,-0.34000000,0.92000000,0.30000000,108.58000000,-12.21000000,20.69000000
733,1778626330.7449448,-0.34000000,0.92000000,0.30000000,108.58000000,-12.21000000,20.69000000
734,1778626330.754866,-0.34000000,0.92000000,0.30000000,108.58000000,-12.21000000,20.69000000
735,1778626330.765265,-0.34000000,0.92000000,0.30000000,108.58000000,-12.21000000,20.69000000
736,1778626330.774663,0.45000000,0.08000000,0.40000000,129.58000000,-66.22000000,22.64000000
737,1778626330.787861,-0.11000000,0.37000000,0.61000000,28.81000000,26.31000000,-45.35000000
738,1778626330.795367,-0.11000000,0.37000000,0.61000000,28.81000000,26.31000000,-45.35000000
739,1778626330.808958,-0.11000000,0.37000000,0.61000000,28.81000000,26.31000000,-45.35000000
740,1778626330.8173702,-0.11000000,0.37000000,0.61000000,28.81000000,26.31000000,-45.35000000
741,1778626330.826161,-0.11000000,0.37000000,0.61000000,28.81000000,26.31000000,-45.35000000
742,1778626330.834634,-0.84000000,-0.35000000,-0.44000000,47.61000000,14.95000000,-42.79000000
743,1778626330.8446531,-0.84000000,-0.35000000,-0.44000000,47.61000000,14.95000000,-42.79000000
744,1778626330.858978,-0.39000000,0.22000000,0.31000000,35.95000000,179.63000000,-89.17000000
745,1778626330.867368,-0.39000000,0.22000000,0.31000000,35.95000000,179.63000000,-89.17000000
746,1778626330.876159,-0.39000000,0.22000000,0.31000000,35.95000000,179.63000000,-89.17000000
747,1778626330.884747,-0.39000000,0.22000000,0.31000000,35.95000000,179.63000000,-89.17000000
748,1778626330.894746,-0.39000000,0.22000000,0.31000000,35.95000000,179.63000000,-89.17000000
749,1778626330.9048278,-0.38000000,0.33000000,-0.16000000,-59.63000000,17.82000000,-127.62000000
750,1778626330.9149811,-0.38000000,0.33000000,-0.16000000,-59.63000000,17.82000000,-127.62000000
751,1778626330.92935,-0.38000000,0.33000000,-0.16000000,-59.63000000,17.82000000,-127.62000000
752,1778626330.934784,-0.38000000,0.33000000,-0.16000000,-59.63000000,17.82000000,-127.62000000
753,1778626330.9481971,-0.04000000,0.66000000,-0.09000000,-205.81000000,134.22000000,-180.30000000
754,1778626330.956897,-0.04000000,0.66000000,-0.09000000,-205.81000000,134.22000000,-180.30000000
755,1778626330.968408,-0.04000000,0.66000000,-0.09000000,-205.81000000,134.22000000,-180.30000000
756,1778626330.9775271,-1.72000000,2.34000000,1.29000000,-205.81000000,134.22000000,-180.30000000
757,1778626330.9862301,-1.72000000,2.34000000,1.29000000,-192.20000000,8.12000000,-175.29000000
758,1778626330.997738,-1.72000000,2.34000000,1.29000000,-192.20000000,8.12000000,-175.29000000
759,1778626331.005085,-1.72000000,2.34000000,1.29000000,-192.20000000,8.12000000,-175.29000000
760,1778626331.015884,1.13000000,2.93000000,0.12000000,-124.57000000,-172.18000000,-115.30000000
761,1778626331.024769,1.13000000,2.93000000,0.12000000,-124.57000000,-172.18000000,-115.30000000
762,1778626331.0371819,1.13000000,2.93000000,0.12000000,-124.57000000,-172.18000000,-115.30000000
763,1778626331.045751,1.13000000,2.93000000,0.12000000,-124.57000000,-172.18000000,-115.30000000
764,1778626331.055052,-0.21000000,2.24000000,-0.03000000,-83.31000000,61.28000000,-10.19000000
765,1778626331.0645828,-0.21000000,2.24000000,-0.03000000,-83.31000000,61.28000000,-10.19000000
766,1778626331.0756512,-0.21000000,2.24000000,-0.03000000,-83.31000000,61.28000000,-10.19000000
767,1778626331.085929,-1.49000000,1.79000000,0.40000000,-5.37000000,21.00000000,-23.50000000
768,1778626331.0949,-1.49000000,1.79000000,0.40000000,-5.37000000,21.00000000,-23.50000000
769,1778626331.109013,-1.49000000,1.79000000,0.40000000,-5.37000000,21.00000000,-23.50000000
770,1778626331.115338,-0.39000000,2.16000000,0.15000000,-5.37000000,21.00000000,-23.50000000
771,1778626331.126343,-0.39000000,2.16000000,0.15000000,62.74000000,-37.17000000,0.67000000
772,1778626331.1346781,-0.39000000,2.16000000,0.15000000,62.74000000,-37.17000000,0.67000000
773,1778626331.1471071,-0.39000000,2.16000000,0.15000000,62.74000000,-37.17000000,0.67000000
774,1778626331.158319,-0.24000000,1.50000000,0.20000000,104.37000000,-47.49000000,63.17000000
775,1778626331.167715,-0.24000000,1.50000000,0.20000000,104.37000000,-47.49000000,63.17000000
776,1778626331.177829,-0.24000000,1.50000000,0.20000000,104.37000000,-47.49000000,63.17000000
777,1778626331.184886,-0.24000000,1.50000000,0.20000000,104.37000000,-47.49000000,63.17000000
778,1778626331.195574,-0.24000000,1.50000000,0.20000000,104.37000000,-47.49000000,63.17000000
779,1778626331.20506,0.05000000,0.90000000,0.06000000,131.16000000,-70.74000000,109.68000000
780,1778626331.219299,0.05000000,0.90000000,0.06000000,131.16000000,-70.74000000,109.68000000
781,1778626331.2246258,0.05000000,0.90000000,0.06000000,131.16000000,-70.74000000,109.68000000
782,1778626331.23732,0.05000000,0.90000000,0.06000000,131.16000000,-70.74000000,109.68000000
783,1778626331.245554,0.05000000,0.90000000,0.06000000,131.16000000,-70.74000000,109.68000000
784,1778626331.259083,0.05000000,0.90000000,0.06000000,131.16000000,-70.74000000,109.68000000
785,1778626331.266114,0.05000000,0.90000000,0.06000000,131.16000000,-70.74000000,109.68000000
786,1778626331.274637,0.05000000,0.90000000,0.06000000,131.16000000,-70.74000000,109.68000000
787,1778626331.286725,0.05000000,0.90000000,0.06000000,131.16000000,-70.74000000,109.68000000
788,1778626331.2969751,0.05000000,0.90000000,0.06000000,131.16000000,-70.74000000,109.68000000
789,1778626331.3072069,-0.46000000,-0.15000000,0.35000000,-6.84000000,44.25000000,83.68000000
790,1778626331.3156679,-0.46000000,-0.15000000,0.35000000,-6.84000000,44.25000000,83.68000000
791,1778626331.325265,-0.46000000,-0.15000000,0.35000000,-6.84000000,44.25000000,83.68000000
792,1778626331.334618,-0.46000000,-0.15000000,0.35000000,-6.84000000,44.25000000,83.68000000
793,1778626331.345003,0.04000000,0.05000000,0.33000000,-32.47000000,32.96000000,83.01000000
794,1778626331.355525,0.04000000,0.05000000,0.33000000,-32.47000000,32.96000000,83.01000000
795,1778626331.366486,0.04000000,0.05000000,0.33000000,-32.47000000,32.96000000,83.01000000
796,1778626331.374588,0.04000000,0.05000000,0.33000000,-32.47000000,32.96000000,83.01000000
797,1778626331.384653,0.51000000,0.34000000,-0.28000000,-45.47000000,-100.83000000,84.78000000
798,1778626331.395158,0.51000000,0.34000000,-0.28000000,-45.47000000,-100.83000000,84.78000000
799,1778626331.408735,0.20000000,0.10000000,-0.31000000,-45.47000000,-100.83000000,84.78000000
800,1778626331.416824,0.20000000,0.10000000,-0.31000000,-50.17000000,-105.41000000,103.64000000
801,1778626331.424705,0.20000000,0.10000000,-0.31000000,-50.17000000,-105.41000000,103.64000000
802,1778626331.4366999,0.20000000,0.10000000,-0.31000000,-50.17000000,-105.41000000,103.64000000
803,1778626331.448529,-0.26000000,0.37000000,0.03000000,-46.02000000,4.15000000,24.17000000
804,1778626331.456823,-0.26000000,0.37000000,0.03000000,-46.02000000,4.15000000,24.17000000
805,1778626331.464643,-0.26000000,0.37000000,0.03000000,-46.02000000,4.15000000,24.17000000
806,1778626331.4746099,-0.26000000,0.37000000,0.03000000,-46.02000000,4.15000000,24.17000000
807,1778626331.488508,-0.25000000,1.48000000,0.50000000,-135.25000000,236.27000000,-33.08000000
808,1778626331.496743,-0.25000000,1.48000000,0.50000000,-135.25000000,236.27000000,-33.08000000
809,1778626331.5085068,-0.25000000,1.48000000,0.50000000,-135.25000000,236.27000000,-33.08000000
810,1778626331.515635,-1.10000000,2.70000000,0.18000000,-68.36000000,152.83000000,-70.01000000
811,1778626331.526699,-1.10000000,2.70000000,0.18000000,-68.36000000,152.83000000,-70.01000000
812,1778626331.5353549,-1.10000000,2.70000000,0.18000000,-68.36000000,152.83000000,-70.01000000
813,1778626331.547678,-1.10000000,2.70000000,0.18000000,-68.36000000,152.83000000,-70.01000000
814,1778626331.558037,-0.48000000,1.34000000,-0.05000000,-24.17000000,-73.43000000,-30.70000000
815,1778626331.564651,-0.48000000,1.34000000,-0.05000000,-24.17000000,-73.43000000,-30.70000000
816,1778626331.5746171,-0.48000000,1.34000000,-0.05000000,-24.17000000,-73.43000000,-30.70000000
817,1778626331.584966,-0.48000000,1.34000000,-0.05000000,-24.17000000,-73.43000000,-30.70000000
818,1778626331.595807,0.14000000,2.65000000,0.18000000,13.06000000,-107.48000000,-26.92000000
819,1778626331.604874,0.14000000,2.65000000,0.18000000,13.06000000,-107.48000000,-26.92000000
820,1778626331.6194391,0.14000000,2.65000000,0.18000000,13.06000000,-107.48000000,-26.92000000
821,1778626331.624628,0.14000000,2.65000000,0.18000000,13.06000000,-107.48000000,-26.92000000
822,1778626331.6352482,0.14000000,2.65000000,0.18000000,13.06000000,-107.48000000,-26.92000000
823,1778626331.64727,0.14000000,2.65000000,0.18000000,13.06000000,-107.48000000,-26.92000000
824,1778626331.658216,0.14000000,2.65000000,0.18000000,13.06000000,-107.48000000,-26.92000000
825,1778626331.664646,0.14000000,2.65000000,0.18000000,13.06000000,-107.48000000,-26.92000000
826,1778626331.674602,0.14000000,2.65000000,0.18000000,13.06000000,-107.48000000,-26.92000000
827,1778626331.68957,0.14000000,2.65000000,0.18000000,13.06000000,-107.48000000,-26.92000000
828,1778626331.694885,-0.41000000,1.58000000,-0.02000000,83.86000000,-11.72000000,-44.31000000
829,1778626331.7055502,-0.41000000,1.58000000,-0.02000000,83.86000000,-11.72000000,-44.31000000
830,1778626331.7181382,-0.41000000,1.58000000,-0.02000000,83.86000000,-11.72000000,-44.31000000
831,1778626331.726633,0.26000000,0.82000000,0.33000000,26.18000000,105.29000000,-51.76000000
832,1778626331.7346208,0.26000000,0.82000000,0.33000000,26.18000000,105.29000000,-51.76000000
833,1778626331.745899,0.26000000,0.82000000,0.33000000,26.18000000,105.29000000,-51.76000000
834,1778626331.7555358,0.26000000,0.82000000,0.33000000,26.18000000,105.29000000,-51.76000000
835,1778626331.764618,0.26000000,0.82000000,0.33000000,26.18000000,105.29000000,-51.76000000
836,1778626331.774667,0.26000000,0.82000000,0.33000000,26.18000000,105.29000000,-51.76000000
837,1778626331.785544,0.26000000,0.82000000,0.33000000,26.18000000,105.29000000,-51.76000000
838,1778626331.79519,0.26000000,0.82000000,0.33000000,26.18000000,105.29000000,-51.76000000
839,1778626331.805553,0.26000000,0.82000000,0.33000000,26.18000000,105.29000000,-51.76000000
840,1778626331.817625,0.26000000,0.82000000,0.33000000,26.18000000,105.29000000,-51.76000000
841,1778626331.824621,-0.11000000,0.13000000,-0.13000000,1.83000000,-10.99000000,-32.04000000
842,1778626331.836115,-0.11000000,0.13000000,-0.13000000,1.83000000,-10.99000000,-32.04000000
843,1778626331.8452091,-0.11000000,0.13000000,-0.13000000,1.83000000,-10.99000000,-32.04000000
844,1778626331.859097,-0.11000000,0.13000000,-0.13000000,1.83000000,-10.99000000,-32.04000000
845,1778626331.864566,-0.18000000,0.19000000,0.01000000,-0.67000000,55.97000000,-61.77000000
846,1778626331.8773608,-0.18000000,0.19000000,0.01000000,-0.67000000,55.97000000,-61.77000000
847,1778626331.88683,-0.18000000,0.19000000,0.01000000,-0.67000000,55.97000000,-61.77000000
848,1778626331.898025,-0.24000000,0.33000000,0.18000000,-37.48000000,127.44000000,-87.34000000
849,1778626331.904792,-0.24000000,0.33000000,0.18000000,-37.48000000,127.44000000,-87.34000000
850,1778626331.915843,-0.24000000,0.33000000,0.18000000,-37.48000000,127.44000000,-87.34000000
851,1778626331.9260669,-0.31000000,0.30000000,-0.07000000,-41.87000000,52.25000000,-101.75000000
852,1778626331.934907,-0.31000000,0.30000000,-0.07000000,-41.87000000,52.25000000,-101.75000000
853,1778626331.947157,-0.31000000,0.30000000,-0.07000000,-41.87000000,52.25000000,-101.75000000
854,1778626331.9549282,-0.31000000,0.30000000,-0.07000000,-41.87000000,52.25000000,-101.75000000
855,1778626331.968839,-0.28000000,1.05000000,0.21000000,-85.08000000,230.71000000,-254.03000000
856,1778626331.975745,-0.28000000,1.05000000,0.21000000,-85.08000000,230.71000000,-254.03000000
857,1778626331.98457,-0.28000000,1.05000000,0.21000000,-85.08000000,230.71000000,-254.03000000
858,1778626331.99549,-0.28000000,1.05000000,0.21000000,-85.08000000,230.71000000,-254.03000000
859,1778626332.005972,-1.99000000,1.41000000,0.26000000,-74.52000000,-213.99000000,-66.35000000
860,1778626332.018873,-1.99000000,1.41000000,0.26000000,-74.52000000,-213.99000000,-66.35000000
861,1778626332.026515,-1.99000000,1.41000000,0.26000000,-74.52000000,-213.99000000,-66.35000000
862,1778626332.0346172,-1.99000000,1.41000000,0.26000000,-74.52000000,-213.99000000,-66.35000000
863,1778626332.045869,-1.99000000,1.41000000,0.26000000,-74.52000000,-213.99000000,-66.35000000
864,1778626332.054652,-0.50000000,2.28000000,0.28000000,-59.94000000,-9.40000000,-46.63000000
865,1778626332.069304,-0.50000000,2.28000000,0.28000000,-59.94000000,-9.40000000,-46.63000000
866,1778626332.0771918,-1.58000000,1.90000000,-0.15000000,-19.47000000,34.12000000,20.57000000
867,1778626332.084647,-1.58000000,1.90000000,-0.15000000,-19.47000000,34.12000000,20.57000000
868,1778626332.094669,-1.58000000,1.90000000,-0.15000000,-19.47000000,34.12000000,20.57000000
869,1778626332.105202,-1.58000000,1.90000000,-0.15000000,-19.47000000,34.12000000,20.57000000
870,1778626332.114725,-0.89000000,1.91000000,0.19000000,43.95000000,-6.04000000,27.28000000
871,1778626332.126218,-0.89000000,1.91000000,0.19000000,43.95000000,-6.04000000,27.28000000
872,1778626332.1385138,-0.89000000,1.91000000,0.19000000,43.95000000,-6.04000000,27.28000000
873,1778626332.147119,-0.89000000,1.91000000,0.19000000,43.95000000,-6.04000000,27.28000000
874,1778626332.158299,-0.68000000,1.66000000,0.45000000,81.60000000,-10.38000000,55.91000000
875,1778626332.164587,-0.68000000,1.66000000,0.45000000,81.60000000,-10.38000000,55.91000000
876,1778626332.177697,-0.68000000,1.66000000,0.45000000,81.60000000,-10.38000000,55.91000000
877,1778626332.185175,-0.68000000,1.66000000,0.45000000,81.60000000,-10.38000000,55.91000000
878,1778626332.197771,0.08000000,1.21000000,0.30000000,93.20000000,-149.23000000,106.51000000
879,1778626332.206798,0.08000000,1.21000000,0.30000000,93.20000000,-149.23000000,106.51000000
880,1778626332.214875,0.08000000,1.21000000,0.30000000,93.20000000,-149.23000000,106.51000000
881,1778626332.22612,0.48000000,0.28000000,0.31000000,90.76000000,-221.07000000,142.88000000
882,1778626332.234988,0.48000000,0.28000000,0.31000000,90.76000000,-221.07000000,142.88000000
883,1778626332.247787,0.48000000,0.28000000,0.31000000,90.76000000,-221.07000000,142.88000000
884,1778626332.257586,0.48000000,0.28000000,0.31000000,90.76000000,-221.07000000,142.88000000
885,1778626332.264801,0.18000000,0.05000000,-0.38000000,90.76000000,-221.07000000,142.88000000
886,1778626332.276602,0.18000000,0.05000000,-0.38000000,90.76000000,-221.07000000,142.88000000
887,1778626332.2846029,0.18000000,0.05000000,-0.38000000,90.76000000,-221.07000000,142.88000000
888,1778626332.29777,0.18000000,0.05000000,-0.38000000,90.76000000,-221.07000000,142.88000000
889,1778626332.307667,0.18000000,0.05000000,-0.38000000,90.76000000,-221.07000000,142.88000000
890,1778626332.31654,0.18000000,0.05000000,-0.38000000,90.76000000,-221.07000000,142.88000000
891,1778626332.327088,0.18000000,0.05000000,-0.38000000,90.76000000,-221.07000000,142.88000000
892,1778626332.33694,0.18000000,0.05000000,-0.38000000,90.76000000,-221.07000000,142.88000000
893,1778626332.347818,0.18000000,0.05000000,-0.38000000,90.76000000,-221.07000000,142.88000000
894,1778626332.3579578,-0.18000000,0.04000000,0.20000000,-25.39000000,192.08000000,101.68000000
895,1778626332.3669388,-0.18000000,0.04000000,0.20000000,-25.39000000,192.08000000,101.68000000
896,1778626332.376162,-0.08000000,0.20000000,0.37000000,-10.13000000,103.21000000,45.78000000
897,1778626332.388573,-0.08000000,0.20000000,0.37000000,-10.13000000,103.21000000,45.78000000
898,1778626332.396065,-0.08000000,0.20000000,0.37000000,-10.13000000,103.21000000,45.78000000
899,1778626332.4054358,-0.08000000,0.20000000,0.37000000,-10.13000000,103.21000000,45.78000000
900,1778626332.418348,-0.10000000,0.29000000,0.37000000,-77.82000000,66.77000000,25.82000000
901,1778626332.425793,-0.10000000,0.29000000,0.37000000,-77.82000000,66.77000000,25.82000000
902,1778626332.436131,-0.10000000,0.29000000,0.37000000,-77.82000000,66.77000000,25.82000000
903,1778626332.446502,-0.10000000,0.29000000,0.37000000,-77.82000000,66.77000000,25.82000000
904,1778626332.454867,-0.41000000,0.30000000,0.71000000,-173.65000000,102.36000000,-44.01000000
905,1778626332.464823,-0.41000000,0.30000000,0.71000000,-173.65000000,102.36000000,-44.01000000
906,1778626332.476335,-0.27000000,0.85000000,0.16000000,-31.37000000,-92.59000000,22.03000000
907,1778626332.487116,-0.27000000,0.85000000,0.16000000,-31.37000000,-92.59000000,22.03000000
908,1778626332.495975,-0.27000000,0.85000000,0.16000000,-31.37000000,-92.59000000,22.03000000
909,1778626332.506172,-0.27000000,0.85000000,0.16000000,-31.37000000,-92.59000000,22.03000000
910,1778626332.514648,-0.38000000,2.16000000,0.22000000,-96.80000000,-106.51000000,-28.93000000
911,1778626332.526022,-0.38000000,2.16000000,0.22000000,-96.80000000,-106.51000000,-28.93000000
912,1778626332.5365481,-0.38000000,2.16000000,0.22000000,-96.80000000,-106.51000000,-28.93000000
913,1778626332.5478258,-0.38000000,2.16000000,0.22000000,-96.80000000,-106.51000000,-28.93000000
914,1778626332.5547771,0.35000000,1.77000000,-0.39000000,35.46000000,-245.18000000,-2.44000000
915,1778626332.564728,0.35000000,1.77000000,-0.39000000,35.46000000,-245.18000000,-2.44000000
916,1778626332.5766442,0.35000000,1.77000000,-0.39000000,35.46000000,-245.18000000,-2.44000000
917,1778626332.585072,0.35000000,1.77000000,-0.39000000,35.46000000,-245.18000000,-2.44000000
918,1778626332.597863,0.07000000,2.92000000,0.31000000,21.73000000,21.12000000,-43.58000000
919,1778626332.604974,0.07000000,2.92000000,0.31000000,21.73000000,21.12000000,-43.58000000
920,1778626332.61467,0.07000000,2.92000000,0.31000000,21.73000000,21.12000000,-43.58000000
921,1778626332.624623,0.07000000,2.92000000,0.31000000,21.73000000,21.12000000,-43.58000000
922,1778626332.635435,-0.55000000,2.24000000,0.25000000,102.29000000,0.31000000,39.00000000
923,1778626332.6478138,-0.55000000,2.24000000,0.25000000,102.29000000,0.31000000,39.00000000
924,1778626332.655068,-0.55000000,2.24000000,0.25000000,102.29000000,0.31000000,39.00000000
925,1778626332.666624,-0.55000000,2.24000000,0.25000000,102.29000000,0.31000000,39.00000000
926,1778626332.676707,-0.55000000,2.24000000,0.25000000,102.29000000,0.31000000,39.00000000
927,1778626332.6878269,-0.55000000,2.24000000,0.25000000,102.29000000,0.31000000,39.00000000
928,1778626332.6965172,-0.55000000,2.24000000,0.25000000,102.29000000,0.31000000,39.00000000
929,1778626332.707683,-0.55000000,2.24000000,0.25000000,102.29000000,0.31000000,39.00000000
930,1778626332.714859,-0.55000000,2.24000000,0.25000000,102.29000000,0.31000000,39.00000000
931,1778626332.7262878,-0.55000000,2.24000000,0.25000000,102.29000000,0.31000000,39.00000000
932,1778626332.7362711,-0.55000000,2.24000000,0.25000000,102.29000000,0.31000000,39.00000000
933,1778626332.746022,0.39000000,0.03000000,0.26000000,113.10000000,-124.51000000,5.98000000
934,1778626332.755409,0.39000000,0.03000000,0.26000000,113.10000000,-124.51000000,5.98000000
935,1778626332.7665,0.39000000,0.03000000,0.26000000,113.10000000,-124.51000000,5.98000000
936,1778626332.776363,0.39000000,0.03000000,0.26000000,113.10000000,-124.51000000,5.98000000
937,1778626332.788455,0.20000000,-0.04000000,0.13000000,67.14000000,13.49000000,-32.41000000
938,1778626332.796032,0.20000000,-0.04000000,0.13000000,67.14000000,13.49000000,-32.41000000
939,1778626332.808882,0.20000000,-0.04000000,0.13000000,67.14000000,13.49000000,-32.41000000
940,1778626332.8152692,0.20000000,-0.04000000,0.13000000,67.14000000,13.49000000,-32.41000000
941,1778626332.827137,0.20000000,-0.04000000,0.13000000,67.14000000,13.49000000,-32.41000000
942,1778626332.835267,0.20000000,-0.04000000,0.13000000,67.14000000,13.49000000,-32.41000000
943,1778626332.846178,0.20000000,-0.04000000,0.13000000,67.14000000,13.49000000,-32.41000000
944,1778626332.8570821,0.20000000,-0.04000000,0.13000000,67.14000000,13.49000000,-32.41000000
945,1778626332.864775,0.20000000,-0.04000000,0.13000000,67.14000000,13.49000000,-32.41000000
946,1778626332.877183,-0.30000000,0.21000000,0.12000000,17.03000000,0.79000000,-83.74000000
947,1778626332.88548,-0.30000000,0.21000000,0.12000000,17.03000000,0.79000000,-83.74000000
948,1778626332.897463,-0.10000000,0.18000000,0.12000000,-35.71000000,2.26000000,-90.76000000
949,1778626332.905301,-0.10000000,0.18000000,0.12000000,-35.71000000,2.26000000,-90.76000000
950,1778626332.916843,-0.10000000,0.18000000,0.12000000,-35.71000000,2.26000000,-90.76000000
951,1778626332.927038,-0.10000000,0.18000000,0.12000000,-35.71000000,2.26000000,-90.76000000
952,1778626332.936516,-0.31000000,0.51000000,0.01000000,-69.27000000,11.66000000,-111.94000000
953,1778626332.9481878,-0.31000000,0.51000000,0.01000000,-69.27000000,11.66000000,-111.94000000
954,1778626332.955507,-0.31000000,0.51000000,0.01000000,-69.27000000,11.66000000,-111.94000000
955,1778626332.964944,-0.31000000,0.51000000,0.01000000,-69.27000000,11.66000000,-111.94000000
956,1778626332.9771378,-0.01000000,0.47000000,0.67000000,-179.38000000,152.77000000,-194.27000000
957,1778626332.986179,-0.01000000,0.47000000,0.67000000,-179.38000000,152.77000000,-194.27000000
958,1778626332.99613,-0.01000000,0.47000000,0.67000000,-179.38000000,152.77000000,-194.27000000
959,1778626333.0048,-0.01000000,0.47000000,0.67000000,-179.38000000,152.77000000,-194.27000000
960,1778626333.015303,-1.14000000,2.27000000,0.45000000,-89.90000000,23.38000000,-145.02000000
961,1778626333.0276139,-1.14000000,2.27000000,0.45000000,-89.90000000,23.38000000,-145.02000000
962,1778626333.035153,-1.14000000,2.27000000,0.45000000,-89.90000000,23.38000000,-145.02000000
963,1778626333.046849,1.25000000,2.30000000,-0.18000000,-89.90000000,23.38000000,-145.02000000
964,1778626333.055705,1.25000000,2.30000000,-0.18000000,-79.28000000,-169.31000000,-55.30000000
965,1778626333.067898,1.25000000,2.30000000,-0.18000000,-79.28000000,-169.31000000,-55.30000000
966,1778626333.0771651,1.25000000,2.30000000,-0.18000000,-79.28000000,-169.31000000,-55.30000000
967,1778626333.085191,1.25000000,2.30000000,-0.18000000,-79.28000000,-169.31000000,-55.30000000
968,1778626333.0968661,-1.13000000,1.23000000,0.19000000,-49.74000000,40.95000000,-10.62000000
969,1778626333.105637,-1.13000000,1.23000000,0.19000000,-49.74000000,40.95000000,-10.62000000
970,1778626333.11713,-1.13000000,1.23000000,0.19000000,-49.74000000,40.95000000,-10.62000000
971,1778626333.127168,-0.63000000,1.75000000,0.35000000,43.46000000,-46.63000000,20.51000000
972,1778626333.135144,-0.63000000,1.75000000,0.35000000,43.46000000,-46.63000000,20.51000000
973,1778626333.147081,-0.63000000,1.75000000,0.35000000,43.46000000,-46.63000000,20.51000000
974,1778626333.1576571,-0.63000000,1.75000000,0.35000000,43.46000000,-46.63000000,20.51000000
975,1778626333.1680598,-0.63000000,1.75000000,0.35000000,43.46000000,-46.63000000,20.51000000
976,1778626333.1772008,-0.76000000,2.27000000,0.52000000,55.18000000,-10.01000000,35.10000000
977,1778626333.18532,-0.76000000,2.27000000,0.52000000,55.18000000,-10.01000000,35.10000000
978,1778626333.196459,-0.39000000,1.70000000,0.31000000,93.69000000,-14.47000000,101.44000000
979,1778626333.205787,-0.39000000,1.70000000,0.31000000,93.69000000,-14.47000000,101.44000000
980,1778626333.216736,-0.39000000,1.70000000,0.31000000,93.69000000,-14.47000000,101.44000000
981,1778626333.227178,-0.39000000,1.70000000,0.31000000,93.69000000,-14.47000000,101.44000000
982,1778626333.234921,-0.15000000,1.40000000,0.02000000,126.59000000,-82.89000000,168.64000000
983,1778626333.2480278,-0.15000000,1.40000000,0.02000000,126.59000000,-82.89000000,168.64000000
984,1778626333.255439,-0.15000000,1.40000000,0.02000000,126.59000000,-82.89000000,168.64000000
985,1778626333.2652102,-0.15000000,1.40000000,0.02000000,126.59000000,-82.89000000,168.64000000
986,1778626333.27718,0.23000000,0.78000000,0.05000000,161.44000000,-180.24000000,185.18000000
987,1778626333.284571,0.23000000,0.78000000,0.05000000,161.44000000,-180.24000000,185.18000000
988,1778626333.296917,-0.12000000,0.28000000,0.48000000,152.65000000,98.69000000,114.01000000
989,1778626333.3068779,-0.12000000,0.28000000,0.48000000,152.65000000,98.69000000,114.01000000
990,1778626333.318068,-0.12000000,0.28000000,0.48000000,152.65000000,98.69000000,114.01000000
991,1778626333.327188,-0.12000000,0.28000000,0.48000000,152.65000000,98.69000000,114.01000000
992,1778626333.335485,-0.12000000,0.28000000,0.48000000,152.65000000,98.69000000,114.01000000
993,1778626333.344955,-0.12000000,0.28000000,0.48000000,152.65000000,98.69000000,114.01000000
994,1778626333.3550699,-0.12000000,0.28000000,0.48000000,152.65000000,98.69000000,114.01000000
995,1778626333.3689191,-0.12000000,0.28000000,0.48000000,152.65000000,98.69000000,114.01000000
996,1778626333.3771951,-0.12000000,0.28000000,0.48000000,152.65000000,98.69000000,114.01000000
997,1778626333.385256,-0.12000000,0.28000000,0.48000000,152.65000000,98.69000000,114.01000000
998,1778626333.394608,-0.12000000,0.28000000,0.48000000,152.65000000,98.69000000,114.01000000
999,1778626333.4047942,-0.22000000,0.12000000,0.39000000,-26.12000000,103.52000000,107.06000000
1000,1778626333.417024,0.07000000,0.32000000,0.44000000,-9.22000000,35.03000000,77.76000000
