id,timestamp,acc_x,acc_y,acc_z,gyro_x,gyro_y,gyro_z
1,1778626157.3527539,-2.72000000,-0.95000000,1.38000000,-1.28000000,143.07000000,109.37000000
2,1778626157.364597,-2.40000000,-1.22000000,1.88000000,36.01000000,123.05000000,200.07000000
3,1778626157.374331,-2.40000000,-1.22000000,1.88000000,36.01000000,123.05000000,200.07000000
4,1778626157.3833642,-2.40000000,-1.22000000,1.88000000,36.01000000,123.05000000,200.07000000
5,1778626157.394948,-2.40000000,-1.22000000,1.88000000,36.01000000,123.05000000,200.07000000
6,1778626157.403158,-1.93000000,-1.68000000,1.93000000,78.80000000,155.70000000,266.97000000
7,1778626157.413341,-1.93000000,-1.68000000,1.93000000,78.80000000,155.70000000,266.97000000
8,1778626157.425098,-1.93000000,-1.68000000,1.93000000,78.80000000,155.70000000,266.97000000
9,1778626157.433399,-1.77000000,-1.56000000,1.95000000,78.80000000,155.70000000,266.97000000
10,1778626157.44274,-1.77000000,-1.56000000,1.95000000,53.16000000,222.96000000,263.67000000
11,1778626157.45522,-1.77000000,-1.56000000,1.95000000,53.16000000,222.96000000,263.67000000
12,1778626157.463713,-1.77000000,-1.56000000,1.95000000,53.16000000,222.96000000,263.67000000
13,1778626157.472799,-1.45000000,-1.56000000,1.90000000,46.51000000,244.51000000,278.02000000
14,1778626157.482801,-1.45000000,-1.56000000,1.90000000,46.51000000,244.51000000,278.02000000
15,1778626157.4945972,-1.45000000,-1.56000000,1.90000000,46.51000000,244.51000000,278.02000000
16,1778626157.503191,-1.45000000,-1.56000000,1.90000000,46.51000000,244.51000000,278.02000000
17,1778626157.512811,-1.00000000,-1.38000000,1.62000000,58.04000000,243.23000000,318.66000000
18,1778626157.523554,-1.00000000,-1.38000000,1.62000000,58.04000000,243.23000000,318.66000000
19,1778626157.534594,-1.00000000,-1.38000000,1.62000000,58.04000000,243.23000000,318.66000000
20,1778626157.543413,-0.79000000,-1.33000000,1.43000000,64.51000000,225.16000000,321.11000000
21,1778626157.555052,-0.79000000,-1.33000000,1.43000000,64.51000000,225.16000000,321.11000000
22,1778626157.5627751,-0.79000000,-1.33000000,1.43000000,64.51000000,225.16000000,321.11000000
23,1778626157.57444,-0.79000000,-1.33000000,1.43000000,64.51000000,225.16000000,321.11000000
24,1778626157.582817,-0.79000000,-1.33000000,1.43000000,64.51000000,225.16000000,321.11000000
25,1778626157.594065,-0.79000000,-1.33000000,1.43000000,64.51000000,225.16000000,321.11000000
26,1778626157.603957,-0.79000000,-1.33000000,1.43000000,64.51000000,225.16000000,321.11000000
27,1778626157.614963,-0.79000000,-1.33000000,1.43000000,64.51000000,225.16000000,321.11000000
28,1778626157.623125,-0.79000000,-1.33000000,1.43000000,64.51000000,225.16000000,321.11000000
29,1778626157.6327932,0.12000000,-0.90000000,0.74000000,57.62000000,175.66000000,378.36000000
30,1778626157.643831,0.12000000,-0.90000000,0.74000000,57.62000000,175.66000000,378.36000000
31,1778626157.652858,0.24000000,-0.69000000,0.58000000,78.55000000,100.40000000,336.91000000
32,1778626157.6651928,0.24000000,-0.69000000,0.58000000,78.55000000,100.40000000,336.91000000
33,1778626157.674607,0.24000000,-0.69000000,0.58000000,78.55000000,100.40000000,336.91000000
34,1778626157.684779,0.24000000,-0.69000000,0.58000000,78.55000000,100.40000000,336.91000000
35,1778626157.694724,0.24000000,-0.69000000,0.58000000,78.55000000,100.40000000,336.91000000
36,1778626157.704028,0.24000000,-0.69000000,0.58000000,78.55000000,100.40000000,336.91000000
37,1778626157.71491,0.24000000,-0.69000000,0.58000000,78.55000000,100.40000000,336.91000000
38,1778626157.722773,0.24000000,-0.69000000,0.58000000,78.55000000,100.40000000,336.91000000
39,1778626157.735095,0.24000000,-0.69000000,0.58000000,78.55000000,100.40000000,336.91000000
40,1778626157.7446358,0.24000000,-0.69000000,0.58000000,78.55000000,100.40000000,336.91000000
41,1778626157.753312,0.24000000,-0.69000000,0.58000000,78.55000000,100.40000000,336.91000000
42,1778626157.762808,0.24000000,-0.69000000,0.58000000,78.55000000,100.40000000,336.91000000
43,1778626157.7727768,0.52000000,-0.46000000,0.07000000,64.15000000,104.74000000,203.98000000
44,1778626157.7831511,0.52000000,-0.46000000,0.07000000,64.15000000,104.74000000,203.98000000
45,1778626157.795147,0.52000000,-0.46000000,0.07000000,64.15000000,104.74000000,203.98000000
46,1778626157.80296,0.52000000,-0.46000000,0.07000000,64.15000000,104.74000000,203.98000000
47,1778626157.812942,0.59000000,-0.34000000,0.17000000,49.80000000,76.17000000,229.61000000
48,1778626157.822836,0.59000000,-0.34000000,0.17000000,49.80000000,76.17000000,229.61000000
49,1778626157.834089,0.59000000,-0.34000000,0.17000000,49.80000000,76.17000000,229.61000000
50,1778626157.843803,1.40000000,0.10000000,-0.12000000,22.09000000,60.73000000,224.30000000
51,1778626157.854037,1.40000000,0.10000000,-0.12000000,22.09000000,60.73000000,224.30000000
52,1778626157.863772,1.40000000,0.10000000,-0.12000000,22.09000000,60.73000000,224.30000000
53,1778626157.8727381,1.40000000,0.10000000,-0.12000000,22.09000000,60.73000000,224.30000000
54,1778626157.8845088,1.50000000,0.24000000,0.01000000,43.33000000,56.40000000,103.27000000
55,1778626157.894763,1.50000000,0.24000000,0.01000000,43.33000000,56.40000000,103.27000000
56,1778626157.904083,1.50000000,0.24000000,0.01000000,43.33000000,56.40000000,103.27000000
57,1778626157.91425,1.50000000,0.24000000,0.01000000,43.33000000,56.40000000,103.27000000
58,1778626157.92276,1.80000000,0.20000000,-0.53000000,-1.10000000,61.10000000,53.59000000
59,1778626157.935256,1.80000000,0.20000000,-0.53000000,-1.10000000,61.10000000,53.59000000
60,1778626157.942819,1.80000000,0.20000000,-0.53000000,-1.10000000,61.10000000,53.59000000
61,1778626157.9535859,2.01000000,0.30000000,-0.72000000,16.91000000,-7.69000000,27.10000000
62,1778626157.96305,2.01000000,0.30000000,-0.72000000,16.91000000,-7.69000000,27.10000000
63,1778626157.972791,2.01000000,0.30000000,-0.72000000,16.91000000,-7.69000000,27.10000000
64,1778626157.985217,2.01000000,0.30000000,-0.72000000,16.91000000,-7.69000000,27.10000000
65,1778626157.994565,1.92000000,0.32000000,-0.62000000,-1.95000000,-56.09000000,-11.11000000
66,1778626158.0040262,1.92000000,0.32000000,-0.62000000,-1.95000000,-56.09000000,-11.11000000
67,1778626158.0134559,1.92000000,0.32000000,-0.62000000,-1.95000000,-56.09000000,-11.11000000
68,1778626158.023745,1.92000000,0.32000000,-0.62000000,-1.95000000,-56.09000000,-11.11000000
69,1778626158.034785,1.63000000,0.39000000,-0.41000000,-79.22000000,-64.45000000,-84.90000000
70,1778626158.0446951,1.63000000,0.39000000,-0.41000000,-79.22000000,-64.45000000,-84.90000000
71,1778626158.053765,1.63000000,0.39000000,-0.41000000,-79.22000000,-64.45000000,-84.90000000
72,1778626158.062973,1.37000000,0.45000000,-0.15000000,-71.04000000,-97.29000000,-139.95000000
73,1778626158.0749,1.37000000,0.45000000,-0.15000000,-71.04000000,-97.29000000,-139.95000000
74,1778626158.0847208,1.37000000,0.45000000,-0.15000000,-71.04000000,-97.29000000,-139.95000000
75,1778626158.0935118,1.37000000,0.45000000,-0.15000000,-71.04000000,-97.29000000,-139.95000000
76,1778626158.103528,1.13000000,0.53000000,-0.19000000,-64.39000000,-117.86000000,-167.18000000
77,1778626158.1142242,1.13000000,0.53000000,-0.19000000,-64.39000000,-117.86000000,-167.18000000
78,1778626158.123795,1.13000000,0.53000000,-0.19000000,-64.39000000,-117.86000000,-167.18000000
79,1778626158.133425,1.13000000,0.53000000,-0.19000000,-64.39000000,-117.86000000,-167.18000000
80,1778626158.143256,0.77000000,0.41000000,-0.17000000,-87.28000000,-100.46000000,-235.53000000
81,1778626158.154071,0.77000000,0.41000000,-0.17000000,-87.28000000,-100.46000000,-235.53000000
82,1778626158.1639009,0.77000000,0.41000000,-0.17000000,-87.28000000,-100.46000000,-235.53000000
83,1778626158.172801,0.77000000,0.41000000,-0.17000000,-87.28000000,-100.46000000,-235.53000000
84,1778626158.182848,0.36000000,0.19000000,-0.01000000,-99.79000000,-99.00000000,-274.29000000
85,1778626158.195194,0.36000000,0.19000000,-0.01000000,-99.79000000,-99.00000000,-274.29000000
86,1778626158.204254,0.36000000,0.19000000,-0.01000000,-99.79000000,-99.00000000,-274.29000000
87,1778626158.213644,0.36000000,0.19000000,-0.01000000,-99.79000000,-99.00000000,-274.29000000
88,1778626158.222786,0.36000000,0.19000000,-0.01000000,-99.79000000,-99.00000000,-274.29000000
89,1778626158.232778,0.36000000,0.19000000,-0.01000000,-99.79000000,-99.00000000,-274.29000000
90,1778626158.24277,0.36000000,0.19000000,-0.01000000,-99.79000000,-99.00000000,-274.29000000
91,1778626158.2541041,0.36000000,0.19000000,-0.01000000,-99.79000000,-99.00000000,-274.29000000
92,1778626158.264323,0.36000000,0.19000000,-0.01000000,-99.79000000,-99.00000000,-274.29000000
93,1778626158.272845,0.36000000,0.19000000,-0.01000000,-99.79000000,-99.00000000,-274.29000000
94,1778626158.2828002,0.36000000,0.19000000,-0.01000000,-99.79000000,-99.00000000,-274.29000000
95,1778626158.2950752,0.36000000,0.19000000,-0.01000000,-99.79000000,-99.00000000,-274.29000000
96,1778626158.303979,-0.51000000,-0.54000000,0.77000000,-100.40000000,-125.12000000,-280.15000000
97,1778626158.3137238,-0.51000000,-0.54000000,0.77000000,-100.40000000,-125.12000000,-280.15000000
98,1778626158.325013,-0.51000000,-0.54000000,0.77000000,-100.40000000,-125.12000000,-280.15000000
99,1778626158.333036,-0.58000000,-0.68000000,0.72000000,-126.40000000,-139.59000000,-278.08000000
100,1778626158.344695,-0.58000000,-0.68000000,0.72000000,-126.40000000,-139.59000000,-278.08000000
101,1778626158.353394,-0.58000000,-0.68000000,0.72000000,-126.40000000,-139.59000000,-278.08000000
102,1778626158.3634639,-0.76000000,-1.12000000,0.58000000,-150.33000000,-191.89000000,-241.94000000
103,1778626158.375067,-0.76000000,-1.12000000,0.58000000,-150.33000000,-191.89000000,-241.94000000
104,1778626158.382828,-0.76000000,-1.12000000,0.58000000,-150.33000000,-191.89000000,-241.94000000
105,1778626158.3949802,-0.95000000,-0.67000000,1.81000000,-150.33000000,-191.89000000,-241.94000000
106,1778626158.404105,-0.95000000,-0.67000000,1.81000000,-138.92000000,-257.32000000,-146.73000000
107,1778626158.414283,-0.95000000,-0.67000000,1.81000000,-138.92000000,-257.32000000,-146.73000000
108,1778626158.4228458,-0.95000000,-0.67000000,1.81000000,-138.92000000,-257.32000000,-146.73000000
109,1778626158.434603,-1.13000000,-0.72000000,1.27000000,-115.84000000,-174.68000000,-256.84000000
110,1778626158.444767,-1.13000000,-0.72000000,1.27000000,-115.84000000,-174.68000000,-256.84000000
111,1778626158.4542458,-1.13000000,-0.72000000,1.27000000,-115.84000000,-174.68000000,-256.84000000
112,1778626158.4632618,-1.49000000,-0.64000000,1.56000000,-123.72000000,-202.64000000,-183.53000000
113,1778626158.472765,-1.49000000,-0.64000000,1.56000000,-123.72000000,-202.64000000,-183.53000000
114,1778626158.483031,-1.49000000,-0.64000000,1.56000000,-123.72000000,-202.64000000,-183.53000000
115,1778626158.493456,-1.49000000,-0.64000000,1.56000000,-123.72000000,-202.64000000,-183.53000000
116,1778626158.503165,-1.21000000,-0.10000000,1.33000000,-77.70000000,-101.26000000,-181.88000000
117,1778626158.513145,-1.21000000,-0.10000000,1.33000000,-77.70000000,-101.26000000,-181.88000000
118,1778626158.5247302,-1.21000000,-0.10000000,1.33000000,-77.70000000,-101.26000000,-181.88000000
119,1778626158.5347378,-1.37000000,-0.58000000,0.98000000,-77.70000000,-101.26000000,-181.88000000
120,1778626158.5431838,-1.37000000,-0.58000000,0.98000000,-60.42000000,-54.99000000,-224.12000000
121,1778626158.553309,-1.37000000,-0.58000000,0.98000000,-60.42000000,-54.99000000,-224.12000000
122,1778626158.563384,-1.37000000,-0.58000000,0.98000000,-60.42000000,-54.99000000,-224.12000000
123,1778626158.573504,-1.18000000,-0.41000000,0.96000000,-60.42000000,0.85000000,-190.92000000
124,1778626158.582827,-1.18000000,-0.41000000,0.96000000,-60.42000000,0.85000000,-190.92000000
125,1778626158.594746,-1.18000000,-0.41000000,0.96000000,-60.42000000,0.85000000,-190.92000000
126,1778626158.6041,-1.18000000,-0.41000000,0.96000000,-60.42000000,0.85000000,-190.92000000
127,1778626158.614313,-1.18000000,-0.41000000,0.96000000,-60.42000000,0.85000000,-190.92000000
128,1778626158.624304,-1.18000000,-0.41000000,0.96000000,-60.42000000,0.85000000,-190.92000000
129,1778626158.634851,-1.18000000,-0.41000000,0.96000000,-60.42000000,0.85000000,-190.92000000
130,1778626158.644704,-1.18000000,-0.41000000,0.96000000,-60.42000000,0.85000000,-190.92000000
131,1778626158.654306,-1.18000000,-0.41000000,0.96000000,-60.42000000,0.85000000,-190.92000000
132,1778626158.6648672,-1.18000000,-0.41000000,0.96000000,-60.42000000,0.85000000,-190.92000000
133,1778626158.6737869,-1.18000000,-0.41000000,0.96000000,-60.42000000,0.85000000,-190.92000000
134,1778626158.683269,-2.00000000,-0.01000000,0.90000000,-38.09000000,30.33000000,-138.73000000
135,1778626158.695113,-2.02000000,-0.02000000,0.68000000,-30.94000000,9.16000000,-52.80000000
136,1778626158.704111,-2.02000000,-0.02000000,0.68000000,-30.94000000,9.16000000,-52.80000000
137,1778626158.7141461,-2.02000000,-0.02000000,0.68000000,-30.94000000,9.16000000,-52.80000000
138,1778626158.722823,-2.02000000,-0.02000000,0.68000000,-30.94000000,9.16000000,-52.80000000
139,1778626158.7335072,-2.25000000,0.32000000,1.23000000,-3.17000000,5.74000000,14.22000000
140,1778626158.744703,-2.25000000,0.32000000,1.23000000,-3.17000000,5.74000000,14.22000000
141,1778626158.754173,-2.25000000,0.32000000,1.23000000,-3.17000000,5.74000000,14.22000000
142,1778626158.764919,-2.25000000,0.32000000,1.23000000,-3.17000000,5.74000000,14.22000000
143,1778626158.772794,-2.25000000,0.32000000,1.23000000,-3.17000000,5.74000000,14.22000000
144,1778626158.782781,-2.25000000,0.32000000,1.23000000,-3.17000000,5.74000000,14.22000000
145,1778626158.7950919,-2.25000000,0.32000000,1.23000000,-3.17000000,5.74000000,14.22000000
146,1778626158.804141,-2.25000000,0.32000000,1.23000000,-3.17000000,5.74000000,14.22000000
147,1778626158.813012,-2.17000000,-0.82000000,0.96000000,1.59000000,120.85000000,139.34000000
148,1778626158.823029,-2.17000000,-0.82000000,0.96000000,1.59000000,120.85000000,139.34000000
149,1778626158.833386,-2.17000000,-0.82000000,0.96000000,1.59000000,120.85000000,139.34000000
150,1778626158.84354,-2.12000000,-0.65000000,1.30000000,29.17000000,73.06000000,210.08000000
151,1778626158.853504,-2.12000000,-0.65000000,1.30000000,29.17000000,73.06000000,210.08000000
152,1778626158.864254,-2.12000000,-0.65000000,1.30000000,29.17000000,73.06000000,210.08000000
153,1778626158.8743958,-2.02000000,-1.15000000,1.50000000,29.17000000,73.06000000,210.08000000
154,1778626158.884832,-2.02000000,-1.15000000,1.50000000,64.21000000,97.66000000,163.82000000
155,1778626158.89468,-2.02000000,-1.15000000,1.50000000,64.21000000,97.66000000,163.82000000
156,1778626158.903844,-2.02000000,-1.15000000,1.50000000,64.21000000,97.66000000,163.82000000
157,1778626158.914976,-1.74000000,-1.34000000,1.00000000,12.08000000,128.72000000,210.33000000
158,1778626158.922824,-1.74000000,-1.34000000,1.00000000,12.08000000,128.72000000,210.33000000
159,1778626158.932908,-1.74000000,-1.34000000,1.00000000,12.08000000,128.72000000,210.33000000
160,1778626158.942793,-1.74000000,-1.34000000,1.00000000,12.08000000,128.72000000,210.33000000
161,1778626158.954129,-1.50000000,-0.74000000,1.59000000,26.06000000,97.90000000,253.91000000
162,1778626158.9627678,-1.50000000,-0.74000000,1.59000000,26.06000000,97.90000000,253.91000000
163,1778626158.9727921,-1.50000000,-0.74000000,1.59000000,26.06000000,97.90000000,253.91000000
164,1778626158.982799,-1.50000000,-0.74000000,1.59000000,26.06000000,97.90000000,253.91000000
165,1778626158.994666,-1.24000000,-0.90000000,1.40000000,26.18000000,174.26000000,231.32000000
166,1778626159.003951,-1.24000000,-0.90000000,1.40000000,26.18000000,174.26000000,231.32000000
167,1778626159.013074,-1.24000000,-0.90000000,1.40000000,26.18000000,174.26000000,231.32000000
168,1778626159.022889,-1.24000000,-0.90000000,1.40000000,26.18000000,174.26000000,231.32000000
169,1778626159.032745,-1.24000000,-0.90000000,1.40000000,26.18000000,174.26000000,231.32000000
170,1778626159.045237,-0.74000000,-0.58000000,1.07000000,22.40000000,209.59000000,281.49000000
171,1778626159.052997,-0.74000000,-0.58000000,1.07000000,22.40000000,209.59000000,281.49000000
172,1778626159.065175,-0.74000000,-0.58000000,1.07000000,22.40000000,209.59000000,281.49000000
173,1778626159.073461,-0.46000000,-0.54000000,1.08000000,46.69000000,208.44000000,261.29000000
174,1778626159.085065,-0.46000000,-0.54000000,1.08000000,46.69000000,208.44000000,261.29000000
175,1778626159.094659,-0.46000000,-0.54000000,1.08000000,46.69000000,208.44000000,261.29000000
176,1778626159.103071,-0.15000000,-0.43000000,0.62000000,46.69000000,208.44000000,261.29000000
177,1778626159.115176,-0.15000000,-0.43000000,0.62000000,29.05000000,199.28000000,286.38000000
178,1778626159.12439,-0.15000000,-0.43000000,0.62000000,29.05000000,199.28000000,286.38000000
179,1778626159.132755,-0.15000000,-0.43000000,0.62000000,29.05000000,199.28000000,286.38000000
180,1778626159.1438022,0.19000000,-0.22000000,0.43000000,82.21000000,122.86000000,326.17000000
181,1778626159.153173,0.19000000,-0.22000000,0.43000000,82.21000000,122.86000000,326.17000000
182,1778626159.164277,0.19000000,-0.22000000,0.43000000,82.21000000,122.86000000,326.17000000
183,1778626159.174894,0.19000000,-0.22000000,0.43000000,82.21000000,122.86000000,326.17000000
184,1778626159.182822,0.01000000,-0.13000000,-0.02000000,62.87000000,138.12000000,250.49000000
185,1778626159.194792,0.01000000,-0.13000000,-0.02000000,62.87000000,138.12000000,250.49000000
186,1778626159.2037141,0.01000000,-0.13000000,-0.02000000,62.87000000,138.12000000,250.49000000
187,1778626159.215023,0.01000000,-0.13000000,-0.02000000,62.87000000,138.12000000,250.49000000
188,1778626159.223298,0.36000000,-0.17000000,-0.12000000,23.86000000,63.90000000,329.04000000
189,1778626159.233943,0.36000000,-0.17000000,-0.12000000,23.86000000,63.90000000,329.04000000
190,1778626159.244676,0.36000000,-0.17000000,-0.12000000,23.86000000,63.90000000,329.04000000
191,1778626159.254488,0.36000000,-0.17000000,-0.12000000,23.86000000,63.90000000,329.04000000
192,1778626159.2644858,0.36000000,-0.17000000,-0.12000000,23.86000000,63.90000000,329.04000000
193,1778626159.2729878,0.36000000,-0.17000000,-0.12000000,23.86000000,63.90000000,329.04000000
194,1778626159.285162,0.36000000,-0.17000000,-0.12000000,23.86000000,63.90000000,329.04000000
195,1778626159.294398,0.36000000,-0.17000000,-0.12000000,23.86000000,63.90000000,329.04000000
196,1778626159.3031008,0.36000000,-0.17000000,-0.12000000,23.86000000,63.90000000,329.04000000
197,1778626159.313497,0.36000000,-0.17000000,-0.12000000,23.86000000,63.90000000,329.04000000
198,1778626159.323018,0.36000000,-0.17000000,-0.12000000,23.86000000,63.90000000,329.04000000
199,1778626159.33418,0.36000000,-0.17000000,-0.12000000,23.86000000,63.90000000,329.04000000
200,1778626159.343337,0.36000000,-0.17000000,-0.12000000,23.86000000,63.90000000,329.04000000
201,1778626159.35318,0.36000000,-0.17000000,-0.12000000,23.86000000,63.90000000,329.04000000
202,1778626159.364112,0.36000000,-0.17000000,-0.12000000,23.86000000,63.90000000,329.04000000
203,1778626159.37325,0.36000000,-0.17000000,-0.12000000,23.86000000,63.90000000,329.04000000
204,1778626159.38285,1.03000000,0.25000000,0.34000000,34.91000000,63.84000000,51.88000000
205,1778626159.392745,1.03000000,0.25000000,0.34000000,34.91000000,63.84000000,51.88000000
206,1778626159.403798,1.64000000,0.22000000,-0.53000000,34.91000000,63.84000000,51.88000000
207,1778626159.414957,1.64000000,0.22000000,-0.53000000,32.90000000,29.24000000,59.69000000
208,1778626159.4246972,1.64000000,0.22000000,-0.53000000,32.90000000,29.24000000,59.69000000
209,1778626159.432729,1.64000000,0.22000000,-0.53000000,32.90000000,29.24000000,59.69000000
210,1778626159.445167,1.73000000,0.49000000,-0.18000000,62.26000000,-32.84000000,18.55000000
211,1778626159.452945,1.73000000,0.49000000,-0.18000000,62.26000000,-32.84000000,18.55000000
212,1778626159.4635992,1.73000000,0.49000000,-0.18000000,62.26000000,-32.84000000,18.55000000
213,1778626159.4734652,1.73000000,0.49000000,-0.18000000,62.26000000,-32.84000000,18.55000000
214,1778626159.4834461,1.73000000,0.49000000,-0.18000000,62.26000000,-32.84000000,18.55000000
215,1778626159.493857,1.77000000,0.43000000,-0.55000000,0.79000000,-0.98000000,-63.17000000
216,1778626159.503725,1.77000000,0.43000000,-0.55000000,0.79000000,-0.98000000,-63.17000000
217,1778626159.512792,1.77000000,0.43000000,-0.55000000,0.79000000,-0.98000000,-63.17000000
218,1778626159.522756,1.61000000,0.58000000,-0.52000000,7.26000000,-79.35000000,-78.37000000
219,1778626159.5332952,1.61000000,0.58000000,-0.52000000,7.26000000,-79.35000000,-78.37000000
220,1778626159.5432398,1.61000000,0.58000000,-0.52000000,7.26000000,-79.35000000,-78.37000000
221,1778626159.554337,1.61000000,0.58000000,-0.52000000,7.26000000,-79.35000000,-78.37000000
222,1778626159.563541,1.39000000,0.67000000,-0.44000000,-6.65000000,-99.12000000,-112.43000000
223,1778626159.572757,1.39000000,0.67000000,-0.44000000,-6.65000000,-99.12000000,-112.43000000
224,1778626159.585254,1.39000000,0.67000000,-0.44000000,-6.65000000,-99.12000000,-112.43000000
225,1778626159.593038,1.10000000,0.53000000,-0.40000000,-19.59000000,-77.64000000,-185.30000000
226,1778626159.604032,1.10000000,0.53000000,-0.40000000,-19.59000000,-77.64000000,-185.30000000
227,1778626159.6143901,1.10000000,0.53000000,-0.40000000,-19.59000000,-77.64000000,-185.30000000
228,1778626159.622755,1.10000000,0.53000000,-0.40000000,-19.59000000,-77.64000000,-185.30000000
229,1778626159.633736,0.77000000,0.24000000,-0.24000000,-29.30000000,-106.87000000,-227.36000000
230,1778626159.644372,0.77000000,0.24000000,-0.24000000,-29.30000000,-106.87000000,-227.36000000
231,1778626159.653622,0.77000000,0.24000000,-0.24000000,-29.30000000,-106.87000000,-227.36000000
232,1778626159.6650429,0.77000000,0.24000000,-0.24000000,-29.30000000,-106.87000000,-227.36000000
233,1778626159.674218,0.77000000,0.24000000,-0.24000000,-29.30000000,-106.87000000,-227.36000000
234,1778626159.682827,0.77000000,0.24000000,-0.24000000,-29.30000000,-106.87000000,-227.36000000
235,1778626159.6949902,0.77000000,0.24000000,-0.24000000,-29.30000000,-106.87000000,-227.36000000
236,1778626159.70424,0.77000000,0.24000000,-0.24000000,-29.30000000,-106.87000000,-227.36000000
237,1778626159.714116,0.77000000,0.24000000,-0.24000000,-29.30000000,-106.87000000,-227.36000000
238,1778626159.723265,0.77000000,0.24000000,-0.24000000,-29.30000000,-106.87000000,-227.36000000
239,1778626159.733226,-0.19000000,-0.46000000,-0.03000000,-94.54000000,-96.31000000,-300.54000000
240,1778626159.743556,-0.19000000,-0.46000000,-0.03000000,-94.54000000,-96.31000000,-300.54000000
241,1778626159.752863,-0.35000000,-0.54000000,0.35000000,-76.35000000,-206.67000000,-179.02000000
242,1778626159.765137,-0.35000000,-0.54000000,0.35000000,-76.35000000,-206.67000000,-179.02000000
243,1778626159.773172,-0.35000000,-0.54000000,0.35000000,-76.35000000,-206.67000000,-179.02000000
244,1778626159.7831721,-0.35000000,-0.54000000,0.35000000,-76.35000000,-206.67000000,-179.02000000
245,1778626159.795101,-0.35000000,-0.54000000,0.35000000,-76.35000000,-206.67000000,-179.02000000
246,1778626159.803529,-0.35000000,-0.54000000,0.35000000,-76.35000000,-206.67000000,-179.02000000
247,1778626159.815018,-0.35000000,-0.54000000,0.35000000,-76.35000000,-206.67000000,-179.02000000
248,1778626159.822757,-0.35000000,-0.54000000,0.35000000,-76.35000000,-206.67000000,-179.02000000
249,1778626159.835274,-0.35000000,-0.54000000,0.35000000,-76.35000000,-206.67000000,-179.02000000
250,1778626159.8427851,-0.35000000,-0.54000000,0.35000000,-76.35000000,-206.67000000,-179.02000000
251,1778626159.855238,-0.35000000,-0.54000000,0.35000000,-76.35000000,-206.67000000,-179.02000000
252,1778626159.862963,-0.73000000,-0.57000000,0.71000000,-99.12000000,-151.12000000,-182.98000000
253,1778626159.875185,-0.52000000,-0.54000000,0.71000000,-115.72000000,-204.83000000,-178.89000000
254,1778626159.884394,-0.52000000,-0.54000000,0.71000000,-115.72000000,-204.83000000,-178.89000000
255,1778626159.8946612,-0.52000000,-0.54000000,0.71000000,-115.72000000,-204.83000000,-178.89000000
256,1778626159.9042659,-0.49000000,-0.50000000,0.89000000,-131.41000000,-214.48000000,-146.61000000
257,1778626159.914838,-0.49000000,-0.50000000,0.89000000,-131.41000000,-214.48000000,-146.61000000
258,1778626159.9228292,-0.49000000,-0.50000000,0.89000000,-131.41000000,-214.48000000,-146.61000000
259,1778626159.9352288,-0.49000000,-0.50000000,0.89000000,-131.41000000,-214.48000000,-146.61000000
260,1778626159.9431942,-0.64000000,-0.56000000,1.19000000,-153.69000000,-112.06000000,-306.15000000
261,1778626159.9534059,-0.64000000,-0.56000000,1.19000000,-153.69000000,-112.06000000,-306.15000000
262,1778626159.963135,-0.64000000,-0.56000000,1.19000000,-153.69000000,-112.06000000,-306.15000000
263,1778626159.973602,-0.64000000,-0.56000000,1.19000000,-153.69000000,-112.06000000,-306.15000000
264,1778626159.985037,-1.58000000,-1.42000000,1.29000000,-139.22000000,-288.82000000,-216.49000000
265,1778626159.992795,-1.58000000,-1.42000000,1.29000000,-139.22000000,-288.82000000,-216.49000000
266,1778626160.00445,-1.58000000,-1.42000000,1.29000000,-139.22000000,-288.82000000,-216.49000000
267,1778626160.013074,-1.58000000,-1.42000000,1.29000000,-139.22000000,-288.82000000,-216.49000000
268,1778626160.023386,-1.40000000,-0.53000000,1.67000000,-120.36000000,-197.20000000,-53.28000000
269,1778626160.0330088,-1.40000000,-0.53000000,1.67000000,-120.36000000,-197.20000000,-53.28000000
270,1778626160.044926,-1.40000000,-0.53000000,1.67000000,-120.36000000,-197.20000000,-53.28000000
271,1778626160.0547001,-1.20000000,-0.08000000,1.62000000,-166.26000000,-77.15000000,-173.46000000
272,1778626160.0628211,-1.20000000,-0.08000000,1.62000000,-166.26000000,-77.15000000,-173.46000000
273,1778626160.073865,-1.20000000,-0.08000000,1.62000000,-166.26000000,-77.15000000,-173.46000000
274,1778626160.08383,-1.20000000,-0.08000000,1.62000000,-166.26000000,-77.15000000,-173.46000000
275,1778626160.0934699,-1.21000000,0.12000000,1.48000000,-113.16000000,9.89000000,-240.66000000
276,1778626160.1033301,-1.21000000,0.12000000,1.48000000,-113.16000000,9.89000000,-240.66000000
277,1778626160.1136692,-1.21000000,0.12000000,1.48000000,-113.16000000,9.89000000,-240.66000000
278,1778626160.122765,-1.21000000,0.12000000,1.48000000,-113.16000000,9.89000000,-240.66000000
279,1778626160.1335459,-1.35000000,-0.26000000,1.03000000,-43.09000000,-30.64000000,-234.92000000
280,1778626160.145049,-1.35000000,-0.26000000,1.03000000,-43.09000000,-30.64000000,-234.92000000
281,1778626160.15468,-1.35000000,-0.26000000,1.03000000,-43.09000000,-30.64000000,-234.92000000
282,1778626160.164764,-1.35000000,-0.26000000,1.03000000,-43.09000000,-30.64000000,-234.92000000
283,1778626160.172775,-2.40000000,-0.32000000,1.81000000,-34.91000000,-77.21000000,-164.55000000
284,1778626160.182805,-2.40000000,-0.32000000,1.81000000,-34.91000000,-77.21000000,-164.55000000
285,1778626160.19292,-2.40000000,-0.32000000,1.81000000,-34.91000000,-77.21000000,-164.55000000
286,1778626160.2034261,-2.57000000,-0.60000000,1.51000000,-34.91000000,-77.21000000,-164.55000000
287,1778626160.213432,-2.57000000,-0.60000000,1.51000000,2.69000000,25.82000000,-55.66000000
288,1778626160.2285938,-2.57000000,-0.60000000,1.51000000,2.69000000,25.82000000,-55.66000000
289,1778626160.2329652,-2.57000000,-0.60000000,1.51000000,2.69000000,25.82000000,-55.66000000
290,1778626160.242816,-2.36000000,-0.84000000,1.30000000,43.76000000,11.96000000,81.18000000
291,1778626160.25423,-2.36000000,-0.84000000,1.30000000,43.76000000,11.96000000,81.18000000
292,1778626160.264686,-2.36000000,-0.84000000,1.30000000,43.76000000,11.96000000,81.18000000
293,1778626160.272819,-2.36000000,-0.84000000,1.30000000,43.76000000,11.96000000,81.18000000
294,1778626160.2833989,-2.30000000,-0.82000000,1.77000000,-4.76000000,106.08000000,116.88000000
295,1778626160.294952,-2.30000000,-0.82000000,1.77000000,-4.76000000,106.08000000,116.88000000
296,1778626160.304693,-2.30000000,-0.82000000,1.77000000,-4.76000000,106.08000000,116.88000000
297,1778626160.313233,-2.30000000,-0.82000000,1.77000000,-4.76000000,106.08000000,116.88000000
298,1778626160.322855,-2.30000000,-0.82000000,1.77000000,-4.76000000,106.08000000,116.88000000
299,1778626160.335225,-2.30000000,-0.82000000,1.77000000,-4.76000000,106.08000000,116.88000000
300,1778626160.3446321,-2.30000000,-0.82000000,1.77000000,-4.76000000,106.08000000,116.88000000
301,1778626160.354302,-2.30000000,-0.82000000,1.77000000,-4.76000000,106.08000000,116.88000000
302,1778626160.3648489,-2.30000000,-0.82000000,1.77000000,-4.76000000,106.08000000,116.88000000
303,1778626160.373333,-2.30000000,-0.82000000,1.77000000,-4.76000000,106.08000000,116.88000000
304,1778626160.384743,-2.30000000,-0.82000000,1.77000000,-4.76000000,106.08000000,116.88000000
305,1778626160.3948002,-1.45000000,-1.37000000,1.15000000,-8.24000000,209.96000000,225.52000000
306,1778626160.403418,-1.45000000,-1.37000000,1.15000000,-8.24000000,209.96000000,225.52000000
307,1778626160.415082,-1.45000000,-1.37000000,1.15000000,-8.24000000,209.96000000,225.52000000
308,1778626160.4246678,-1.45000000,-1.37000000,1.15000000,-8.24000000,209.96000000,225.52000000
309,1778626160.433631,-1.21000000,-1.23000000,1.05000000,-17.03000000,208.37000000,227.11000000
310,1778626160.443298,-1.21000000,-1.23000000,1.05000000,-17.03000000,208.37000000,227.11000000
311,1778626160.453909,-1.21000000,-1.23000000,1.05000000,-17.03000000,208.37000000,227.11000000
312,1778626160.464949,-1.21000000,-1.23000000,1.05000000,-17.03000000,208.37000000,227.11000000
313,1778626160.4746969,-1.08000000,-1.13000000,1.17000000,-2.14000000,175.35000000,277.65000000
314,1778626160.4827788,-1.08000000,-1.13000000,1.17000000,-2.14000000,175.35000000,277.65000000
315,1778626160.494706,-1.08000000,-1.13000000,1.17000000,-2.14000000,175.35000000,277.65000000
316,1778626160.504305,-1.08000000,-1.13000000,1.17000000,-2.14000000,175.35000000,277.65000000
317,1778626160.5148642,-0.75000000,-1.01000000,1.00000000,-32.17000000,228.70000000,281.25000000
318,1778626160.522822,-0.75000000,-1.01000000,1.00000000,-32.17000000,228.70000000,281.25000000
319,1778626160.532835,-0.75000000,-1.01000000,1.00000000,-32.17000000,228.70000000,281.25000000
320,1778626160.544914,-0.42000000,-0.86000000,0.66000000,-32.17000000,228.70000000,281.25000000
321,1778626160.554332,-0.42000000,-0.86000000,0.66000000,-20.14000000,176.09000000,316.41000000
322,1778626160.564873,-0.42000000,-0.86000000,0.66000000,-20.14000000,176.09000000,316.41000000
323,1778626160.572781,-0.42000000,-0.86000000,0.66000000,-20.14000000,176.09000000,316.41000000
324,1778626160.58278,-0.33000000,-0.46000000,0.89000000,12.70000000,140.62000000,313.29000000
325,1778626160.594692,-0.33000000,-0.46000000,0.89000000,12.70000000,140.62000000,313.29000000
326,1778626160.604757,-0.33000000,-0.46000000,0.89000000,12.70000000,140.62000000,313.29000000
327,1778626160.613707,-0.17000000,-0.37000000,0.64000000,-2.75000000,150.94000000,282.23000000
328,1778626160.622772,-0.17000000,-0.37000000,0.64000000,-2.75000000,150.94000000,282.23000000
329,1778626160.632746,-0.17000000,-0.37000000,0.64000000,-2.75000000,150.94000000,282.23000000
330,1778626160.645222,-0.17000000,-0.37000000,0.64000000,-2.75000000,150.94000000,282.23000000
331,1778626160.654602,0.09000000,-0.09000000,0.32000000,22.40000000,105.47000000,273.32000000
332,1778626160.663059,0.09000000,-0.09000000,0.32000000,22.40000000,105.47000000,273.32000000
333,1778626160.673225,0.09000000,-0.09000000,0.32000000,22.40000000,105.47000000,273.32000000
334,1778626160.682796,0.09000000,-0.09000000,0.32000000,22.40000000,105.47000000,273.32000000
335,1778626160.695018,0.06000000,0.04000000,0.50000000,63.17000000,82.58000000,226.87000000
336,1778626160.7040992,0.06000000,0.04000000,0.50000000,63.17000000,82.58000000,226.87000000
337,1778626160.7149282,0.06000000,0.04000000,0.50000000,63.17000000,82.58000000,226.87000000
338,1778626160.724131,0.06000000,0.04000000,0.50000000,63.17000000,82.58000000,226.87000000
339,1778626160.734933,0.06000000,0.04000000,0.50000000,63.17000000,82.58000000,226.87000000
340,1778626160.7434912,0.06000000,0.04000000,0.50000000,63.17000000,82.58000000,226.87000000
341,1778626160.755061,0.06000000,0.04000000,0.50000000,63.17000000,82.58000000,226.87000000
342,1778626160.763828,0.06000000,0.04000000,0.50000000,63.17000000,82.58000000,226.87000000
343,1778626160.773681,0.06000000,0.04000000,0.50000000,63.17000000,82.58000000,226.87000000
344,1778626160.785055,0.36000000,-0.00000000,0.35000000,26.61000000,81.60000000,173.40000000
345,1778626160.794678,0.36000000,-0.00000000,0.35000000,26.61000000,81.60000000,173.40000000
346,1778626160.804663,0.49000000,0.04000000,0.16000000,12.33000000,90.82000000,169.92000000
347,1778626160.8138099,0.49000000,0.04000000,0.16000000,12.33000000,90.82000000,169.92000000
348,1778626160.8228,0.49000000,0.04000000,0.16000000,12.33000000,90.82000000,169.92000000
349,1778626160.8345401,0.49000000,0.04000000,0.16000000,12.33000000,90.82000000,169.92000000
350,1778626160.842914,0.49000000,0.04000000,0.16000000,12.33000000,90.82000000,169.92000000
351,1778626160.8533812,0.49000000,0.04000000,0.16000000,12.33000000,90.82000000,169.92000000
352,1778626160.863198,0.49000000,0.04000000,0.16000000,12.33000000,90.82000000,169.92000000
353,1778626160.872797,0.49000000,0.04000000,0.16000000,12.33000000,90.82000000,169.92000000
354,1778626160.882774,0.49000000,0.04000000,0.16000000,12.33000000,90.82000000,169.92000000
355,1778626160.892767,0.49000000,0.04000000,0.16000000,12.33000000,90.82000000,169.92000000
356,1778626160.902907,0.49000000,0.04000000,0.16000000,12.33000000,90.82000000,169.92000000
357,1778626160.912761,1.75000000,0.72000000,-0.29000000,31.31000000,30.33000000,151.55000000
358,1778626160.9238558,1.75000000,0.72000000,-0.29000000,22.95000000,22.34000000,126.53000000
359,1778626160.934295,1.75000000,0.72000000,-0.29000000,22.95000000,22.34000000,126.53000000
360,1778626160.943014,1.75000000,0.72000000,-0.29000000,22.95000000,22.34000000,126.53000000
361,1778626160.95348,1.86000000,0.81000000,-0.53000000,19.29000000,-49.19000000,51.82000000
362,1778626160.9632099,1.86000000,0.81000000,-0.53000000,19.29000000,-49.19000000,51.82000000
363,1778626160.972859,1.86000000,0.81000000,-0.53000000,19.29000000,-49.19000000,51.82000000
364,1778626160.984247,1.86000000,0.81000000,-0.53000000,19.29000000,-49.19000000,51.82000000
365,1778626160.994689,1.68000000,0.84000000,-0.47000000,-17.94000000,-56.70000000,-17.94000000
366,1778626161.004481,1.68000000,0.84000000,-0.47000000,-17.94000000,-56.70000000,-17.94000000
367,1778626161.013122,1.68000000,0.84000000,-0.47000000,-17.94000000,-56.70000000,-17.94000000
368,1778626161.024987,1.58000000,0.88000000,-0.45000000,-16.91000000,-96.44000000,-30.52000000
369,1778626161.034687,1.58000000,0.88000000,-0.45000000,-16.91000000,-96.44000000,-30.52000000
370,1778626161.044754,1.58000000,0.88000000,-0.45000000,-16.91000000,-96.44000000,-30.52000000
371,1778626161.054784,1.58000000,0.88000000,-0.45000000,-16.91000000,-96.44000000,-30.52000000
372,1778626161.064422,1.34000000,0.94000000,-0.37000000,-9.03000000,-134.77000000,-57.56000000
373,1778626161.073233,1.34000000,0.94000000,-0.37000000,-9.03000000,-134.77000000,-57.56000000
374,1778626161.084685,1.34000000,0.94000000,-0.37000000,-9.03000000,-134.77000000,-57.56000000
375,1778626161.092842,1.02000000,0.82000000,-0.44000000,-30.82000000,-133.30000000,-108.40000000
376,1778626161.105076,1.02000000,0.82000000,-0.44000000,-30.82000000,-133.30000000,-108.40000000
377,1778626161.114041,1.02000000,0.82000000,-0.44000000,-30.82000000,-133.30000000,-108.40000000
378,1778626161.122773,1.02000000,0.82000000,-0.44000000,-30.82000000,-133.30000000,-108.40000000
379,1778626161.134766,0.73000000,0.58000000,-0.28000000,-49.56000000,-131.23000000,-167.72000000
380,1778626161.144686,0.73000000,0.58000000,-0.28000000,-49.56000000,-131.23000000,-167.72000000
381,1778626161.154179,0.73000000,0.58000000,-0.28000000,-49.56000000,-131.23000000,-167.72000000
382,1778626161.16489,0.73000000,0.58000000,-0.28000000,-49.56000000,-131.23000000,-167.72000000
383,1778626161.1739469,0.42000000,0.16000000,-0.10000000,-58.35000000,-151.43000000,-190.73000000
384,1778626161.183191,0.42000000,0.16000000,-0.10000000,-58.35000000,-151.43000000,-190.73000000
385,1778626161.193165,0.42000000,0.16000000,-0.10000000,-58.35000000,-151.43000000,-190.73000000
386,1778626161.2038772,0.42000000,0.16000000,-0.10000000,-58.35000000,-151.43000000,-190.73000000
387,1778626161.2149792,0.07000000,-0.01000000,0.33000000,-61.71000000,-166.87000000,-211.91000000
388,1778626161.223051,0.07000000,-0.01000000,0.33000000,-61.71000000,-166.87000000,-211.91000000
389,1778626161.234485,0.07000000,-0.01000000,0.33000000,-61.71000000,-166.87000000,-211.91000000
390,1778626161.2448158,0.07000000,-0.01000000,0.33000000,-61.71000000,-166.87000000,-211.91000000
391,1778626161.2544682,-0.36000000,-0.46000000,0.35000000,-82.15000000,-172.00000000,-242.19000000
392,1778626161.263183,-0.36000000,-0.46000000,0.35000000,-82.15000000,-172.00000000,-242.19000000
393,1778626161.275148,-0.36000000,-0.46000000,0.35000000,-82.15000000,-172.00000000,-242.19000000
394,1778626161.282739,-0.53000000,-0.48000000,0.46000000,-82.15000000,-172.00000000,-242.19000000
395,1778626161.294671,-0.53000000,-0.48000000,0.46000000,-75.93000000,-242.92000000,-185.67000000
396,1778626161.3047621,-0.53000000,-0.48000000,0.46000000,-75.93000000,-242.92000000,-185.67000000
397,1778626161.3147142,-0.53000000,-0.48000000,0.46000000,-75.93000000,-242.92000000,-185.67000000
398,1778626161.323012,-0.33000000,-0.19000000,0.88000000,-138.18000000,-187.93000000,-214.54000000
399,1778626161.334184,-0.33000000,-0.19000000,0.88000000,-138.18000000,-187.93000000,-214.54000000
400,1778626161.344691,-0.33000000,-0.19000000,0.88000000,-138.18000000,-187.93000000,-214.54000000
401,1778626161.354326,-0.33000000,-0.19000000,0.88000000,-138.18000000,-187.93000000,-214.54000000
402,1778626161.364864,-0.33000000,-0.19000000,0.88000000,-138.18000000,-187.93000000,-214.54000000
403,1778626161.373339,-0.33000000,-0.19000000,0.88000000,-138.18000000,-187.93000000,-214.54000000
404,1778626161.382832,-0.33000000,-0.19000000,0.88000000,-138.18000000,-187.93000000,-214.54000000
405,1778626161.394594,-0.33000000,-0.19000000,0.88000000,-138.18000000,-187.93000000,-214.54000000
406,1778626161.404806,-0.33000000,-0.19000000,0.88000000,-138.18000000,-187.93000000,-214.54000000
407,1778626161.4147809,-0.33000000,-0.19000000,0.88000000,-138.18000000,-187.93000000,-214.54000000
408,1778626161.423327,-0.33000000,-0.19000000,0.88000000,-138.18000000,-187.93000000,-214.54000000
409,1778626161.433547,-0.33000000,-0.19000000,0.88000000,-138.18000000,-187.93000000,-214.54000000
410,1778626161.444661,-0.43000000,-0.43000000,1.07000000,-62.44000000,-176.03000000,-172.91000000
411,1778626161.454528,-0.43000000,-0.43000000,1.07000000,-62.44000000,-176.03000000,-172.91000000
412,1778626161.464546,-0.43000000,-0.43000000,1.07000000,-62.44000000,-176.03000000,-172.91000000
413,1778626161.472769,-0.43000000,-0.43000000,1.07000000,-62.44000000,-176.03000000,-172.91000000
414,1778626161.483187,-0.61000000,-0.50000000,1.11000000,-108.58000000,-113.46000000,-248.29000000
415,1778626161.4951339,-0.61000000,-0.50000000,1.11000000,-108.58000000,-113.46000000,-248.29000000
416,1778626161.502781,-0.61000000,-0.50000000,1.11000000,-108.58000000,-113.46000000,-248.29000000
417,1778626161.514206,-0.66000000,-0.60000000,1.18000000,-70.37000000,-156.13000000,-224.55000000
418,1778626161.524808,-0.66000000,-0.60000000,1.18000000,-70.37000000,-156.13000000,-224.55000000
419,1778626161.53473,-0.66000000,-0.60000000,1.18000000,-70.37000000,-156.13000000,-224.55000000
420,1778626161.543552,-0.66000000,-0.60000000,1.18000000,-70.37000000,-156.13000000,-224.55000000
421,1778626161.5547378,-0.86000000,-0.77000000,1.45000000,-50.90000000,-152.59000000,-246.46000000
422,1778626161.563415,-0.86000000,-0.77000000,1.45000000,-50.90000000,-152.59000000,-246.46000000
423,1778626161.572782,-0.86000000,-0.77000000,1.45000000,-50.90000000,-152.59000000,-246.46000000
424,1778626161.585104,-0.86000000,-0.77000000,1.45000000,-50.90000000,-152.59000000,-246.46000000
425,1778626161.5931609,-0.86000000,-0.77000000,1.45000000,-50.90000000,-152.59000000,-246.46000000
426,1778626161.604016,-1.10000000,-0.92000000,1.22000000,-64.51000000,-154.66000000,-222.29000000
427,1778626161.613653,-1.10000000,-0.92000000,1.22000000,-64.51000000,-154.66000000,-222.29000000
428,1778626161.6229,-1.10000000,-0.92000000,1.22000000,-64.51000000,-154.66000000,-222.29000000
429,1778626161.632769,-1.43000000,-0.72000000,1.65000000,-32.10000000,-142.70000000,-196.72000000
430,1778626161.645089,-1.43000000,-0.72000000,1.65000000,-32.10000000,-142.70000000,-196.72000000
431,1778626161.653866,-1.43000000,-0.72000000,1.65000000,-32.10000000,-142.70000000,-196.72000000
432,1778626161.663521,-1.66000000,-0.89000000,1.42000000,-32.10000000,-142.70000000,-196.72000000
433,1778626161.673554,-1.66000000,-0.89000000,1.42000000,-43.09000000,-103.45000000,-116.21000000
434,1778626161.682854,-1.66000000,-0.89000000,1.42000000,-43.09000000,-103.45000000,-116.21000000
435,1778626161.6934872,-1.66000000,-0.89000000,1.42000000,-43.09000000,-103.45000000,-116.21000000
436,1778626161.70507,-1.83000000,-0.76000000,1.51000000,-31.19000000,-56.21000000,-77.58000000
437,1778626161.713204,-1.83000000,-0.76000000,1.51000000,-31.19000000,-56.21000000,-77.58000000
438,1778626161.7234461,-1.83000000,-0.76000000,1.51000000,-31.19000000,-56.21000000,-77.58000000
439,1778626161.733305,-1.83000000,-0.76000000,1.51000000,-31.19000000,-56.21000000,-77.58000000
440,1778626161.744819,-2.17000000,-0.65000000,1.78000000,-42.48000000,-20.02000000,-30.03000000
441,1778626161.754727,-2.17000000,-0.65000000,1.78000000,-42.48000000,-20.02000000,-30.03000000
442,1778626161.7647512,-2.17000000,-0.65000000,1.78000000,-42.48000000,-20.02000000,-30.03000000
443,1778626161.772834,-2.17000000,-0.65000000,1.78000000,-42.48000000,-20.02000000,-30.03000000
444,1778626161.782825,-2.17000000,-0.65000000,1.78000000,-42.48000000,-20.02000000,-30.03000000
445,1778626161.79274,-2.17000000,-0.65000000,1.78000000,-42.48000000,-20.02000000,-30.03000000
446,1778626161.805259,-2.17000000,-0.65000000,1.78000000,-42.48000000,-20.02000000,-30.03000000
447,1778626161.8139038,-2.17000000,-0.65000000,1.78000000,-42.48000000,-20.02000000,-30.03000000
448,1778626161.824954,-2.17000000,-0.65000000,1.78000000,-42.48000000,-20.02000000,-30.03000000
449,1778626161.832792,-2.08000000,-0.80000000,1.81000000,24.05000000,66.04000000,99.30000000
450,1778626161.842933,-2.08000000,-0.80000000,1.81000000,24.05000000,66.04000000,99.30000000
451,1778626161.8538592,-1.76000000,-0.91000000,1.74000000,24.05000000,66.04000000,99.30000000
452,1778626161.86497,-1.76000000,-0.91000000,1.74000000,23.25000000,131.96000000,141.60000000
453,1778626161.8727522,-1.76000000,-0.91000000,1.74000000,23.25000000,131.96000000,141.60000000
454,1778626161.882779,-1.76000000,-0.91000000,1.74000000,23.25000000,131.96000000,141.60000000
455,1778626161.89276,-1.76000000,-0.91000000,1.74000000,23.25000000,131.96000000,141.60000000
456,1778626161.90417,-1.76000000,-0.91000000,1.74000000,23.25000000,131.96000000,141.60000000
457,1778626161.914892,-1.76000000,-0.91000000,1.74000000,23.25000000,131.96000000,141.60000000
458,1778626161.9227562,-1.76000000,-0.91000000,1.74000000,23.25000000,131.96000000,141.60000000
459,1778626161.9352498,-1.76000000,-0.91000000,1.74000000,23.25000000,131.96000000,141.60000000
460,1778626161.942827,-1.76000000,-0.91000000,1.74000000,23.25000000,131.96000000,141.60000000
461,1778626161.954101,-1.76000000,-0.91000000,1.74000000,23.25000000,131.96000000,141.60000000
462,1778626161.9633632,-1.23000000,-0.99000000,1.45000000,37.29000000,180.42000000,199.58000000
463,1778626161.97276,-1.03000000,-0.98000000,1.26000000,24.35000000,190.49000000,225.65000000
464,1778626161.982794,-1.03000000,-0.98000000,1.26000000,24.35000000,190.49000000,225.65000000
465,1778626161.992776,-1.03000000,-0.98000000,1.26000000,24.35000000,190.49000000,225.65000000
466,1778626162.004521,-0.83000000,-0.86000000,1.15000000,24.35000000,190.49000000,225.65000000
467,1778626162.014592,-0.83000000,-0.86000000,1.15000000,32.78000000,198.79000000,243.10000000
468,1778626162.022768,-0.83000000,-0.86000000,1.15000000,32.78000000,198.79000000,243.10000000
469,1778626162.034855,-0.83000000,-0.86000000,1.15000000,32.78000000,198.79000000,243.10000000
470,1778626162.0447161,-0.69000000,-0.87000000,1.13000000,30.88000000,219.30000000,216.31000000
471,1778626162.054728,-0.69000000,-0.87000000,1.13000000,30.88000000,219.30000000,216.31000000
472,1778626162.064018,-0.69000000,-0.87000000,1.13000000,30.88000000,219.30000000,216.31000000
473,1778626162.0728252,-0.63000000,-0.97000000,0.94000000,30.88000000,219.30000000,216.31000000
474,1778626162.082994,-0.63000000,-0.97000000,0.94000000,-3.97000000,249.82000000,223.27000000
475,1778626162.0935528,-0.63000000,-0.97000000,0.94000000,-3.97000000,249.82000000,223.27000000
476,1778626162.1044679,-0.63000000,-0.97000000,0.94000000,-3.97000000,249.82000000,223.27000000
477,1778626162.114814,-0.48000000,-0.57000000,0.63000000,5.25000000,213.07000000,278.99000000
478,1778626162.1244311,-0.48000000,-0.57000000,0.63000000,5.25000000,213.07000000,278.99000000
479,1778626162.134815,-0.48000000,-0.57000000,0.63000000,5.25000000,213.07000000,278.99000000
480,1778626162.142949,-0.48000000,-0.57000000,0.63000000,5.25000000,213.07000000,278.99000000
481,1778626162.152948,-0.41000000,-0.49000000,0.67000000,34.61000000,139.34000000,282.35000000
482,1778626162.1652129,-0.41000000,-0.49000000,0.67000000,34.61000000,139.34000000,282.35000000
483,1778626162.172833,-0.41000000,-0.49000000,0.67000000,34.61000000,139.34000000,282.35000000
484,1778626162.18276,-0.41000000,-0.49000000,0.67000000,34.61000000,139.34000000,282.35000000
485,1778626162.1952431,-0.19000000,-0.29000000,0.60000000,16.91000000,151.00000000,231.75000000
486,1778626162.204633,-0.19000000,-0.29000000,0.60000000,16.91000000,151.00000000,231.75000000
487,1778626162.212907,-0.19000000,-0.29000000,0.60000000,16.91000000,151.00000000,231.75000000
488,1778626162.225205,0.07000000,-0.30000000,0.38000000,16.91000000,151.00000000,231.75000000
489,1778626162.234669,0.07000000,-0.30000000,0.38000000,42.66000000,124.69000000,233.22000000
490,1778626162.244782,0.07000000,-0.30000000,0.38000000,42.66000000,124.69000000,233.22000000
491,1778626162.253336,0.07000000,-0.30000000,0.38000000,42.66000000,124.69000000,233.22000000
492,1778626162.263454,0.07000000,-0.30000000,0.38000000,42.66000000,124.69000000,233.22000000
493,1778626162.274814,0.23000000,-0.22000000,0.43000000,21.36000000,129.58000000,194.46000000
494,1778626162.2839181,0.23000000,-0.22000000,0.43000000,21.36000000,129.58000000,194.46000000
495,1778626162.292775,0.23000000,-0.22000000,0.43000000,21.36000000,129.58000000,194.46000000
496,1778626162.30498,0.42000000,-0.09000000,0.34000000,-11.17000000,142.88000000,160.34000000
497,1778626162.3147159,0.42000000,-0.09000000,0.34000000,-11.17000000,142.88000000,160.34000000
498,1778626162.3237681,0.42000000,-0.09000000,0.34000000,-11.17000000,142.88000000,160.34000000
499,1778626162.3328562,0.42000000,-0.09000000,0.34000000,-11.17000000,142.88000000,160.34000000
500,1778626162.345206,0.52000000,-0.04000000,0.06000000,-13.49000000,143.80000000,153.81000000
501,1778626162.3545752,0.52000000,-0.04000000,0.06000000,-13.49000000,143.80000000,153.81000000
502,1778626162.3633459,0.52000000,-0.04000000,0.06000000,-13.49000000,143.80000000,153.81000000
503,1778626162.373672,0.52000000,-0.04000000,0.06000000,-13.49000000,143.80000000,153.81000000
504,1778626162.382783,0.82000000,0.25000000,0.03000000,-12.94000000,97.05000000,188.29000000
505,1778626162.3952289,0.82000000,0.25000000,0.03000000,-12.94000000,97.05000000,188.29000000
506,1778626162.4046102,0.82000000,0.25000000,0.03000000,-12.94000000,97.05000000,188.29000000
507,1778626162.414779,0.82000000,0.25000000,0.03000000,-12.94000000,97.05000000,188.29000000
508,1778626162.424393,0.82000000,0.25000000,0.03000000,-12.94000000,97.05000000,188.29000000
509,1778626162.432833,0.82000000,0.25000000,0.03000000,-12.94000000,97.05000000,188.29000000
510,1778626162.4447858,0.82000000,0.25000000,0.03000000,-12.94000000,97.05000000,188.29000000
511,1778626162.4547641,0.82000000,0.25000000,0.03000000,-12.94000000,97.05000000,188.29000000
512,1778626162.462806,0.82000000,0.25000000,0.03000000,-12.94000000,97.05000000,188.29000000
513,1778626162.475244,0.82000000,0.25000000,0.03000000,-12.94000000,97.05000000,188.29000000
514,1778626162.483212,0.82000000,0.25000000,0.03000000,-12.94000000,97.05000000,188.29000000
515,1778626162.494679,1.93000000,1.24000000,-0.47000000,34.55000000,11.11000000,95.83000000
516,1778626162.504319,1.93000000,1.24000000,-0.47000000,34.55000000,11.11000000,95.83000000
517,1778626162.514448,1.93000000,1.24000000,-0.47000000,34.55000000,11.11000000,95.83000000
518,1778626162.523204,1.93000000,1.24000000,-0.47000000,34.55000000,11.11000000,95.83000000
519,1778626162.532765,1.69000000,1.28000000,-0.35000000,29.36000000,-60.49000000,41.50000000
520,1778626162.5452318,1.69000000,1.28000000,-0.35000000,29.36000000,-60.49000000,41.50000000
521,1778626162.553795,1.69000000,1.28000000,-0.35000000,29.36000000,-60.49000000,41.50000000
522,1778626162.564297,1.60000000,1.25000000,-0.43000000,17.82000000,-50.35000000,-23.56000000
523,1778626162.572775,1.60000000,1.25000000,-0.43000000,17.82000000,-50.35000000,-23.56000000
524,1778626162.582965,1.60000000,1.25000000,-0.43000000,17.82000000,-50.35000000,-23.56000000
525,1778626162.5952032,1.34000000,0.95000000,-0.30000000,18.80000000,-87.52000000,-88.99000000
526,1778626162.603557,1.34000000,0.95000000,-0.30000000,18.80000000,-87.52000000,-88.99000000
527,1778626162.6150641,1.34000000,0.95000000,-0.30000000,18.80000000,-87.52000000,-88.99000000
528,1778626162.623829,1.34000000,0.95000000,-0.30000000,18.80000000,-87.52000000,-88.99000000
529,1778626162.633539,1.03000000,0.61000000,-0.24000000,20.63000000,-110.66000000,-109.74000000
530,1778626162.644414,1.03000000,0.61000000,-0.24000000,20.63000000,-110.66000000,-109.74000000
531,1778626162.654847,1.03000000,0.61000000,-0.24000000,20.63000000,-110.66000000,-109.74000000
532,1778626162.6627772,1.03000000,0.61000000,-0.24000000,20.63000000,-110.66000000,-109.74000000
533,1778626162.6729548,0.79000000,0.26000000,-0.30000000,5.31000000,-122.68000000,-139.71000000
534,1778626162.6827579,0.79000000,0.26000000,-0.30000000,5.31000000,-122.68000000,-139.71000000
535,1778626162.6947079,0.79000000,0.26000000,-0.30000000,5.31000000,-122.68000000,-139.71000000
536,1778626162.703424,0.79000000,0.26000000,-0.30000000,5.31000000,-122.68000000,-139.71000000
537,1778626162.714283,0.55000000,-0.06000000,-0.32000000,-33.69000000,-146.61000000,-149.35000000
538,1778626162.723886,0.55000000,-0.06000000,-0.32000000,-33.69000000,-146.61000000,-149.35000000
539,1778626162.734078,0.55000000,-0.06000000,-0.32000000,-33.69000000,-146.61000000,-149.35000000
540,1778626162.743018,0.34000000,-0.16000000,0.02000000,-78.19000000,-184.51000000,-129.27000000
541,1778626162.755211,0.34000000,-0.16000000,0.02000000,-78.19000000,-184.51000000,-129.27000000
542,1778626162.762817,0.34000000,-0.16000000,0.02000000,-78.19000000,-184.51000000,-129.27000000
543,1778626162.7739332,0.34000000,-0.16000000,0.02000000,-78.19000000,-184.51000000,-129.27000000
544,1778626162.7831318,0.14000000,-0.37000000,0.33000000,-88.26000000,-210.45000000,-151.12000000
545,1778626162.794879,0.14000000,-0.37000000,0.33000000,-88.26000000,-210.45000000,-151.12000000
546,1778626162.803359,0.14000000,-0.37000000,0.33000000,-88.26000000,-210.45000000,-151.12000000
547,1778626162.812748,0.14000000,-0.37000000,0.33000000,-88.26000000,-210.45000000,-151.12000000
548,1778626162.8235981,0.14000000,-0.37000000,0.33000000,-88.26000000,-210.45000000,-151.12000000
549,1778626162.8350232,0.14000000,-0.37000000,0.33000000,-88.26000000,-210.45000000,-151.12000000
550,1778626162.843426,0.14000000,-0.37000000,0.33000000,-88.26000000,-210.45000000,-151.12000000
551,1778626162.8540301,0.14000000,-0.37000000,0.33000000,-88.26000000,-210.45000000,-151.12000000
552,1778626162.8632882,0.14000000,-0.37000000,0.33000000,-88.26000000,-210.45000000,-151.12000000
553,1778626162.874537,-0.23000000,-0.65000000,0.91000000,-129.15000000,-242.74000000,-170.29000000
554,1778626162.88347,-0.23000000,-0.65000000,0.91000000,-129.15000000,-242.74000000,-170.29000000
555,1778626162.895083,-0.72000000,-0.57000000,1.45000000,-129.15000000,-242.74000000,-170.29000000
556,1778626162.9046972,-0.72000000,-0.57000000,1.45000000,-177.61000000,-245.85000000,-200.74000000
557,1778626162.912802,-0.72000000,-0.57000000,1.45000000,-177.61000000,-245.85000000,-200.74000000
558,1778626162.9227939,-0.72000000,-0.57000000,1.45000000,-177.61000000,-245.85000000,-200.74000000
559,1778626162.933136,-0.72000000,-0.57000000,1.45000000,-177.61000000,-245.85000000,-200.74000000
560,1778626162.945148,-0.72000000,-0.57000000,1.45000000,-177.61000000,-245.85000000,-200.74000000
561,1778626162.954649,-0.72000000,-0.57000000,1.45000000,-177.61000000,-245.85000000,-200.74000000
562,1778626162.9647858,-0.72000000,-0.57000000,1.45000000,-177.61000000,-245.85000000,-200.74000000
563,1778626162.972807,-0.72000000,-0.57000000,1.45000000,-177.61000000,-245.85000000,-200.74000000
564,1778626162.98279,-0.72000000,-0.57000000,1.45000000,-177.61000000,-245.85000000,-200.74000000
565,1778626162.992845,-0.72000000,-0.57000000,1.45000000,-177.61000000,-245.85000000,-200.74000000
566,1778626163.004941,-0.72000000,-0.57000000,1.45000000,-177.61000000,-245.85000000,-200.74000000
567,1778626163.0131898,-0.64000000,-0.55000000,2.00000000,-156.19000000,-184.69000000,-257.08000000
568,1778626163.0248802,-0.64000000,-0.55000000,2.00000000,-156.19000000,-184.69000000,-257.08000000
569,1778626163.033648,-0.64000000,-0.55000000,2.00000000,-156.19000000,-184.69000000,-257.08000000
570,1778626163.0450182,-0.64000000,-0.55000000,2.00000000,-156.19000000,-184.69000000,-257.08000000
571,1778626163.052937,-0.86000000,-0.94000000,1.72000000,-177.25000000,-140.01000000,-373.29000000
572,1778626163.062753,-0.86000000,-0.94000000,1.72000000,-177.25000000,-140.01000000,-373.29000000
573,1778626163.073468,-0.86000000,-0.94000000,1.72000000,-177.25000000,-140.01000000,-373.29000000
574,1778626163.083067,-0.86000000,-0.94000000,1.72000000,-177.25000000,-140.01000000,-373.29000000
575,1778626163.092801,-1.51000000,-0.88000000,2.40000000,-130.25000000,-171.63000000,-328.61000000
576,1778626163.1052659,-1.51000000,-0.88000000,2.40000000,-130.25000000,-171.63000000,-328.61000000
577,1778626163.1146162,-1.51000000,-0.88000000,2.40000000,-130.25000000,-171.63000000,-328.61000000
578,1778626163.123801,-2.13000000,-0.86000000,1.76000000,-130.25000000,-171.63000000,-328.61000000
579,1778626163.134987,-2.13000000,-0.86000000,1.76000000,-130.25000000,-171.63000000,-328.61000000
580,1778626163.1445498,-2.13000000,-0.86000000,1.76000000,-93.08000000,-106.38000000,-261.60000000
581,1778626163.1536589,-2.13000000,-0.86000000,1.76000000,-93.08000000,-106.38000000,-261.60000000
582,1778626163.1637561,-2.30000000,-0.20000000,1.80000000,-58.11000000,-68.66000000,-117.19000000
583,1778626163.173818,-2.30000000,-0.20000000,1.80000000,-58.11000000,-68.66000000,-117.19000000
584,1778626163.183425,-2.30000000,-0.20000000,1.80000000,-58.11000000,-68.66000000,-117.19000000
585,1778626163.195092,-2.30000000,-0.20000000,1.80000000,-58.11000000,-68.66000000,-117.19000000
586,1778626163.204708,-2.51000000,-0.19000000,1.52000000,-52.61000000,-5.92000000,-97.47000000
587,1778626163.213584,-2.51000000,-0.19000000,1.52000000,-52.61000000,-5.92000000,-97.47000000
588,1778626163.222829,-2.51000000,-0.19000000,1.52000000,-52.61000000,-5.92000000,-97.47000000
589,1778626163.23283,-2.76000000,-0.27000000,2.22000000,-52.61000000,-5.92000000,-97.47000000
590,1778626163.2428212,-2.76000000,-0.27000000,2.22000000,7.57000000,33.57000000,-21.55000000
591,1778626163.2527502,-2.76000000,-0.27000000,2.22000000,7.57000000,33.57000000,-21.55000000
592,1778626163.265266,-2.76000000,-0.27000000,2.22000000,7.57000000,33.57000000,-21.55000000
593,1778626163.2728992,-2.76000000,-1.07000000,1.82000000,43.27000000,108.64000000,68.30000000
594,1778626163.2852101,-2.76000000,-1.07000000,1.82000000,43.27000000,108.64000000,68.30000000
595,1778626163.294654,-2.76000000,-1.07000000,1.82000000,43.27000000,108.64000000,68.30000000
596,1778626163.304799,-2.76000000,-1.07000000,1.82000000,43.27000000,108.64000000,68.30000000
597,1778626163.314749,-2.76000000,-1.07000000,1.82000000,43.27000000,108.64000000,68.30000000
598,1778626163.322782,-2.16000000,-1.10000000,1.89000000,37.48000000,124.39000000,222.17000000
599,1778626163.334423,-2.16000000,-1.10000000,1.89000000,37.48000000,124.39000000,222.17000000
600,1778626163.343124,-2.16000000,-1.10000000,1.89000000,37.48000000,124.39000000,222.17000000
601,1778626163.3551831,-1.58000000,-1.09000000,1.80000000,53.65000000,181.03000000,230.10000000
602,1778626163.36329,-1.58000000,-1.09000000,1.80000000,53.65000000,181.03000000,230.10000000
603,1778626163.372936,-1.58000000,-1.09000000,1.80000000,53.65000000,181.03000000,230.10000000
604,1778626163.382761,-1.37000000,-1.06000000,1.67000000,71.11000000,187.01000000,249.69000000
605,1778626163.394856,-1.37000000,-1.06000000,1.67000000,71.11000000,187.01000000,249.69000000
606,1778626163.404778,-1.37000000,-1.06000000,1.67000000,71.11000000,187.01000000,249.69000000
607,1778626163.412815,-1.37000000,-1.06000000,1.67000000,71.11000000,187.01000000,249.69000000
608,1778626163.423658,-1.18000000,-1.09000000,1.72000000,68.36000000,217.41000000,247.25000000
609,1778626163.435045,-1.18000000,-1.09000000,1.72000000,68.36000000,217.41000000,247.25000000
610,1778626163.444701,-1.18000000,-1.09000000,1.72000000,68.36000000,217.41000000,247.25000000
611,1778626163.454797,-1.18000000,-1.09000000,1.72000000,68.36000000,217.41000000,247.25000000
612,1778626163.462804,-1.18000000,-1.09000000,1.72000000,68.36000000,217.41000000,247.25000000
613,1778626163.473158,-1.18000000,-1.09000000,1.72000000,68.36000000,217.41000000,247.25000000
614,1778626163.4836621,-1.18000000,-1.09000000,1.72000000,68.36000000,217.41000000,247.25000000
615,1778626163.494702,-1.18000000,-1.09000000,1.72000000,68.36000000,217.41000000,247.25000000
616,1778626163.503069,-1.18000000,-1.09000000,1.72000000,68.36000000,217.41000000,247.25000000
617,1778626163.513382,-1.18000000,-1.09000000,1.72000000,68.36000000,217.41000000,247.25000000
618,1778626163.5246909,-1.18000000,-1.09000000,1.72000000,68.36000000,217.41000000,247.25000000
619,1778626163.533139,-1.18000000,-1.09000000,1.72000000,68.36000000,217.41000000,247.25000000
620,1778626163.5449018,-0.27000000,-0.77000000,0.98000000,49.99000000,224.18000000,325.50000000
621,1778626163.554721,-0.27000000,-0.77000000,0.98000000,49.99000000,224.18000000,325.50000000
622,1778626163.562826,-0.27000000,-0.77000000,0.98000000,49.99000000,224.18000000,325.50000000
623,1778626163.57459,-0.27000000,-0.77000000,0.98000000,49.99000000,224.18000000,325.50000000
624,1778626163.5833201,0.01000000,-0.64000000,0.70000000,59.02000000,211.67000000,298.03000000
625,1778626163.595041,0.01000000,-0.64000000,0.70000000,59.02000000,211.67000000,298.03000000
626,1778626163.604699,0.01000000,-0.64000000,0.70000000,59.02000000,211.67000000,298.03000000
627,1778626163.6128662,0.01000000,-0.64000000,0.70000000,59.02000000,211.67000000,298.03000000
628,1778626163.623189,0.01000000,-0.64000000,0.70000000,59.02000000,211.67000000,298.03000000
629,1778626163.633205,0.08000000,-0.48000000,0.52000000,56.21000000,168.52000000,257.75000000
630,1778626163.6441312,-0.01000000,-0.40000000,0.56000000,23.62000000,208.19000000,164.18000000
631,1778626163.6548102,-0.01000000,-0.40000000,0.56000000,23.62000000,208.19000000,164.18000000
632,1778626163.662824,-0.01000000,-0.40000000,0.56000000,23.62000000,208.19000000,164.18000000
633,1778626163.673493,-0.01000000,-0.40000000,0.56000000,23.62000000,208.19000000,164.18000000
634,1778626163.682834,0.11000000,-0.57000000,0.27000000,23.62000000,208.19000000,164.18000000
635,1778626163.694788,0.11000000,-0.57000000,0.27000000,23.62000000,208.19000000,164.18000000
636,1778626163.703509,0.11000000,-0.57000000,0.27000000,8.73000000,150.76000000,219.79000000
637,1778626163.713163,0.11000000,-0.57000000,0.27000000,8.73000000,150.76000000,219.79000000
638,1778626163.723795,0.24000000,-0.21000000,0.50000000,38.88000000,98.94000000,254.64000000
639,1778626163.734997,0.24000000,-0.21000000,0.50000000,38.88000000,98.94000000,254.64000000
640,1778626163.743495,0.24000000,-0.21000000,0.50000000,38.88000000,98.94000000,254.64000000
641,1778626163.7527769,0.24000000,-0.21000000,0.50000000,38.88000000,98.94000000,254.64000000
642,1778626163.765217,0.66000000,-0.10000000,0.19000000,-44.01000000,197.02000000,189.82000000
643,1778626163.772979,0.66000000,-0.10000000,0.19000000,-44.01000000,197.02000000,189.82000000
644,1778626163.782835,0.66000000,-0.10000000,0.19000000,-44.01000000,197.02000000,189.82000000
645,1778626163.7952268,1.37000000,0.22000000,-0.19000000,-37.29000000,123.29000000,143.62000000
646,1778626163.804179,1.37000000,0.22000000,-0.19000000,-37.29000000,123.29000000,143.62000000
647,1778626163.812844,1.37000000,0.22000000,-0.19000000,-37.29000000,123.29000000,143.62000000
648,1778626163.8228009,1.37000000,0.22000000,-0.19000000,-37.29000000,123.29000000,143.62000000
649,1778626163.832767,1.37000000,0.22000000,-0.19000000,-37.29000000,123.29000000,143.62000000
650,1778626163.844696,1.48000000,0.58000000,0.18000000,-34.73000000,29.66000000,174.38000000
651,1778626163.8546329,1.48000000,0.58000000,0.18000000,-34.73000000,29.66000000,174.38000000
652,1778626163.863886,1.48000000,0.58000000,0.18000000,-34.73000000,29.66000000,174.38000000
653,1778626163.8741262,1.48000000,0.58000000,0.18000000,-34.73000000,29.66000000,174.38000000
654,1778626163.8834372,1.48000000,0.58000000,0.18000000,-34.73000000,29.66000000,174.38000000
655,1778626163.892849,1.48000000,0.58000000,0.18000000,-34.73000000,29.66000000,174.38000000
656,1778626163.902859,1.48000000,0.58000000,0.18000000,-34.73000000,29.66000000,174.38000000
657,1778626163.913244,1.48000000,0.58000000,0.18000000,-34.73000000,29.66000000,174.38000000
658,1778626163.924223,1.48000000,0.58000000,0.18000000,-34.73000000,29.66000000,174.38000000
659,1778626163.933374,2.12000000,1.09000000,0.10000000,0.12000000,-61.65000000,57.56000000
660,1778626163.944672,2.12000000,1.09000000,0.10000000,0.12000000,-61.65000000,57.56000000
661,1778626163.954768,2.00000000,1.22000000,0.24000000,5.92000000,-69.82000000,-40.71000000
662,1778626163.962867,2.00000000,1.22000000,0.24000000,5.92000000,-69.82000000,-40.71000000
663,1778626163.973123,2.00000000,1.22000000,0.24000000,5.92000000,-69.82000000,-40.71000000
664,1778626163.9828339,2.00000000,1.22000000,0.24000000,5.92000000,-69.82000000,-40.71000000
665,1778626163.9928598,2.00000000,1.22000000,0.24000000,5.92000000,-69.82000000,-40.71000000
666,1778626164.002792,2.00000000,1.22000000,0.24000000,5.92000000,-69.82000000,-40.71000000
667,1778626164.013352,2.00000000,1.22000000,0.24000000,5.92000000,-69.82000000,-40.71000000
668,1778626164.0237708,2.00000000,1.22000000,0.24000000,5.92000000,-69.82000000,-40.71000000
669,1778626164.033462,2.00000000,1.22000000,0.24000000,5.92000000,-69.82000000,-40.71000000
670,1778626164.043757,2.00000000,1.22000000,0.24000000,5.92000000,-69.82000000,-40.71000000
671,1778626164.0537548,1.63000000,0.97000000,-0.04000000,20.81000000,-105.16000000,-94.48000000
672,1778626164.064363,0.88000000,0.51000000,-0.14000000,13.98000000,-146.97000000,-172.49000000
673,1778626164.074657,0.88000000,0.51000000,-0.14000000,13.98000000,-146.97000000,-172.49000000
674,1778626164.0829399,0.88000000,0.51000000,-0.14000000,13.98000000,-146.97000000,-172.49000000
675,1778626164.092793,0.88000000,0.51000000,-0.14000000,13.98000000,-146.97000000,-172.49000000
676,1778626164.103376,0.55000000,0.21000000,-0.11000000,-9.46000000,-172.36000000,-175.35000000
677,1778626164.113056,0.55000000,0.21000000,-0.11000000,-9.46000000,-172.36000000,-175.35000000
678,1778626164.1240268,0.55000000,0.21000000,-0.11000000,-9.46000000,-172.36000000,-175.35000000
679,1778626164.133078,0.55000000,0.21000000,-0.11000000,-9.46000000,-172.36000000,-175.35000000
680,1778626164.145031,0.33000000,-0.08000000,0.13000000,-45.04000000,-184.20000000,-190.37000000
681,1778626164.153106,0.33000000,-0.08000000,0.13000000,-45.04000000,-184.20000000,-190.37000000
682,1778626164.162796,0.33000000,-0.08000000,0.13000000,-45.04000000,-184.20000000,-190.37000000
683,1778626164.172905,0.33000000,-0.08000000,0.13000000,-45.04000000,-184.20000000,-190.37000000
684,1778626164.184448,0.18000000,-0.27000000,0.25000000,-60.67000000,-187.87000000,-225.28000000
685,1778626164.194693,0.18000000,-0.27000000,0.25000000,-60.67000000,-187.87000000,-225.28000000
686,1778626164.204462,0.18000000,-0.27000000,0.25000000,-60.67000000,-187.87000000,-225.28000000
687,1778626164.213333,0.00000000,-0.69000000,0.40000000,-60.67000000,-187.87000000,-225.28000000
688,1778626164.22288,0.00000000,-0.69000000,0.40000000,-76.29000000,-212.40000000,-232.79000000
689,1778626164.232778,0.00000000,-0.69000000,0.40000000,-76.29000000,-212.40000000,-232.79000000
690,1778626164.245253,0.00000000,-0.69000000,0.40000000,-76.29000000,-212.40000000,-232.79000000
691,1778626164.254316,0.00000000,-0.69000000,0.40000000,-120.48000000,-226.20000000,-218.08000000
692,1778626164.262849,-0.10000000,-0.65000000,0.74000000,-120.48000000,-226.20000000,-218.08000000
693,1778626164.273983,-0.10000000,-0.65000000,0.74000000,-120.48000000,-226.20000000,-218.08000000
694,1778626164.282924,-0.10000000,-0.65000000,0.74000000,-120.48000000,-226.20000000,-218.08000000
695,1778626164.2927501,-0.18000000,-0.90000000,0.95000000,-132.57000000,-237.73000000,-253.11000000
696,1778626164.305245,-0.18000000,-0.90000000,0.95000000,-132.57000000,-237.73000000,-253.11000000
697,1778626164.3146298,-0.18000000,-0.90000000,0.95000000,-132.57000000,-237.73000000,-253.11000000
698,1778626164.323922,-0.18000000,-0.90000000,0.95000000,-132.57000000,-237.73000000,-253.11000000
699,1778626164.3348742,-0.31000000,-1.04000000,1.45000000,-159.48000000,-302.43000000,-177.73000000
700,1778626164.3447309,-0.31000000,-1.04000000,1.45000000,-159.48000000,-302.43000000,-177.73000000
701,1778626164.352886,-0.31000000,-1.04000000,1.45000000,-159.48000000,-302.43000000,-177.73000000
702,1778626164.362883,-0.31000000,-1.04000000,1.45000000,-159.48000000,-302.43000000,-177.73000000
703,1778626164.373923,-0.16000000,-1.00000000,1.67000000,-142.09000000,-287.78000000,-181.88000000
704,1778626164.383668,-0.16000000,-1.00000000,1.67000000,-142.09000000,-287.78000000,-181.88000000
705,1778626164.394814,-0.16000000,-1.00000000,1.67000000,-142.09000000,-287.78000000,-181.88000000
706,1778626164.403898,-0.37000000,-1.11000000,2.14000000,-158.75000000,-321.23000000,-206.30000000
707,1778626164.413238,-0.37000000,-1.11000000,2.14000000,-158.75000000,-321.23000000,-206.30000000
708,1778626164.4228191,-0.37000000,-1.11000000,2.14000000,-158.75000000,-321.23000000,-206.30000000
709,1778626164.433558,-0.37000000,-1.11000000,2.14000000,-158.75000000,-321.23000000,-206.30000000
710,1778626164.445011,-0.84000000,-1.13000000,2.32000000,-215.09000000,-147.03000000,-325.93000000
711,1778626164.454686,-0.84000000,-1.13000000,2.32000000,-215.09000000,-147.03000000,-325.93000000
712,1778626164.463475,-0.84000000,-1.13000000,2.32000000,-215.09000000,-147.03000000,-325.93000000
713,1778626164.47507,-0.84000000,-1.13000000,2.32000000,-215.09000000,-147.03000000,-325.93000000
714,1778626164.4828138,-0.97000000,-1.14000000,2.02000000,-120.06000000,-196.84000000,-222.66000000
715,1778626164.494941,-0.97000000,-1.14000000,2.02000000,-120.06000000,-196.84000000,-222.66000000
716,1778626164.50282,-0.97000000,-1.14000000,2.02000000,-120.06000000,-196.84000000,-222.66000000
717,1778626164.512943,-0.97000000,-1.14000000,2.02000000,-120.06000000,-196.84000000,-222.66000000
718,1778626164.522767,-0.97000000,-1.14000000,2.02000000,-120.06000000,-196.84000000,-222.66000000
719,1778626164.5328178,-0.97000000,-1.14000000,2.02000000,-120.06000000,-196.84000000,-222.66000000
720,1778626164.544661,-0.97000000,-1.14000000,2.02000000,-120.06000000,-196.84000000,-222.66000000
721,1778626164.554755,-0.97000000,-1.14000000,2.02000000,-120.06000000,-196.84000000,-222.66000000
722,1778626164.5629709,-0.97000000,-1.14000000,2.02000000,-120.06000000,-196.84000000,-222.66000000
723,1778626164.573288,-0.97000000,-1.14000000,2.02000000,-120.06000000,-196.84000000,-222.66000000
724,1778626164.582808,-0.97000000,-1.14000000,2.02000000,-120.06000000,-196.84000000,-222.66000000
725,1778626164.593039,-2.02000000,0.09000000,2.08000000,-58.17000000,-82.40000000,-81.36000000
726,1778626164.603829,-2.02000000,0.09000000,2.08000000,-58.17000000,-82.40000000,-81.36000000
727,1778626164.6129699,-2.02000000,0.09000000,2.08000000,-58.17000000,-82.40000000,-81.36000000
728,1778626164.625195,-2.02000000,0.09000000,2.08000000,-58.17000000,-82.40000000,-81.36000000
729,1778626164.634219,-2.43000000,0.10000000,2.37000000,-16.54000000,24.29000000,-65.25000000
730,1778626164.6448882,-2.43000000,0.10000000,2.37000000,-16.54000000,24.29000000,-65.25000000
731,1778626164.653986,-2.43000000,0.10000000,2.37000000,-16.54000000,24.29000000,-65.25000000
732,1778626164.6635919,-2.43000000,0.10000000,2.37000000,-16.54000000,24.29000000,-65.25000000
733,1778626164.672843,-2.42000000,-0.58000000,1.91000000,38.15000000,85.14000000,33.94000000
734,1778626164.683794,-2.42000000,-0.58000000,1.91000000,38.15000000,85.14000000,33.94000000
735,1778626164.693425,-2.42000000,-0.58000000,1.91000000,38.15000000,85.14000000,33.94000000
736,1778626164.704885,-2.04000000,-1.06000000,1.87000000,63.54000000,107.97000000,151.61000000
737,1778626164.712886,-2.04000000,-1.06000000,1.87000000,63.54000000,107.97000000,151.61000000
738,1778626164.723061,-2.04000000,-1.06000000,1.87000000,63.54000000,107.97000000,151.61000000
739,1778626164.732893,-2.04000000,-1.06000000,1.87000000,63.54000000,107.97000000,151.61000000
740,1778626164.743144,-1.53000000,-1.32000000,1.92000000,63.54000000,107.97000000,151.61000000
741,1778626164.755179,-1.53000000,-1.32000000,1.92000000,47.67000000,195.43000000,188.11000000
742,1778626164.7627578,-1.53000000,-1.32000000,1.92000000,47.67000000,195.43000000,188.11000000
743,1778626164.774692,-1.53000000,-1.32000000,1.92000000,47.67000000,195.43000000,188.11000000
744,1778626164.782942,-1.29000000,-1.44000000,1.78000000,43.52000000,194.03000000,238.71000000
745,1778626164.792959,-1.29000000,-1.44000000,1.78000000,43.52000000,194.03000000,238.71000000
746,1778626164.8051689,-1.29000000,-1.44000000,1.78000000,43.52000000,194.03000000,238.71000000
747,1778626164.8129148,-1.13000000,-1.35000000,1.83000000,39.92000000,211.91000000,269.17000000
748,1778626164.82447,-1.13000000,-1.35000000,1.83000000,39.92000000,211.91000000,269.17000000
749,1778626164.832782,-1.13000000,-1.35000000,1.83000000,39.92000000,211.91000000,269.17000000
750,1778626164.843644,-1.13000000,-1.35000000,1.83000000,39.92000000,211.91000000,269.17000000
751,1778626164.855034,-0.84000000,-1.28000000,1.60000000,29.91000000,211.55000000,310.42000000
752,1778626164.863957,-0.84000000,-1.28000000,1.60000000,29.91000000,211.55000000,310.42000000
753,1778626164.874615,-0.84000000,-1.28000000,1.60000000,29.91000000,211.55000000,310.42000000
754,1778626164.8835359,-0.66000000,-1.01000000,1.58000000,36.56000000,204.83000000,338.93000000
755,1778626164.8943071,-0.66000000,-1.01000000,1.58000000,36.56000000,204.83000000,338.93000000
756,1778626164.903596,-0.66000000,-1.01000000,1.58000000,36.56000000,204.83000000,338.93000000
757,1778626164.912867,-0.66000000,-1.01000000,1.58000000,36.56000000,204.83000000,338.93000000
758,1778626164.9228532,-0.66000000,-1.01000000,1.58000000,36.56000000,204.83000000,338.93000000
759,1778626164.932862,-0.66000000,-1.01000000,1.58000000,36.56000000,204.83000000,338.93000000
760,1778626164.9436858,-0.66000000,-1.01000000,1.58000000,36.56000000,204.83000000,338.93000000
761,1778626164.955022,-0.66000000,-1.01000000,1.58000000,36.56000000,204.83000000,338.93000000
762,1778626164.963016,-0.66000000,-1.01000000,1.58000000,36.56000000,204.83000000,338.93000000
763,1778626164.972817,-0.41000000,-0.73000000,1.22000000,39.00000000,263.61000000,258.97000000
764,1778626164.982781,-0.41000000,-0.73000000,1.22000000,39.00000000,263.61000000,258.97000000
765,1778626164.994686,-0.24000000,-0.67000000,0.85000000,55.18000000,222.66000000,303.77000000
766,1778626165.004435,-0.24000000,-0.67000000,0.85000000,55.18000000,222.66000000,303.77000000
767,1778626165.014506,-0.24000000,-0.67000000,0.85000000,55.18000000,222.66000000,303.77000000
768,1778626165.0248199,-0.24000000,-0.67000000,0.85000000,55.18000000,222.66000000,303.77000000
769,1778626165.034741,-0.24000000,-0.67000000,0.85000000,55.18000000,222.66000000,303.77000000
770,1778626165.044746,-0.24000000,-0.67000000,0.85000000,55.18000000,222.66000000,303.77000000
771,1778626165.052814,-0.24000000,-0.67000000,0.85000000,55.18000000,222.66000000,303.77000000
772,1778626165.0649228,-0.24000000,-0.67000000,0.85000000,55.18000000,222.66000000,303.77000000
773,1778626165.072896,-0.24000000,-0.67000000,0.85000000,55.18000000,222.66000000,303.77000000
774,1778626165.0834072,-0.24000000,-0.67000000,0.85000000,55.18000000,222.66000000,303.77000000
775,1778626165.095086,-0.24000000,-0.67000000,0.85000000,55.18000000,222.66000000,303.77000000
776,1778626165.1039932,-0.24000000,-0.67000000,0.85000000,55.18000000,222.66000000,303.77000000
777,1778626165.112942,0.05000000,0.21000000,0.28000000,47.00000000,172.91000000,225.28000000
778,1778626165.123463,0.05000000,0.21000000,0.28000000,47.00000000,172.91000000,225.28000000
779,1778626165.1330829,0.05000000,0.21000000,0.28000000,47.00000000,172.91000000,225.28000000
780,1778626165.1451452,0.16000000,0.27000000,0.24000000,65.80000000,169.25000000,191.16000000
781,1778626165.152828,0.16000000,0.27000000,0.24000000,65.80000000,169.25000000,191.16000000
782,1778626165.1630661,0.16000000,0.27000000,0.24000000,65.80000000,169.25000000,191.16000000
783,1778626165.172801,0.16000000,0.27000000,0.24000000,65.80000000,169.25000000,191.16000000
784,1778626165.1837661,0.21000000,0.01000000,0.15000000,1.71000000,156.19000000,148.44000000
785,1778626165.194839,0.21000000,0.01000000,0.15000000,1.71000000,156.19000000,148.44000000
786,1778626165.204642,0.21000000,0.01000000,0.15000000,1.71000000,156.19000000,148.44000000
787,1778626165.2147598,0.46000000,-0.02000000,0.21000000,1.71000000,156.19000000,148.44000000
788,1778626165.222848,0.46000000,-0.02000000,0.21000000,6.16000000,96.80000000,202.94000000
789,1778626165.234998,0.46000000,-0.02000000,0.21000000,6.16000000,96.80000000,202.94000000
790,1778626165.242799,0.46000000,-0.02000000,0.21000000,6.16000000,96.80000000,202.94000000
791,1778626165.254124,0.97000000,0.15000000,0.00000000,11.41000000,72.14000000,203.61000000
792,1778626165.262975,0.97000000,0.15000000,0.00000000,11.41000000,72.14000000,203.61000000
793,1778626165.2731972,0.97000000,0.15000000,0.00000000,11.41000000,72.14000000,203.61000000
794,1778626165.282837,0.97000000,0.15000000,0.00000000,11.41000000,72.14000000,203.61000000
795,1778626165.292831,1.44000000,0.60000000,0.36000000,12.94000000,1.77000000,163.76000000
796,1778626165.30521,1.44000000,0.60000000,0.36000000,12.94000000,1.77000000,163.76000000
797,1778626165.3144262,1.44000000,0.60000000,0.36000000,12.94000000,1.77000000,163.76000000
798,1778626165.323394,1.44000000,0.60000000,0.36000000,12.94000000,1.77000000,163.76000000
799,1778626165.333643,1.85000000,0.86000000,0.26000000,-1.22000000,32.35000000,90.52000000
800,1778626165.343412,1.85000000,0.86000000,0.26000000,-1.22000000,32.35000000,90.52000000
801,1778626165.352771,1.85000000,0.86000000,0.26000000,-1.22000000,32.35000000,90.52000000
802,1778626165.362953,2.29000000,0.41000000,-0.43000000,32.90000000,-91.98000000,-9.58000000
803,1778626165.3731441,2.29000000,0.41000000,-0.43000000,32.90000000,-91.98000000,-9.58000000
804,1778626165.382821,2.29000000,0.41000000,-0.43000000,32.90000000,-91.98000000,-9.58000000
805,1778626165.392771,2.29000000,0.41000000,-0.43000000,32.90000000,-91.98000000,-9.58000000
806,1778626165.4027898,1.97000000,1.03000000,0.19000000,31.56000000,-97.23000000,-8.54000000
807,1778626165.413038,1.97000000,1.03000000,0.19000000,31.56000000,-97.23000000,-8.54000000
808,1778626165.423367,1.97000000,1.03000000,0.19000000,31.56000000,-97.23000000,-8.54000000
809,1778626165.4327722,1.97000000,1.03000000,0.19000000,31.56000000,-97.23000000,-8.54000000
810,1778626165.4446778,1.69000000,0.74000000,-0.15000000,22.64000000,-111.88000000,-90.39000000
811,1778626165.453009,1.69000000,0.74000000,-0.15000000,22.64000000,-111.88000000,-90.39000000
812,1778626165.46508,1.69000000,0.74000000,-0.15000000,22.64000000,-111.88000000,-90.39000000
813,1778626165.472793,1.25000000,0.57000000,-0.12000000,22.64000000,-111.88000000,-90.39000000
814,1778626165.482822,1.25000000,0.57000000,-0.12000000,32.41000000,-179.26000000,-94.24000000
815,1778626165.494661,1.25000000,0.57000000,-0.12000000,32.41000000,-179.26000000,-94.24000000
816,1778626165.504748,1.25000000,0.57000000,-0.12000000,32.41000000,-179.26000000,-94.24000000
817,1778626165.513497,0.88000000,0.30000000,-0.11000000,6.77000000,-180.24000000,-145.32000000
818,1778626165.523602,0.88000000,0.30000000,-0.11000000,6.77000000,-180.24000000,-145.32000000
819,1778626165.532751,0.88000000,0.30000000,-0.11000000,6.77000000,-180.24000000,-145.32000000
820,1778626165.542778,0.88000000,0.30000000,-0.11000000,6.77000000,-180.24000000,-145.32000000
821,1778626165.553567,0.88000000,0.30000000,-0.11000000,6.77000000,-180.24000000,-145.32000000
822,1778626165.5630348,0.88000000,0.30000000,-0.11000000,6.77000000,-180.24000000,-145.32000000
823,1778626165.573805,0.88000000,0.30000000,-0.11000000,6.77000000,-180.24000000,-145.32000000
824,1778626165.584938,0.88000000,0.30000000,-0.11000000,6.77000000,-180.24000000,-145.32000000
825,1778626165.5927649,0.88000000,0.30000000,-0.11000000,6.77000000,-180.24000000,-145.32000000
826,1778626165.6030478,0.88000000,0.30000000,-0.11000000,6.77000000,-180.24000000,-145.32000000
827,1778626165.61521,0.88000000,0.30000000,-0.11000000,6.77000000,-180.24000000,-145.32000000
828,1778626165.6246321,0.88000000,0.30000000,-0.11000000,6.77000000,-180.24000000,-145.32000000
829,1778626165.633062,0.19000000,-0.53000000,0.45000000,-85.82000000,-227.91000000,-231.08000000
830,1778626165.643094,0.19000000,-0.53000000,0.45000000,-85.82000000,-227.91000000,-231.08000000
831,1778626165.652854,0.19000000,-0.53000000,0.45000000,-85.82000000,-227.91000000,-231.08000000
832,1778626165.6634471,0.19000000,-0.53000000,0.45000000,-85.82000000,-227.91000000,-231.08000000
833,1778626165.672757,-0.05000000,-0.86000000,0.77000000,-102.23000000,-265.14000000,-248.41000000
834,1778626165.6828601,-0.05000000,-0.86000000,0.77000000,-102.23000000,-265.14000000,-248.41000000
835,1778626165.693123,-0.05000000,-0.86000000,0.77000000,-102.23000000,-265.14000000,-248.41000000
836,1778626165.7032168,-0.36000000,-1.05000000,1.15000000,-102.23000000,-265.14000000,-248.41000000
837,1778626165.7128088,-0.36000000,-1.05000000,1.15000000,-97.17000000,-365.05000000,-147.71000000
838,1778626165.722825,-0.36000000,-1.05000000,1.15000000,-97.17000000,-365.05000000,-147.71000000
839,1778626165.7327611,-0.36000000,-1.05000000,1.15000000,-97.17000000,-365.05000000,-147.71000000
840,1778626165.74476,-0.52000000,-0.67000000,1.70000000,-196.90000000,-277.47000000,-181.82000000
841,1778626165.752975,-0.52000000,-0.67000000,1.70000000,-196.90000000,-277.47000000,-181.82000000
842,1778626165.7632,-0.52000000,-0.67000000,1.70000000,-196.90000000,-277.47000000,-181.82000000
843,1778626165.773163,-0.52000000,-0.67000000,1.70000000,-196.90000000,-277.47000000,-181.82000000
844,1778626165.782763,-0.49000000,-0.91000000,1.64000000,-182.62000000,-219.60000000,-256.96000000
845,1778626165.7952378,-0.49000000,-0.91000000,1.64000000,-182.62000000,-219.60000000,-256.96000000
846,1778626165.804106,-0.49000000,-0.91000000,1.64000000,-182.62000000,-219.60000000,-256.96000000
847,1778626165.813196,-0.49000000,-0.91000000,1.64000000,-182.62000000,-219.60000000,-256.96000000
848,1778626165.824181,-0.78000000,-0.69000000,2.22000000,-144.53000000,-282.53000000,-173.03000000
849,1778626165.83281,-0.78000000,-0.69000000,2.22000000,-144.53000000,-282.53000000,-173.03000000
850,1778626165.843372,-0.78000000,-0.69000000,2.22000000,-144.53000000,-282.53000000,-173.03000000
851,1778626165.852959,-0.78000000,-0.69000000,2.22000000,-144.53000000,-282.53000000,-173.03000000
852,1778626165.864151,-0.81000000,-0.89000000,2.05000000,-164.92000000,-202.21000000,-257.39000000
853,1778626165.873634,-0.81000000,-0.89000000,2.05000000,-164.92000000,-202.21000000,-257.39000000
854,1778626165.882947,-0.81000000,-0.89000000,2.05000000,-164.92000000,-202.21000000,-257.39000000
855,1778626165.893045,-1.20000000,-0.75000000,2.27000000,-154.79000000,-201.48000000,-226.38000000
856,1778626165.905182,-1.20000000,-0.75000000,2.27000000,-154.79000000,-201.48000000,-226.38000000
857,1778626165.912769,-1.20000000,-0.75000000,2.27000000,-154.79000000,-201.48000000,-226.38000000
858,1778626165.922805,-1.20000000,-0.75000000,2.27000000,-154.79000000,-201.48000000,-226.38000000
859,1778626165.9329002,-1.58000000,-0.80000000,1.96000000,-135.80000000,-87.16000000,-305.79000000
860,1778626165.942776,-1.58000000,-0.80000000,1.96000000,-135.80000000,-87.16000000,-305.79000000
861,1778626165.955234,-1.58000000,-0.80000000,1.96000000,-135.80000000,-87.16000000,-305.79000000
862,1778626165.96318,-1.58000000,-0.80000000,1.96000000,-135.80000000,-87.16000000,-305.79000000
863,1778626165.9728441,-1.58000000,-0.80000000,1.96000000,-135.80000000,-87.16000000,-305.79000000
864,1778626165.983328,-1.58000000,-0.80000000,1.96000000,-135.80000000,-87.16000000,-305.79000000
865,1778626165.993313,-1.58000000,-0.80000000,1.96000000,-135.80000000,-87.16000000,-305.79000000
866,1778626166.002767,-1.58000000,-0.80000000,1.96000000,-135.80000000,-87.16000000,-305.79000000
867,1778626166.012932,-1.58000000,-0.80000000,1.96000000,-135.80000000,-87.16000000,-305.79000000
868,1778626166.025197,-1.87000000,-0.47000000,1.29000000,-69.64000000,-103.33000000,-66.53000000
869,1778626166.032767,-1.87000000,-0.47000000,1.29000000,-69.64000000,-103.33000000,-66.53000000
870,1778626166.043222,-1.94000000,-0.01000000,1.57000000,-58.11000000,-19.17000000,-73.12000000
871,1778626166.0538921,-1.94000000,-0.01000000,1.57000000,-58.11000000,-19.17000000,-73.12000000
872,1778626166.06345,-1.94000000,-0.01000000,1.57000000,-58.11000000,-19.17000000,-73.12000000
873,1778626166.0734022,-1.94000000,-0.01000000,1.57000000,-58.11000000,-19.17000000,-73.12000000
874,1778626166.0833468,-1.94000000,-0.01000000,1.57000000,-58.11000000,-19.17000000,-73.12000000
875,1778626166.0928938,-1.94000000,-0.01000000,1.57000000,-58.11000000,-19.17000000,-73.12000000
876,1778626166.102765,-1.94000000,-0.01000000,1.57000000,-58.11000000,-19.17000000,-73.12000000
877,1778626166.112833,-1.94000000,-0.01000000,1.57000000,-58.11000000,-19.17000000,-73.12000000
878,1778626166.1230779,-1.94000000,-0.01000000,1.57000000,-58.11000000,-19.17000000,-73.12000000
879,1778626166.133877,-1.94000000,-0.01000000,1.57000000,-58.11000000,-19.17000000,-73.12000000
880,1778626166.144696,-1.94000000,-0.01000000,1.57000000,-58.11000000,-19.17000000,-73.12000000
881,1778626166.153235,-1.94000000,0.17000000,1.70000000,-58.11000000,-19.17000000,-73.12000000
882,1778626166.162863,-1.91000000,-0.41000000,2.10000000,53.83000000,232.79000000,13.12000000
883,1778626166.1728158,-1.91000000,-0.41000000,2.10000000,53.83000000,232.79000000,13.12000000
884,1778626166.1828601,-1.91000000,-0.41000000,2.10000000,53.83000000,232.79000000,13.12000000
885,1778626166.1941419,-1.60000000,-1.02000000,1.29000000,26.25000000,211.00000000,89.66000000
886,1778626166.203861,-1.60000000,-1.02000000,1.29000000,26.25000000,211.00000000,89.66000000
887,1778626166.212786,-1.60000000,-1.02000000,1.29000000,26.25000000,211.00000000,89.66000000
888,1778626166.222764,-1.60000000,-1.02000000,1.29000000,26.25000000,211.00000000,89.66000000
889,1778626166.234655,-1.71000000,-1.16000000,1.63000000,36.93000000,127.75000000,191.77000000
890,1778626166.242767,-1.71000000,-1.16000000,1.63000000,36.93000000,127.75000000,191.77000000
891,1778626166.253791,-1.71000000,-1.16000000,1.63000000,36.93000000,127.75000000,191.77000000
892,1778626166.263086,-1.71000000,-1.16000000,1.63000000,36.93000000,127.75000000,191.77000000
893,1778626166.273086,-1.42000000,-1.09000000,1.59000000,65.92000000,154.05000000,212.10000000
894,1778626166.2827818,-1.42000000,-1.09000000,1.59000000,65.92000000,154.05000000,212.10000000
895,1778626166.294413,-1.42000000,-1.09000000,1.59000000,65.92000000,154.05000000,212.10000000
896,1778626166.304391,-1.40000000,-1.30000000,1.43000000,19.10000000,194.89000000,186.46000000
897,1778626166.314843,-1.40000000,-1.30000000,1.43000000,19.10000000,194.89000000,186.46000000
898,1778626166.322933,-1.40000000,-1.30000000,1.43000000,19.10000000,194.89000000,186.46000000
899,1778626166.334205,-1.40000000,-1.30000000,1.43000000,19.10000000,194.89000000,186.46000000
900,1778626166.343113,-1.14000000,-1.06000000,1.43000000,-11.29000000,210.45000000,251.89000000
901,1778626166.353547,-1.14000000,-1.06000000,1.43000000,-11.29000000,210.45000000,251.89000000
902,1778626166.3637629,-1.14000000,-1.06000000,1.43000000,-11.29000000,210.45000000,251.89000000
903,1778626166.372768,-1.14000000,-1.06000000,1.43000000,-11.29000000,210.45000000,251.89000000
904,1778626166.3828712,-0.81000000,-0.89000000,1.28000000,-14.22000000,243.10000000,245.97000000
905,1778626166.395217,-0.81000000,-0.89000000,1.28000000,-14.22000000,243.10000000,245.97000000
906,1778626166.403151,-0.81000000,-0.89000000,1.28000000,-14.22000000,243.10000000,245.97000000
907,1778626166.413553,-0.81000000,-0.89000000,1.28000000,-14.22000000,243.10000000,245.97000000
908,1778626166.422815,-0.69000000,-0.82000000,1.09000000,-17.40000000,212.46000000,263.55000000
909,1778626166.4330308,-0.69000000,-0.82000000,1.09000000,-17.40000000,212.46000000,263.55000000
910,1778626166.4446678,-0.50000000,-0.84000000,0.94000000,-17.70000000,211.79000000,297.85000000
911,1778626166.454776,-0.50000000,-0.84000000,0.94000000,-17.70000000,211.79000000,297.85000000
912,1778626166.4633842,-0.50000000,-0.84000000,0.94000000,-17.70000000,211.79000000,297.85000000
913,1778626166.4734972,-0.50000000,-0.84000000,0.94000000,-17.70000000,211.79000000,297.85000000
914,1778626166.482843,-0.14000000,-0.60000000,0.66000000,-17.70000000,211.79000000,297.85000000
915,1778626166.49522,-0.14000000,-0.60000000,0.66000000,6.96000000,189.03000000,328.55000000
916,1778626166.503829,-0.14000000,-0.60000000,0.66000000,6.96000000,189.03000000,328.55000000
917,1778626166.513097,-0.14000000,-0.60000000,0.66000000,6.96000000,189.03000000,328.55000000
918,1778626166.524678,0.07000000,-0.53000000,0.52000000,17.82000000,157.78000000,313.11000000
919,1778626166.533022,0.07000000,-0.53000000,0.52000000,17.82000000,157.78000000,313.11000000
920,1778626166.543872,0.07000000,-0.53000000,0.52000000,17.82000000,157.78000000,313.11000000
921,1778626166.552929,0.12000000,-0.44000000,0.37000000,15.14000000,139.16000000,289.86000000
922,1778626166.563172,0.12000000,-0.44000000,0.37000000,15.14000000,139.16000000,289.86000000
923,1778626166.573282,0.12000000,-0.44000000,0.37000000,15.14000000,139.16000000,289.86000000
924,1778626166.5832691,0.12000000,-0.44000000,0.37000000,15.14000000,139.16000000,289.86000000
925,1778626166.594702,0.19000000,-0.35000000,0.43000000,27.71000000,97.90000000,288.57000000
926,1778626166.6032581,0.19000000,-0.35000000,0.43000000,27.71000000,97.90000000,288.57000000
927,1778626166.613141,0.19000000,-0.35000000,0.43000000,27.71000000,97.90000000,288.57000000
928,1778626166.6240761,0.19000000,-0.35000000,0.43000000,27.71000000,97.90000000,288.57000000
929,1778626166.633024,0.19000000,-0.35000000,0.43000000,27.71000000,97.90000000,288.57000000
930,1778626166.644695,0.19000000,-0.35000000,0.43000000,27.71000000,97.90000000,288.57000000
931,1778626166.653588,0.19000000,-0.35000000,0.43000000,27.71000000,97.90000000,288.57000000
932,1778626166.6631942,0.19000000,-0.35000000,0.43000000,27.71000000,97.90000000,288.57000000
933,1778626166.6735868,0.19000000,-0.35000000,0.43000000,27.71000000,97.90000000,288.57000000
934,1778626166.683245,0.19000000,-0.35000000,0.43000000,27.71000000,97.90000000,288.57000000
935,1778626166.694942,0.43000000,-0.09000000,0.44000000,8.18000000,135.74000000,207.09000000
936,1778626166.7036889,0.81000000,0.04000000,0.10000000,15.93000000,97.35000000,240.78000000
937,1778626166.713151,0.81000000,0.04000000,0.10000000,15.93000000,97.35000000,240.78000000
938,1778626166.723395,0.81000000,0.04000000,0.10000000,15.93000000,97.35000000,240.78000000
939,1778626166.734038,0.81000000,0.04000000,0.10000000,15.93000000,97.35000000,240.78000000
940,1778626166.744677,1.72000000,0.54000000,-0.35000000,-15.32000000,-24.35000000,194.15000000
941,1778626166.754768,1.72000000,0.54000000,-0.35000000,-15.32000000,-24.35000000,194.15000000
942,1778626166.763179,1.72000000,0.54000000,-0.35000000,-15.32000000,-24.35000000,194.15000000
943,1778626166.774984,1.72000000,0.54000000,-0.35000000,-15.32000000,-24.35000000,194.15000000
944,1778626166.7831402,1.64000000,0.66000000,0.14000000,-52.19000000,103.21000000,7.81000000
945,1778626166.794903,1.64000000,0.66000000,0.14000000,-52.19000000,103.21000000,7.81000000
946,1778626166.803118,1.64000000,0.66000000,0.14000000,-52.19000000,103.21000000,7.81000000
947,1778626166.8131819,2.00000000,0.81000000,-0.04000000,-52.19000000,103.21000000,7.81000000
948,1778626166.823242,2.00000000,0.81000000,-0.04000000,-24.54000000,17.09000000,43.88000000
949,1778626166.8341372,2.00000000,0.81000000,-0.04000000,-24.54000000,17.09000000,43.88000000
950,1778626166.84484,2.00000000,0.81000000,-0.04000000,-24.54000000,17.09000000,43.88000000
951,1778626166.8542552,2.04000000,1.09000000,0.05000000,47.85000000,-37.84000000,12.21000000
952,1778626166.863934,2.04000000,1.09000000,0.05000000,47.85000000,-37.84000000,12.21000000
953,1778626166.874711,2.04000000,1.09000000,0.05000000,47.85000000,-37.84000000,12.21000000
954,1778626166.883151,2.04000000,1.09000000,0.05000000,47.85000000,-37.84000000,12.21000000
955,1778626166.894687,2.04000000,1.09000000,0.05000000,47.85000000,-37.84000000,12.21000000
956,1778626166.9033868,2.04000000,1.09000000,0.05000000,47.85000000,-37.84000000,12.21000000
957,1778626166.9136589,2.04000000,1.09000000,0.05000000,47.85000000,-37.84000000,12.21000000
958,1778626166.9249852,2.04000000,1.09000000,0.05000000,47.85000000,-37.84000000,12.21000000
959,1778626166.9339688,2.04000000,1.09000000,0.05000000,47.85000000,-37.84000000,12.21000000
960,1778626166.944834,2.04000000,1.09000000,0.05000000,47.85000000,-37.84000000,12.21000000
961,1778626166.9547698,2.04000000,1.09000000,0.05000000,47.85000000,-37.84000000,12.21000000
962,1778626166.963228,1.22000000,0.64000000,-0.10000000,21.55000000,-100.10000000,-129.88000000
963,1778626166.972943,1.22000000,0.64000000,-0.10000000,26.31000000,-118.90000000,-176.21000000
964,1778626166.983155,1.22000000,0.64000000,-0.10000000,26.31000000,-118.90000000,-176.21000000
965,1778626166.994983,1.22000000,0.64000000,-0.10000000,26.31000000,-118.90000000,-176.21000000
966,1778626167.004703,1.22000000,0.64000000,-0.10000000,26.31000000,-118.90000000,-176.21000000
967,1778626167.01316,1.22000000,0.64000000,-0.10000000,26.31000000,-118.90000000,-176.21000000
968,1778626167.024843,1.22000000,0.64000000,-0.10000000,26.31000000,-118.90000000,-176.21000000
969,1778626167.033291,1.22000000,0.64000000,-0.10000000,26.31000000,-118.90000000,-176.21000000
970,1778626167.0447009,1.22000000,0.64000000,-0.10000000,26.31000000,-118.90000000,-176.21000000
971,1778626167.054604,1.22000000,0.64000000,-0.10000000,26.31000000,-118.90000000,-176.21000000
972,1778626167.063214,1.22000000,0.64000000,-0.10000000,26.31000000,-118.90000000,-176.21000000
973,1778626167.073728,0.47000000,-0.09000000,-0.24000000,-13.92000000,-112.18000000,-230.47000000
974,1778626167.084053,0.29000000,-0.40000000,-0.09000000,-26.43000000,-180.79000000,-205.81000000
975,1778626167.0948071,0.29000000,-0.40000000,-0.09000000,-26.43000000,-180.79000000,-205.81000000
976,1778626167.104181,0.29000000,-0.40000000,-0.09000000,-26.43000000,-180.79000000,-205.81000000
977,1778626167.113343,0.29000000,-0.40000000,-0.09000000,-26.43000000,-180.79000000,-205.81000000
978,1778626167.123334,-0.15000000,-0.41000000,0.69000000,-26.43000000,-180.79000000,-205.81000000
979,1778626167.1332731,-0.15000000,-0.41000000,0.69000000,-26.43000000,-180.79000000,-205.81000000
980,1778626167.145003,-0.15000000,-0.41000000,0.69000000,-26.43000000,-180.79000000,-205.81000000
981,1778626167.154716,-0.15000000,-0.41000000,0.69000000,-26.43000000,-180.79000000,-205.81000000
982,1778626167.163254,-0.15000000,-0.41000000,0.69000000,-26.43000000,-180.79000000,-205.81000000
983,1778626167.172846,-0.15000000,-0.41000000,0.69000000,-26.43000000,-180.79000000,-205.81000000
984,1778626167.1831832,-0.15000000,-0.41000000,0.69000000,-26.43000000,-180.79000000,-205.81000000
985,1778626167.19471,-0.15000000,-0.41000000,0.69000000,-26.43000000,-180.79000000,-205.81000000
986,1778626167.204334,-0.59000000,-0.51000000,0.98000000,-100.10000000,-230.90000000,-172.36000000
987,1778626167.213229,-0.59000000,-0.51000000,0.98000000,-100.10000000,-230.90000000,-172.36000000
988,1778626167.2228339,-0.59000000,-0.51000000,0.98000000,-100.10000000,-230.90000000,-172.36000000
989,1778626167.2340858,-0.59000000,-0.51000000,0.98000000,-100.10000000,-230.90000000,-172.36000000
990,1778626167.2448268,-0.53000000,-0.53000000,1.11000000,-84.17000000,-228.39000000,-170.29000000
991,1778626167.254125,-0.53000000,-0.53000000,1.11000000,-84.17000000,-228.39000000,-170.29000000
992,1778626167.2632508,-0.53000000,-0.53000000,1.11000000,-84.17000000,-228.39000000,-170.29000000
993,1778626167.273796,-0.90000000,-0.49000000,1.34000000,-129.94000000,-159.36000000,-255.92000000
994,1778626167.284214,-0.90000000,-0.49000000,1.34000000,-129.94000000,-159.36000000,-255.92000000
995,1778626167.294859,-0.90000000,-0.49000000,1.34000000,-129.94000000,-159.36000000,-255.92000000
996,1778626167.304228,-0.90000000,-0.49000000,1.34000000,-129.94000000,-159.36000000,-255.92000000
997,1778626167.313227,-0.75000000,-0.76000000,0.94000000,-109.01000000,-143.43000000,-242.68000000
998,1778626167.322777,-0.75000000,-0.76000000,0.94000000,-109.01000000,-143.43000000,-242.68000000
999,1778626167.334229,-0.75000000,-0.76000000,0.94000000,-109.01000000,-143.43000000,-242.68000000
1000,1778626167.344696,-0.75000000,-0.76000000,0.94000000,-109.01000000,-143.43000000,-242.68000000
