id,timestamp,acc_x,acc_y,acc_z,gyro_x,gyro_y,gyro_z
1,1778611432.051035,-0.01,0.47,0.01,11.54,121.83,96.37
2,1778611432.051052,-0.01,0.47,0.01,11.54,121.83,96.37
3,1778611432.05851,-0.01,0.47,0.01,11.54,121.83,96.37
4,1778611432.068568,-0.01,0.47,0.01,11.54,121.83,96.37
5,1778611432.078511,-0.16,0.19,-0.22,44.86,92.65,146.55
6,1778611432.088613,-0.07,0.5,0.48,44.86,92.65,146.55
7,1778611432.098571,-0.07,0.5,0.48,73.12,79.96,179.99
8,1778611432.108618,-0.07,0.5,0.48,73.12,79.96,179.99
9,1778611432.118592,-0.07,0.5,0.48,73.12,79.96,179.99
10,1778611432.128525,-0.02,1.45,1.19,78.74,168.46,119.26
11,1778611432.138497,-0.02,1.45,1.19,78.74,168.46,119.26
12,1778611432.1485498,-0.02,1.45,1.19,78.74,168.46,119.26
13,1778611432.1585112,-0.02,1.45,1.19,78.74,168.46,119.26
14,1778611432.1685781,-0.84,2.23,2.58,142.94,52.19,145.26
15,1778611432.1786082,-0.84,2.23,2.58,142.94,52.19,145.26
16,1778611432.188494,-0.84,2.23,2.58,142.94,52.19,145.26
17,1778611432.1985059,-0.84,2.23,2.58,142.94,52.19,145.26
18,1778611432.208555,0.31,2.92,3.79,356.93,112.55,159.79
19,1778611432.218555,0.31,2.92,3.79,356.93,112.55,159.79
20,1778611432.2285728,0.31,2.92,3.79,356.93,112.55,159.79
21,1778611432.238591,0.31,2.92,3.79,356.93,112.55,159.79
22,1778611432.248489,0.49,1.52,2.94,322.94,116.76,-36.19
23,1778611432.258517,0.49,1.52,2.94,322.94,116.76,-36.19
24,1778611432.268609,0.49,1.52,2.94,322.94,116.76,-36.19
25,1778611432.278569,-0.09,-0.49,1.38,322.94,116.76,-36.19
26,1778611432.288527,-0.09,-0.49,1.38,188.42,258.3,-147.71
27,1778611432.2985039,-0.09,-0.49,1.38,188.42,258.3,-147.71
28,1778611432.308609,-0.09,-0.49,1.38,188.42,258.3,-147.71
29,1778611432.318601,-0.35,-1.14,0.37,188.42,258.3,-147.71
30,1778611432.328594,-0.35,-1.14,0.37,109.13,237.79,-60.79
31,1778611432.3385868,-0.35,-1.14,0.37,109.13,237.79,-60.79
32,1778611432.348576,-0.35,-1.14,0.37,109.13,237.79,-60.79
33,1778611432.358541,-0.15,-0.97,0.07,47.85,186.83,45.35
34,1778611432.368584,-0.15,-0.97,0.07,47.85,186.83,45.35
35,1778611432.3785,-0.15,-0.97,0.07,47.85,186.83,45.35
36,1778611432.3885171,-0.15,-0.97,0.07,47.85,186.83,45.35
37,1778611432.3985212,0.09,-0.85,-0.07,-24.6,161.07,71.84
38,1778611432.408491,0.09,-0.85,-0.07,-24.6,161.07,71.84
39,1778611432.418598,0.09,-0.85,-0.07,-24.6,161.07,71.84
40,1778611432.4285681,0.09,-0.85,-0.07,-24.6,161.07,71.84
41,1778611432.438526,0.29,-0.91,-0.06,-77.94,135.5,83.74
42,1778611432.44849,0.29,-0.91,-0.06,-77.94,135.5,83.74
43,1778611432.458588,0.29,-0.91,-0.06,-77.94,135.5,83.74
44,1778611432.468605,0.29,-0.91,-0.06,-77.94,135.5,83.74
45,1778611432.478508,0.45,-0.92,-0.12,-134.95,103.64,101.87
46,1778611432.48852,0.45,-0.92,-0.12,-134.95,103.64,101.87
47,1778611432.498606,0.45,-0.92,-0.12,-134.95,103.64,101.87
48,1778611432.508529,0.45,-0.92,-0.12,-134.95,103.64,101.87
49,1778611432.5185869,0.45,-0.92,-0.12,-134.95,103.64,101.87
50,1778611432.5285099,0.45,-0.92,-0.12,-134.95,103.64,101.87
51,1778611432.538547,0.45,-0.92,-0.12,-134.95,103.64,101.87
52,1778611432.5486028,0.45,-0.92,-0.12,-134.95,103.64,101.87
53,1778611432.55849,0.45,-0.92,-0.12,-134.95,103.64,101.87
54,1778611432.568528,0.45,-0.92,-0.12,-134.95,103.64,101.87
55,1778611432.578534,0.45,-0.92,-0.12,-134.95,103.64,101.87
56,1778611432.5885499,0.45,-0.92,-0.12,-134.95,103.64,101.87
57,1778611432.598589,1.2,1.92,4.51,-337.65,-155.52,8.48
58,1778611432.608617,1.2,1.92,4.51,-337.65,-155.52,8.48
59,1778611432.618506,1.2,1.92,4.51,-337.65,-155.52,8.48
60,1778611432.628556,0.52,2.81,4.29,-88.87,63.96,19.71
61,1778611432.6385632,0.52,2.81,4.29,-88.87,63.96,19.71
62,1778611432.6485949,0.52,2.81,4.29,-88.87,63.96,19.71
63,1778611432.6585011,0.35,1.82,1.63,11.11,119.45,-2.14
64,1778611432.668523,0.35,1.82,1.63,11.11,119.45,-2.14
65,1778611432.67853,0.35,1.82,1.63,11.11,119.45,-2.14
66,1778611432.68855,0.35,1.82,1.63,11.11,119.45,-2.14
67,1778611432.6985888,0.22,0.93,0.36,11.11,119.45,-2.14
68,1778611432.70861,0.22,0.93,0.36,25.7,70.25,32.23
69,1778611432.718518,0.22,0.93,0.36,25.7,70.25,32.23
70,1778611432.728578,0.09,0.75,0.16,32.17,61.1,41.63
71,1778611432.738614,0.09,0.75,0.16,32.17,61.1,41.63
72,1778611432.748508,0.09,0.75,0.16,32.17,61.1,41.63
73,1778611432.758549,0.09,0.75,0.16,32.17,61.1,41.63
74,1778611432.7685812,-0.13,0.54,-0.13,49.13,64.27,51.09
75,1778611432.77849,-0.13,0.54,-0.13,49.13,64.27,51.09
76,1778611432.7885282,-0.13,0.54,-0.13,49.13,64.27,51.09
77,1778611432.798569,-0.13,0.54,-0.13,49.13,64.27,51.09
78,1778611432.8086011,-0.29,0.21,-0.4,73.43,33.2,78.06
79,1778611432.8184881,-0.29,0.21,-0.4,73.43,33.2,78.06
80,1778611432.8285508,-0.29,0.21,-0.4,73.43,33.2,78.06
81,1778611432.838582,-0.29,0.21,-0.4,73.43,33.2,78.06
82,1778611432.8485088,-0.31,0.28,0.26,118.71,20.81,128.48
83,1778611432.858551,-0.31,0.28,0.26,118.71,20.81,128.48
84,1778611432.868574,-0.31,0.28,0.26,118.71,20.81,128.48
85,1778611432.878606,0.02,1.06,0.86,118.71,20.81,128.48
86,1778611432.888514,0.02,1.06,0.86,115.78,127.93,80.02
87,1778611432.898546,0.02,1.06,0.86,115.78,127.93,80.02
88,1778611432.9085839,0.02,1.06,0.86,115.78,127.93,80.02
89,1778611432.918499,-0.28,1.94,1.48,117.49,165.41,2.93
90,1778611432.928569,-0.28,1.94,1.48,117.49,165.41,2.93
91,1778611432.938509,-0.28,1.94,1.48,117.49,165.41,2.93
92,1778611432.948562,-0.28,1.94,1.48,117.49,165.41,2.93
93,1778611432.958499,-0.16,3.22,3.91,282.59,135.56,99.98
94,1778611432.9685051,-0.16,3.22,3.91,282.59,135.56,99.98
95,1778611432.97854,-0.16,3.22,3.91,282.59,135.56,99.98
96,1778611432.988582,-0.16,3.22,3.91,282.59,135.56,99.98
97,1778611432.9986079,0.19,1.7,1.33,260.68,172.97,18.49
98,1778611433.008609,0.19,1.7,1.33,260.68,172.97,18.49
99,1778611433.018496,0.19,1.7,1.33,260.68,172.97,18.49
100,1778611433.02853,0.19,1.7,1.33,260.68,172.97,18.49
101,1778611433.0385458,0.16,0.91,1.56,260.68,172.97,18.49
102,1778611433.048595,0.16,0.91,1.56,260.68,172.97,18.49
103,1778611433.0586162,0.16,0.91,1.56,260.68,172.97,18.49
104,1778611433.068502,0.16,0.91,1.56,260.68,172.97,18.49
105,1778611433.0785081,0.16,0.91,1.56,260.68,172.97,18.49
106,1778611433.088565,0.16,0.91,1.56,260.68,172.97,18.49
107,1778611433.098592,0.16,0.91,1.56,260.68,172.97,18.49
108,1778611433.108565,0.16,0.91,1.56,260.68,172.97,18.49
109,1778611433.1185129,0.16,0.91,1.56,260.68,172.97,18.49
110,1778611433.12857,0.16,0.91,1.56,260.68,172.97,18.49
111,1778611433.138603,0.13,-0.5,0.14,47.61,173.89,-119.45
112,1778611433.1484978,-0.11,-0.94,-0.19,47.61,173.89,-119.45
113,1778611433.158506,-0.11,-0.94,-0.19,-20.39,104.55,-64.03
114,1778611433.168523,-0.11,-0.94,-0.19,-20.39,104.55,-64.03
115,1778611433.1785579,-0.11,-0.94,-0.19,-20.39,104.55,-64.03
116,1778611433.18857,-0.03,-0.83,-0.03,-33.33,25.33,32.84
117,1778611433.198606,-0.03,-0.83,-0.03,-33.33,25.33,32.84
118,1778611433.2085,-0.03,-0.83,-0.03,-33.33,25.33,32.84
119,1778611433.218543,-0.03,-0.83,-0.03,-33.33,25.33,32.84
120,1778611433.228566,0.21,-0.71,-0.16,-93.08,-1.53,39.37
121,1778611433.238613,0.21,-0.71,-0.16,-93.08,-1.53,39.37
122,1778611433.248496,0.21,-0.71,-0.16,-93.08,-1.53,39.37
123,1778611433.25851,0.21,-0.71,-0.16,-93.08,-1.53,39.37
124,1778611433.268536,0.21,-0.71,-0.16,-93.08,-1.53,39.37
125,1778611433.2785668,0.3,-0.98,0.04,-170.53,-55.66,33.14
126,1778611433.288567,0.3,-0.98,0.04,-170.53,-55.66,33.14
127,1778611433.298603,0.3,-0.98,0.04,-170.53,-55.66,33.14
128,1778611433.308492,0.75,-0.77,0.28,-185.18,-121.58,111.63
129,1778611433.318516,0.75,-0.77,0.28,-185.18,-121.58,111.63
130,1778611433.328552,0.75,-0.77,0.28,-185.18,-121.58,111.63
131,1778611433.338569,0.75,-0.77,0.28,-185.18,-121.58,111.63
132,1778611433.3485372,1.19,0.91,1.77,-362.12,-121.28,-6.84
133,1778611433.3585122,1.19,0.91,1.77,-362.12,-121.28,-6.84
134,1778611433.368526,1.19,0.91,1.77,-362.12,-121.28,-6.84
135,1778611433.378554,0.76,1.49,3.37,-362.12,-121.28,-6.84
136,1778611433.388573,0.76,1.49,3.37,-406.19,-101.32,-144.04
137,1778611433.398599,0.76,1.49,3.37,-406.19,-101.32,-144.04
138,1778611433.4085078,0.76,1.49,3.37,-406.19,-101.32,-144.04
139,1778611433.41853,0.08,1.56,3.93,-406.19,-101.32,-144.04
140,1778611433.4285529,0.08,1.56,3.93,-209.11,-130.43,-62.01
141,1778611433.438556,0.08,1.56,3.93,-209.11,-130.43,-62.01
142,1778611433.448579,0.08,1.56,3.93,-209.11,-130.43,-62.01
143,1778611433.458605,0.19,1.77,2.05,-209.11,-130.43,-62.01
144,1778611433.468514,0.19,1.77,2.05,-10.38,13.0,-19.35
145,1778611433.478534,0.19,1.77,2.05,-10.38,13.0,-19.35
146,1778611433.4885602,0.19,1.77,2.05,-10.38,13.0,-19.35
147,1778611433.4985862,0.24,1.17,0.58,-6.9,38.51,-61.58
148,1778611433.508589,0.24,1.17,0.58,-6.9,38.51,-61.58
149,1778611433.5186071,0.24,1.17,0.58,-6.9,38.51,-61.58
150,1778611433.528523,0.24,1.17,0.58,-6.9,38.51,-61.58
151,1778611433.5385458,0.16,0.81,0.18,-0.49,29.36,-79.47
152,1778611433.548557,0.16,0.81,0.18,-0.49,29.36,-79.47
153,1778611433.558609,0.16,0.81,0.18,-0.49,29.36,-79.47
154,1778611433.56851,0.16,0.81,0.18,-0.49,29.36,-79.47
155,1778611433.57853,0.16,0.81,0.18,-0.49,29.36,-79.47
156,1778611433.5885491,0.16,0.81,0.18,-0.49,29.36,-79.47
157,1778611433.5986109,0.16,0.81,0.18,-0.49,29.36,-79.47
158,1778611433.6085298,0.16,0.81,0.18,-0.49,29.36,-79.47
159,1778611433.618552,0.16,0.81,0.18,-0.49,29.36,-79.47
160,1778611433.62859,0.16,0.81,0.18,-0.49,29.36,-79.47
161,1778611433.638601,0.16,0.81,0.18,-0.49,29.36,-79.47
162,1778611433.6485069,-0.07,0.59,-0.2,38.39,-12.88,-63.05
163,1778611433.6585448,-0.15,0.4,-0.08,47.67,8.91,-43.03
164,1778611433.668567,-0.15,0.4,-0.08,47.67,8.91,-43.03
165,1778611433.6785831,-0.15,0.4,-0.08,47.67,8.91,-43.03
166,1778611433.688596,-0.12,0.4,0.1,49.01,34.61,-15.69
167,1778611433.6986098,-0.12,0.4,0.1,49.01,34.61,-15.69
168,1778611433.7085068,-0.12,0.4,0.1,49.01,34.61,-15.69
169,1778611433.7185988,-0.12,0.4,0.1,49.01,34.61,-15.69
170,1778611433.728611,-0.2,1.0,0.51,-0.85,138.12,-45.84
171,1778611433.738515,-0.2,1.0,0.51,-0.85,138.12,-45.84
172,1778611433.748499,-0.2,1.0,0.51,-0.85,138.12,-45.84
173,1778611433.7586,-0.83,1.74,2.92,52.92,-8.42,46.14
174,1778611433.768489,-0.83,1.74,2.92,52.92,-8.42,46.14
175,1778611433.778532,-0.83,1.74,2.92,52.92,-8.42,46.14
176,1778611433.788536,-0.4,3.0,4.93,245.42,101.87,60.0
177,1778611433.798555,-0.4,3.0,4.93,245.42,101.87,60.0
178,1778611433.808602,-0.4,3.0,4.93,245.42,101.87,60.0
179,1778611433.8185139,-0.4,3.0,4.93,245.42,101.87,60.0
180,1778611433.8286111,-0.03,1.41,2.37,245.42,101.87,60.0
181,1778611433.838596,-0.03,1.41,2.37,288.15,97.41,17.7
182,1778611433.8485959,-0.03,1.41,2.37,288.15,97.41,17.7
183,1778611433.858613,-0.03,1.41,2.37,288.15,97.41,17.7
184,1778611433.868503,0.2,0.24,1.63,277.28,129.58,-33.75
185,1778611433.878536,0.2,0.24,1.63,277.28,129.58,-33.75
186,1778611433.8885581,0.2,0.24,1.63,277.28,129.58,-33.75
187,1778611433.8985732,0.2,0.24,1.63,277.28,129.58,-33.75
188,1778611433.908611,0.19,-0.58,0.17,143.68,153.2,-68.3
189,1778611433.918507,0.19,-0.58,0.17,143.68,153.2,-68.3
190,1778611433.928558,0.19,-0.58,0.17,143.68,153.2,-68.3
191,1778611433.938587,0.19,-0.58,0.17,143.68,153.2,-68.3
192,1778611433.94849,0.14,-0.96,-0.12,41.26,93.75,-56.95
193,1778611433.9585102,0.14,-0.96,-0.12,41.26,93.75,-56.95
194,1778611433.968517,0.14,-0.96,-0.12,41.26,93.75,-56.95
195,1778611433.978579,0.14,-0.96,-0.12,41.26,93.75,-56.95
196,1778611433.988502,0.12,-1.17,-0.16,25.57,42.11,44.01
197,1778611433.9985468,0.12,-1.17,-0.16,25.57,42.11,44.01
198,1778611434.008599,0.12,-1.17,-0.16,25.57,42.11,44.01
199,1778611434.0185459,0.44,-0.96,-0.53,25.57,42.11,44.01
200,1778611434.0285928,0.44,-0.96,-0.53,24.05,-40.65,103.39
201,1778611434.038504,0.44,-0.96,-0.53,24.05,-40.65,103.39
202,1778611434.048574,0.44,-0.96,-0.53,24.05,-40.65,103.39
203,1778611434.058516,0.55,-0.9,-0.33,24.05,-40.65,103.39
204,1778611434.0685718,0.55,-0.9,-0.33,-65.43,-103.21,101.93
205,1778611434.078548,0.55,-0.9,-0.33,-65.43,-103.21,101.93
206,1778611434.088554,0.55,-0.9,-0.33,-65.43,-103.21,101.93
207,1778611434.098591,0.55,-0.9,-0.33,-65.43,-103.21,101.93
208,1778611434.108601,0.55,-0.9,-0.33,-65.43,-103.21,101.93
209,1778611434.1186008,0.55,-0.9,-0.33,-65.43,-103.21,101.93
210,1778611434.128525,0.55,-0.9,-0.33,-65.43,-103.21,101.93
211,1778611434.13854,0.55,-0.9,-0.33,-65.43,-103.21,101.93
212,1778611434.1485848,0.55,-0.9,-0.33,-65.43,-103.21,101.93
213,1778611434.158517,0.55,-0.9,-0.33,-65.43,-103.21,101.93
214,1778611434.1684868,0.55,-0.9,-0.33,-65.43,-103.21,101.93
215,1778611434.1785338,1.56,1.11,5.47,-352.29,-393.92,4.27
216,1778611434.188577,1.56,1.11,5.47,-352.29,-393.92,4.27
217,1778611434.198587,1.56,1.11,5.47,-352.29,-393.92,4.27
218,1778611434.2085,1.56,1.11,5.47,-352.29,-393.92,4.27
219,1778611434.218511,0.86,3.19,4.62,-252.69,-7.81,-56.15
220,1778611434.228531,0.86,3.19,4.62,-252.69,-7.81,-56.15
221,1778611434.23855,0.86,3.19,4.62,-252.69,-7.81,-56.15
222,1778611434.248571,0.86,3.19,4.62,-252.69,-7.81,-56.15
223,1778611434.2586088,-0.02,1.83,2.26,-129.52,49.07,-131.16
224,1778611434.268518,-0.02,1.83,2.26,-129.52,49.07,-131.16
225,1778611434.278563,-0.02,1.83,2.26,-129.52,49.07,-131.16
226,1778611434.288579,-0.02,1.83,2.26,-129.52,49.07,-131.16
227,1778611434.2986062,-0.14,0.95,0.67,-27.89,18.49,-54.02
228,1778611434.3084989,-0.14,0.95,0.67,-27.89,18.49,-54.02
229,1778611434.31852,-0.14,0.95,0.67,-27.89,18.49,-54.02
230,1778611434.328556,-0.14,0.95,0.67,-27.89,18.49,-54.02
231,1778611434.338568,-0.03,0.82,0.13,-17.03,9.46,-48.46
232,1778611434.348612,-0.03,0.82,0.13,-17.03,9.46,-48.46
233,1778611434.358507,-0.03,0.82,0.13,-17.03,9.46,-48.46
234,1778611434.368524,-0.07,0.68,-0.1,-17.03,9.46,-48.46
235,1778611434.3785532,-0.07,0.68,-0.1,-0.37,-9.34,-42.79
236,1778611434.388565,-0.07,0.68,-0.1,-0.37,-9.34,-42.79
237,1778611434.3985841,-0.14,0.73,-0.17,16.6,-5.0,-26.86
238,1778611434.4084868,-0.14,0.73,-0.17,16.6,-5.0,-26.86
239,1778611434.418493,-0.14,0.73,-0.17,16.6,-5.0,-26.86
240,1778611434.428521,-0.14,0.73,-0.17,16.6,-5.0,-26.86
241,1778611434.438549,-0.19,0.66,-0.14,43.09,11.23,-14.89
242,1778611434.4485528,-0.19,0.66,-0.14,43.09,11.23,-14.89
243,1778611434.458583,-0.19,0.66,-0.14,43.09,11.23,-14.89
244,1778611434.468593,-0.19,0.66,-0.14,43.09,11.23,-14.89
245,1778611434.478504,-0.21,0.65,0.17,74.89,21.91,7.45
246,1778611434.4885252,-0.21,0.65,0.17,74.89,21.91,7.45
247,1778611434.498538,-0.21,0.65,0.17,74.89,21.91,7.45
248,1778611434.5086,-0.19,0.71,0.53,103.03,50.6,27.28
249,1778611434.5185091,-0.19,0.71,0.53,103.03,50.6,27.28
250,1778611434.528537,-0.19,0.71,0.53,103.03,50.6,27.28
251,1778611434.538562,-0.19,0.71,0.53,103.03,50.6,27.28
252,1778611434.5486069,-0.22,1.78,1.15,71.59,158.63,-15.26
253,1778611434.5585332,-0.22,1.78,1.15,71.59,158.63,-15.26
254,1778611434.568544,-0.22,1.78,1.15,71.59,158.63,-15.26
255,1778611434.578581,-0.93,3.05,4.49,71.59,158.63,-15.26
256,1778611434.5885959,-0.93,3.05,4.49,170.65,46.08,1.22
257,1778611434.598486,-0.93,3.05,4.49,170.65,46.08,1.22
258,1778611434.608501,-0.93,3.05,4.49,170.65,46.08,1.22
259,1778611434.6185112,-0.93,3.05,4.49,170.65,46.08,1.22
260,1778611434.6285539,-0.93,3.05,4.49,170.65,46.08,1.22
261,1778611434.638577,-0.93,3.05,4.49,170.65,46.08,1.22
262,1778611434.64861,-0.93,3.05,4.49,170.65,46.08,1.22
263,1778611434.658509,-0.93,3.05,4.49,170.65,46.08,1.22
264,1778611434.668562,-0.93,3.05,4.49,170.65,46.08,1.22
265,1778611434.678591,-0.93,3.05,4.49,170.65,46.08,1.22
266,1778611434.688607,-0.93,3.05,4.49,170.65,46.08,1.22
267,1778611434.698515,0.32,0.24,1.46,227.97,162.54,-59.39
268,1778611434.708547,0.32,0.24,1.46,227.97,162.54,-59.39
269,1778611434.718571,0.32,0.24,1.46,227.97,162.54,-59.39
270,1778611434.7286122,0.16,-0.87,0.41,114.01,199.4,-97.6
271,1778611434.7385201,0.16,-0.87,0.41,114.01,199.4,-97.6
272,1778611434.748539,0.16,-0.87,0.41,114.01,199.4,-97.6
273,1778611434.758571,0.16,-0.87,0.41,114.01,199.4,-97.6
274,1778611434.768606,0.12,-1.15,-0.02,47.3,154.05,-22.77
275,1778611434.7785048,0.12,-1.15,-0.02,47.3,154.05,-22.77
276,1778611434.788511,0.12,-1.15,-0.02,47.3,154.05,-22.77
277,1778611434.7985542,0.12,-1.15,-0.02,47.3,154.05,-22.77
278,1778611434.808578,0.27,-1.13,-0.3,34.91,87.77,75.38
279,1778611434.8185952,0.27,-1.13,-0.3,34.91,87.77,75.38
280,1778611434.828501,0.27,-1.13,-0.3,34.91,87.77,75.38
281,1778611434.838537,0.52,-0.95,-0.48,17.82,0.61,114.5
282,1778611434.848576,0.52,-0.95,-0.48,17.82,0.61,114.5
283,1778611434.858618,0.52,-0.95,-0.48,17.82,0.61,114.5
284,1778611434.8685162,0.52,-0.95,-0.48,17.82,0.61,114.5
285,1778611434.878557,0.54,-0.87,-0.38,-85.69,-7.57,92.35
286,1778611434.888576,0.54,-0.87,-0.38,-85.69,-7.57,92.35
287,1778611434.898603,0.54,-0.87,-0.38,-85.69,-7.57,92.35
288,1778611434.908501,0.58,-0.9,-0.57,-157.71,-28.26,101.26
289,1778611434.918508,0.58,-0.9,-0.57,-157.71,-28.26,101.26
290,1778611434.928562,0.58,-0.9,-0.57,-157.71,-28.26,101.26
291,1778611434.938601,0.58,-0.9,-0.57,-157.71,-28.26,101.26
292,1778611434.9485052,1.64,0.03,-0.36,-400.15,-115.6,131.29
293,1778611434.958503,1.64,0.03,-0.36,-400.15,-115.6,131.29
294,1778611434.9685462,1.64,0.03,-0.36,-400.15,-115.6,131.29
295,1778611434.978542,1.64,0.03,-0.36,-400.15,-115.6,131.29
296,1778611434.988557,1.31,1.49,4.69,-429.5,-202.94,-17.4
297,1778611434.998593,1.31,1.49,4.69,-429.5,-202.94,-17.4
298,1778611435.0086038,1.31,1.49,4.69,-429.5,-202.94,-17.4
299,1778611435.018517,0.63,2.29,4.54,-330.99,17.52,-10.25
300,1778611435.0285141,0.63,2.29,4.54,-330.99,17.52,-10.25
301,1778611435.0385349,0.63,2.29,4.54,-330.99,17.52,-10.25
302,1778611435.048573,0.63,2.29,4.54,-330.99,17.52,-10.25
303,1778611435.058589,0.23,1.71,2.4,-130.74,-28.75,87.4
304,1778611435.068573,0.23,1.71,2.4,-130.74,-28.75,87.4
305,1778611435.078601,0.23,1.71,2.4,-130.74,-28.75,87.4
306,1778611435.088497,0.23,1.71,2.4,-130.74,-28.75,87.4
307,1778611435.0985322,0.38,1.42,1.01,-53.34,-11.6,136.47
308,1778611435.1085498,0.38,1.42,1.01,-53.34,-11.6,136.47
309,1778611435.118581,0.38,1.42,1.01,-53.34,-11.6,136.47
310,1778611435.1284852,0.38,1.42,1.01,-53.34,-11.6,136.47
311,1778611435.1385012,0.38,1.42,1.01,-53.34,-11.6,136.47
312,1778611435.148554,0.38,1.42,1.01,-53.34,-11.6,136.47
313,1778611435.158586,0.38,1.42,1.01,-53.34,-11.6,136.47
314,1778611435.168559,0.38,1.42,1.01,-53.34,-11.6,136.47
315,1778611435.1785338,0.38,1.42,1.01,-53.34,-11.6,136.47
316,1778611435.1885571,0.38,1.42,1.01,-53.34,-11.6,136.47
317,1778611435.198547,0.38,1.42,1.01,-53.34,-11.6,136.47
318,1778611435.208502,0.38,1.42,1.01,-53.34,-11.6,136.47
319,1778611435.218552,0.38,1.42,1.01,-53.34,-11.6,136.47
320,1778611435.228514,-0.49,0.76,0.27,-12.45,37.41,27.89
321,1778611435.238561,-0.49,0.76,0.27,-12.45,37.41,27.89
322,1778611435.248518,-0.5,0.7,0.31,42.91,61.89,53.77
323,1778611435.258528,-0.5,0.7,0.31,42.91,61.89,53.77
324,1778611435.26855,-0.5,0.7,0.31,42.91,61.89,53.77
325,1778611435.278487,-0.5,0.7,0.31,42.91,61.89,53.77
326,1778611435.2885041,-0.4,0.7,0.44,105.29,62.13,88.44
327,1778611435.2985349,-0.4,0.7,0.44,105.29,62.13,88.44
328,1778611435.308537,-0.4,0.7,0.44,105.29,62.13,88.44
329,1778611435.3185558,-0.4,0.7,0.44,105.29,62.13,88.44
330,1778611435.3285801,-0.24,0.9,1.11,140.56,98.94,95.34
331,1778611435.3385851,-0.24,0.9,1.11,140.56,98.94,95.34
332,1778611435.348491,-0.24,0.9,1.11,140.56,98.94,95.34
333,1778611435.358496,-0.24,0.9,1.11,140.56,98.94,95.34
334,1778611435.368513,-0.22,1.69,2.08,194.27,139.77,60.12
335,1778611435.37854,-0.22,1.69,2.08,194.27,139.77,60.12
336,1778611435.388566,-0.22,1.69,2.08,194.27,139.77,60.12
337,1778611435.398589,-0.22,1.69,2.08,194.27,139.77,60.12
338,1778611435.4086132,-0.38,2.72,4.21,217.47,98.02,60.06
339,1778611435.418495,-0.38,2.72,4.21,217.47,98.02,60.06
340,1778611435.428515,-0.38,2.72,4.21,217.47,98.02,60.06
341,1778611435.438495,-0.38,2.72,4.21,217.47,98.02,60.06
342,1778611435.448537,0.67,2.02,3.84,345.83,106.32,54.93
343,1778611435.4585578,0.67,2.02,3.84,345.83,106.32,54.93
344,1778611435.468588,0.67,2.02,3.84,345.83,106.32,54.93
345,1778611435.478493,0.52,-0.19,2.06,345.83,106.32,54.93
346,1778611435.488512,0.52,-0.19,2.06,241.03,232.6,-130.55
347,1778611435.498564,0.52,-0.19,2.06,241.03,232.6,-130.55
348,1778611435.508589,0.52,-0.19,2.06,241.03,232.6,-130.55
349,1778611435.51861,0.16,-1.26,0.45,131.35,272.16,-98.27
350,1778611435.528508,0.16,-1.26,0.45,131.35,272.16,-98.27
351,1778611435.538507,0.16,-1.26,0.45,131.35,272.16,-98.27
352,1778611435.54855,0.16,-1.26,0.45,131.35,272.16,-98.27
353,1778611435.558555,0.06,-1.31,-0.28,66.59,192.08,1.04
354,1778611435.568578,0.06,-1.31,-0.28,66.59,192.08,1.04
355,1778611435.57861,0.06,-1.31,-0.28,66.59,192.08,1.04
356,1778611435.588502,0.18,-1.12,-0.46,27.22,142.09,58.29
357,1778611435.598507,0.18,-1.12,-0.46,27.22,142.09,58.29
358,1778611435.6085389,0.18,-1.12,-0.46,27.22,142.09,58.29
359,1778611435.618519,0.18,-1.12,-0.46,27.22,142.09,58.29
360,1778611435.628541,0.35,-1.01,-0.55,-23.38,66.59,88.93
361,1778611435.638568,0.35,-1.01,-0.55,-23.38,66.59,88.93
362,1778611435.6485991,0.35,-1.01,-0.55,-23.38,66.59,88.93
363,1778611435.658487,0.35,-1.01,-0.55,-23.38,66.59,88.93
364,1778611435.668512,0.35,-1.01,-0.55,-23.38,66.59,88.93
365,1778611435.6785438,0.35,-1.01,-0.55,-23.38,66.59,88.93
366,1778611435.68855,0.35,-1.01,-0.55,-23.38,66.59,88.93
367,1778611435.698575,0.35,-1.01,-0.55,-23.38,66.59,88.93
368,1778611435.708598,0.35,-1.01,-0.55,-23.38,66.59,88.93
369,1778611435.718613,0.35,-1.01,-0.55,-23.38,66.59,88.93
370,1778611435.728488,0.35,-1.01,-0.55,-23.38,66.59,88.93
371,1778611435.7385101,0.35,-1.01,-0.55,-23.38,66.59,88.93
372,1778611435.748547,1.25,-0.39,-0.19,-250.43,-84.47,142.21
373,1778611435.758574,1.25,-0.39,-0.19,-250.43,-84.47,142.21
374,1778611435.768605,1.25,-0.39,-0.19,-250.43,-84.47,142.21
375,1778611435.778511,1.81,0.87,2.32,-338.01,-121.7,36.68
376,1778611435.788536,1.81,0.87,2.32,-338.01,-121.7,36.68
377,1778611435.7985651,1.81,0.87,2.32,-338.01,-121.7,36.68
378,1778611435.808589,0.78,1.44,3.96,-327.76,-53.77,-41.5
379,1778611435.8185039,0.78,1.44,3.96,-327.76,-53.77,-41.5
380,1778611435.8286028,0.78,1.44,3.96,-327.76,-53.77,-41.5
381,1778611435.838609,0.35,1.47,3.02,-238.53,-32.65,39.18
382,1778611435.84851,0.35,1.47,3.02,-238.53,-32.65,39.18
383,1778611435.858539,0.35,1.47,3.02,-238.53,-32.65,39.18
384,1778611435.868591,0.35,1.47,3.02,-238.53,-32.65,39.18
385,1778611435.878506,0.4,1.47,2.04,-81.18,-92.71,148.32
386,1778611435.8885179,0.4,1.47,2.04,-81.18,-92.71,148.32
387,1778611435.898547,0.4,1.47,2.04,-81.18,-92.71,148.32
388,1778611435.908587,0.55,1.56,1.31,-81.18,-92.71,148.32
389,1778611435.918488,0.55,1.56,1.31,-1.04,-74.95,138.18
390,1778611435.9285161,0.55,1.56,1.31,-1.04,-74.95,138.18
391,1778611435.9385338,0.55,1.56,1.31,-1.04,-74.95,138.18
392,1778611435.948559,0.21,1.12,0.54,-1.04,-74.95,138.18
393,1778611435.958608,0.21,1.12,0.54,4.46,-61.34,85.02
394,1778611435.968496,0.21,1.12,0.54,4.46,-61.34,85.02
395,1778611435.978543,0.21,1.12,0.54,4.46,-61.34,85.02
396,1778611435.9885929,-0.22,0.87,0.47,12.15,-53.22,61.83
397,1778611435.9985092,-0.22,0.87,0.47,12.15,-53.22,61.83
398,1778611436.008503,-0.22,0.87,0.47,12.15,-53.22,61.83
399,1778611436.018572,-0.22,0.87,0.47,12.15,-53.22,61.83
400,1778611436.028488,-0.43,0.94,0.71,60.12,-9.52,74.95
401,1778611436.038542,-0.43,0.94,0.71,60.12,-9.52,74.95
402,1778611436.048583,-0.43,0.94,0.71,60.12,-9.52,74.95
403,1778611436.058613,-0.38,1.01,0.59,60.12,-9.52,74.95
404,1778611436.0685189,-0.38,1.01,0.59,145.51,17.15,91.43
405,1778611436.078542,-0.38,1.01,0.59,145.51,17.15,91.43
406,1778611436.088599,-0.38,1.01,0.59,145.51,17.15,91.43
407,1778611436.0985348,-0.28,0.94,0.7,185.61,82.82,54.75
408,1778611436.108585,-0.28,0.94,0.7,185.61,82.82,54.75
409,1778611436.1185029,-0.28,0.94,0.7,185.61,82.82,54.75
410,1778611436.1285372,-0.28,0.94,0.7,185.61,82.82,54.75
411,1778611436.138605,-0.27,0.68,0.98,224.61,115.3,52.67
412,1778611436.148557,-0.27,0.68,0.98,224.61,115.3,52.67
413,1778611436.158587,-0.27,0.68,0.98,224.61,115.3,52.67
414,1778611436.1685371,-0.27,0.68,0.98,224.61,115.3,52.67
415,1778611436.178601,0.01,1.82,2.02,246.46,128.54,85.45
416,1778611436.188519,0.01,1.82,2.02,246.46,128.54,85.45
417,1778611436.198585,0.01,1.82,2.02,246.46,128.54,85.45
418,1778611436.20853,0.01,1.82,2.02,246.46,128.54,85.45
419,1778611436.218582,0.01,1.82,2.02,246.46,128.54,85.45
420,1778611436.228598,0.01,1.82,2.02,246.46,128.54,85.45
421,1778611436.238498,0.01,1.82,2.02,246.46,128.54,85.45
422,1778611436.248524,0.01,1.82,2.02,246.46,128.54,85.45
423,1778611436.2585652,0.01,1.82,2.02,246.46,128.54,85.45
424,1778611436.268516,0.01,1.82,2.02,246.46,128.54,85.45
425,1778611436.278592,1.32,2.1,3.14,361.45,139.65,-56.76
426,1778611436.288597,1.12,0.73,3.47,290.34,178.04,-234.5
427,1778611436.29852,1.12,0.73,3.47,290.34,178.04,-234.5
428,1778611436.308552,1.12,0.73,3.47,290.34,178.04,-234.5
429,1778611436.3185868,0.5,-1.09,1.64,290.34,178.04,-234.5
430,1778611436.328612,0.5,-1.09,1.64,151.0,322.94,-247.01
431,1778611436.338603,0.5,-1.09,1.64,151.0,322.94,-247.01
432,1778611436.348505,0.5,-1.09,1.64,151.0,322.94,-247.01
433,1778611436.358538,0.26,-1.5,0.45,151.0,322.94,-247.01
434,1778611436.3685608,0.26,-1.5,0.45,85.69,298.58,-108.34
435,1778611436.378601,0.26,-1.5,0.45,85.69,298.58,-108.34
436,1778611436.388499,0.26,-1.5,0.45,85.69,298.58,-108.34
437,1778611436.3985422,0.29,-1.22,-0.06,35.03,197.39,0.31
438,1778611436.408569,0.29,-1.22,-0.06,35.03,197.39,0.31
439,1778611436.418584,0.29,-1.22,-0.06,35.03,197.39,0.31
440,1778611436.428604,0.29,-1.22,-0.06,35.03,197.39,0.31
441,1778611436.438488,0.25,-1.01,-0.32,35.03,197.39,0.31
442,1778611436.4485571,0.25,-1.01,-0.32,-10.38,110.17,46.63
443,1778611436.458591,0.25,-1.01,-0.32,-10.38,110.17,46.63
444,1778611436.46851,0.25,-1.01,-0.32,-10.38,110.17,46.63
445,1778611436.478573,0.3,-0.82,-0.41,-70.8,26.73,90.58
446,1778611436.488545,0.3,-0.82,-0.41,-70.8,26.73,90.58
447,1778611436.4985569,0.3,-0.82,-0.41,-70.8,26.73,90.58
448,1778611436.5086029,0.3,-0.82,-0.41,-70.8,26.73,90.58
449,1778611436.5184891,0.36,-0.73,-0.06,-91.55,-51.03,110.6
450,1778611436.528525,0.36,-0.73,-0.06,-91.55,-51.03,110.6
451,1778611436.538527,0.36,-0.73,-0.06,-91.55,-51.03,110.6
452,1778611436.5485241,0.75,-0.82,-0.04,-91.55,-51.03,110.6
453,1778611436.558576,0.75,-0.82,-0.04,-112.12,-65.06,177.67
454,1778611436.5685709,0.75,-0.82,-0.04,-112.12,-65.06,177.67
455,1778611436.5785768,0.75,-0.82,-0.04,-112.12,-65.06,177.67
456,1778611436.588502,1.51,-0.16,0.24,-374.02,-14.47,80.14
457,1778611436.598557,1.51,-0.16,0.24,-374.02,-14.47,80.14
458,1778611436.608564,1.51,-0.16,0.24,-374.02,-14.47,80.14
459,1778611436.618599,1.51,-0.16,0.24,-374.02,-14.47,80.14
460,1778611436.628608,1.53,0.23,2.38,-374.02,-14.47,80.14
461,1778611436.638527,1.53,0.23,2.38,-461.43,-141.48,15.01
462,1778611436.648535,1.53,0.23,2.38,-461.43,-141.48,15.01
463,1778611436.65856,1.53,0.23,2.38,-461.43,-141.48,15.01
464,1778611436.668608,1.55,2.38,5.57,-358.64,-170.53,67.5
465,1778611436.6785228,1.55,2.38,5.57,-358.64,-170.53,67.5
466,1778611436.6885362,1.55,2.38,5.57,-358.64,-170.53,67.5
467,1778611436.698567,1.55,2.38,5.57,-358.64,-170.53,67.5
468,1778611436.70861,0.85,2.6,3.82,-358.64,-170.53,67.5
469,1778611436.718514,0.85,2.6,3.82,-358.64,-170.53,67.5
470,1778611436.728551,0.85,2.6,3.82,-358.64,-170.53,67.5
471,1778611436.738576,0.85,2.6,3.82,-358.64,-170.53,67.5
472,1778611436.748613,0.85,2.6,3.82,-358.64,-170.53,67.5
473,1778611436.758512,0.85,2.6,3.82,-358.64,-170.53,67.5
474,1778611436.768536,0.85,2.6,3.82,-358.64,-170.53,67.5
475,1778611436.778574,0.85,2.6,3.82,-358.64,-170.53,67.5
476,1778611436.788613,0.85,2.6,3.82,-358.64,-170.53,67.5
477,1778611436.798501,0.1,0.85,0.16,24.35,48.52,-35.71
478,1778611436.808537,0.1,0.85,0.16,24.35,48.52,-35.71
479,1778611436.818569,-0.06,0.72,-0.19,2.75,40.83,-53.41
480,1778611436.828592,-0.06,0.72,-0.19,2.75,40.83,-53.41
481,1778611436.838499,-0.06,0.72,-0.19,2.75,40.83,-53.41
482,1778611436.848518,-0.06,0.72,-0.19,2.75,40.83,-53.41
483,1778611436.858541,-0.42,0.49,-0.35,-8.3,5.0,-43.64
484,1778611436.868544,-0.42,0.49,-0.35,-8.3,5.0,-43.64
485,1778611436.878578,-0.42,0.49,-0.35,-8.3,5.0,-43.64
486,1778611436.888612,-0.42,0.49,-0.35,-8.3,5.0,-43.64
487,1778611436.8985212,-0.58,0.42,-0.09,59.63,-45.65,31.19
488,1778611436.908546,-0.58,0.42,-0.09,59.63,-45.65,31.19
489,1778611436.91856,-0.58,0.42,-0.09,59.63,-45.65,31.19
490,1778611436.928612,-0.58,0.42,-0.09,59.63,-45.65,31.19
491,1778611436.9385118,-0.58,0.42,-0.09,59.63,-45.65,31.19
492,1778611436.948546,-0.51,0.5,0.27,81.85,-12.33,87.77
493,1778611436.9585762,-0.51,0.5,0.27,81.85,-12.33,87.77
494,1778611436.9685981,-0.51,0.5,0.27,81.85,-12.33,87.77
495,1778611436.9786031,-0.39,0.63,0.34,151.86,-16.11,119.38
496,1778611436.988596,-0.39,0.63,0.34,151.86,-16.11,119.38
497,1778611436.998614,-0.39,0.63,0.34,151.86,-16.11,119.38
498,1778611437.0085309,-0.39,0.63,0.34,151.86,-16.11,119.38
499,1778611437.018572,0.43,2.46,3.22,177.61,52.31,121.09
500,1778611437.028598,0.43,2.46,3.22,177.61,52.31,121.09
501,1778611437.0384881,0.43,2.46,3.22,177.61,52.31,121.09
502,1778611437.0485198,0.43,2.46,3.22,177.61,52.31,121.09
503,1778611437.058526,0.93,2.82,4.47,276.92,219.54,-64.27
504,1778611437.068552,0.93,2.82,4.47,276.92,219.54,-64.27
505,1778611437.078579,0.93,2.82,4.47,276.92,219.54,-64.27
506,1778611437.088613,0.93,2.82,4.47,276.92,219.54,-64.27
507,1778611437.098502,0.93,1.17,2.86,349.12,117.0,-4.39
508,1778611437.108535,0.93,1.17,2.86,349.12,117.0,-4.39
509,1778611437.118572,0.93,1.17,2.86,349.12,117.0,-4.39
510,1778611437.128588,0.75,0.04,1.63,349.12,117.0,-4.39
511,1778611437.138606,0.75,0.04,1.63,292.54,152.22,-98.63
512,1778611437.148523,0.75,0.04,1.63,292.54,152.22,-98.63
513,1778611437.1585631,0.75,0.04,1.63,292.54,152.22,-98.63
514,1778611437.168488,0.35,-0.76,0.43,140.81,195.56,-138.55
515,1778611437.178519,0.35,-0.76,0.43,140.81,195.56,-138.55
516,1778611437.188551,0.35,-0.76,0.43,140.81,195.56,-138.55
517,1778611437.1985679,0.35,-0.76,0.43,140.81,195.56,-138.55
518,1778611437.2085881,0.35,-0.76,0.43,140.81,195.56,-138.55
519,1778611437.218507,0.08,-0.97,-0.2,60.73,148.5,-69.82
520,1778611437.228547,0.08,-0.97,-0.2,60.73,148.5,-69.82
521,1778611437.2385862,0.08,-0.97,-0.2,60.73,148.5,-69.82
522,1778611437.2485042,0.08,-0.97,-0.2,60.73,148.5,-69.82
523,1778611437.258552,0.08,-0.97,-0.2,60.73,148.5,-69.82
524,1778611437.268563,0.08,-0.97,-0.2,60.73,148.5,-69.82
525,1778611437.278589,0.08,-0.97,-0.2,60.73,148.5,-69.82
526,1778611437.2886028,0.08,-0.97,-0.2,60.73,148.5,-69.82
527,1778611437.298608,0.08,-0.97,-0.2,60.73,148.5,-69.82
528,1778611437.308518,0.08,-0.97,-0.2,60.73,148.5,-69.82
529,1778611437.318541,0.08,-0.97,-0.2,60.73,148.5,-69.82
530,1778611437.3286002,0.26,-0.79,-0.33,-36.93,-11.84,60.97
531,1778611437.3386052,0.26,-0.79,-0.33,-36.93,-11.84,60.97
532,1778611437.348566,0.34,-0.95,-0.06,-116.09,-42.79,58.04
533,1778611437.358507,0.34,-0.95,-0.06,-116.09,-42.79,58.04
534,1778611437.368532,0.34,-0.95,-0.06,-116.09,-42.79,58.04
535,1778611437.37857,0.58,-1.1,-0.17,-113.46,-67.57,104.98
536,1778611437.3885791,0.58,-1.1,-0.17,-113.46,-67.57,104.98
537,1778611437.398484,0.58,-1.1,-0.17,-113.46,-67.57,104.98
538,1778611437.408542,0.58,-1.1,-0.17,-113.46,-67.57,104.98
539,1778611437.418564,1.44,0.43,0.89,-416.69,-39.73,44.13
540,1778611437.428587,1.44,0.43,0.89,-416.69,-39.73,44.13
541,1778611437.4385998,1.44,0.43,0.89,-416.69,-39.73,44.13
542,1778611437.4485052,1.44,0.43,0.89,-416.69,-39.73,44.13
543,1778611437.458533,1.24,1.71,4.54,-340.39,-197.69,-165.16
544,1778611437.468503,1.24,1.71,4.54,-340.39,-197.69,-165.16
545,1778611437.4785979,1.24,1.71,4.54,-340.39,-197.69,-165.16
546,1778611437.4885812,1.24,1.71,4.54,-340.39,-197.69,-165.16
547,1778611437.4985,-0.28,1.55,4.16,-321.9,77.33,-206.05
548,1778611437.508522,-0.28,1.55,4.16,-321.9,77.33,-206.05
549,1778611437.518542,-0.28,1.55,4.16,-321.9,77.33,-206.05
550,1778611437.5285702,-0.58,1.07,2.23,-321.9,77.33,-206.05
551,1778611437.538604,-0.58,1.07,2.23,-46.51,16.85,-28.44
552,1778611437.5484931,-0.58,1.07,2.23,-46.51,16.85,-28.44
553,1778611437.55851,-0.58,1.07,2.23,-46.51,16.85,-28.44
554,1778611437.568535,-0.13,0.74,0.54,59.51,-39.18,79.28
555,1778611437.5785751,-0.13,0.74,0.54,59.51,-39.18,79.28
556,1778611437.588599,-0.13,0.74,0.54,59.51,-39.18,79.28
557,1778611437.598509,-0.13,0.74,0.54,59.51,-39.18,79.28
558,1778611437.608525,0.12,0.98,0.14,30.94,-48.95,85.75
559,1778611437.6185532,0.12,0.98,0.14,30.94,-48.95,85.75
560,1778611437.628563,0.12,0.98,0.14,30.94,-48.95,85.75
561,1778611437.638581,0.12,0.98,0.14,30.94,-48.95,85.75
562,1778611437.648603,-0.01,1.06,0.08,-63.84,16.3,-7.51
563,1778611437.65852,-0.01,1.06,0.08,-63.84,16.3,-7.51
564,1778611437.66858,-0.01,1.06,0.08,-63.84,16.3,-7.51
565,1778611437.678496,-0.09,1.01,0.08,-49.07,39.37,-41.56
566,1778611437.68852,-0.09,1.01,0.08,-49.07,39.37,-41.56
567,1778611437.6986,-0.09,1.01,0.08,-49.07,39.37,-41.56
568,1778611437.7085261,-0.09,1.01,0.08,-49.07,39.37,-41.56
569,1778611437.7185879,-0.22,0.81,0.06,27.65,18.19,-11.54
570,1778611437.728599,-0.22,0.81,0.06,27.65,18.19,-11.54
571,1778611437.738483,-0.22,0.81,0.06,27.65,18.19,-11.54
572,1778611437.748495,-0.22,0.81,0.06,27.65,18.19,-11.54
573,1778611437.758494,-0.16,0.76,0.38,27.65,18.19,-11.54
574,1778611437.7685518,-0.16,0.76,0.38,27.65,18.19,-11.54
575,1778611437.7785752,-0.16,0.76,0.38,27.65,18.19,-11.54
576,1778611437.788594,-0.16,0.76,0.38,27.65,18.19,-11.54
577,1778611437.7985039,-0.16,0.76,0.38,27.65,18.19,-11.54
578,1778611437.8085198,-0.16,0.76,0.38,27.65,18.19,-11.54
579,1778611437.818552,-0.16,0.76,0.38,27.65,18.19,-11.54
580,1778611437.828525,-0.16,0.76,0.38,27.65,18.19,-11.54
581,1778611437.838609,-0.16,0.76,0.38,27.65,18.19,-11.54
582,1778611437.848525,-0.07,1.41,1.05,79.41,138.37,14.47
583,1778611437.858539,-0.73,2.42,3.97,99.43,19.84,1.83
584,1778611437.868557,-0.73,2.42,3.97,99.43,19.84,1.83
585,1778611437.878585,-0.73,2.42,3.97,99.43,19.84,1.83
586,1778611437.888492,-0.32,1.8,4.22,271.79,102.36,79.16
587,1778611437.898516,-0.32,1.8,4.22,271.79,102.36,79.16
588,1778611437.908559,-0.32,1.8,4.22,271.79,102.36,79.16
589,1778611437.918581,-0.32,1.8,4.22,271.79,102.36,79.16
590,1778611437.9285,0.41,0.97,2.41,349.0,87.22,11.66
591,1778611437.938536,0.41,0.97,2.41,349.0,87.22,11.66
592,1778611437.948566,0.41,0.97,2.41,349.0,87.22,11.66
593,1778611437.958484,0.29,0.08,1.49,261.66,136.35,-53.22
594,1778611437.968501,0.29,0.08,1.49,261.66,136.35,-53.22
595,1778611437.978527,0.17,-0.59,0.44,261.66,136.35,-53.22
596,1778611437.988558,0.17,-0.59,0.44,164.61,170.72,-78.12
597,1778611437.998606,0.17,-0.59,0.44,164.61,170.72,-78.12
598,1778611438.0084941,0.17,-0.59,0.44,164.61,170.72,-78.12
599,1778611438.018529,0.09,-0.79,-0.13,83.98,122.74,-52.67
600,1778611438.028555,0.09,-0.79,-0.13,83.98,122.74,-52.67
601,1778611438.038559,0.09,-0.79,-0.13,83.98,122.74,-52.67
602,1778611438.048586,0.09,-0.79,-0.13,83.98,122.74,-52.67
603,1778611438.0585139,0.01,-0.94,-0.23,44.86,52.37,1.16
604,1778611438.068513,0.01,-0.94,-0.23,44.86,52.37,1.16
605,1778611438.078547,0.01,-0.94,-0.23,44.86,52.37,1.16
606,1778611438.088565,0.06,-0.95,-0.39,45.47,-2.32,69.21
607,1778611438.098591,0.06,-0.95,-0.39,45.47,-2.32,69.21
608,1778611438.1086028,0.06,-0.95,-0.39,45.47,-2.32,69.21
609,1778611438.118492,0.06,-0.95,-0.39,45.47,-2.32,69.21
610,1778611438.128509,0.3,-0.88,-0.41,25.39,-76.35,126.04
611,1778611438.138528,0.3,-0.88,-0.41,25.39,-76.35,126.04
612,1778611438.148576,0.3,-0.88,-0.41,25.39,-76.35,126.04
613,1778611438.158599,0.3,-0.88,-0.41,25.39,-76.35,126.04
614,1778611438.1684952,0.46,-0.72,-0.04,-34.36,-88.75,133.67
615,1778611438.1785011,0.46,-0.72,-0.04,-34.36,-88.75,133.67
616,1778611438.188521,0.46,-0.72,-0.04,-34.36,-88.75,133.67
617,1778611438.198557,0.46,-0.72,-0.04,-34.36,-88.75,133.67
618,1778611438.2085881,0.73,-0.86,-0.72,-117.8,-43.15,118.35
619,1778611438.2185862,0.73,-0.86,-0.72,-117.8,-43.15,118.35
620,1778611438.228502,0.73,-0.86,-0.72,-117.8,-43.15,118.35
621,1778611438.238538,0.73,-0.86,-0.72,-117.8,-43.15,118.35
622,1778611438.2485461,0.73,-0.86,-0.72,-117.8,-43.15,118.35
623,1778611438.258583,0.73,-0.86,-0.72,-117.8,-43.15,118.35
624,1778611438.26849,0.73,-0.86,-0.72,-117.8,-43.15,118.35
625,1778611438.278527,1.67,-0.18,0.46,-480.9,-110.47,68.42
626,1778611438.28854,1.67,-0.18,0.46,-480.9,-110.47,68.42
627,1778611438.298571,1.67,-0.18,0.46,-480.9,-110.47,68.42
628,1778611438.308599,1.67,-0.18,0.46,-480.9,-110.47,68.42
629,1778611438.318507,1.67,-0.18,0.46,-480.9,-110.47,68.42
630,1778611438.3285272,1.67,-0.18,0.46,-480.9,-110.47,68.42
631,1778611438.338527,1.67,-0.18,0.46,-480.9,-110.47,68.42
632,1778611438.3485508,1.67,-0.18,0.46,-480.9,-110.47,68.42
633,1778611438.3586009,1.67,-0.18,0.46,-480.9,-110.47,68.42
634,1778611438.3685389,0.1,1.46,1.55,-51.64,-49.44,-13.0
635,1778611438.378593,0.1,1.46,1.55,-51.64,-49.44,-13.0
636,1778611438.388528,0.1,1.46,1.55,-51.64,-49.44,-13.0
637,1778611438.398575,0.12,1.2,0.5,-16.42,-12.7,7.32
638,1778611438.4085839,0.12,1.2,0.5,-16.42,-12.7,7.32
639,1778611438.418528,0.12,1.2,0.5,-16.42,-12.7,7.32
640,1778611438.4285572,0.03,1.07,0.22,-20.63,-6.59,-6.04
641,1778611438.438565,0.03,1.07,0.22,-20.63,-6.59,-6.04
642,1778611438.448566,0.03,1.07,0.22,-20.63,-6.59,-6.04
643,1778611438.458591,0.03,1.07,0.22,-20.63,-6.59,-6.04
644,1778611438.468601,-0.21,0.85,0.06,-44.31,23.38,-25.21
645,1778611438.478564,-0.21,0.85,0.06,-44.31,23.38,-25.21
646,1778611438.488578,-0.21,0.85,0.06,-44.31,23.38,-25.21
647,1778611438.4986088,-0.33,0.69,0.07,-26.49,57.13,-10.68
648,1778611438.508488,-0.33,0.69,0.07,-26.49,57.13,-10.68
649,1778611438.518531,-0.33,0.69,0.07,-26.49,57.13,-10.68
650,1778611438.528555,-0.33,0.69,0.07,-26.49,57.13,-10.68
651,1778611438.538549,-0.35,0.55,0.02,44.01,68.24,43.58
652,1778611438.548585,-0.35,0.55,0.02,44.01,68.24,43.58
653,1778611438.558482,-0.35,0.55,0.02,44.01,68.24,43.58
654,1778611438.568498,-0.35,0.55,0.02,44.01,68.24,43.58
655,1778611438.578503,-0.3,0.69,0.14,119.93,37.05,91.13
656,1778611438.588533,-0.3,0.69,0.14,119.93,37.05,91.13
657,1778611438.598572,-0.3,0.69,0.14,119.93,37.05,91.13
658,1778611438.608585,-0.35,1.15,0.5,130.07,82.52,69.03
659,1778611438.618492,-0.35,1.15,0.5,130.07,82.52,69.03
660,1778611438.628544,-0.35,1.15,0.5,130.07,82.52,69.03
661,1778611438.638554,-0.35,1.15,0.5,130.07,82.52,69.03
662,1778611438.6485949,-0.66,1.7,1.0,105.1,79.41,-15.75
663,1778611438.6585112,-0.66,1.7,1.0,105.1,79.41,-15.75
664,1778611438.6685271,-0.66,1.7,1.0,105.1,79.41,-15.75
665,1778611438.678563,-0.66,1.7,1.0,105.1,79.41,-15.75
666,1778611438.688592,-0.55,3.36,5.87,241.52,13.61,50.72
667,1778611438.698483,-0.55,3.36,5.87,241.52,13.61,50.72
668,1778611438.7085068,-0.55,3.36,5.87,241.52,13.61,50.72
669,1778611438.71854,-0.55,3.36,5.87,241.52,13.61,50.72
670,1778611438.728553,0.82,1.63,3.52,416.02,198.3,36.99
671,1778611438.738579,0.82,1.63,3.52,416.02,198.3,36.99
672,1778611438.7486012,0.82,1.63,3.52,416.02,198.3,36.99
673,1778611438.7586079,1.16,0.76,2.23,425.96,110.53,-72.69
674,1778611438.768509,1.16,0.76,2.23,425.96,110.53,-72.69
675,1778611438.7785568,1.16,0.76,2.23,425.96,110.53,-72.69
676,1778611438.7885818,1.16,0.76,2.23,425.96,110.53,-72.69
677,1778611438.798486,0.74,-0.75,1.05,136.35,249.15,-202.39
678,1778611438.808513,0.74,-0.75,1.05,136.35,249.15,-202.39
679,1778611438.818532,0.74,-0.75,1.05,136.35,249.15,-202.39
680,1778611438.828565,0.74,-0.75,1.05,136.35,249.15,-202.39
681,1778611438.838586,0.74,-0.75,1.05,136.35,249.15,-202.39
682,1778611438.8486001,0.74,-0.75,1.05,136.35,249.15,-202.39
683,1778611438.8584971,0.74,-0.75,1.05,136.35,249.15,-202.39
684,1778611438.868515,0.74,-0.75,1.05,136.35,249.15,-202.39
685,1778611438.8785532,0.74,-0.75,1.05,136.35,249.15,-202.39
686,1778611438.888594,0.74,-0.75,1.05,136.35,249.15,-202.39
687,1778611438.898507,0.1,-1.37,-0.29,31.56,200.5,-18.55
688,1778611438.90853,0.15,-1.11,-0.52,39.98,134.89,65.49
689,1778611438.918557,0.15,-1.11,-0.52,39.98,134.89,65.49
690,1778611438.92859,0.15,-1.11,-0.52,39.98,134.89,65.49
691,1778611438.9384918,0.15,-1.11,-0.52,39.98,134.89,65.49
692,1778611438.948498,0.31,-0.97,-0.55,-43.95,96.01,88.56
693,1778611438.958536,0.31,-0.97,-0.55,-43.95,96.01,88.56
694,1778611438.968576,0.31,-0.97,-0.55,-43.95,96.01,88.56
695,1778611438.97849,0.37,-0.85,-0.62,-43.95,96.01,88.56
696,1778611438.988587,0.37,-0.85,-0.62,-124.33,53.83,87.22
697,1778611438.998524,0.37,-0.85,-0.62,-124.33,53.83,87.22
698,1778611439.00861,0.37,-0.85,-0.62,-124.33,53.83,87.22
699,1778611439.018497,0.37,-0.85,-0.62,-124.33,53.83,87.22
700,1778611439.028527,0.66,-0.82,-0.92,-183.78,-9.89,134.16
701,1778611439.0385659,0.66,-0.82,-0.92,-183.78,-9.89,134.16
702,1778611439.048606,0.66,-0.82,-0.92,-183.78,-9.89,134.16
703,1778611439.0584981,1.51,0.61,0.87,-499.33,-77.09,81.79
704,1778611439.068511,1.51,0.61,0.87,-499.33,-77.09,81.79
705,1778611439.078503,1.51,0.61,0.87,-499.33,-77.09,81.79
706,1778611439.088521,1.51,0.61,0.87,-499.33,-77.09,81.79
707,1778611439.098567,0.98,1.73,4.21,-516.78,-86.55,-159.73
708,1778611439.108591,0.98,1.73,4.21,-516.78,-86.55,-159.73
709,1778611439.1186078,0.98,1.73,4.21,-516.78,-86.55,-159.73
710,1778611439.1285188,0.98,1.73,4.21,-516.78,-86.55,-159.73
711,1778611439.1385658,-0.37,0.36,3.54,-395.02,-32.84,-111.51
712,1778611439.1486,-0.37,0.36,3.54,-395.02,-32.84,-111.51
713,1778611439.158497,-0.37,0.36,3.54,-395.02,-32.84,-111.51
714,1778611439.1685271,-0.37,0.36,3.54,-395.02,-32.84,-111.51
715,1778611439.178568,0.16,1.26,2.56,10.8,-165.59,201.6
716,1778611439.1886039,0.16,1.26,2.56,10.8,-165.59,201.6
717,1778611439.1985111,0.16,1.26,2.56,10.8,-165.59,201.6
718,1778611439.208519,0.16,1.26,2.56,10.8,-165.59,201.6
719,1778611439.218543,0.31,1.35,1.35,-146.36,41.75,94.36
720,1778611439.228596,0.31,1.35,1.35,-146.36,41.75,94.36
721,1778611439.238608,0.31,1.35,1.35,-146.36,41.75,94.36
722,1778611439.2485042,0.31,1.35,1.35,-146.36,41.75,94.36
723,1778611439.25854,-0.1,0.81,0.55,-93.63,64.09,62.56
724,1778611439.268557,-0.1,0.81,0.55,-93.63,64.09,62.56
725,1778611439.2784882,-0.1,0.81,0.55,-93.63,64.09,62.56
726,1778611439.288511,-0.1,0.81,0.55,-93.63,64.09,62.56
727,1778611439.298549,-0.36,0.75,0.25,-61.34,34.67,65.61
728,1778611439.3085902,-0.36,0.75,0.25,-61.34,34.67,65.61
729,1778611439.318607,-0.54,0.62,0.24,-16.17,12.08,77.7
730,1778611439.328512,-0.54,0.62,0.24,-16.17,12.08,77.7
731,1778611439.3385532,-0.54,0.62,0.24,-16.17,12.08,77.7
732,1778611439.348574,-0.54,0.62,0.24,-16.17,12.08,77.7
733,1778611439.358499,-0.54,0.62,0.24,-16.17,12.08,77.7
734,1778611439.3685498,-0.54,0.62,0.24,-16.17,12.08,77.7
735,1778611439.378609,-0.54,0.62,0.24,-16.17,12.08,77.7
736,1778611439.3885062,-0.54,0.62,0.24,-16.17,12.08,77.7
737,1778611439.398516,-0.54,0.62,0.24,-16.17,12.08,77.7
738,1778611439.408553,-0.54,0.62,0.24,-16.17,12.08,77.7
739,1778611439.418603,-0.51,0.36,0.67,108.52,48.1,198.3
740,1778611439.4285371,-0.51,0.36,0.67,108.52,48.1,198.3
741,1778611439.43855,-0.3,1.19,1.93,200.81,80.26,195.74
742,1778611439.448593,-0.3,1.19,1.93,200.81,80.26,195.74
743,1778611439.458585,-0.3,1.19,1.93,200.81,80.26,195.74
744,1778611439.468605,-0.3,1.19,1.93,200.81,80.26,195.74
745,1778611439.478591,-0.7,2.41,4.44,186.65,129.64,87.77
746,1778611439.4885042,-0.7,2.41,4.44,186.65,129.64,87.77
747,1778611439.4984992,-0.7,2.41,4.44,186.65,129.64,87.77
748,1778611439.508526,-0.7,2.41,4.44,186.65,129.64,87.77
749,1778611439.518568,-0.1,0.98,3.72,423.71,100.89,158.63
750,1778611439.5284858,-0.1,0.98,3.72,423.71,100.89,158.63
751,1778611439.538489,-0.1,0.98,3.72,423.71,100.89,158.63
752,1778611439.548516,-0.1,0.98,3.72,423.71,100.89,158.63
753,1778611439.558552,0.64,0.66,3.06,402.16,135.8,-22.28
754,1778611439.5685818,0.64,0.66,3.06,402.16,135.8,-22.28
755,1778611439.5785081,0.64,0.66,3.06,402.16,135.8,-22.28
756,1778611439.588511,0.05,-1.43,1.31,402.16,135.8,-22.28
757,1778611439.598548,0.05,-1.43,1.31,185.73,285.03,-150.63
758,1778611439.608574,0.05,-1.43,1.31,185.73,285.03,-150.63
759,1778611439.618593,0.05,-1.43,1.31,185.73,285.03,-150.63
760,1778611439.628496,0.03,-1.43,0.14,185.73,285.03,-150.63
761,1778611439.6385229,0.03,-1.43,0.14,91.13,257.75,-24.66
762,1778611439.648545,0.03,-1.43,0.14,91.13,257.75,-24.66
763,1778611439.658568,0.03,-1.43,0.14,91.13,257.75,-24.66
764,1778611439.668604,0.14,-1.02,-0.24,19.35,179.26,47.24
765,1778611439.678605,0.14,-1.02,-0.24,19.35,179.26,47.24
766,1778611439.688544,0.14,-1.02,-0.24,19.35,179.26,47.24
767,1778611439.6985989,0.14,-1.02,-0.24,19.35,179.26,47.24
768,1778611439.708535,0.19,-0.94,-0.26,-15.87,114.01,82.46
769,1778611439.718498,0.19,-0.94,-0.26,-15.87,114.01,82.46
770,1778611439.7285252,0.19,-0.94,-0.26,-15.87,114.01,82.46
771,1778611439.738556,0.19,-0.94,-0.26,-15.87,114.01,82.46
772,1778611439.748569,0.29,-0.85,-0.17,-47.91,56.82,124.02
773,1778611439.758593,0.29,-0.85,-0.17,-47.91,56.82,124.02
774,1778611439.7686121,0.29,-0.85,-0.17,-47.91,56.82,124.02
775,1778611439.7785118,0.29,-0.85,-0.17,-47.91,56.82,124.02
776,1778611439.78855,0.45,-0.83,-0.15,-64.58,15.2,174.56
777,1778611439.79857,0.45,-0.83,-0.15,-64.58,15.2,174.56
778,1778611439.808602,0.45,-0.83,-0.15,-64.58,15.2,174.56
779,1778611439.81852,0.45,-0.83,-0.15,-64.58,15.2,174.56
780,1778611439.828495,1.06,-0.4,-0.36,-74.22,-18.37,230.71
781,1778611439.838609,1.06,-0.4,-0.36,-74.22,-18.37,230.71
782,1778611439.848502,1.06,-0.4,-0.36,-74.22,-18.37,230.71
783,1778611439.8585181,1.06,-0.4,-0.36,-74.22,-18.37,230.71
784,1778611439.8685372,1.06,-0.4,-0.36,-74.22,-18.37,230.71
785,1778611439.878569,1.06,-0.4,-0.36,-74.22,-18.37,230.71
786,1778611439.888576,1.06,-0.4,-0.36,-74.22,-18.37,230.71
787,1778611439.898589,1.06,-0.4,-0.36,-74.22,-18.37,230.71
788,1778611439.908494,1.06,-0.4,-0.36,-74.22,-18.37,230.71
789,1778611439.9185028,1.06,-0.4,-0.36,-74.22,-18.37,230.71
790,1778611439.92853,1.06,-0.4,-0.36,-74.22,-18.37,230.71
791,1778611439.9385548,0.56,2.26,5.84,-160.71,-53.71,56.7
792,1778611439.9485781,0.56,2.26,5.84,-160.71,-53.71,56.7
793,1778611439.958606,0.56,2.26,5.84,-160.71,-53.71,56.7
794,1778611439.9684858,0.39,2.05,2.23,-10.93,116.03,51.39
795,1778611439.978514,0.39,2.05,2.23,-10.93,116.03,51.39
796,1778611439.988529,0.39,2.05,2.23,-10.93,116.03,51.39
797,1778611439.9985669,0.39,2.05,2.23,-10.93,116.03,51.39
798,1778611440.0085819,0.23,1.03,0.64,-7.02,107.85,50.29
799,1778611440.018553,0.23,1.03,0.64,-7.02,107.85,50.29
800,1778611440.028543,0.23,1.03,0.64,-7.02,107.85,50.29
801,1778611440.038553,0.23,1.03,0.64,-7.02,107.85,50.29
802,1778611440.048608,0.09,0.79,0.26,19.96,79.83,64.15
803,1778611440.0584939,0.09,0.79,0.26,19.96,79.83,64.15
804,1778611440.068507,0.09,0.79,0.26,19.96,79.83,64.15
805,1778611440.0785432,-0.09,0.65,-0.13,12.94,63.23,53.77
806,1778611440.088522,-0.09,0.65,-0.13,12.94,63.23,53.77
807,1778611440.0985339,-0.09,0.65,-0.13,12.94,63.23,53.77
808,1778611440.108556,-0.09,0.65,-0.13,12.94,63.23,53.77
809,1778611440.1185012,-0.24,0.5,-0.17,10.5,49.87,58.11
810,1778611440.1285398,-0.24,0.5,-0.17,10.5,49.87,58.11
811,1778611440.138564,-0.24,0.5,-0.17,10.5,49.87,58.11
812,1778611440.148493,-0.24,0.5,-0.17,10.5,49.87,58.11
813,1778611440.1585438,-0.26,0.46,0.12,41.44,40.83,89.36
814,1778611440.1686,-0.26,0.46,0.12,41.44,40.83,89.36
815,1778611440.178519,-0.26,0.46,0.12,41.44,40.83,89.36
816,1778611440.1885781,-0.26,0.46,0.12,41.44,40.83,89.36
817,1778611440.1985211,-0.09,0.89,0.93,109.25,21.3,120.61
818,1778611440.208571,-0.09,0.89,0.93,109.25,21.3,120.61
819,1778611440.218524,-0.09,0.89,0.93,109.25,21.3,120.61
820,1778611440.22859,-0.09,0.89,0.93,109.25,21.3,120.61
821,1778611440.238545,0.02,1.27,1.76,128.72,180.3,62.62
822,1778611440.2486012,0.02,1.27,1.76,128.72,180.3,62.62
823,1778611440.258506,0.02,1.27,1.76,128.72,180.3,62.62
824,1778611440.268546,0.02,1.27,1.76,128.72,180.3,62.62
825,1778611440.278563,-0.12,1.57,0.93,128.72,226.26,55.48
826,1778611440.288587,-0.12,1.57,0.93,128.72,226.26,55.48
827,1778611440.2985,-0.12,1.57,0.93,128.72,226.26,55.48
828,1778611440.308527,-0.12,1.57,0.93,128.72,226.26,55.48
829,1778611440.3185868,-0.37,2.46,3.25,268.8,129.09,98.88
830,1778611440.328495,-0.37,2.46,3.25,268.8,129.09,98.88
831,1778611440.33851,-0.37,2.46,3.25,268.8,129.09,98.88
832,1778611440.3485372,-0.37,2.46,3.25,268.8,129.09,98.88
833,1778611440.358557,-0.04,1.59,1.54,234.68,97.47,65.92
834,1778611440.368483,-0.04,1.59,1.54,234.68,97.47,65.92
835,1778611440.378507,-0.04,1.59,1.54,234.68,97.47,65.92
836,1778611440.3885329,-0.04,1.59,1.54,234.68,97.47,65.92
837,1778611440.398559,-0.04,1.59,1.54,234.68,97.47,65.92
838,1778611440.4086,-0.04,1.59,1.54,234.68,97.47,65.92
839,1778611440.418496,-0.04,1.59,1.54,234.68,97.47,65.92
840,1778611440.4285362,-0.04,1.59,1.54,234.68,97.47,65.92
841,1778611440.438563,-0.04,1.59,1.54,234.68,97.47,65.92
842,1778611440.4486039,-0.04,1.59,1.54,234.68,97.47,65.92
843,1778611440.458516,-0.04,1.59,1.54,234.68,97.47,65.92
844,1778611440.468561,0.15,-0.5,-0.01,90.09,107.36,-86.73
845,1778611440.478604,0.15,-0.5,-0.01,90.09,107.36,-86.73
846,1778611440.4885068,0.15,-0.5,-0.01,90.09,107.36,-86.73
847,1778611440.498531,0.15,-0.5,-0.01,90.09,107.36,-86.73
848,1778611440.508548,0.02,-0.61,-0.14,23.5,78.8,-69.27
849,1778611440.518496,0.02,-0.61,-0.14,23.5,78.8,-69.27
850,1778611440.5285492,0.02,-0.61,-0.14,23.5,78.8,-69.27
851,1778611440.538561,0.02,-0.61,-0.14,23.5,78.8,-69.27
852,1778611440.548548,-0.1,-0.76,-0.35,-24.84,51.76,-17.88
853,1778611440.5585651,-0.1,-0.76,-0.35,-24.84,51.76,-17.88
854,1778611440.568602,-0.1,-0.76,-0.35,-24.84,51.76,-17.88
855,1778611440.578492,-0.1,-0.76,-0.35,-24.84,51.76,-17.88
856,1778611440.58849,-0.1,-0.76,-0.35,-24.84,51.76,-17.88
857,1778611440.598602,-0.1,-0.76,-0.35,-24.84,51.76,-17.88
858,1778611440.6084821,-0.1,-0.76,-0.35,-24.84,51.76,-17.88
859,1778611440.618491,0.34,-0.71,-0.14,-44.98,-28.87,54.75
860,1778611440.628528,0.34,-0.71,-0.14,-78.0,-100.34,100.46
861,1778611440.638533,0.34,-0.71,-0.14,-78.0,-100.34,100.46
862,1778611440.648553,0.34,-0.71,-0.14,-78.0,-100.34,100.46
863,1778611440.658577,0.79,-0.61,0.07,-146.48,-108.52,95.76
864,1778611440.668499,0.79,-0.61,0.07,-146.48,-108.52,95.76
865,1778611440.678493,0.79,-0.61,0.07,-146.48,-108.52,95.76
866,1778611440.6885152,0.79,-0.61,0.07,-146.48,-108.52,95.76
867,1778611440.6985312,0.99,0.08,1.15,-146.48,-108.52,95.76
868,1778611440.708551,0.99,0.08,1.15,-332.09,-126.77,10.56
869,1778611440.718554,0.99,0.08,1.15,-332.09,-126.77,10.56
870,1778611440.7286,0.82,1.42,3.86,-316.41,-183.84,-28.99
871,1778611440.738496,0.82,1.42,3.86,-316.41,-183.84,-28.99
872,1778611440.7485518,0.82,1.42,3.86,-316.41,-183.84,-28.99
873,1778611440.75858,0.82,1.42,3.86,-316.41,-183.84,-28.99
874,1778611440.7686138,0.35,2.29,3.69,-316.41,-183.84,-28.99
875,1778611440.7785249,0.35,2.29,3.69,-254.7,3.72,-67.44
876,1778611440.788557,0.35,2.29,3.69,-254.7,3.72,-67.44
877,1778611440.798572,0.35,2.29,3.69,-254.7,3.72,-67.44
878,1778611440.808485,0.08,1.74,2.06,-129.7,33.94,-80.69
879,1778611440.8185139,0.08,1.74,2.06,-129.7,33.94,-80.69
880,1778611440.8285398,0.08,1.74,2.06,-129.7,33.94,-80.69
881,1778611440.838569,0.12,1.16,0.75,-129.7,33.94,-80.69
882,1778611440.848489,0.12,1.16,0.75,-88.81,48.46,-84.41
883,1778611440.858525,0.12,1.16,0.75,-88.81,48.46,-84.41
884,1778611440.8685288,0.12,1.16,0.75,-88.81,48.46,-84.41
885,1778611440.8785589,0.11,0.94,0.08,-88.81,48.46,-84.41
886,1778611440.888574,0.11,0.94,0.08,-67.69,17.64,-88.44
887,1778611440.898606,0.11,0.94,0.08,-67.69,17.64,-88.44
888,1778611440.908502,0.11,0.94,0.08,-67.69,17.64,-88.44
889,1778611440.918545,0.11,0.94,0.08,-67.69,17.64,-88.44
890,1778611440.92848,0.11,0.94,0.08,-67.69,17.64,-88.44
891,1778611440.938528,0.11,0.94,0.08,-67.69,17.64,-88.44
892,1778611440.948564,0.11,0.94,0.08,-67.69,17.64,-88.44
893,1778611440.958488,0.11,0.94,0.08,-67.69,17.64,-88.44
894,1778611440.9685209,0.11,0.94,0.08,-67.69,17.64,-88.44
895,1778611440.978545,0.11,0.94,0.08,-67.69,17.64,-88.44
896,1778611440.988597,0.0,0.85,-0.2,-43.33,-50.6,-69.89
897,1778611440.998515,-0.19,0.87,0.04,-19.84,27.53,-68.79
898,1778611441.008566,-0.19,0.87,0.04,-19.84,27.53,-68.79
899,1778611441.018497,-0.19,0.87,0.04,-19.84,27.53,-68.79
900,1778611441.028512,-0.28,0.75,0.03,15.32,16.78,-58.9
901,1778611441.038547,-0.28,0.75,0.03,15.32,16.78,-58.9
902,1778611441.048599,-0.28,0.75,0.03,15.32,16.78,-58.9
903,1778611441.0584981,-0.38,0.68,0.8,38.64,-13.92,-7.93
904,1778611441.068508,-0.38,0.68,0.8,38.64,-13.92,-7.93
905,1778611441.078521,-0.38,0.68,0.8,38.64,-13.92,-7.93
906,1778611441.088537,-0.38,0.68,0.8,38.64,-13.92,-7.93
907,1778611441.098529,-0.5,1.53,2.19,98.33,-6.1,60.0
908,1778611441.108565,-0.5,1.53,2.19,98.33,-6.1,60.0
909,1778611441.118593,-0.5,1.53,2.19,98.33,-6.1,60.0
910,1778611441.128492,-0.39,2.86,4.77,98.33,-6.1,60.0
911,1778611441.1385229,-0.39,2.86,4.77,260.93,18.92,31.86
912,1778611441.148577,-0.39,2.86,4.77,260.93,18.92,31.86
913,1778611441.158589,-0.39,2.86,4.77,260.93,18.92,31.86
914,1778611441.168489,-0.13,0.93,2.45,260.93,18.92,31.86
915,1778611441.1785321,-0.13,0.93,2.45,228.94,190.12,-6.35
916,1778611441.1885362,-0.13,0.93,2.45,228.94,190.12,-6.35
917,1778611441.198548,-0.13,0.93,2.45,228.94,190.12,-6.35
918,1778611441.208562,-0.13,0.93,2.45,228.94,190.12,-6.35
919,1778611441.218563,-0.13,0.93,2.45,228.94,190.12,-6.35
920,1778611441.228586,-0.13,0.93,2.45,228.94,190.12,-6.35
921,1778611441.23849,-0.13,0.93,2.45,228.94,190.12,-6.35
922,1778611441.248517,0.33,-0.18,0.9,221.92,99.06,-1.04
923,1778611441.258568,0.33,-0.18,0.9,221.92,99.06,-1.04
924,1778611441.268596,0.33,-0.18,0.9,221.92,99.06,-1.04
925,1778611441.2785752,0.26,-0.65,0.13,221.92,99.06,-1.04
926,1778611441.2885919,0.26,-0.65,0.13,108.03,129.58,-59.75
927,1778611441.298485,0.26,-0.65,0.13,108.03,129.58,-59.75
928,1778611441.308511,0.26,-0.65,0.13,108.03,129.58,-59.75
929,1778611441.318517,0.08,-0.96,-0.29,18.49,106.63,-44.43
930,1778611441.328554,0.08,-0.96,-0.29,18.49,106.63,-44.43
931,1778611441.338563,0.08,-0.96,-0.29,18.49,106.63,-44.43
932,1778611441.3485901,0.08,-0.96,-0.29,18.49,106.63,-44.43
933,1778611441.358486,0.23,-0.97,-0.44,-8.12,26.92,37.23
934,1778611441.368495,0.23,-0.97,-0.44,-8.12,26.92,37.23
935,1778611441.3785229,0.23,-0.97,-0.44,-8.12,26.92,37.23
936,1778611441.388557,0.23,-0.97,-0.44,-8.12,26.92,37.23
937,1778611441.398593,0.51,-0.77,-0.47,-32.17,-66.96,67.32
938,1778611441.408609,0.51,-0.77,-0.47,-32.17,-66.96,67.32
939,1778611441.418489,0.51,-0.77,-0.47,-32.17,-66.96,67.32
940,1778611441.4285069,0.51,-0.77,-0.47,-32.17,-66.96,67.32
941,1778611441.438564,0.51,-0.77,-0.47,-32.17,-66.96,67.32
942,1778611441.4485939,0.51,-0.77,-0.47,-32.17,-66.96,67.32
943,1778611441.4584801,0.51,-0.77,-0.47,-32.17,-66.96,67.32
944,1778611441.4684968,0.51,-0.77,-0.47,-32.17,-66.96,67.32
945,1778611441.478545,0.51,-0.77,-0.47,-32.17,-66.96,67.32
946,1778611441.488563,0.51,-0.77,-0.47,-32.17,-66.96,67.32
947,1778611441.498496,0.51,-0.77,-0.47,-32.17,-66.96,67.32
948,1778611441.508548,0.51,-0.77,-0.47,-32.17,-66.96,67.32
949,1778611441.518581,1.46,0.23,1.73,-412.78,-238.1,-50.54
950,1778611441.52849,1.46,0.23,1.73,-412.78,-238.1,-50.54
951,1778611441.53853,1.46,0.23,1.73,-412.78,-238.1,-50.54
952,1778611441.5485818,1.46,0.23,1.73,-412.78,-238.1,-50.54
953,1778611441.5585139,0.64,1.78,5.34,-403.14,-150.39,-131.41
954,1778611441.568558,0.64,1.78,5.34,-403.14,-150.39,-131.41
955,1778611441.57857,0.64,1.78,5.34,-403.14,-150.39,-131.41
956,1778611441.5885608,0.64,1.78,5.34,-403.14,-150.39,-131.41
957,1778611441.5985029,-0.25,1.81,3.46,-215.52,-1.59,-117.43
958,1778611441.608521,-0.25,1.81,3.46,-215.52,-1.59,-117.43
959,1778611441.618508,-0.25,1.81,3.46,-215.52,-1.59,-117.43
960,1778611441.628541,-0.25,1.81,3.46,-215.52,-1.59,-117.43
961,1778611441.638556,-0.37,1.27,1.51,-75.07,19.65,-47.97
962,1778611441.6485708,-0.37,1.27,1.51,-75.07,19.65,-47.97
963,1778611441.658587,-0.37,1.27,1.51,-75.07,19.65,-47.97
964,1778611441.668606,-0.37,1.27,1.51,-75.07,19.65,-47.97
965,1778611441.678512,-0.19,0.98,0.56,-34.79,13.06,-25.39
966,1778611441.688521,-0.19,0.98,0.56,-34.79,13.06,-25.39
967,1778611441.6985521,-0.19,0.98,0.56,-34.79,13.06,-25.39
968,1778611441.708565,-0.05,1.06,0.04,-7.93,2.38,-32.59
969,1778611441.71853,-0.05,1.06,0.04,-7.93,2.38,-32.59
970,1778611441.728547,-0.05,1.06,0.04,-7.93,2.38,-32.59
971,1778611441.73857,-0.05,1.06,0.04,-7.93,2.38,-32.59
972,1778611441.748606,-0.05,1.1,-0.09,5.19,1.77,-71.47
973,1778611441.758508,-0.05,1.1,-0.09,5.19,1.77,-71.47
974,1778611441.7685199,-0.05,1.1,-0.09,5.19,1.77,-71.47
975,1778611441.7785559,-0.22,0.81,-0.11,3.97,6.77,-68.05
976,1778611441.7885702,-0.22,0.81,-0.11,3.97,6.77,-68.05
977,1778611441.798599,-0.22,0.81,-0.11,3.97,6.77,-68.05
978,1778611441.808504,-0.22,0.81,-0.11,3.97,6.77,-68.05
979,1778611441.818551,-0.43,0.58,0.04,57.01,-5.8,-2.75
980,1778611441.8285282,-0.43,0.58,0.04,57.01,-5.8,-2.75
981,1778611441.838516,-0.43,0.58,0.04,57.01,-5.8,-2.75
982,1778611441.848533,-0.43,0.58,0.04,57.01,-5.8,-2.75
983,1778611441.858579,-0.46,0.74,0.65,117.86,35.77,47.85
984,1778611441.86859,-0.46,0.74,0.65,117.86,35.77,47.85
985,1778611441.878489,-0.46,0.74,0.65,117.86,35.77,47.85
986,1778611441.888512,-0.46,0.74,0.65,117.86,35.77,47.85
987,1778611441.8985548,-0.75,1.51,1.08,42.36,159.42,23.62
988,1778611441.908576,-0.75,1.51,1.08,42.36,159.42,23.62
989,1778611441.918598,-0.75,1.51,1.08,42.36,159.42,23.62
990,1778611441.928489,-0.75,1.51,1.08,42.36,159.42,23.62
991,1778611441.938494,-1.62,2.69,5.01,252.62,-17.33,125.67
992,1778611441.948522,-1.62,2.69,5.01,252.62,-17.33,125.67
993,1778611441.958535,-1.62,2.69,5.01,252.62,-17.33,125.67
994,1778611441.968554,-1.62,2.69,5.01,252.62,-17.33,125.67
995,1778611441.978559,-1.62,2.69,5.01,252.62,-17.33,125.67
996,1778611441.988579,-1.62,2.69,5.01,252.62,-17.33,125.67
997,1778611441.9985652,-1.62,2.69,5.01,252.62,-17.33,125.67
998,1778611442.0086012,-1.62,2.69,5.01,252.62,-17.33,125.67
999,1778611442.0184891,-1.62,2.69,5.01,252.62,-17.33,125.67
1000,1778611442.028564,-1.62,2.69,5.01,252.62,-17.33,125.67
1001,1778611442.0384839,0.32,0.53,2.45,352.17,160.03,30.27
