id,timestamp,acc_x,acc_y,acc_z,gyro_x,gyro_y,gyro_z
1,1778616056.118485,-0.01,-0.93,-0.28,5.0,-15.2,-9.89
2,1778616056.1185,-0.01,-0.93,-0.28,5.0,-15.2,-9.89
3,1778616056.126009,-0.04,-0.95,-0.25,5.0,-15.2,-9.89
4,1778616056.135958,-0.04,-0.95,-0.25,0.43,-8.61,-8.73
5,1778616056.146036,-0.04,-0.95,-0.25,0.43,-8.61,-8.73
6,1778616056.1559691,-0.04,-0.95,-0.25,0.43,-8.61,-8.73
7,1778616056.1659782,-0.04,-0.95,-0.25,0.43,-8.61,-8.73
8,1778616056.1759832,-0.04,-0.95,-0.25,0.43,-8.61,-8.73
9,1778616056.1859531,-0.04,-0.95,-0.25,0.43,-8.61,-8.73
10,1778616056.1960378,-0.04,-0.95,-0.25,0.43,-8.61,-8.73
11,1778616056.205966,-0.04,-0.95,-0.25,0.43,-8.61,-8.73
12,1778616056.216031,-0.04,-0.95,-0.25,0.43,-8.61,-8.73
13,1778616056.225982,-0.04,-0.95,-0.25,0.43,-8.61,-8.73
14,1778616056.236022,-0.04,-0.95,-0.25,0.43,-8.61,-8.73
15,1778616056.2459579,0.0,-0.95,-0.25,-10.5,30.64,11.6
16,1778616056.256006,0.0,-0.95,-0.25,-10.5,30.64,11.6
17,1778616056.2659378,0.0,-0.95,-0.25,-10.5,30.64,11.6
18,1778616056.2760231,0.0,-0.95,-0.25,-10.5,30.64,11.6
19,1778616056.285952,0.02,-0.94,-0.3,-11.72,33.26,11.41
20,1778616056.296046,0.02,-0.94,-0.3,-11.72,33.26,11.41
21,1778616056.305954,0.02,-0.94,-0.3,-11.72,33.26,11.41
22,1778616056.315985,-0.01,-0.89,-0.3,-0.18,6.47,-2.44
23,1778616056.326005,-0.01,-0.89,-0.3,-0.18,6.47,-2.44
24,1778616056.336025,-0.01,-0.89,-0.3,-0.18,6.47,-2.44
25,1778616056.3460412,-0.01,-0.89,-0.3,-0.18,6.47,-2.44
26,1778616056.355971,-0.03,-0.88,-0.27,0.18,-30.21,-11.11
27,1778616056.366004,-0.03,-0.88,-0.27,0.18,-30.21,-11.11
28,1778616056.375935,-0.03,-0.88,-0.27,0.18,-30.21,-11.11
29,1778616056.385994,-0.03,-0.88,-0.27,0.18,-30.21,-11.11
30,1778616056.396047,0.0,-0.91,-0.25,2.26,-39.49,-16.91
31,1778616056.4059782,0.0,-0.91,-0.25,2.26,-39.49,-16.91
32,1778616056.4160068,0.0,-0.91,-0.25,2.26,-39.49,-16.91
33,1778616056.426038,0.03,-0.86,-0.24,2.26,-39.49,-16.91
34,1778616056.4359522,0.03,-0.86,-0.24,4.76,-8.97,-21.79
35,1778616056.446015,0.03,-0.86,-0.24,4.76,-8.97,-21.79
36,1778616056.4559271,0.03,-0.86,-0.24,4.76,-8.97,-21.79
37,1778616056.465982,0.03,-0.86,-0.24,4.76,-8.97,-21.79
38,1778616056.476016,0.33,-0.77,-0.1,29.97,252.75,67.08
39,1778616056.4859562,0.33,-0.77,-0.1,29.97,252.75,67.08
40,1778616056.49598,0.33,-0.77,-0.1,29.97,252.75,67.08
41,1778616056.506022,0.33,-0.77,-0.1,29.97,252.75,67.08
42,1778616056.515928,0.33,-0.77,-0.1,29.97,252.75,67.08
43,1778616056.525963,0.33,-0.77,-0.1,29.97,252.75,67.08
44,1778616056.535991,0.33,-0.77,-0.1,29.97,252.75,67.08
45,1778616056.5460181,0.33,-0.77,-0.1,29.97,252.75,67.08
46,1778616056.556032,0.33,-0.77,-0.1,29.97,252.75,67.08
47,1778616056.5660439,0.33,-0.77,-0.1,29.97,252.75,67.08
48,1778616056.575944,0.33,-0.77,-0.1,29.97,252.75,67.08
49,1778616056.585951,0.31,-0.72,0.22,-96.92,-262.76,-89.97
50,1778616056.5959811,0.31,-0.72,0.22,-96.92,-262.76,-89.97
51,1778616056.605995,0.31,-0.72,0.22,-96.92,-262.76,-89.97
52,1778616056.615977,0.31,-0.72,0.22,-96.92,-262.76,-89.97
53,1778616056.625948,-0.04,-1.05,-0.01,-49.01,-139.77,-96.56
54,1778616056.635975,-0.04,-1.05,-0.01,-49.01,-139.77,-96.56
55,1778616056.645994,-0.04,-1.05,-0.01,-49.01,-139.77,-96.56
56,1778616056.6560252,-0.04,-1.05,-0.01,-49.01,-139.77,-96.56
57,1778616056.6660511,-0.27,-4.07,-0.96,9.89,-312.81,37.17
58,1778616056.676032,-0.27,-4.07,-0.96,9.89,-312.81,37.17
59,1778616056.6860359,-0.27,-4.07,-0.96,9.89,-312.81,37.17
60,1778616056.69593,-0.27,-4.07,-0.96,9.89,-312.81,37.17
61,1778616056.705958,-0.27,-4.07,-0.96,9.89,-312.81,37.17
62,1778616056.7159739,-0.27,-4.07,-0.96,9.89,-312.81,37.17
63,1778616056.7259982,-0.27,-4.07,-0.96,9.89,-312.81,37.17
64,1778616056.736015,-0.27,-4.07,-0.96,9.89,-312.81,37.17
65,1778616056.746026,-0.27,-4.07,-0.96,9.89,-312.81,37.17
66,1778616056.756025,-0.27,-4.07,-0.96,9.89,-312.81,37.17
67,1778616056.766038,-0.27,-4.07,-0.96,9.89,-312.81,37.17
68,1778616056.7760499,0.1,-0.74,-0.38,-41.32,277.59,143.8
69,1778616056.785943,0.1,-0.74,-0.38,-41.32,277.59,143.8
70,1778616056.795955,0.1,-0.74,-0.38,-41.32,277.59,143.8
71,1778616056.8060002,0.1,-0.74,-0.38,-41.32,277.59,143.8
72,1778616056.816025,0.12,-0.04,-0.53,-23.19,96.19,89.72
73,1778616056.825927,0.12,-0.04,-0.53,-23.19,96.19,89.72
74,1778616056.835949,0.12,-0.04,-0.53,-23.19,96.19,89.72
75,1778616056.845969,0.12,-0.04,-0.53,-23.19,96.19,89.72
76,1778616056.855995,0.15,0.23,-0.4,217.04,-117.0,-18.92
77,1778616056.8660522,0.15,0.23,-0.4,217.04,-117.0,-18.92
78,1778616056.8760178,0.15,0.23,-0.4,217.04,-117.0,-18.92
79,1778616056.885945,0.15,0.23,-0.4,217.04,-117.0,-18.92
80,1778616056.896003,0.62,0.53,0.36,267.82,-17.33,8.42
81,1778616056.906045,0.62,0.53,0.36,267.82,-17.33,8.42
82,1778616056.915993,0.62,0.53,0.36,267.82,-17.33,8.42
83,1778616056.926031,0.01,0.13,-0.39,267.82,-17.33,8.42
84,1778616056.93594,0.01,0.13,-0.39,-130.55,105.83,21.12
85,1778616056.945976,0.01,0.13,-0.39,-130.55,105.83,21.12
86,1778616056.9560268,0.01,0.13,-0.39,-130.55,105.83,21.12
87,1778616056.965982,0.02,-0.13,0.08,-48.4,-178.77,33.26
88,1778616056.9760199,0.02,-0.13,0.08,-48.4,-178.77,33.26
89,1778616056.985944,0.02,-0.13,0.08,-48.4,-178.77,33.26
90,1778616056.9959989,0.02,-0.13,0.08,-48.4,-178.77,33.26
91,1778616057.0059378,0.13,-0.23,0.32,-15.87,-157.23,57.01
92,1778616057.0159519,0.13,-0.23,0.32,-15.87,-157.23,57.01
93,1778616057.0259461,0.13,-0.23,0.32,-15.87,-157.23,57.01
94,1778616057.035986,0.13,-0.23,0.32,-15.87,-157.23,57.01
95,1778616057.04599,0.13,-0.23,0.32,-15.87,-157.23,57.01
96,1778616057.056016,0.13,-0.23,0.32,-15.87,-157.23,57.01
97,1778616057.0660422,0.13,-0.23,0.32,-15.87,-157.23,57.01
98,1778616057.07599,0.13,-0.23,0.32,-15.87,-157.23,57.01
99,1778616057.086009,0.13,-0.23,0.32,-15.87,-157.23,57.01
100,1778616057.095969,0.13,-0.23,0.32,-15.87,-157.23,57.01
101,1778616057.105994,1.04,-0.25,0.38,3.36,408.02,-78.74
102,1778616057.115954,1.04,-0.25,0.38,3.36,408.02,-78.74
103,1778616057.125958,-0.21,-1.47,0.03,-229.06,-298.4,41.63
104,1778616057.135963,-0.21,-1.47,0.03,-229.06,-298.4,41.63
105,1778616057.146024,-0.21,-1.47,0.03,-229.06,-298.4,41.63
106,1778616057.155946,-1.8,-3.82,-1.06,48.95,329.71,-148.32
107,1778616057.1659882,-1.8,-3.82,-1.06,48.95,329.71,-148.32
108,1778616057.176008,-1.8,-3.82,-1.06,48.95,329.71,-148.32
109,1778616057.186032,-1.8,-3.82,-1.06,48.95,329.71,-148.32
110,1778616057.195949,-1.54,-2.09,0.05,-35.89,-60.42,-15.01
111,1778616057.205964,-1.54,-2.09,0.05,-35.89,-60.42,-15.01
112,1778616057.216008,-1.54,-2.09,0.05,-35.89,-60.42,-15.01
113,1778616057.225924,-1.54,-2.09,0.05,-35.89,-60.42,-15.01
114,1778616057.235986,-1.54,-2.09,0.05,-35.89,-60.42,-15.01
115,1778616057.2460392,-1.54,-2.09,0.05,-35.89,-60.42,-15.01
116,1778616057.25595,-1.54,-2.09,0.05,-35.89,-60.42,-15.01
117,1778616057.2659981,-1.54,-2.09,0.05,-35.89,-60.42,-15.01
118,1778616057.276022,-1.54,-2.09,0.05,-35.89,-60.42,-15.01
119,1778616057.2859242,-1.54,-2.09,0.05,-35.89,-60.42,-15.01
120,1778616057.295966,-0.49,-1.27,0.15,97.23,129.09,100.77
121,1778616057.30599,-0.08,-0.79,-0.01,97.23,129.09,100.77
122,1778616057.3160179,-0.08,-0.79,-0.01,46.63,15.32,94.79
123,1778616057.326045,-0.08,-0.79,-0.01,46.63,15.32,94.79
124,1778616057.335953,-0.08,-0.79,-0.01,46.63,15.32,94.79
125,1778616057.345993,0.24,-0.27,-0.48,44.37,-135.93,61.46
126,1778616057.356045,0.24,-0.27,-0.48,44.37,-135.93,61.46
127,1778616057.365951,0.24,-0.27,-0.48,44.37,-135.93,61.46
128,1778616057.3759549,1.1,0.29,-0.16,44.37,-135.93,61.46
129,1778616057.3859892,1.1,0.29,-0.16,170.53,-172.18,80.87
130,1778616057.3960059,1.1,0.29,-0.16,170.53,-172.18,80.87
131,1778616057.4059289,1.1,0.29,-0.16,170.53,-172.18,80.87
132,1778616057.4159691,1.1,0.29,-0.16,170.53,-172.18,80.87
133,1778616057.4259999,0.19,-0.23,0.0,4.52,-9.4,24.6
134,1778616057.43602,0.19,-0.23,0.0,4.52,-9.4,24.6
135,1778616057.4460402,0.19,-0.23,0.0,4.52,-9.4,24.6
136,1778616057.4559228,0.07,-0.13,-0.02,110.35,-78.19,2.5
137,1778616057.465953,0.07,-0.13,-0.02,110.35,-78.19,2.5
138,1778616057.475989,0.07,-0.13,-0.02,110.35,-78.19,2.5
139,1778616057.486023,0.07,-0.13,-0.02,110.35,-78.19,2.5
140,1778616057.496019,0.02,0.05,-0.05,132.39,-135.07,-59.39
141,1778616057.505997,0.02,0.05,-0.05,132.39,-135.07,-59.39
142,1778616057.516029,0.02,0.05,-0.05,132.39,-135.07,-59.39
143,1778616057.525952,0.02,0.05,-0.05,132.39,-135.07,-59.39
144,1778616057.5360482,0.04,0.08,0.02,125.98,-153.08,-65.73
145,1778616057.5459578,0.04,0.08,0.02,125.98,-153.08,-65.73
146,1778616057.556004,0.04,0.08,0.02,125.98,-153.08,-65.73
147,1778616057.566043,0.04,0.08,0.02,125.98,-153.08,-65.73
148,1778616057.5759602,0.04,0.08,0.02,125.98,-153.08,-65.73
149,1778616057.586004,0.04,0.08,0.02,125.98,-153.08,-65.73
150,1778616057.595927,0.04,0.08,0.02,125.98,-153.08,-65.73
151,1778616057.6059651,0.04,0.08,0.02,125.98,-153.08,-65.73
152,1778616057.616014,0.04,0.08,0.02,125.98,-153.08,-65.73
153,1778616057.625943,0.04,0.08,0.02,125.98,-153.08,-65.73
154,1778616057.635975,-0.11,-0.14,-0.6,-85.08,32.53,-11.66
155,1778616057.646006,-0.11,-0.14,-0.6,-85.08,32.53,-11.66
156,1778616057.656039,-0.1,-0.28,-0.2,140.44,64.51,-14.89
157,1778616057.6659598,-0.1,-0.28,-0.2,140.44,64.51,-14.89
158,1778616057.6759832,-0.1,-0.28,-0.2,140.44,64.51,-14.89
159,1778616057.686021,-0.1,-0.28,-0.2,140.44,64.51,-14.89
160,1778616057.696043,-0.1,-0.28,-0.2,140.44,64.51,-14.89
161,1778616057.705963,-8.0,-8.0,-3.65,-673.28,190.61,615.91
162,1778616057.71598,-8.0,-8.0,-3.65,-673.28,190.61,615.91
163,1778616057.7259939,-8.0,-8.0,-3.65,-673.28,190.61,615.91
164,1778616057.7360451,-8.0,-8.0,-3.65,-673.28,190.61,615.91
165,1778616057.745926,-8.0,-8.0,-3.65,-673.28,190.61,615.91
166,1778616057.755968,-8.0,-8.0,-3.65,-673.28,190.61,615.91
167,1778616057.766006,-8.0,-8.0,-3.65,-673.28,190.61,615.91
168,1778616057.77601,-8.0,-8.0,-3.65,-673.28,190.61,615.91
169,1778616057.785922,-8.0,-8.0,-3.65,-673.28,190.61,615.91
170,1778616057.7959301,-8.0,-8.0,-3.65,-673.28,190.61,615.91
171,1778616057.8059862,-8.0,-8.0,-3.65,-673.28,190.61,615.91
172,1778616057.815976,-8.0,-8.0,-3.65,-673.28,190.61,615.91
173,1778616057.825943,-8.0,-8.0,-3.65,-673.28,190.61,615.91
174,1778616057.835983,-8.0,-8.0,-3.65,-673.28,190.61,615.91
175,1778616057.846047,0.69,-0.45,-0.48,-155.09,144.47,235.23
176,1778616057.855956,0.69,-0.45,-0.48,-155.09,144.47,235.23
177,1778616057.8660228,0.69,-0.45,-0.48,-155.09,144.47,235.23
178,1778616057.875963,0.64,0.05,-0.35,168.4,13.43,129.15
179,1778616057.886007,0.64,0.05,-0.35,168.4,13.43,129.15
180,1778616057.895929,0.64,0.05,-0.35,168.4,13.43,129.15
181,1778616057.9059908,0.64,0.05,-0.35,168.4,13.43,129.15
182,1778616057.916039,0.23,0.29,0.04,-117.98,-40.65,32.04
183,1778616057.9259672,0.23,0.29,0.04,-117.98,-40.65,32.04
184,1778616057.9359949,0.23,0.29,0.04,-117.98,-40.65,32.04
185,1778616057.94595,0.23,0.29,0.04,-117.98,-40.65,32.04
186,1778616057.9559622,0.0,0.12,0.0,-117.98,-40.65,32.04
187,1778616057.965995,0.0,0.12,0.0,-169.68,-36.32,-19.29
188,1778616057.97594,0.0,0.12,0.0,-169.68,-36.32,-19.29
189,1778616057.9859982,0.01,0.07,0.03,-169.68,-36.32,-19.29
190,1778616057.996011,0.01,0.07,0.03,-97.9,-99.98,-21.79
191,1778616058.00604,0.01,0.07,0.03,-97.9,-99.98,-21.79
192,1778616058.015931,0.01,0.07,0.03,-97.9,-99.98,-21.79
193,1778616058.025943,0.03,-0.02,0.13,-97.9,-99.98,-21.79
194,1778616058.035986,0.03,-0.02,0.13,-97.9,-99.98,-21.79
195,1778616058.046006,0.03,-0.02,0.13,-60.67,-109.5,-32.65
196,1778616058.0560489,0.03,-0.02,0.13,-60.67,-109.5,-32.65
197,1778616058.06593,0.03,-0.02,0.13,-60.67,-109.5,-32.65
198,1778616058.0759602,0.03,-0.02,0.13,-60.67,-109.5,-32.65
199,1778616058.085977,0.03,-0.02,0.13,-60.67,-109.5,-32.65
200,1778616058.095992,0.03,-0.02,0.13,-60.67,-109.5,-32.65
201,1778616058.1060412,0.03,-0.02,0.13,-60.67,-109.5,-32.65
202,1778616058.115941,0.03,-0.02,0.13,-60.67,-109.5,-32.65
203,1778616058.1259809,0.03,-0.02,0.13,-60.67,-109.5,-32.65
204,1778616058.135969,0.03,-0.02,0.13,-60.67,-109.5,-32.65
205,1778616058.1460521,0.03,-0.02,0.13,-60.67,-109.5,-32.65
206,1778616058.1560378,-3.03,-6.65,-1.29,-119.14,309.33,-124.21
207,1778616058.165997,-3.03,-6.65,-1.29,-119.14,309.33,-124.21
208,1778616058.1759849,-2.92,-1.59,-1.11,-114.38,86.18,-39.31
209,1778616058.1860218,-2.92,-1.59,-1.11,-114.38,86.18,-39.31
210,1778616058.196029,-2.92,-1.59,-1.11,-114.38,86.18,-39.31
211,1778616058.2059379,-2.92,-1.59,-1.11,-114.38,86.18,-39.31
212,1778616058.215968,-0.97,-1.43,0.05,-56.95,-228.76,-39.43
213,1778616058.2259798,-0.97,-1.43,0.05,-56.95,-228.76,-39.43
214,1778616058.236041,-0.76,-0.64,0.42,-56.95,-228.76,-39.43
215,1778616058.245947,-0.76,-0.64,0.42,0.61,-185.97,49.99
216,1778616058.255999,-0.76,-0.64,0.42,0.61,-185.97,49.99
217,1778616058.265923,-0.76,-0.64,0.42,0.61,-185.97,49.99
218,1778616058.275933,-0.76,-0.64,0.42,0.61,-185.97,49.99
219,1778616058.28597,-0.76,-0.64,0.42,0.61,-185.97,49.99
220,1778616058.295989,-0.76,-0.64,0.42,0.61,-185.97,49.99
221,1778616058.3060281,-0.76,-0.64,0.42,0.61,-185.97,49.99
222,1778616058.316045,-0.76,-0.64,0.42,0.61,-185.97,49.99
223,1778616058.3260102,-0.76,-0.64,0.42,0.61,-185.97,49.99
224,1778616058.336,-0.76,-0.64,0.42,0.61,-185.97,49.99
225,1778616058.346028,-0.05,0.27,0.11,-152.89,-267.09,270.81
226,1778616058.355926,-0.02,0.32,0.33,-204.9,-38.39,171.02
227,1778616058.3659708,-0.02,0.32,0.33,-204.9,-38.39,171.02
228,1778616058.375999,-0.02,0.32,0.33,-204.9,-38.39,171.02
229,1778616058.386014,0.03,0.06,-0.28,-204.9,-38.39,171.02
230,1778616058.3960252,0.03,0.06,-0.28,89.17,25.82,79.28
231,1778616058.405928,0.03,0.06,-0.28,89.17,25.82,79.28
232,1778616058.415937,0.03,0.06,-0.28,89.17,25.82,79.28
233,1778616058.425962,0.02,0.04,0.07,89.17,25.82,79.28
234,1778616058.435999,0.02,0.04,0.07,157.71,8.48,23.44
235,1778616058.4460201,0.02,0.04,0.07,157.71,8.48,23.44
236,1778616058.456048,0.02,0.04,0.07,157.71,8.48,23.44
237,1778616058.465954,0.04,0.01,0.03,117.92,-5.92,15.69
238,1778616058.476019,0.04,0.01,0.03,117.92,-5.92,15.69
239,1778616058.4859672,0.04,0.01,0.03,117.92,-5.92,15.69
240,1778616058.495996,0.02,0.02,0.0,67.87,-51.7,20.75
241,1778616058.506023,0.02,0.02,0.0,67.87,-51.7,20.75
242,1778616058.515955,0.02,0.02,0.0,67.87,-51.7,20.75
243,1778616058.525981,0.13,0.0,0.15,-73.85,-158.63,56.27
244,1778616058.5360482,0.13,0.0,0.15,-73.85,-158.63,56.27
245,1778616058.5459871,0.13,0.0,0.15,-73.85,-158.63,56.27
246,1778616058.556036,0.13,0.0,0.15,-73.85,-158.63,56.27
247,1778616058.56596,0.06,0.05,0.23,-161.32,-61.4,31.43
248,1778616058.575994,0.06,0.05,0.23,-161.32,-61.4,31.43
249,1778616058.5860422,0.06,0.05,0.23,-161.32,-61.4,31.43
250,1778616058.595922,0.06,0.05,0.23,-161.32,-61.4,31.43
251,1778616058.605956,0.06,0.05,0.23,-161.32,-61.4,31.43
252,1778616058.615985,0.06,0.05,0.23,-161.32,-61.4,31.43
253,1778616058.6259809,0.06,0.05,0.23,-161.32,-61.4,31.43
254,1778616058.6359942,0.06,0.05,0.23,-161.32,-61.4,31.43
255,1778616058.646019,0.06,0.05,0.23,-161.32,-61.4,31.43
256,1778616058.656024,0.06,0.05,0.23,-161.32,-61.4,31.43
257,1778616058.665929,0.06,0.05,0.23,-161.32,-61.4,31.43
258,1778616058.675942,-1.84,-2.01,0.14,-394.29,-310.12,-95.03
259,1778616058.6859908,-1.84,-2.01,0.14,-394.29,-310.12,-95.03
260,1778616058.6960268,-1.84,-2.01,0.14,-394.29,-310.12,-95.03
261,1778616058.70593,-0.55,-0.51,0.34,-394.29,-310.12,-95.03
262,1778616058.715966,-0.55,-0.51,0.34,267.33,202.58,182.92
263,1778616058.725992,-0.55,-0.51,0.34,267.33,202.58,182.92
264,1778616058.736017,-0.55,-0.51,0.34,267.33,202.58,182.92
265,1778616058.746013,-0.23,-0.94,-0.68,-57.25,-82.64,82.15
266,1778616058.7560441,-0.23,-0.94,-0.68,-57.25,-82.64,82.15
267,1778616058.765934,-0.23,-0.94,-0.68,-57.25,-82.64,82.15
268,1778616058.77597,-0.23,-0.94,-0.68,-57.25,-82.64,82.15
269,1778616058.7859972,-0.23,-0.94,-0.68,-57.25,-82.64,82.15
270,1778616058.796004,-0.23,-0.94,-0.68,-57.25,-82.64,82.15
271,1778616058.8059242,-0.23,-0.94,-0.68,-57.25,-82.64,82.15
272,1778616058.8159628,-0.23,-0.94,-0.68,-57.25,-82.64,82.15
273,1778616058.825975,-0.23,-0.94,-0.68,-57.25,-82.64,82.15
274,1778616058.835992,-0.23,-0.94,-0.68,-57.25,-82.64,82.15
275,1778616058.846009,-0.23,-0.94,-0.68,-57.25,-82.64,82.15
276,1778616058.855924,-0.23,-0.94,-0.68,-57.25,-82.64,82.15
277,1778616058.865957,0.0,0.02,-0.19,-138.92,36.99,-44.43
278,1778616058.8759592,0.0,0.02,-0.19,-138.92,36.99,-44.43
279,1778616058.885983,0.0,0.02,-0.19,-138.92,36.99,-44.43
280,1778616058.895988,0.0,0.02,-0.19,-138.92,36.99,-44.43
281,1778616058.9060218,0.04,0.07,0.09,-51.45,11.05,41.38
282,1778616058.915925,0.04,0.07,0.09,-51.45,11.05,41.38
283,1778616058.9259222,0.04,0.07,0.09,-51.45,11.05,41.38
284,1778616058.935971,0.04,0.07,0.09,-51.45,11.05,41.38
285,1778616058.945995,0.08,0.05,0.12,-7.69,28.99,60.42
286,1778616058.956036,0.08,0.05,0.12,-7.69,28.99,60.42
287,1778616058.9659488,0.08,0.05,0.12,-7.69,28.99,60.42
288,1778616058.976005,0.05,-0.03,0.3,-7.69,28.99,60.42
289,1778616058.985943,0.05,-0.03,0.3,-18.49,75.38,45.65
290,1778616058.995973,0.05,-0.03,0.3,-18.49,75.38,45.65
291,1778616059.006023,0.05,-0.03,0.3,-18.49,75.38,45.65
292,1778616059.015955,-0.04,-0.11,0.26,-292.11,45.72,21.97
293,1778616059.025982,-0.04,-0.11,0.26,-292.11,45.72,21.97
294,1778616059.0360131,-0.04,-0.11,0.26,-292.11,45.72,21.97
295,1778616059.0459251,-0.04,-0.11,0.26,-292.11,45.72,21.97
296,1778616059.055985,-0.53,-0.78,0.4,-504.76,-44.56,15.14
297,1778616059.065928,-0.53,-0.78,0.4,-504.76,-44.56,15.14
298,1778616059.07601,-0.53,-0.78,0.4,-504.76,-44.56,15.14
299,1778616059.0859609,-0.53,-0.78,0.4,-504.76,-44.56,15.14
300,1778616059.09601,-7.66,-1.85,-1.61,-61.16,-99.43,-68.42
301,1778616059.105928,-7.66,-1.85,-1.61,-61.16,-99.43,-68.42
302,1778616059.115964,-7.66,-1.85,-1.61,-61.16,-99.43,-68.42
303,1778616059.126005,-7.66,-1.85,-1.61,-61.16,-99.43,-68.42
304,1778616059.1360278,-7.66,-1.85,-1.61,-61.16,-99.43,-68.42
305,1778616059.145932,-7.66,-1.85,-1.61,-61.16,-99.43,-68.42
306,1778616059.1560042,-7.66,-1.85,-1.61,-61.16,-99.43,-68.42
307,1778616059.166044,-7.66,-1.85,-1.61,-61.16,-99.43,-68.42
308,1778616059.175935,-7.66,-1.85,-1.61,-61.16,-99.43,-68.42
309,1778616059.185982,-7.66,-1.85,-1.61,-61.16,-99.43,-68.42
310,1778616059.196042,-7.66,-1.85,-1.61,-61.16,-99.43,-68.42
311,1778616059.20595,-1.63,0.88,0.81,-144.59,-495.73,34.91
312,1778616059.2159228,-1.01,-0.12,-0.11,-111.33,-98.75,-17.88
313,1778616059.225981,-1.01,-0.12,-0.11,-111.33,-98.75,-17.88
314,1778616059.235942,-1.01,-0.12,-0.11,-111.33,-98.75,-17.88
315,1778616059.245974,0.03,0.1,0.26,241.03,11.29,-60.61
316,1778616059.256012,0.03,0.1,0.26,241.03,11.29,-60.61
317,1778616059.265929,0.03,0.1,0.26,241.03,11.29,-60.61
318,1778616059.2759428,0.03,0.1,0.26,241.03,11.29,-60.61
319,1778616059.285982,-0.04,-0.07,0.04,228.27,180.97,-38.09
320,1778616059.296014,-0.04,-0.07,0.04,228.27,180.97,-38.09
321,1778616059.305946,-0.04,-0.07,0.04,228.27,180.97,-38.09
322,1778616059.315968,-0.04,-0.07,0.04,228.27,180.97,-38.09
323,1778616059.3260128,-0.04,-0.07,0.04,228.27,180.97,-38.09
324,1778616059.336034,-0.04,-0.07,0.04,228.27,180.97,-38.09
325,1778616059.34592,-0.04,-0.07,0.04,228.27,180.97,-38.09
326,1778616059.355938,-0.04,-0.07,0.04,228.27,180.97,-38.09
327,1778616059.3659918,-0.04,-0.07,0.04,228.27,180.97,-38.09
328,1778616059.375999,-0.04,-0.07,0.04,228.27,180.97,-38.09
329,1778616059.386029,-0.04,-0.07,0.04,228.27,180.97,-38.09
330,1778616059.3959382,0.03,0.04,0.03,-8.48,-14.95,2.81
331,1778616059.4059432,0.03,0.04,0.03,-8.48,-14.95,2.81
332,1778616059.415977,0.03,0.04,0.03,-8.48,-14.95,2.81
333,1778616059.426007,0.07,0.01,0.08,-89.42,-137.21,13.24
334,1778616059.435931,0.07,0.01,0.08,-89.42,-137.21,13.24
335,1778616059.445961,0.07,0.01,0.08,-89.42,-137.21,13.24
336,1778616059.4559941,0.07,0.01,0.08,-89.42,-137.21,13.24
337,1778616059.4660108,0.07,0.01,0.08,-89.42,-137.21,13.24
338,1778616059.476031,0.02,0.03,0.07,-62.68,-126.89,-8.24
339,1778616059.48593,0.02,0.03,0.07,-62.68,-126.89,-8.24
340,1778616059.495967,0.02,0.03,0.07,-62.68,-126.89,-8.24
341,1778616059.505975,-0.01,-0.0,0.05,-7.57,-110.23,-8.54
342,1778616059.5160031,-0.01,-0.0,0.05,-7.57,-110.23,-8.54
343,1778616059.5260348,-0.01,-0.0,0.05,-7.57,-110.23,-8.54
344,1778616059.535946,-0.01,0.02,0.02,2.08,-108.52,-5.13
345,1778616059.54598,-0.01,0.02,0.02,2.08,-108.52,-5.13
346,1778616059.5560021,-0.01,0.02,0.02,2.08,-108.52,-5.13
347,1778616059.565961,-0.01,0.02,0.02,2.08,-108.52,-5.13
348,1778616059.5759208,-0.93,-0.82,-0.38,-9.46,-90.7,23.38
349,1778616059.585973,-0.93,-0.82,-0.38,-9.46,-90.7,23.38
350,1778616059.596021,-0.93,-0.82,-0.38,-9.46,-90.7,23.38
351,1778616059.6059499,-0.93,-0.82,-0.38,-9.46,-90.7,23.38
352,1778616059.615985,-7.71,0.25,0.54,-557.07,20.63,-83.92
353,1778616059.626001,-7.71,0.25,0.54,-557.07,20.63,-83.92
354,1778616059.6360462,-7.71,0.25,0.54,-557.07,20.63,-83.92
355,1778616059.645956,-7.71,0.25,0.54,-557.07,20.63,-83.92
356,1778616059.6560051,-7.71,0.25,0.54,-557.07,20.63,-83.92
357,1778616059.6660311,-7.71,0.25,0.54,-557.07,20.63,-83.92
358,1778616059.6759338,-7.71,0.25,0.54,-557.07,20.63,-83.92
359,1778616059.685972,-7.71,0.25,0.54,-557.07,20.63,-83.92
360,1778616059.696011,-7.71,0.25,0.54,-557.07,20.63,-83.92
361,1778616059.705923,-7.71,0.25,0.54,-557.07,20.63,-83.92
362,1778616059.715944,-7.71,0.25,0.54,-557.07,20.63,-83.92
363,1778616059.725981,-0.8,-0.03,0.42,502.75,141.48,59.63
364,1778616059.736005,-0.47,-0.33,-0.52,203.06,185.24,150.09
365,1778616059.746037,-0.47,-0.33,-0.52,203.06,185.24,150.09
366,1778616059.7559319,-0.47,-0.33,-0.52,203.06,185.24,150.09
367,1778616059.765957,-0.05,-0.32,-0.32,203.06,185.24,150.09
368,1778616059.77597,-0.05,-0.32,-0.32,0.61,-187.38,71.72
369,1778616059.786004,-0.05,-0.32,-0.32,0.61,-187.38,71.72
370,1778616059.7960372,-0.05,-0.32,-0.32,0.61,-187.38,71.72
371,1778616059.805959,0.43,-0.41,0.42,40.34,-93.26,-29.79
372,1778616059.8159392,0.43,-0.41,0.42,40.34,-93.26,-29.79
373,1778616059.825931,0.43,-0.41,0.42,40.34,-93.26,-29.79
374,1778616059.8359702,0.43,-0.41,0.42,40.34,-93.26,-29.79
375,1778616059.8459861,0.43,-0.41,0.42,40.34,-93.26,-29.79
376,1778616059.856021,0.43,-0.41,0.42,40.34,-93.26,-29.79
377,1778616059.8660438,0.43,-0.41,0.42,40.34,-93.26,-29.79
378,1778616059.875968,0.43,-0.41,0.42,40.34,-93.26,-29.79
379,1778616059.886009,0.43,-0.41,0.42,40.34,-93.26,-29.79
380,1778616059.8960168,0.43,-0.41,0.42,40.34,-93.26,-29.79
381,1778616059.906006,0.43,-0.41,0.42,40.34,-93.26,-29.79
382,1778616059.916021,0.1,-0.04,0.07,-59.51,72.45,-29.36
383,1778616059.926044,0.1,-0.04,0.07,-59.51,72.45,-29.36
384,1778616059.935957,0.1,-0.04,0.07,-59.51,72.45,-29.36
385,1778616059.945973,0.1,-0.04,0.07,-59.51,72.45,-29.36
386,1778616059.955998,-0.02,-0.09,0.14,-140.32,16.6,5.13
387,1778616059.9660292,-0.02,-0.09,0.14,-140.32,16.6,5.13
388,1778616059.976036,-0.02,-0.09,0.14,-140.32,16.6,5.13
389,1778616059.98595,-0.02,-0.09,0.14,-140.32,16.6,5.13
390,1778616059.99598,-0.07,-0.15,0.21,-227.29,-41.5,13.55
391,1778616060.005993,-0.07,-0.15,0.21,-227.29,-41.5,13.55
392,1778616060.016033,-0.07,-0.15,0.21,-227.29,-41.5,13.55
393,1778616060.026021,-0.07,-0.15,0.21,-227.29,-41.5,13.55
394,1778616060.0359921,-1.66,-1.72,0.73,-468.93,62.68,-10.62
395,1778616060.046023,-1.66,-1.72,0.73,-468.93,62.68,-10.62
396,1778616060.0559459,-1.66,-1.72,0.73,-468.93,62.68,-10.62
397,1778616060.065993,-1.66,-1.72,0.73,-468.93,62.68,-10.62
398,1778616060.076035,-5.93,1.99,1.73,143.19,-592.65,293.82
399,1778616060.085956,-5.93,1.99,1.73,143.19,-592.65,293.82
400,1778616060.095992,-5.93,1.99,1.73,143.19,-592.65,293.82
401,1778616060.106045,-5.93,1.99,1.73,143.19,-592.65,293.82
402,1778616060.115968,-2.89,0.84,-0.36,569.03,45.84,-137.57
403,1778616060.1259909,-2.89,0.84,-0.36,569.03,45.84,-137.57
404,1778616060.136043,-2.89,0.84,-0.36,569.03,45.84,-137.57
405,1778616060.145947,-1.55,0.75,0.17,-355.22,112.18,0.37
406,1778616060.1559958,-1.55,0.75,0.17,-355.22,112.18,0.37
407,1778616060.1660202,-1.55,0.75,0.17,-355.22,112.18,0.37
408,1778616060.17592,-1.55,0.75,0.17,-355.22,112.18,0.37
409,1778616060.1859891,-1.55,0.75,0.17,-355.22,112.18,0.37
410,1778616060.195992,-1.55,0.75,0.17,-355.22,112.18,0.37
411,1778616060.206024,-1.55,0.75,0.17,-355.22,112.18,0.37
412,1778616060.2159538,-1.55,0.75,0.17,-355.22,112.18,0.37
413,1778616060.226033,-1.55,0.75,0.17,-355.22,112.18,0.37
414,1778616060.235947,-1.55,0.75,0.17,-355.22,112.18,0.37
415,1778616060.245983,-1.55,0.75,0.17,-355.22,112.18,0.37
416,1778616060.255927,0.31,0.07,-0.86,-296.87,36.99,99.18
417,1778616060.265936,0.31,0.07,-0.86,-231.69,127.75,192.93
418,1778616060.276041,0.31,0.07,-0.86,-231.69,127.75,192.93
419,1778616060.2859368,0.31,0.07,-0.86,-231.69,127.75,192.93
420,1778616060.295962,-0.0,0.14,-0.16,284.18,-53.1,101.87
421,1778616060.305989,-0.0,0.14,-0.16,284.18,-53.1,101.87
422,1778616060.315999,-0.0,0.14,-0.16,284.18,-53.1,101.87
423,1778616060.326032,-0.0,0.14,-0.16,284.18,-53.1,101.87
424,1778616060.3359501,-0.07,0.14,0.52,159.18,-42.6,38.7
425,1778616060.34597,-0.07,0.14,0.52,159.18,-42.6,38.7
426,1778616060.3560169,-0.07,0.14,0.52,159.18,-42.6,38.7
427,1778616060.3659399,-0.07,0.14,0.52,159.18,-42.6,38.7
428,1778616060.375967,-0.07,0.14,0.52,159.18,-42.6,38.7
429,1778616060.3860328,-0.07,0.14,0.52,159.18,-42.6,38.7
430,1778616060.3960052,-0.07,0.14,0.52,159.18,-42.6,38.7
431,1778616060.405921,-0.07,0.14,0.52,159.18,-42.6,38.7
432,1778616060.415976,-0.07,0.14,0.52,159.18,-42.6,38.7
433,1778616060.426002,-0.07,0.14,0.52,159.18,-42.6,38.7
434,1778616060.436049,-0.07,0.14,0.52,159.18,-42.6,38.7
435,1778616060.4459321,-0.1,-0.01,0.13,-47.91,-89.84,-18.86
436,1778616060.455945,-0.1,-0.01,0.13,-47.91,-89.84,-18.86
437,1778616060.465982,-0.1,-0.01,0.13,-47.91,-89.84,-18.86
438,1778616060.4760242,-0.09,-0.09,0.07,-82.46,-81.42,-46.2
439,1778616060.48592,-0.09,-0.09,0.07,-82.46,-81.42,-46.2
440,1778616060.495929,-0.09,-0.09,0.07,-82.46,-81.42,-46.2
441,1778616060.5059662,-0.09,-0.09,0.07,-82.46,-81.42,-46.2
442,1778616060.51601,-0.09,-0.09,0.07,-82.46,-81.42,-46.2
443,1778616060.5259242,-0.09,-0.09,0.07,-82.46,-81.42,-46.2
444,1778616060.535959,-0.09,-0.09,0.07,-82.46,-81.42,-46.2
445,1778616060.5459661,-0.49,-0.41,0.43,-174.01,-2.87,-54.32
446,1778616060.556007,-0.49,-0.41,0.43,-174.01,-2.87,-54.32
447,1778616060.5660422,-0.49,-0.41,0.43,-174.01,-2.87,-54.32
448,1778616060.575962,-0.49,-0.41,0.43,-174.01,-2.87,-54.32
449,1778616060.586007,-8.0,6.33,-0.97,435.49,-189.09,-90.39
450,1778616060.596021,-8.0,6.33,-0.97,435.49,-189.09,-90.39
451,1778616060.606036,-8.0,6.33,-0.97,435.49,-189.09,-90.39
452,1778616060.615954,-8.0,6.33,-0.97,435.49,-189.09,-90.39
453,1778616060.625987,-0.28,0.25,-0.03,435.49,-189.09,-90.39
454,1778616060.636002,-0.28,0.25,-0.03,435.49,-189.09,-90.39
455,1778616060.645971,-0.28,0.25,-0.03,212.71,-677.8,-129.03
456,1778616060.656011,-0.28,0.25,-0.03,212.71,-677.8,-129.03
457,1778616060.6660402,-1.14,0.33,0.63,146.91,-191.35,143.74
458,1778616060.676045,-1.14,0.33,0.63,146.91,-191.35,143.74
459,1778616060.685938,-1.14,0.33,0.63,146.91,-191.35,143.74
460,1778616060.695968,-1.14,0.33,0.63,146.91,-191.35,143.74
461,1778616060.706014,-1.14,0.33,0.63,146.91,-191.35,143.74
462,1778616060.7160451,-1.14,0.33,0.63,146.91,-191.35,143.74
463,1778616060.725931,-1.14,0.33,0.63,146.91,-191.35,143.74
464,1778616060.7359638,-1.14,0.33,0.63,146.91,-191.35,143.74
465,1778616060.745982,-1.14,0.33,0.63,146.91,-191.35,143.74
466,1778616060.756006,-1.14,0.33,0.63,146.91,-191.35,143.74
467,1778616060.766027,-1.14,0.33,0.63,146.91,-191.35,143.74
468,1778616060.7759418,-0.33,-0.18,-0.03,-202.88,-66.77,-30.27
469,1778616060.785981,-0.33,-0.18,-0.03,-202.88,-66.77,-30.27
470,1778616060.795995,-0.33,-0.18,-0.03,-202.88,-66.77,-30.27
471,1778616060.806023,0.24,-0.05,0.25,42.91,61.04,-103.39
472,1778616060.8159192,0.24,-0.05,0.25,42.91,61.04,-103.39
473,1778616060.8259351,0.24,-0.05,0.25,42.91,61.04,-103.39
474,1778616060.835978,0.24,-0.05,0.25,42.91,61.04,-103.39
475,1778616060.846029,0.18,-0.01,0.21,-42.24,81.05,-71.9
476,1778616060.85594,0.18,-0.01,0.21,-42.24,81.05,-71.9
477,1778616060.865958,0.18,-0.01,0.21,-42.24,81.05,-71.9
478,1778616060.875968,0.18,-0.01,0.21,-42.24,81.05,-71.9
479,1778616060.886016,0.18,-0.01,0.21,-42.24,81.05,-71.9
480,1778616060.89604,0.18,-0.01,0.21,-42.24,81.05,-71.9
481,1778616060.905926,0.18,-0.01,0.21,-42.24,81.05,-71.9
482,1778616060.915936,0.18,-0.01,0.21,-42.24,81.05,-71.9
483,1778616060.92594,0.18,-0.01,0.21,-42.24,81.05,-71.9
484,1778616060.935981,0.18,-0.01,0.21,-42.24,81.05,-71.9
485,1778616060.946005,0.18,-0.01,0.21,-42.24,81.05,-71.9
486,1778616060.956034,0.18,-0.01,0.21,-42.24,81.05,-71.9
487,1778616060.96595,0.15,0.0,0.34,-3.6,32.53,-15.69
488,1778616060.97599,-0.25,-0.32,0.68,-489.75,153.14,-67.26
489,1778616060.986039,-0.25,-0.32,0.68,-489.75,153.14,-67.26
490,1778616060.9959328,-2.85,-0.24,-3.44,138.79,-299.68,-149.72
491,1778616061.0059772,-2.85,-0.24,-3.44,138.79,-299.68,-149.72
492,1778616061.016018,-2.85,-0.24,-3.44,138.79,-299.68,-149.72
493,1778616061.026044,-4.11,2.54,-0.76,165.47,356.2,264.95
494,1778616061.0359418,-4.11,2.54,-0.76,165.47,356.2,264.95
495,1778616061.045957,-4.11,2.54,-0.76,165.47,356.2,264.95
496,1778616061.056001,-4.11,2.54,-0.76,165.47,356.2,264.95
497,1778616061.066022,-3.07,2.37,0.3,-39.92,74.71,-167.72
498,1778616061.075922,-3.07,2.37,0.3,-39.92,74.71,-167.72
499,1778616061.0859468,-3.07,2.37,0.3,-39.92,74.71,-167.72
500,1778616061.0959702,-3.07,2.37,0.3,-39.92,74.71,-167.72
501,1778616061.105999,-1.19,2.08,0.36,-71.11,4.76,-31.07
502,1778616061.116043,-1.19,2.08,0.36,-71.11,4.76,-31.07
503,1778616061.12593,-1.19,2.08,0.36,-71.11,4.76,-31.07
504,1778616061.13596,-1.19,2.08,0.36,-71.11,4.76,-31.07
505,1778616061.145976,-0.3,1.04,0.0,-211.12,-52.19,97.53
506,1778616061.15602,-0.3,1.04,0.0,-211.12,-52.19,97.53
507,1778616061.166034,-0.3,1.04,0.0,-211.12,-52.19,97.53
508,1778616061.1760461,-0.3,1.04,0.0,-211.12,-52.19,97.53
509,1778616061.1859279,-0.19,0.5,-0.3,-106.02,44.86,84.41
510,1778616061.195926,-0.19,0.5,-0.3,-106.02,44.86,84.41
511,1778616061.2059698,-0.19,0.5,-0.3,-106.02,44.86,84.41
512,1778616061.215976,-0.19,0.5,-0.3,-106.02,44.86,84.41
513,1778616061.226024,-0.19,0.5,-0.3,-106.02,44.86,84.41
514,1778616061.235926,-0.19,0.5,-0.3,-106.02,44.86,84.41
515,1778616061.245963,-0.19,0.5,-0.3,-106.02,44.86,84.41
516,1778616061.255984,-0.19,0.5,-0.3,-106.02,44.86,84.41
517,1778616061.266015,-0.19,0.5,-0.3,-106.02,44.86,84.41
518,1778616061.276041,-0.19,0.5,-0.3,-106.02,44.86,84.41
519,1778616061.2860181,-0.19,0.5,-0.3,-106.02,44.86,84.41
520,1778616061.296015,-0.03,-0.01,0.02,154.72,-84.59,-47.12
521,1778616061.3060448,-0.03,-0.01,0.02,154.72,-84.59,-47.12
522,1778616061.315962,-0.03,-0.01,0.02,154.72,-84.59,-47.12
523,1778616061.325933,-0.03,-0.01,0.02,154.72,-84.59,-47.12
524,1778616061.336015,-0.05,-0.08,0.08,148.8,-116.58,-50.35
525,1778616061.3459399,-0.05,-0.08,0.08,148.8,-116.58,-50.35
526,1778616061.35598,-0.06,-0.08,0.17,148.8,-116.58,-50.35
527,1778616061.36592,-0.06,-0.08,0.17,106.69,-125.98,-25.45
528,1778616061.376044,-0.06,-0.08,0.17,106.69,-125.98,-25.45
529,1778616061.385996,-0.06,-0.08,0.17,106.69,-125.98,-25.45
530,1778616061.39604,-0.01,-0.04,0.14,-0.24,-44.92,10.74
531,1778616061.405952,-0.01,-0.04,0.14,-0.24,-44.92,10.74
532,1778616061.415968,-0.01,-0.04,0.14,-0.24,-44.92,10.74
533,1778616061.425946,-0.01,-0.04,0.14,-0.24,-44.92,10.74
534,1778616061.436008,-0.01,-0.04,0.14,-0.24,-44.92,10.74
535,1778616061.4460428,-0.01,-0.04,0.14,-0.24,-44.92,10.74
536,1778616061.455988,-0.01,-0.04,0.14,-0.24,-44.92,10.74
537,1778616061.465931,-0.01,-0.04,0.14,-0.24,-44.92,10.74
538,1778616061.4759932,-0.01,-0.04,0.14,-0.24,-44.92,10.74
539,1778616061.485921,-0.01,-0.04,0.14,-0.24,-44.92,10.74
540,1778616061.49597,-0.06,-0.08,0.03,-164.06,-49.74,-32.84
541,1778616061.506031,-0.06,-0.08,0.03,-164.06,-49.74,-32.84
542,1778616061.515966,-4.14,0.05,0.48,-251.04,-21.97,221.92
543,1778616061.526012,-4.14,0.05,0.48,-251.04,-21.97,221.92
544,1778616061.5359502,-4.14,0.05,0.48,-251.04,-21.97,221.92
545,1778616061.546002,-4.14,0.05,0.48,-251.04,-21.97,221.92
546,1778616061.556009,-4.02,2.67,-0.3,221.92,-114.26,-319.21
547,1778616061.565919,-4.02,2.67,-0.3,221.92,-114.26,-319.21
548,1778616061.575949,-4.02,2.67,-0.3,221.92,-114.26,-319.21
549,1778616061.585977,-4.02,2.67,-0.3,221.92,-114.26,-319.21
550,1778616061.595998,-0.74,0.67,0.52,293.33,-289.79,-35.52
551,1778616061.606039,-0.74,0.67,0.52,293.33,-289.79,-35.52
552,1778616061.6159391,-0.74,0.67,0.52,293.33,-289.79,-35.52
553,1778616061.6260328,-0.51,0.61,0.46,205.87,1.77,1.1
554,1778616061.635942,-0.51,0.61,0.46,205.87,1.77,1.1
555,1778616061.64598,-0.51,0.61,0.46,205.87,1.77,1.1
556,1778616061.6560261,-0.51,0.61,0.46,205.87,1.77,1.1
557,1778616061.665935,-0.39,0.29,0.09,-66.1,152.89,-48.65
558,1778616061.675978,-0.39,0.29,0.09,-66.1,152.89,-48.65
559,1778616061.686018,-0.39,0.29,0.09,-66.1,152.89,-48.65
560,1778616061.6959271,-0.39,0.29,0.09,-66.1,152.89,-48.65
561,1778616061.7059588,0.19,0.2,-0.32,-290.89,155.94,-91.67
562,1778616061.71598,0.19,0.2,-0.32,-290.89,155.94,-91.67
563,1778616061.726024,0.19,0.2,-0.32,-290.89,155.94,-91.67
564,1778616061.736031,0.19,0.2,-0.32,-290.89,155.94,-91.67
565,1778616061.745933,0.19,0.2,-0.32,-290.89,155.94,-91.67
566,1778616061.75595,0.19,0.2,-0.32,-290.89,155.94,-91.67
567,1778616061.7659678,0.19,0.2,-0.32,-290.89,155.94,-91.67
568,1778616061.775989,0.19,0.2,-0.32,-290.89,155.94,-91.67
569,1778616061.7860339,0.19,0.2,-0.32,-290.89,155.94,-91.67
570,1778616061.795927,0.19,0.2,-0.32,-290.89,155.94,-91.67
571,1778616061.80596,0.19,0.2,-0.32,-290.89,155.94,-91.67
572,1778616061.815979,0.19,0.2,-0.32,-290.89,155.94,-91.67
573,1778616061.8259919,0.2,-0.34,-0.76,-290.89,155.94,-91.67
574,1778616061.8359199,0.02,-0.01,-0.04,-199.16,212.34,-27.47
575,1778616061.845983,0.02,-0.01,-0.04,78.98,102.78,21.36
576,1778616061.8560379,0.02,-0.01,-0.04,78.98,102.78,21.36
577,1778616061.865955,0.06,0.01,0.02,149.17,27.4,23.86
578,1778616061.87599,0.06,0.01,0.02,149.17,27.4,23.86
579,1778616061.885917,0.09,0.1,0.28,132.26,-22.09,28.69
580,1778616061.895981,0.09,0.1,0.28,132.26,-22.09,28.69
581,1778616061.906026,0.09,0.1,0.28,132.26,-22.09,28.69
582,1778616061.9159732,0.09,0.1,0.28,132.26,-22.09,28.69
583,1778616061.92592,0.09,-0.0,0.85,-165.34,229.49,36.68
584,1778616061.9359748,0.09,-0.0,0.85,-165.34,229.49,36.68
585,1778616061.9460428,0.09,-0.0,0.85,-165.34,229.49,36.68
586,1778616061.955957,0.09,-0.0,0.85,-165.34,229.49,36.68
587,1778616061.966006,0.09,-0.0,0.85,-165.34,229.49,36.68
588,1778616061.975935,0.09,-0.0,0.85,-165.34,229.49,36.68
589,1778616061.985983,0.09,-0.0,0.85,-165.34,229.49,36.68
590,1778616061.9960341,0.09,-0.0,0.85,-165.34,229.49,36.68
591,1778616062.005999,0.09,-0.0,0.85,-165.34,229.49,36.68
592,1778616062.015954,-8.0,3.65,-1.19,-348.21,271.85,158.08
593,1778616062.026006,-8.0,3.65,-1.19,-348.21,271.85,158.08
594,1778616062.035928,0.11,3.15,-5.64,601.07,-713.93,-188.29
595,1778616062.045978,0.11,3.15,-5.64,601.07,-713.93,-188.29
596,1778616062.0559978,0.11,3.15,-5.64,601.07,-713.93,-188.29
597,1778616062.066012,0.11,3.15,-5.64,601.07,-713.93,-188.29
598,1778616062.075917,-1.19,1.23,-0.38,601.07,-713.93,-188.29
599,1778616062.08597,-1.19,1.23,-0.38,-42.6,92.9,-22.77
600,1778616062.09601,-1.19,1.23,-0.38,-42.6,92.9,-22.77
601,1778616062.105951,-1.19,1.23,-0.38,-42.6,92.9,-22.77
602,1778616062.115979,-0.43,0.82,0.28,24.35,-74.16,28.44
603,1778616062.1259909,-0.43,0.82,0.28,24.35,-74.16,28.44
604,1778616062.136023,-0.43,0.82,0.28,24.35,-74.16,28.44
605,1778616062.146045,-0.43,0.82,0.28,24.35,-74.16,28.44
606,1778616062.155941,-0.19,0.32,-0.09,-65.06,-13.67,59.75
607,1778616062.165955,-0.19,0.32,-0.09,-65.06,-13.67,59.75
608,1778616062.175972,-0.19,0.32,-0.09,-65.06,-13.67,59.75
609,1778616062.1860201,-0.19,0.32,-0.09,-65.06,-13.67,59.75
610,1778616062.196046,-0.1,0.1,0.08,-46.81,20.81,21.61
611,1778616062.2059588,-0.1,0.1,0.08,-46.81,20.81,21.61
612,1778616062.216012,-0.1,0.1,0.08,-46.81,20.81,21.61
613,1778616062.225919,-0.1,0.1,0.08,-46.81,20.81,21.61
614,1778616062.235946,-0.1,0.1,0.08,-46.81,20.81,21.61
615,1778616062.2459478,-0.1,0.1,0.08,-46.81,20.81,21.61
616,1778616062.2559948,-0.05,-0.02,0.03,-17.21,35.4,-37.48
617,1778616062.2660348,-0.05,-0.02,0.03,-17.21,35.4,-37.48
618,1778616062.275924,-0.05,-0.02,0.03,-17.21,35.4,-37.48
619,1778616062.285944,-0.05,-0.02,0.03,-17.21,35.4,-37.48
620,1778616062.295975,-0.05,-0.02,0.03,-17.21,35.4,-37.48
621,1778616062.306001,-0.05,-0.02,0.03,-17.21,35.4,-37.48
622,1778616062.3160372,-0.05,-0.02,0.03,-17.21,35.4,-37.48
623,1778616062.3260438,-0.05,-0.02,0.03,-17.21,35.4,-37.48
624,1778616062.3359969,-0.05,-0.02,0.03,-17.21,35.4,-37.48
625,1778616062.345972,-0.04,-0.0,0.03,-164.25,37.9,-25.33
626,1778616062.355996,-0.04,-0.0,0.03,-164.25,37.9,-25.33
627,1778616062.36604,-0.04,-0.0,0.03,-164.25,37.9,-25.33
628,1778616062.376044,0.02,0.01,-0.06,-164.25,37.9,-25.33
629,1778616062.386045,0.02,0.01,-0.06,-192.08,68.18,-49.5
630,1778616062.396032,0.02,0.01,-0.06,-192.08,68.18,-49.5
631,1778616062.4059231,0.02,0.01,-0.06,-192.08,68.18,-49.5
632,1778616062.416033,-0.11,0.01,-1.35,-176.57,9.16,-64.33
633,1778616062.4259999,-0.11,0.01,-1.35,-176.57,9.16,-64.33
634,1778616062.435955,-0.11,0.01,-1.35,-176.57,9.16,-64.33
635,1778616062.446031,-0.11,0.01,-1.35,-176.57,9.16,-64.33
636,1778616062.456001,-0.11,0.01,-1.35,-176.57,9.16,-64.33
637,1778616062.4659672,-0.11,0.01,-1.35,-176.57,9.16,-64.33
638,1778616062.4759371,-0.11,0.01,-1.35,-176.57,9.16,-64.33
639,1778616062.485929,-0.11,0.01,-1.35,-176.57,9.16,-64.33
640,1778616062.495958,-0.11,0.01,-1.35,-176.57,9.16,-64.33
641,1778616062.505943,-0.11,0.01,-1.35,-176.57,9.16,-64.33
642,1778616062.5160441,-0.11,0.01,-1.35,-176.57,9.16,-64.33
643,1778616062.526026,-0.11,0.01,-1.35,-176.57,9.16,-64.33
644,1778616062.535926,-0.11,0.01,-1.35,-176.57,9.16,-64.33
645,1778616062.5459552,-2.32,2.4,-0.36,14.4,-387.08,-121.09
646,1778616062.5559769,-2.32,2.4,-0.36,14.4,-387.08,-121.09
647,1778616062.565994,0.24,-0.04,0.1,14.4,-387.08,-121.09
648,1778616062.576025,0.24,-0.04,0.1,-45.23,-453.06,-211.12
649,1778616062.585935,0.24,-0.04,0.1,-45.23,-453.06,-211.12
650,1778616062.595961,0.24,-0.04,0.1,-45.23,-453.06,-211.12
651,1778616062.606015,0.75,0.03,0.43,-116.21,527.16,-63.11
652,1778616062.616042,0.75,0.03,0.43,-116.21,527.16,-63.11
653,1778616062.62593,0.75,0.03,0.43,-116.21,527.16,-63.11
654,1778616062.635977,0.75,0.03,0.43,-116.21,527.16,-63.11
655,1778616062.646026,0.1,-0.41,-2.21,-179.44,72.69,-56.58
656,1778616062.6559548,0.1,-0.41,-2.21,-179.44,72.69,-56.58
657,1778616062.665973,0.1,-0.41,-2.21,-179.44,72.69,-56.58
658,1778616062.67599,0.1,-0.41,-2.21,-179.44,72.69,-56.58
659,1778616062.6860192,-0.06,0.09,0.25,91.19,-35.64,-51.57
660,1778616062.696037,-0.06,0.09,0.25,91.19,-35.64,-51.57
661,1778616062.705919,-0.06,0.09,0.25,91.19,-35.64,-51.57
662,1778616062.71594,0.03,0.04,-0.0,15.93,60.3,-33.26
663,1778616062.725954,0.03,0.04,-0.0,15.93,60.3,-33.26
664,1778616062.7359831,0.03,0.04,-0.0,15.93,60.3,-33.26
665,1778616062.745989,0.03,0.04,-0.0,15.93,60.3,-33.26
666,1778616062.756029,0.14,0.02,0.15,23.5,2.2,-6.41
667,1778616062.766044,0.14,0.02,0.15,23.5,2.2,-6.41
668,1778616062.775936,0.14,0.02,0.15,23.5,2.2,-6.41
669,1778616062.785983,0.14,0.02,0.15,23.5,2.2,-6.41
670,1778616062.79602,0.14,0.02,0.15,23.5,2.2,-6.41
671,1778616062.806043,0.14,0.02,0.15,23.5,2.2,-6.41
672,1778616062.815938,0.14,0.02,0.15,23.5,2.2,-6.41
673,1778616062.825985,0.14,0.02,0.15,23.5,2.2,-6.41
674,1778616062.836001,0.14,0.02,0.15,23.5,2.2,-6.41
675,1778616062.8460212,0.14,0.02,0.15,23.5,2.2,-6.41
676,1778616062.856044,0.14,0.02,0.15,23.5,2.2,-6.41
677,1778616062.865952,0.14,0.02,0.15,23.5,2.2,-6.41
678,1778616062.875977,0.15,-0.12,0.56,-93.26,268.13,46.2
679,1778616062.8859892,0.15,-0.12,0.56,-93.26,268.13,46.2
680,1778616062.896003,0.15,-0.12,0.56,-93.26,268.13,46.2
681,1778616062.906027,-0.0,-0.13,0.23,-93.26,268.13,46.2
682,1778616062.9160478,-0.0,-0.13,0.23,-133.12,489.32,95.21
683,1778616062.925952,-0.0,-0.13,0.23,-133.12,489.32,95.21
684,1778616062.93598,-0.0,-0.13,0.23,-133.12,489.32,95.21
685,1778616062.9459488,-8.0,6.39,-2.47,-590.58,-7.26,158.39
686,1778616062.955971,-8.0,6.39,-2.47,-590.58,-7.26,158.39
687,1778616062.965984,-8.0,6.39,-2.47,-590.58,-7.26,158.39
688,1778616062.9760041,-8.0,6.39,-2.47,-590.58,-7.26,158.39
689,1778616062.9859169,-8.0,6.39,-2.47,-590.58,-7.26,158.39
690,1778616062.996039,-8.0,6.39,-2.47,-590.58,-7.26,158.39
691,1778616063.005964,-8.0,6.39,-2.47,-590.58,-7.26,158.39
692,1778616063.016011,-8.0,6.39,-2.47,-590.58,-7.26,158.39
693,1778616063.025928,-8.0,6.39,-2.47,-590.58,-7.26,158.39
694,1778616063.0359738,-8.0,6.39,-2.47,-590.58,-7.26,158.39
695,1778616063.0460072,-8.0,6.39,-2.47,-590.58,-7.26,158.39
696,1778616063.0559309,-8.0,6.39,-2.47,-590.58,-7.26,158.39
697,1778616063.065989,-0.17,0.7,0.03,-110.72,-133.36,39.18
698,1778616063.076023,-0.17,0.7,0.03,-110.72,-133.36,39.18
699,1778616063.085959,-0.17,0.7,0.03,-110.72,-133.36,39.18
700,1778616063.096019,-0.05,0.19,-0.21,17.27,-23.07,62.99
701,1778616063.105962,-0.05,0.19,-0.21,17.27,-23.07,62.99
702,1778616063.1160178,-0.05,0.19,-0.21,17.27,-23.07,62.99
703,1778616063.125922,-0.05,0.19,-0.21,17.27,-23.07,62.99
704,1778616063.135962,-0.05,0.19,-0.21,17.27,-23.07,62.99
705,1778616063.1459808,-0.02,0.05,0.01,40.34,-68.48,-6.16
706,1778616063.156023,-0.02,0.05,0.01,40.34,-68.48,-6.16
707,1778616063.1659179,-0.02,0.05,0.01,40.34,-68.48,-6.16
708,1778616063.1759622,0.03,-0.02,0.07,44.92,-58.17,-18.68
709,1778616063.1859891,0.03,-0.02,0.07,44.92,-58.17,-18.68
710,1778616063.196034,0.03,-0.02,0.07,44.92,-58.17,-18.68
711,1778616063.205945,-0.02,-0.05,0.15,44.92,-58.17,-18.68
712,1778616063.215952,-0.02,-0.05,0.15,-17.4,-58.9,-10.74
713,1778616063.225984,-0.02,-0.05,0.15,-17.4,-58.9,-10.74
714,1778616063.235992,-0.02,-0.05,0.15,-17.4,-58.9,-10.74
715,1778616063.2459788,-0.07,-0.13,0.22,-88.01,-45.96,-8.85
716,1778616063.255948,-0.07,-0.13,0.22,-88.01,-45.96,-8.85
717,1778616063.2659252,-0.07,-0.13,0.22,-88.01,-45.96,-8.85
718,1778616063.276025,-0.07,-0.13,0.22,-88.01,-45.96,-8.85
719,1778616063.28599,-0.05,-0.09,0.12,-126.34,27.71,20.51
720,1778616063.295958,-0.05,-0.09,0.12,-126.34,27.71,20.51
721,1778616063.305938,-0.05,-0.09,0.12,-126.34,27.71,20.51
722,1778616063.316042,-0.05,-0.09,0.12,-126.34,27.71,20.51
723,1778616063.325931,-0.05,-0.09,0.12,-126.34,27.71,20.51
724,1778616063.3359401,-0.05,-0.09,0.12,-126.34,27.71,20.51
725,1778616063.3460312,-0.05,-0.09,0.12,-126.34,27.71,20.51
726,1778616063.3560379,-0.05,-0.09,0.12,-126.34,27.71,20.51
727,1778616063.365952,-0.05,-0.09,0.12,-126.34,27.71,20.51
728,1778616063.375977,-0.05,-0.09,0.12,-126.34,27.71,20.51
729,1778616063.385983,-0.05,-0.09,0.12,-126.34,27.71,20.51
730,1778616063.396023,0.4,0.53,0.67,543.33,-599.43,-254.21
731,1778616063.405921,0.4,0.53,0.67,543.33,-599.43,-254.21
732,1778616063.4160268,0.4,0.53,0.67,543.33,-599.43,-254.21
733,1778616063.4259598,0.4,0.53,0.67,543.33,-599.43,-254.21
734,1778616063.435989,0.4,0.53,0.67,543.33,-599.43,-254.21
735,1778616063.4459782,-7.77,5.35,3.26,336.43,659.91,-64.15
736,1778616063.455939,-7.77,5.35,3.26,336.43,659.91,-64.15
737,1778616063.466042,-7.77,5.35,3.26,336.43,659.91,-64.15
738,1778616063.475949,-1.78,1.43,-0.1,-201.9,20.69,-71.11
739,1778616063.485922,-1.78,1.43,-0.1,-201.9,20.69,-71.11
740,1778616063.4959319,-1.78,1.43,-0.1,-201.9,20.69,-71.11
741,1778616063.505972,-1.78,1.43,-0.1,-201.9,20.69,-71.11
742,1778616063.5159922,-1.78,1.43,-0.1,-201.9,20.69,-71.11
743,1778616063.5259252,-1.78,1.43,-0.1,-201.9,20.69,-71.11
744,1778616063.535965,-1.78,1.43,-0.1,-201.9,20.69,-71.11
745,1778616063.546009,-1.78,1.43,-0.1,-201.9,20.69,-71.11
746,1778616063.556035,-1.78,1.43,-0.1,-201.9,20.69,-71.11
747,1778616063.5659451,-1.78,1.43,-0.1,-201.9,20.69,-71.11
748,1778616063.57598,-1.78,1.43,-0.1,-201.9,20.69,-71.11
749,1778616063.586007,-1.78,1.43,-0.1,-201.9,20.69,-71.11
750,1778616063.59603,-1.78,1.43,-0.1,-201.9,20.69,-71.11
751,1778616063.6060421,-1.78,1.43,-0.1,-201.9,20.69,-71.11
752,1778616063.615936,-0.74,0.01,-0.32,109.68,-107.85,117.0
753,1778616063.625953,-0.6,-0.28,-2.25,109.68,-107.85,117.0
754,1778616063.6359732,-0.6,-0.28,-2.25,109.68,-107.85,117.0
755,1778616063.6460109,-0.18,-0.18,0.14,291.38,84.72,-6.41
756,1778616063.6559172,0.15,-0.29,-0.13,-58.35,151.18,-90.21
757,1778616063.665952,0.15,-0.29,-0.13,-58.35,151.18,-90.21
758,1778616063.675977,0.15,-0.29,-0.13,-58.35,151.18,-90.21
759,1778616063.686003,0.15,-0.29,-0.13,-58.35,151.18,-90.21
760,1778616063.696005,0.15,-0.29,-0.13,-58.35,151.18,-90.21
761,1778616063.706027,0.15,-0.29,-0.13,-58.35,151.18,-90.21
762,1778616063.7160408,0.1,-0.03,0.03,-8.24,113.53,-86.24
763,1778616063.7259252,0.1,-0.03,0.03,-8.24,113.53,-86.24
764,1778616063.735956,0.09,-0.03,0.0,-6.1,22.95,-71.47
765,1778616063.745983,0.09,-0.03,0.0,-6.1,22.95,-71.47
766,1778616063.7560031,0.09,-0.03,0.0,-6.1,22.95,-71.47
767,1778616063.76602,0.08,0.02,0.23,27.71,-21.48,-28.02
768,1778616063.7760372,0.08,0.02,0.23,27.71,-21.48,-28.02
769,1778616063.785964,0.08,0.02,0.23,27.71,-21.48,-28.02
770,1778616063.795972,0.08,0.02,0.23,27.71,-21.48,-28.02
771,1778616063.8060129,0.05,-0.02,0.42,-49.38,103.03,-0.79
772,1778616063.815988,0.05,-0.02,0.42,-49.38,103.03,-0.79
773,1778616063.825979,0.05,-0.02,0.42,-49.38,103.03,-0.79
774,1778616063.835917,0.05,-0.02,0.42,-49.38,103.03,-0.79
775,1778616063.84595,0.05,-0.02,0.42,-49.38,103.03,-0.79
776,1778616063.855999,0.05,-0.02,0.42,-49.38,103.03,-0.79
777,1778616063.865918,0.05,-0.02,0.42,-49.38,103.03,-0.79
778,1778616063.8759491,0.05,-0.02,0.42,-49.38,103.03,-0.79
779,1778616063.8860202,0.05,-0.02,0.42,-49.38,103.03,-0.79
780,1778616063.8959382,0.05,-0.02,0.42,-49.38,103.03,-0.79
781,1778616063.9059799,0.05,-0.02,0.42,-49.38,103.03,-0.79
782,1778616063.916042,0.05,-0.02,0.42,-49.38,103.03,-0.79
783,1778616063.9259799,-2.72,3.24,-1.28,402.89,-328.74,-161.01
784,1778616063.9360158,-2.72,3.24,-1.28,402.89,-328.74,-161.01
785,1778616063.9459252,-1.44,2.59,0.17,402.89,-328.74,-161.01
786,1778616063.955997,-1.44,2.59,0.17,-99.0,233.4,45.9
787,1778616063.965945,-1.44,2.59,0.17,-99.0,233.4,45.9
788,1778616063.975998,-1.44,2.59,0.17,-99.0,233.4,45.9
789,1778616063.985919,-1.44,2.59,0.17,-99.0,233.4,45.9
790,1778616063.995971,-0.7,1.33,-0.16,28.69,20.75,9.09
791,1778616064.006027,-0.7,1.33,-0.16,28.69,20.75,9.09
792,1778616064.015969,-0.7,1.33,-0.16,28.69,20.75,9.09
793,1778616064.026025,0.05,1.12,0.15,-55.79,-204.59,173.83
794,1778616064.035962,0.05,1.12,0.15,-55.79,-204.59,173.83
795,1778616064.046006,0.05,1.12,0.15,-55.79,-204.59,173.83
796,1778616064.0559192,0.05,1.12,0.15,-55.79,-204.59,173.83
797,1778616064.065954,0.05,1.12,0.15,-55.79,-204.59,173.83
798,1778616064.075999,0.05,1.12,0.15,-55.79,-204.59,173.83
799,1778616064.0859258,0.05,1.12,0.15,-55.79,-204.59,173.83
800,1778616064.0959518,0.05,1.12,0.15,-55.79,-204.59,173.83
801,1778616064.106017,0.05,1.12,0.15,-55.79,-204.59,173.83
802,1778616064.115961,0.0,0.0,-0.15,-68.42,147.89,28.63
803,1778616064.126007,0.0,0.0,-0.15,-68.42,147.89,28.63
804,1778616064.1360362,-0.02,-0.02,-0.12,-68.42,147.89,28.63
805,1778616064.145955,-0.02,-0.02,-0.12,-84.05,18.55,39.31
806,1778616064.156029,-0.02,-0.02,-0.12,-84.05,18.55,39.31
807,1778616064.16594,-0.02,-0.02,-0.12,-84.05,18.55,39.31
808,1778616064.1759841,-0.05,-0.02,-0.03,-35.71,-45.1,22.71
809,1778616064.186026,-0.05,-0.02,-0.03,-35.71,-45.1,22.71
810,1778616064.195929,-0.05,-0.02,-0.03,-35.71,-45.1,22.71
811,1778616064.2059689,-0.05,-0.02,-0.03,-35.71,-45.1,22.71
812,1778616064.2160199,-0.14,-0.18,0.13,0.37,-65.12,21.85
813,1778616064.2260249,-0.14,-0.18,0.13,0.37,-65.12,21.85
814,1778616064.2359529,-0.14,-0.18,0.13,0.37,-65.12,21.85
815,1778616064.2459798,-0.14,-0.18,0.13,0.37,-65.12,21.85
816,1778616064.256025,-0.17,-0.14,0.18,-31.37,71.11,121.52
817,1778616064.265933,-0.17,-0.14,0.18,-31.37,71.11,121.52
818,1778616064.275958,-0.17,-0.14,0.18,-31.37,71.11,121.52
819,1778616064.286007,-0.03,0.06,-0.02,-72.75,125.31,96.92
820,1778616064.295968,-0.03,0.06,-0.02,-72.75,125.31,96.92
821,1778616064.306035,-0.03,0.06,-0.02,-72.75,125.31,96.92
822,1778616064.315948,-0.03,0.06,-0.02,-72.75,125.31,96.92
823,1778616064.325997,-0.06,0.15,-0.18,-90.21,93.14,42.54
824,1778616064.336035,-0.06,0.15,-0.18,-90.21,93.14,42.54
825,1778616064.345981,-0.06,0.15,-0.18,-90.21,93.14,42.54
826,1778616064.3559942,-0.06,0.15,-0.18,-90.21,93.14,42.54
827,1778616064.366038,-0.06,0.15,-0.18,-90.21,93.14,42.54
828,1778616064.375934,-0.06,0.15,-0.18,-90.21,93.14,42.54
829,1778616064.385967,-0.06,0.15,-0.18,-90.21,93.14,42.54
830,1778616064.395967,-0.06,0.15,-0.18,-90.21,93.14,42.54
831,1778616064.405984,-0.06,0.15,-0.18,-90.21,93.14,42.54
832,1778616064.416023,-0.06,0.15,-0.18,-90.21,93.14,42.54
833,1778616064.426039,-0.06,0.15,-0.18,-90.21,93.14,42.54
834,1778616064.4359229,-0.06,0.15,-0.18,-90.21,93.14,42.54
835,1778616064.445975,-1.97,8.0,-1.7,8.48,-75.38,163.02
836,1778616064.4560032,-1.97,8.0,-1.7,8.48,-75.38,163.02
837,1778616064.46601,0.06,0.16,0.13,-152.1,-266.17,-24.54
838,1778616064.476022,0.06,0.16,0.13,-152.1,-266.17,-24.54
839,1778616064.4859672,0.06,0.16,0.13,-152.1,-266.17,-24.54
840,1778616064.496,0.06,0.16,0.13,-152.1,-266.17,-24.54
841,1778616064.5059829,-0.04,0.34,0.18,44.92,-169.07,124.82
842,1778616064.5160341,-0.04,0.34,0.18,44.92,-169.07,124.82
843,1778616064.526043,-0.04,0.34,0.18,44.92,-169.07,124.82
844,1778616064.535944,-0.04,0.34,0.18,44.92,-169.07,124.82
845,1778616064.545967,-0.03,0.02,-0.27,-184.08,461.55,-21.48
846,1778616064.5559769,-0.03,0.02,-0.27,-184.08,461.55,-21.48
847,1778616064.566009,-0.03,0.02,-0.27,-184.08,461.55,-21.48
848,1778616064.57602,-0.03,0.02,-0.27,-184.08,461.55,-21.48
849,1778616064.585929,-0.03,0.02,-0.27,-184.08,461.55,-21.48
850,1778616064.595945,-0.03,0.02,-0.27,-184.08,461.55,-21.48
851,1778616064.605962,-0.03,0.02,-0.27,-184.08,461.55,-21.48
852,1778616064.615991,-0.03,0.02,-0.27,-184.08,461.55,-21.48
853,1778616064.6259499,-0.03,0.02,-0.27,-184.08,461.55,-21.48
854,1778616064.6360378,-0.03,0.13,0.02,73.18,-47.85,-64.09
855,1778616064.645998,-0.03,0.13,0.02,73.18,-47.85,-64.09
856,1778616064.655961,0.08,-0.05,0.04,79.53,-73.43,-55.36
857,1778616064.665923,0.08,-0.05,0.04,79.53,-73.43,-55.36
858,1778616064.675932,0.08,-0.05,0.04,79.53,-73.43,-55.36
859,1778616064.686016,0.08,-0.05,0.04,79.53,-73.43,-55.36
860,1778616064.6959848,0.16,-0.11,0.22,36.19,-76.6,-21.67
861,1778616064.7059531,0.16,-0.11,0.22,36.19,-76.6,-21.67
862,1778616064.715929,0.16,-0.11,0.22,36.19,-76.6,-21.67
863,1778616064.72602,0.16,-0.11,0.22,36.19,-76.6,-21.67
864,1778616064.735987,0.15,-0.13,0.2,-18.19,-0.73,53.83
865,1778616064.745962,0.15,-0.13,0.2,-18.19,-0.73,53.83
866,1778616064.755999,0.15,-0.13,0.2,-18.19,-0.73,53.83
867,1778616064.7660182,0.03,-0.17,0.39,61.77,92.71,45.35
868,1778616064.7760398,0.03,-0.17,0.39,61.77,92.71,45.35
869,1778616064.785943,0.03,-0.17,0.39,61.77,92.71,45.35
870,1778616064.795957,0.03,-0.17,0.39,61.77,92.71,45.35
871,1778616064.805975,-0.01,-0.17,0.41,250.73,313.6,99.91
872,1778616064.815983,-0.01,-0.17,0.41,250.73,313.6,99.91
873,1778616064.82599,-0.01,-0.17,0.41,250.73,313.6,99.91
874,1778616064.836006,-0.01,-0.17,0.41,250.73,313.6,99.91
875,1778616064.84602,-1.01,3.32,0.51,292.72,484.37,306.76
876,1778616064.855917,-1.01,3.32,0.51,292.72,484.37,306.76
877,1778616064.865937,-1.01,3.32,0.51,292.72,484.37,306.76
878,1778616064.8759701,-1.01,3.32,0.51,292.72,484.37,306.76
879,1778616064.886003,-1.01,3.32,0.51,292.72,484.37,306.76
880,1778616064.896034,-1.01,3.32,0.51,292.72,484.37,306.76
881,1778616064.905922,-1.01,3.32,0.51,292.72,484.37,306.76
882,1778616064.9159548,-1.01,3.32,0.51,292.72,484.37,306.76
883,1778616064.925975,-1.01,3.32,0.51,292.72,484.37,306.76
884,1778616064.9360058,-1.01,3.32,0.51,292.72,484.37,306.76
885,1778616064.946021,-1.01,3.32,0.51,292.72,484.37,306.76
886,1778616064.956033,-1.01,3.32,0.51,292.72,484.37,306.76
887,1778616064.965942,-1.01,3.32,0.51,292.72,484.37,306.76
888,1778616064.975968,0.43,1.18,0.05,-53.77,130.62,-33.26
889,1778616064.9860191,0.43,1.18,0.05,-53.77,130.62,-33.26
890,1778616064.996043,0.43,1.18,0.05,-53.77,130.62,-33.26
891,1778616065.005944,0.37,0.3,-0.06,-137.33,-70.37,-32.23
892,1778616065.015985,0.37,0.3,-0.06,-137.33,-70.37,-32.23
893,1778616065.026009,0.37,0.3,-0.06,-137.33,-70.37,-32.23
894,1778616065.036036,0.1,-0.08,-0.05,-98.51,-192.81,19.96
895,1778616065.045934,0.1,-0.08,-0.05,-98.51,-192.81,19.96
896,1778616065.056036,0.1,-0.08,-0.05,-98.51,-192.81,19.96
897,1778616065.0659251,0.1,-0.08,-0.05,-98.51,-192.81,19.96
898,1778616065.075949,0.05,-0.1,0.08,-43.58,-228.82,32.29
899,1778616065.085978,0.05,-0.1,0.08,-43.58,-228.82,32.29
900,1778616065.096011,0.05,-0.1,0.08,-43.58,-228.82,32.29
901,1778616065.105919,0.05,-0.1,0.08,-43.58,-228.82,32.29
902,1778616065.1159658,0.05,-0.1,0.08,-43.58,-228.82,32.29
903,1778616065.12598,0.05,-0.1,0.08,-43.58,-228.82,32.29
904,1778616065.136021,0.05,-0.1,0.08,-43.58,-228.82,32.29
905,1778616065.146044,0.05,-0.1,0.08,-43.58,-228.82,32.29
906,1778616065.155951,-0.04,-0.09,0.5,113.77,97.47,84.17
907,1778616065.1659992,-0.04,-0.09,0.5,113.77,97.47,84.17
908,1778616065.1760252,-0.04,-0.09,0.5,113.77,97.47,84.17
909,1778616065.185923,-0.1,0.14,0.42,132.02,284.97,52.06
910,1778616065.195949,-0.1,0.14,0.42,132.02,284.97,52.06
911,1778616065.205987,-0.1,0.14,0.42,132.02,284.97,52.06
912,1778616065.216026,-0.1,0.14,0.42,132.02,284.97,52.06
913,1778616065.226045,0.11,0.06,-0.02,0.98,471.19,-6.41
914,1778616065.235979,0.11,0.06,-0.02,0.98,471.19,-6.41
915,1778616065.2459981,0.11,0.06,-0.02,0.98,471.19,-6.41
916,1778616065.256005,0.11,0.05,-0.21,-21.61,428.65,-15.38
917,1778616065.26603,0.11,0.05,-0.21,-21.61,428.65,-15.38
918,1778616065.2759302,0.11,0.05,-0.21,-21.61,428.65,-15.38
919,1778616065.285967,0.25,0.07,-0.77,-507.75,-251.77,-258.73
920,1778616065.295979,0.25,0.07,-0.77,-507.75,-251.77,-258.73
921,1778616065.306002,0.25,0.07,-0.77,-507.75,-251.77,-258.73
922,1778616065.315914,0.25,0.07,-0.77,-507.75,-251.77,-258.73
923,1778616065.325932,0.9,2.36,0.84,-199.1,-398.38,-168.7
924,1778616065.335937,0.9,2.36,0.84,-199.1,-398.38,-168.7
925,1778616065.345978,0.9,2.36,0.84,-199.1,-398.38,-168.7
926,1778616065.3560178,0.9,2.36,0.84,-199.1,-398.38,-168.7
927,1778616065.366003,0.69,5.28,1.16,-231.2,19.04,-72.63
928,1778616065.3760362,0.69,5.28,1.16,-231.2,19.04,-72.63
929,1778616065.3859358,0.69,5.28,1.16,-231.2,19.04,-72.63
930,1778616065.395982,0.69,5.28,1.16,-231.2,19.04,-72.63
931,1778616065.40592,0.34,0.9,0.17,-62.62,25.27,6.16
932,1778616065.415971,0.34,0.9,0.17,-62.62,25.27,6.16
933,1778616065.426021,0.34,0.9,0.17,-62.62,25.27,6.16
934,1778616065.435932,0.34,0.9,0.17,-62.62,25.27,6.16
935,1778616065.445982,0.34,0.9,0.17,-62.62,25.27,6.16
936,1778616065.455913,0.34,0.9,0.17,-62.62,25.27,6.16
937,1778616065.46593,0.34,0.9,0.17,-62.62,25.27,6.16
938,1778616065.4759822,0.34,0.9,0.17,-62.62,25.27,6.16
939,1778616065.486039,0.34,0.9,0.17,-62.62,25.27,6.16
940,1778616065.495991,0.17,0.51,0.04,-47.3,24.23,-22.34
941,1778616065.5059478,0.17,0.51,0.04,-47.3,24.23,-22.34
942,1778616065.51599,0.16,-0.25,-1.34,440.06,-131.96,53.1
943,1778616065.52602,0.16,-0.25,-1.34,440.06,-131.96,53.1
944,1778616065.5360289,0.16,-0.25,-1.34,440.06,-131.96,53.1
945,1778616065.545977,0.16,-0.25,-1.34,440.06,-131.96,53.1
946,1778616065.5559769,-0.04,0.07,-0.01,-73.3,-89.72,-0.06
947,1778616065.565981,-0.04,0.07,-0.01,-73.3,-89.72,-0.06
948,1778616065.575955,-0.04,0.07,-0.01,-73.3,-89.72,-0.06
949,1778616065.5859919,-0.04,0.07,-0.01,-73.3,-89.72,-0.06
950,1778616065.5960078,-0.01,-0.09,-0.02,-5.62,-126.53,-41.02
951,1778616065.606032,-0.01,-0.09,-0.02,-5.62,-126.53,-41.02
952,1778616065.615946,-0.01,-0.09,-0.02,-5.62,-126.53,-41.02
953,1778616065.625945,-0.01,-0.09,-0.02,-5.62,-126.53,-41.02
954,1778616065.63597,-0.01,-0.09,-0.02,-5.62,-126.53,-41.02
955,1778616065.646005,-0.01,-0.09,-0.02,-5.62,-126.53,-41.02
956,1778616065.6560209,-0.01,-0.09,-0.02,-5.62,-126.53,-41.02
957,1778616065.665921,-0.01,-0.09,-0.02,-5.62,-126.53,-41.02
958,1778616065.67594,-0.01,-0.09,-0.02,-5.62,-126.53,-41.02
959,1778616065.6859798,0.02,-0.12,0.14,94.06,-61.89,-7.45
960,1778616065.696013,0.02,-0.12,0.14,94.06,-61.89,-7.45
961,1778616065.706033,0.02,-0.11,0.33,162.48,27.4,22.03
962,1778616065.716042,0.02,-0.11,0.33,162.48,27.4,22.03
963,1778616065.725961,0.02,-0.11,0.33,162.48,27.4,22.03
964,1778616065.735998,-0.01,0.1,0.97,162.48,27.4,22.03
965,1778616065.746027,-0.01,0.1,0.97,275.88,344.73,-0.55
966,1778616065.755914,-0.01,0.1,0.97,275.88,344.73,-0.55
967,1778616065.765924,-0.01,0.1,0.97,275.88,344.73,-0.55
968,1778616065.775958,-0.22,0.5,0.18,179.26,486.94,2.01
969,1778616065.785988,-0.22,0.5,0.18,179.26,486.94,2.01
970,1778616065.795996,-0.22,0.5,0.18,179.26,486.94,2.01
971,1778616065.806033,-0.22,0.5,0.18,179.26,486.94,2.01
972,1778616065.8160079,1.95,8.0,-0.96,179.26,486.94,2.01
973,1778616065.825963,1.95,8.0,-0.96,179.26,486.94,2.01
974,1778616065.836041,1.95,8.0,-0.96,179.26,486.94,2.01
975,1778616065.845939,1.95,8.0,-0.96,179.26,486.94,2.01
976,1778616065.855988,1.95,8.0,-0.96,97.17,441.89,322.69
977,1778616065.866007,1.95,8.0,-0.96,97.17,441.89,322.69
978,1778616065.876032,1.16,1.93,0.05,-375.67,-837.89,-99.98
979,1778616065.885959,1.43,1.28,-0.05,-375.67,-837.89,-99.98
980,1778616065.8959732,1.43,1.28,-0.05,9.83,188.48,11.29
981,1778616065.9060018,1.43,1.28,-0.05,9.83,188.48,11.29
982,1778616065.915915,0.67,1.11,0.12,9.83,188.48,11.29
983,1778616065.9259279,0.67,1.11,0.12,9.83,188.48,11.29
984,1778616065.93595,0.67,1.11,0.12,9.83,188.48,11.29
985,1778616065.946003,0.67,1.11,0.12,9.83,188.48,11.29
986,1778616065.956019,0.67,1.11,0.12,9.83,188.48,11.29
987,1778616065.965926,0.67,1.11,0.12,9.83,188.48,11.29
988,1778616065.9759822,0.67,1.11,0.12,9.83,188.48,11.29
989,1778616065.9860108,0.67,1.11,0.12,9.83,188.48,11.29
990,1778616065.996039,0.67,1.11,0.12,9.83,188.48,11.29
991,1778616066.005955,0.67,1.11,0.12,9.83,188.48,11.29
992,1778616066.015991,0.1,-0.05,0.02,-152.22,-79.77,-54.75
993,1778616066.026036,0.1,-0.05,0.02,-152.22,-79.77,-54.75
994,1778616066.035947,0.03,-0.06,-0.01,-98.94,-61.28,-8.97
995,1778616066.0459788,0.03,-0.06,-0.01,-98.94,-61.28,-8.97
996,1778616066.056012,0.03,-0.06,-0.01,-98.94,-61.28,-8.97
997,1778616066.065931,0.03,-0.06,-0.01,-98.94,-61.28,-8.97
998,1778616066.076003,-0.02,0.01,-0.05,-38.51,-65.98,0.31
999,1778616066.085948,-0.02,0.01,-0.05,-38.51,-65.98,0.31
1000,1778616066.095972,-0.02,0.01,-0.05,-38.51,-65.98,0.31
