id,timestamp,acc_x,acc_y,acc_z,gyro_x,gyro_y,gyro_z
1,1778611392.871125,0.02,1.29,1.63,-87.59,87.16,40.47
2,1778611392.871142,0.02,1.29,1.63,-87.59,87.16,40.47
3,1778611392.878659,0.02,1.29,1.63,-87.59,87.16,40.47
4,1778611392.888674,0.02,1.29,1.63,-87.59,87.16,40.47
5,1778611392.898598,0.02,0.98,0.69,-16.72,70.31,57.98
6,1778611392.908633,0.02,0.98,0.69,-16.72,70.31,57.98
7,1778611392.918619,0.02,0.98,0.69,-16.72,70.31,57.98
8,1778611392.928697,0.02,0.98,0.69,-16.72,70.31,57.98
9,1778611392.938644,-0.09,0.88,0.33,13.67,57.68,45.53
10,1778611392.948618,-0.09,0.88,0.33,13.67,57.68,45.53
11,1778611392.958679,-0.25,0.73,0.31,12.39,62.68,34.12
12,1778611392.968618,-0.25,0.73,0.31,12.39,62.68,34.12
13,1778611392.978663,-0.25,0.73,0.31,12.39,62.68,34.12
14,1778611392.9886148,-0.25,0.73,0.31,12.39,62.68,34.12
15,1778611392.998676,-0.38,0.43,0.56,77.45,48.1,68.6
16,1778611393.0086179,-0.38,0.43,0.56,77.45,48.1,68.6
17,1778611393.01866,-0.38,0.43,0.56,77.45,48.1,68.6
18,1778611393.0286562,-0.38,0.43,0.56,77.45,48.1,68.6
19,1778611393.0386639,-0.38,0.43,0.56,77.45,48.1,68.6
20,1778611393.048596,-0.23,0.41,0.62,116.82,105.04,86.61
21,1778611393.05862,-0.23,0.41,0.62,116.82,105.04,86.61
22,1778611393.06864,-0.23,0.41,0.62,116.82,105.04,86.61
23,1778611393.0786839,-0.18,0.28,0.82,145.75,130.62,84.84
24,1778611393.088694,-0.18,0.28,0.82,145.75,130.62,84.84
25,1778611393.0986218,-0.18,0.28,0.82,145.75,130.62,84.84
26,1778611393.108673,-0.18,0.28,0.82,145.75,130.62,84.84
27,1778611393.118701,-0.31,1.17,1.42,208.74,155.15,103.09
28,1778611393.12859,-0.31,1.17,1.42,208.74,155.15,103.09
29,1778611393.138613,-0.31,1.17,1.42,208.74,155.15,103.09
30,1778611393.148629,-0.31,1.17,1.42,208.74,155.15,103.09
31,1778611393.158664,-0.55,2.34,2.38,205.81,177.12,12.82
32,1778611393.168672,-0.55,2.34,2.38,205.81,177.12,12.82
33,1778611393.178707,-0.55,2.34,2.38,205.81,177.12,12.82
34,1778611393.188599,-0.55,2.34,2.38,205.81,177.12,12.82
35,1778611393.198638,-0.55,2.34,2.38,205.81,177.12,12.82
36,1778611393.208655,-0.55,2.34,2.38,205.81,177.12,12.82
37,1778611393.218678,-0.55,2.34,2.38,205.81,177.12,12.82
38,1778611393.2285829,-0.55,2.34,2.38,205.81,177.12,12.82
39,1778611393.2386172,-0.55,2.34,2.38,205.81,177.12,12.82
40,1778611393.248682,-0.55,2.34,2.38,205.81,177.12,12.82
41,1778611393.258595,-0.55,2.34,2.38,205.81,177.12,12.82
42,1778611393.268626,-0.55,2.34,2.38,205.81,177.12,12.82
43,1778611393.278694,0.08,-0.37,0.7,103.03,163.76,-98.33
44,1778611393.288595,0.08,-0.37,0.7,103.03,163.76,-98.33
45,1778611393.298657,0.08,-0.37,0.7,103.03,163.76,-98.33
46,1778611393.308695,0.05,-0.67,0.22,108.52,85.08,-20.08
47,1778611393.31862,0.05,-0.67,0.22,108.52,85.08,-20.08
48,1778611393.328662,0.05,-0.67,0.22,108.52,85.08,-20.08
49,1778611393.3386838,0.05,-0.67,0.22,108.52,85.08,-20.08
50,1778611393.348696,0.05,-0.67,0.22,108.52,85.08,-20.08
51,1778611393.3586261,0.17,-0.64,0.02,55.3,42.36,17.64
52,1778611393.368644,0.17,-0.64,0.02,55.3,42.36,17.64
53,1778611393.3786812,0.17,-0.64,0.02,55.3,42.36,17.64
54,1778611393.3886871,0.28,-0.73,-0.05,-32.71,39.79,15.75
55,1778611393.398716,0.28,-0.73,-0.05,-32.71,39.79,15.75
56,1778611393.408635,0.28,-0.73,-0.05,-32.71,39.79,15.75
57,1778611393.4186308,0.28,-0.73,-0.05,-32.71,39.79,15.75
58,1778611393.428658,0.29,-0.88,-0.27,-52.19,-9.58,51.51
59,1778611393.4386702,0.29,-0.88,-0.27,-52.19,-9.58,51.51
60,1778611393.448586,0.29,-0.88,-0.27,-52.19,-9.58,51.51
61,1778611393.4586,0.49,-0.65,-0.03,-91.19,-65.19,96.86
62,1778611393.468637,0.49,-0.65,-0.03,-91.19,-65.19,96.86
63,1778611393.478653,0.49,-0.65,-0.03,-91.19,-65.19,96.86
64,1778611393.488686,0.49,-0.65,-0.03,-91.19,-65.19,96.86
65,1778611393.498611,0.65,-0.43,-0.35,-125.49,-95.7,108.34
66,1778611393.508595,0.65,-0.43,-0.35,-125.49,-95.7,108.34
67,1778611393.5186298,0.65,-0.43,-0.35,-125.49,-95.7,108.34
68,1778611393.528665,0.65,-0.43,-0.35,-125.49,-95.7,108.34
69,1778611393.5386748,1.43,1.17,1.18,-125.49,-95.7,108.34
70,1778611393.5485902,1.43,1.17,1.18,-322.14,-142.76,91.61
71,1778611393.558635,1.43,1.17,1.18,-322.14,-142.76,91.61
72,1778611393.5686688,1.43,1.17,1.18,-322.14,-142.76,91.61
73,1778611393.578592,0.97,1.77,3.31,-377.32,-134.95,-143.07
74,1778611393.588623,0.97,1.77,3.31,-377.32,-134.95,-143.07
75,1778611393.5986829,0.97,1.77,3.31,-377.32,-134.95,-143.07
76,1778611393.608623,0.97,1.77,3.31,-377.32,-134.95,-143.07
77,1778611393.6186602,0.97,1.77,3.31,-377.32,-134.95,-143.07
78,1778611393.628611,-0.35,1.3,3.43,-217.22,-131.71,-95.09
79,1778611393.638648,-0.35,1.3,3.43,-217.22,-131.71,-95.09
80,1778611393.648712,-0.35,1.3,3.43,-217.22,-131.71,-95.09
81,1778611393.658643,-0.45,1.44,2.45,-81.24,-27.04,-1.83
82,1778611393.668703,-0.45,1.44,2.45,-81.24,-27.04,-1.83
83,1778611393.678627,-0.45,1.44,2.45,-81.24,-27.04,-1.83
84,1778611393.688682,-0.45,1.44,2.45,-81.24,-27.04,-1.83
85,1778611393.6986182,-0.13,1.18,0.98,-7.63,10.74,9.16
86,1778611393.70866,-0.13,1.18,0.98,-7.63,10.74,9.16
87,1778611393.718667,-0.13,1.18,0.98,-7.63,10.74,9.16
88,1778611393.7286248,-0.13,1.18,0.98,-7.63,10.74,9.16
89,1778611393.7386591,-0.13,1.18,0.98,-7.63,10.74,9.16
90,1778611393.748666,-0.13,1.18,0.98,-7.63,10.74,9.16
91,1778611393.758703,-0.13,1.18,0.98,-7.63,10.74,9.16
92,1778611393.768587,-0.13,1.18,0.98,-7.63,10.74,9.16
93,1778611393.7785978,-0.13,1.18,0.98,-7.63,10.74,9.16
94,1778611393.788602,-0.13,1.18,0.98,-7.63,10.74,9.16
95,1778611393.7986088,-0.13,1.18,0.98,-7.63,10.74,9.16
96,1778611393.808639,-0.3,0.39,0.02,-39.86,46.02,-54.69
97,1778611393.818689,-0.3,0.39,0.02,-22.09,44.01,-48.83
98,1778611393.8286579,-0.3,0.39,0.02,-22.09,44.01,-48.83
99,1778611393.838644,-0.3,0.39,0.02,-22.09,44.01,-48.83
100,1778611393.848694,-0.38,0.33,0.33,12.02,56.15,-1.34
101,1778611393.8586,-0.38,0.33,0.33,12.02,56.15,-1.34
102,1778611393.868622,-0.38,0.33,0.33,12.02,56.15,-1.34
103,1778611393.878656,-0.25,0.48,0.56,12.02,56.15,-1.34
104,1778611393.8887,-0.25,0.48,0.56,52.12,90.45,39.73
105,1778611393.8987038,-0.25,0.48,0.56,52.12,90.45,39.73
106,1778611393.908618,-0.25,0.48,0.56,52.12,90.45,39.73
107,1778611393.918661,-0.33,1.0,0.99,78.06,134.4,43.76
108,1778611393.9285839,-0.33,1.0,0.99,78.06,134.4,43.76
109,1778611393.938602,-0.33,1.0,0.99,78.06,134.4,43.76
110,1778611393.9486349,-0.33,1.0,0.99,78.06,134.4,43.76
111,1778611393.958689,-0.9,2.28,2.36,78.06,134.4,43.76
112,1778611393.9686,-0.9,2.28,2.36,116.46,138.67,42.85
113,1778611393.9786172,-0.9,2.28,2.36,116.46,138.67,42.85
114,1778611393.988663,-0.9,2.28,2.36,116.46,138.67,42.85
115,1778611393.998697,-0.76,1.46,3.18,231.02,175.66,36.32
116,1778611394.008707,-0.76,1.46,3.18,231.02,175.66,36.32
117,1778611394.018594,-0.76,1.46,3.18,231.02,175.66,36.32
118,1778611394.028629,-0.76,1.46,3.18,231.02,175.66,36.32
119,1778611394.038656,0.1,1.31,2.21,303.83,105.96,42.11
120,1778611394.0486798,0.1,1.31,2.21,303.83,105.96,42.11
121,1778611394.058699,0.1,1.31,2.21,303.83,105.96,42.11
122,1778611394.0686011,0.1,1.31,2.21,303.83,105.96,42.11
123,1778611394.078628,0.21,0.07,1.16,217.83,170.1,-58.04
124,1778611394.0886421,0.21,0.07,1.16,217.83,170.1,-58.04
125,1778611394.098701,0.21,0.07,1.16,217.83,170.1,-58.04
126,1778611394.108612,0.08,-0.63,0.13,97.47,149.72,-63.48
127,1778611394.118635,0.08,-0.63,0.13,97.47,149.72,-63.48
128,1778611394.1286469,0.08,-0.63,0.13,97.47,149.72,-63.48
129,1778611394.1386418,0.08,-0.63,0.13,97.47,149.72,-63.48
130,1778611394.14868,0.09,-0.75,-0.23,86.18,31.49,5.25
131,1778611394.158688,0.09,-0.75,-0.23,86.18,31.49,5.25
132,1778611394.16859,0.09,-0.75,-0.23,86.18,31.49,5.25
133,1778611394.178603,0.09,-0.75,-0.23,86.18,31.49,5.25
134,1778611394.188653,0.26,-0.62,-0.05,28.38,0.79,22.95
135,1778611394.1987,0.26,-0.62,-0.05,28.38,0.79,22.95
136,1778611394.2086341,0.26,-0.62,-0.05,28.38,0.79,22.95
137,1778611394.218685,0.26,-0.62,-0.05,28.38,0.79,22.95
138,1778611394.2286909,0.41,-0.86,-0.34,-50.54,-19.29,24.23
139,1778611394.2385988,0.41,-0.86,-0.34,-50.54,-19.29,24.23
140,1778611394.248628,0.41,-0.86,-0.34,-50.54,-19.29,24.23
141,1778611394.258647,0.41,-0.86,-0.34,-50.54,-19.29,24.23
142,1778611394.268686,0.41,-0.86,-0.34,-50.54,-19.29,24.23
143,1778611394.278612,0.41,-0.86,-0.34,-50.54,-19.29,24.23
144,1778611394.2886012,0.41,-0.86,-0.34,-50.54,-19.29,24.23
145,1778611394.2986271,0.41,-0.86,-0.34,-50.54,-19.29,24.23
146,1778611394.308627,0.41,-0.86,-0.34,-50.54,-19.29,24.23
147,1778611394.318651,0.41,-0.86,-0.34,-50.54,-19.29,24.23
148,1778611394.3286731,0.41,-0.57,-0.42,-149.29,-107.42,40.34
149,1778611394.338582,1.19,0.36,-0.09,-149.29,-107.42,40.34
150,1778611394.348643,1.19,0.36,-0.09,-276.98,-211.98,94.42
151,1778611394.3586628,1.19,0.36,-0.09,-276.98,-211.98,94.42
152,1778611394.3686862,1.19,0.36,-0.09,-276.98,-211.98,94.42
153,1778611394.378613,0.86,1.98,4.24,-339.17,-208.56,-161.68
154,1778611394.3886662,0.86,1.98,4.24,-339.17,-208.56,-161.68
155,1778611394.3987079,0.86,1.98,4.24,-339.17,-208.56,-161.68
156,1778611394.408601,0.86,1.98,4.24,-339.17,-208.56,-161.68
157,1778611394.418628,-0.54,1.01,3.4,-273.8,-143.31,-120.73
158,1778611394.4286451,-0.54,1.01,3.4,-273.8,-143.31,-120.73
159,1778611394.438682,-0.54,1.01,3.4,-273.8,-143.31,-120.73
160,1778611394.448585,-0.54,1.01,3.4,-273.8,-143.31,-120.73
161,1778611394.458612,-0.25,1.08,2.58,-36.32,-192.75,64.94
162,1778611394.468621,-0.25,1.08,2.58,-36.32,-192.75,64.94
163,1778611394.478585,-0.25,1.08,2.58,-36.32,-192.75,64.94
164,1778611394.4885912,-0.25,1.08,2.58,-36.32,-192.75,64.94
165,1778611394.498622,-0.01,1.34,1.35,-44.86,-6.1,42.11
166,1778611394.508636,-0.01,1.34,1.35,-44.86,-6.1,42.11
167,1778611394.518626,-0.01,1.34,1.35,-44.86,-6.1,42.11
168,1778611394.5286589,-0.01,1.34,1.35,-44.86,-6.1,42.11
169,1778611394.53869,-0.16,0.87,0.42,5.86,11.9,-27.83
170,1778611394.5486012,-0.16,0.87,0.42,5.86,11.9,-27.83
171,1778611394.558623,-0.16,0.87,0.42,5.86,11.9,-27.83
172,1778611394.568633,-0.16,0.87,0.42,5.86,11.9,-27.83
173,1778611394.578667,-0.39,0.61,0.2,-5.49,6.59,-31.25
174,1778611394.588696,-0.39,0.61,0.2,-5.49,6.59,-31.25
175,1778611394.598586,-0.39,0.61,0.2,-5.49,6.59,-31.25
176,1778611394.608609,-0.39,0.61,0.2,-5.49,6.59,-31.25
177,1778611394.6186209,-0.58,0.55,0.1,28.69,-3.05,3.3
178,1778611394.628632,-0.58,0.55,0.1,28.69,-3.05,3.3
179,1778611394.638659,-0.58,0.55,0.1,28.69,-3.05,3.3
180,1778611394.6487,-0.53,0.71,0.48,54.08,31.74,23.93
181,1778611394.658602,-0.53,0.71,0.48,54.08,31.74,23.93
182,1778611394.668629,-0.53,0.71,0.48,54.08,31.74,23.93
183,1778611394.678655,-0.53,0.71,0.48,54.08,31.74,23.93
184,1778611394.688682,-0.36,0.85,0.86,75.81,116.21,17.7
185,1778611394.698706,-0.36,0.85,0.86,75.81,116.21,17.7
186,1778611394.7086039,-0.36,0.85,0.86,75.81,116.21,17.7
187,1778611394.7186298,-0.36,0.85,0.86,75.81,116.21,17.7
188,1778611394.728668,-0.5,1.61,1.37,128.36,161.01,-18.74
189,1778611394.7386858,-0.5,1.61,1.37,128.36,161.01,-18.74
190,1778611394.7486038,-0.5,1.61,1.37,128.36,161.01,-18.74
191,1778611394.75866,-0.5,1.61,1.37,128.36,161.01,-18.74
192,1778611394.768613,-0.5,1.61,1.37,128.36,161.01,-18.74
193,1778611394.778647,-0.5,1.61,1.37,128.36,161.01,-18.74
194,1778611394.788584,-0.5,1.61,1.37,128.36,161.01,-18.74
195,1778611394.798597,-0.5,1.61,1.37,128.36,161.01,-18.74
196,1778611394.808695,-0.5,1.61,1.37,128.36,161.01,-18.74
197,1778611394.8186612,-0.5,1.61,1.37,128.36,161.01,-18.74
198,1778611394.8286998,-0.5,1.61,1.37,128.36,161.01,-18.74
199,1778611394.8387,-0.5,1.61,1.37,128.36,161.01,-18.74
200,1778611394.84862,0.46,1.18,2.42,400.51,130.8,68.85
201,1778611394.858648,0.46,1.18,2.42,400.51,130.8,68.85
202,1778611394.868673,0.46,1.18,2.42,400.51,130.8,68.85
203,1778611394.8787048,0.53,-0.31,0.72,400.51,130.8,68.85
204,1778611394.8886,0.53,-0.31,0.72,159.79,269.9,-135.86
205,1778611394.8986251,0.53,-0.31,0.72,159.79,269.9,-135.86
206,1778611394.908639,0.53,-0.31,0.72,159.79,269.9,-135.86
207,1778611394.9186702,0.13,-1.21,-0.28,159.79,269.9,-135.86
208,1778611394.9286919,0.13,-1.21,-0.28,86.0,163.57,-107.06
209,1778611394.938581,0.13,-1.21,-0.28,86.0,163.57,-107.06
210,1778611394.948582,0.13,-1.21,-0.28,86.0,163.57,-107.06
211,1778611394.958617,-0.03,-1.23,-0.38,86.0,163.57,-107.06
212,1778611394.968631,-0.03,-1.23,-0.38,43.64,80.93,5.92
213,1778611394.978671,-0.03,-1.23,-0.38,43.64,80.93,5.92
214,1778611394.988699,-0.03,-1.23,-0.38,43.64,80.93,5.92
215,1778611394.9986172,0.17,-0.94,-0.55,-41.44,39.55,73.3
216,1778611395.008661,0.17,-0.94,-0.55,-41.44,39.55,73.3
217,1778611395.018711,0.17,-0.94,-0.55,-41.44,39.55,73.3
218,1778611395.028692,0.17,-0.94,-0.55,-41.44,39.55,73.3
219,1778611395.038581,0.33,-0.88,-0.34,-53.59,-37.66,90.33
220,1778611395.048626,0.33,-0.88,-0.34,-53.59,-37.66,90.33
221,1778611395.058675,0.33,-0.88,-0.34,-53.59,-37.66,90.33
222,1778611395.068691,0.32,-0.83,0.03,-53.59,-37.66,90.33
223,1778611395.07859,0.32,-0.83,0.03,-126.89,-27.1,92.22
224,1778611395.0886002,0.32,-0.83,0.03,-126.89,-27.1,92.22
225,1778611395.098697,0.32,-0.83,0.03,-126.89,-27.1,92.22
226,1778611395.1086478,0.49,-0.98,-0.32,-204.96,-38.64,96.07
227,1778611395.1186728,0.49,-0.98,-0.32,-204.96,-38.64,96.07
228,1778611395.128601,0.49,-0.98,-0.32,-204.96,-38.64,96.07
229,1778611395.1386418,0.49,-0.98,-0.32,-204.96,-38.64,96.07
230,1778611395.148705,1.01,-0.35,-0.54,-124.27,-172.61,271.18
231,1778611395.1586492,1.01,-0.35,-0.54,-124.27,-172.61,271.18
232,1778611395.168701,1.01,-0.35,-0.54,-124.27,-172.61,271.18
233,1778611395.178638,1.72,1.32,2.48,-124.27,-172.61,271.18
234,1778611395.188582,1.72,1.32,2.48,-517.52,-139.59,73.49
235,1778611395.198689,1.72,1.32,2.48,-517.52,-139.59,73.49
236,1778611395.208639,0.52,0.74,4.29,-385.31,-157.1,-102.54
237,1778611395.218708,0.52,0.74,4.29,-385.31,-157.1,-102.54
238,1778611395.2286,0.52,0.74,4.29,-385.31,-157.1,-102.54
239,1778611395.2386482,0.52,0.74,4.29,-385.31,-157.1,-102.54
240,1778611395.248704,0.41,1.38,3.28,-385.31,-157.1,-102.54
241,1778611395.258624,0.41,1.38,3.28,-178.89,-148.99,146.91
242,1778611395.268673,0.41,1.38,3.28,-178.89,-148.99,146.91
243,1778611395.27859,0.41,1.38,3.28,-178.89,-148.99,146.91
244,1778611395.288597,0.41,1.38,3.28,-178.89,-148.99,146.91
245,1778611395.298621,0.41,1.38,3.28,-178.89,-148.99,146.91
246,1778611395.308661,0.41,1.38,3.28,-178.89,-148.99,146.91
247,1778611395.318683,0.41,1.38,3.28,-178.89,-148.99,146.91
248,1778611395.328589,0.41,1.38,3.28,-178.89,-148.99,146.91
249,1778611395.338624,0.41,1.38,3.28,-178.89,-148.99,146.91
250,1778611395.348622,0.41,1.38,3.28,-178.89,-148.99,146.91
251,1778611395.35866,0.41,1.38,3.28,-178.89,-148.99,146.91
252,1778611395.3686788,0.41,1.38,3.28,-178.89,-148.99,146.91
253,1778611395.378601,-0.06,0.8,0.7,-28.99,-4.76,40.59
254,1778611395.388611,-0.06,0.8,0.7,-28.99,-4.76,40.59
255,1778611395.3986292,-0.06,0.8,0.7,-28.99,-4.76,40.59
256,1778611395.408663,-0.29,0.85,0.78,7.08,-8.12,53.34
257,1778611395.418688,-0.29,0.85,0.78,7.08,-8.12,53.34
258,1778611395.428587,-0.29,0.85,0.78,7.08,-8.12,53.34
259,1778611395.438612,-0.29,0.85,0.78,7.08,-8.12,53.34
260,1778611395.448597,-0.51,0.69,0.75,-27.1,86.18,-12.7
261,1778611395.4586298,-0.51,0.69,0.75,-27.1,86.18,-12.7
262,1778611395.468661,-0.51,0.69,0.75,-27.1,86.18,-12.7
263,1778611395.478679,-0.75,0.16,0.29,70.92,58.41,60.12
264,1778611395.488596,-0.75,0.16,0.29,70.92,58.41,60.12
265,1778611395.498645,-0.75,0.16,0.29,70.92,58.41,60.12
266,1778611395.508707,-0.75,0.16,0.29,70.92,58.41,60.12
267,1778611395.518641,-0.67,0.64,0.99,156.62,59.88,118.84
268,1778611395.5286882,-0.67,0.64,0.99,156.62,59.88,118.84
269,1778611395.538612,-0.67,0.64,0.99,156.62,59.88,118.84
270,1778611395.548652,-0.53,0.72,1.21,156.62,59.88,118.84
271,1778611395.5587142,-0.53,0.72,1.21,147.22,153.5,94.73
272,1778611395.568615,-0.53,0.72,1.21,147.22,153.5,94.73
273,1778611395.578673,-0.53,0.72,1.21,147.22,153.5,94.73
274,1778611395.588593,-0.46,1.68,2.69,256.29,152.83,124.76
275,1778611395.5986528,-0.46,1.68,2.69,256.29,152.83,124.76
276,1778611395.608605,-0.46,1.68,2.69,256.29,152.83,124.76
277,1778611395.618679,-0.18,2.48,3.59,270.94,291.02,16.36
278,1778611395.628596,-0.18,2.48,3.59,270.94,291.02,16.36
279,1778611395.638634,-0.18,2.48,3.59,270.94,291.02,16.36
280,1778611395.6485848,-0.18,2.48,3.59,270.94,291.02,16.36
281,1778611395.658645,0.12,1.61,2.26,352.11,140.87,52.92
282,1778611395.6686919,0.12,1.61,2.26,352.11,140.87,52.92
283,1778611395.678617,0.12,1.61,2.26,352.11,140.87,52.92
284,1778611395.688664,0.12,1.61,2.26,352.11,140.87,52.92
285,1778611395.698595,0.55,1.33,3.59,310.91,137.39,-122.99
286,1778611395.708637,0.55,1.33,3.59,310.91,137.39,-122.99
287,1778611395.7186902,0.55,1.33,3.59,310.91,137.39,-122.99
288,1778611395.7286,0.55,1.33,3.59,310.91,137.39,-122.99
289,1778611395.7386491,0.21,-0.87,1.49,146.73,260.74,-181.76
290,1778611395.748696,0.21,-0.87,1.49,146.73,260.74,-181.76
291,1778611395.7586062,0.21,-0.87,1.49,146.73,260.74,-181.76
292,1778611395.7686348,0.21,-0.87,1.49,146.73,260.74,-181.76
293,1778611395.778667,0.11,-1.36,0.45,94.12,207.58,-67.44
294,1778611395.7887082,0.11,-1.36,0.45,94.12,207.58,-67.44
295,1778611395.798607,0.11,-1.36,0.45,94.12,207.58,-67.44
296,1778611395.808664,0.11,-1.36,0.45,94.12,207.58,-67.44
297,1778611395.818602,0.11,-1.36,0.45,94.12,207.58,-67.44
298,1778611395.828637,0.11,-1.36,0.45,94.12,207.58,-67.44
299,1778611395.838677,0.11,-1.36,0.45,94.12,207.58,-67.44
300,1778611395.848589,0.11,-1.36,0.45,94.12,207.58,-67.44
301,1778611395.858677,0.11,-1.36,0.45,94.12,207.58,-67.44
302,1778611395.868652,0.11,-1.36,0.45,94.12,207.58,-67.44
303,1778611395.878679,0.11,-1.36,0.45,94.12,207.58,-67.44
304,1778611395.8886988,0.11,-1.36,0.45,94.12,207.58,-67.44
305,1778611395.898589,0.11,-1.36,0.45,94.12,207.58,-67.44
306,1778611395.90861,0.11,-0.89,-0.25,-30.21,12.7,91.86
307,1778611395.918634,0.11,-0.89,-0.25,-30.21,12.7,91.86
308,1778611395.928669,0.18,-0.69,0.02,-93.75,13.92,107.24
309,1778611395.938687,0.18,-0.69,0.02,-93.75,13.92,107.24
310,1778611395.948591,0.18,-0.69,0.02,-93.75,13.92,107.24
311,1778611395.958611,0.18,-0.69,0.02,-93.75,13.92,107.24
312,1778611395.968645,0.65,-0.66,-0.37,-165.59,-3.36,151.37
313,1778611395.978663,0.65,-0.66,-0.37,-165.59,-3.36,151.37
314,1778611395.988696,0.65,-0.66,-0.37,-165.59,-3.36,151.37
315,1778611395.998603,0.65,-0.66,-0.37,-165.59,-3.36,151.37
316,1778611396.008642,1.27,0.31,0.07,-234.62,-62.81,154.72
317,1778611396.018659,1.27,0.31,0.07,-234.62,-62.81,154.72
318,1778611396.0286999,1.27,0.31,0.07,-234.62,-62.81,154.72
319,1778611396.0386891,1.27,0.31,0.07,-234.62,-62.81,154.72
320,1778611396.0486138,1.27,1.14,2.15,-381.84,-112.3,17.15
321,1778611396.0586398,1.27,1.14,2.15,-381.84,-112.3,17.15
322,1778611396.068644,1.27,1.14,2.15,-381.84,-112.3,17.15
323,1778611396.07867,0.32,1.3,3.37,-289.73,-130.37,79.28
324,1778611396.088696,0.32,1.3,3.37,-289.73,-130.37,79.28
325,1778611396.098596,0.32,1.3,3.37,-289.73,-130.37,79.28
326,1778611396.108643,0.32,1.3,3.37,-289.73,-130.37,79.28
327,1778611396.11869,0.51,2.0,3.21,-94.3,-116.09,226.81
328,1778611396.128706,0.51,2.0,3.21,-94.3,-116.09,226.81
329,1778611396.138599,0.51,2.0,3.21,-94.3,-116.09,226.81
330,1778611396.1486201,0.51,2.0,3.21,-94.3,-116.09,226.81
331,1778611396.158659,0.65,1.93,1.81,-61.1,15.01,157.65
332,1778611396.168589,0.65,1.93,1.81,-61.1,15.01,157.65
333,1778611396.1786408,0.65,1.93,1.81,-61.1,15.01,157.65
334,1778611396.188704,0.65,1.93,1.81,-61.1,15.01,157.65
335,1778611396.19864,0.27,1.18,0.73,-65.8,59.81,92.9
336,1778611396.208597,0.27,1.18,0.73,-65.8,59.81,92.9
337,1778611396.218626,0.27,1.18,0.73,-65.8,59.81,92.9
338,1778611396.228647,0.27,1.18,0.73,-65.8,59.81,92.9
339,1778611396.2386749,0.06,0.94,0.46,14.77,8.54,74.34
340,1778611396.2485828,0.06,0.94,0.46,14.77,8.54,74.34
341,1778611396.258621,0.06,0.94,0.46,14.77,8.54,74.34
342,1778611396.2686641,-0.22,1.02,0.6,7.81,42.24,33.94
343,1778611396.278689,-0.22,1.02,0.6,7.81,42.24,33.94
344,1778611396.2886999,-0.22,1.02,0.6,7.81,42.24,33.94
345,1778611396.29859,-0.52,0.75,0.46,7.81,42.24,33.94
346,1778611396.3086321,-0.52,0.75,0.46,3.85,110.05,3.11
347,1778611396.318662,-0.52,0.75,0.46,3.85,110.05,3.11
348,1778611396.328702,-0.52,0.75,0.46,3.85,110.05,3.11
349,1778611396.338589,-0.52,0.75,0.46,3.85,110.05,3.11
350,1778611396.3486059,-0.52,0.75,0.46,3.85,110.05,3.11
351,1778611396.358647,-0.52,0.75,0.46,3.85,110.05,3.11
352,1778611396.3686552,-0.52,0.75,0.46,3.85,110.05,3.11
353,1778611396.3786922,-0.52,0.75,0.46,3.85,110.05,3.11
354,1778611396.3886862,-0.52,0.75,0.46,3.85,110.05,3.11
355,1778611396.398582,-0.52,0.75,0.46,3.85,110.05,3.11
356,1778611396.408618,-0.52,0.75,0.46,3.85,110.05,3.11
357,1778611396.418632,-0.52,0.75,0.46,3.85,110.05,3.11
358,1778611396.42864,-0.27,0.79,1.39,204.41,201.42,37.17
359,1778611396.4386702,-0.21,1.69,2.62,257.87,212.89,61.77
360,1778611396.44859,-0.21,1.69,2.62,257.87,212.89,61.77
361,1778611396.458622,-0.21,1.69,2.62,257.87,212.89,61.77
362,1778611396.468668,-0.21,1.69,2.62,257.87,212.89,61.77
363,1778611396.478708,-0.18,1.09,1.92,247.01,301.45,-26.86
364,1778611396.488586,-0.18,1.09,1.92,247.01,301.45,-26.86
365,1778611396.498622,-0.18,1.09,1.92,247.01,301.45,-26.86
366,1778611396.508663,-0.18,1.09,1.92,247.01,301.45,-26.86
367,1778611396.5185852,0.07,1.57,2.09,310.91,110.96,16.91
368,1778611396.528598,0.07,1.57,2.09,310.91,110.96,16.91
369,1778611396.538626,0.07,1.57,2.09,310.91,110.96,16.91
370,1778611396.548623,0.07,1.57,2.09,310.91,110.96,16.91
371,1778611396.558671,0.1,0.25,1.75,225.34,144.17,-93.02
372,1778611396.5686898,0.1,0.25,1.75,225.34,144.17,-93.02
373,1778611396.578586,0.1,0.25,1.75,225.34,144.17,-93.02
374,1778611396.5886059,0.04,-0.65,0.49,225.34,144.17,-93.02
375,1778611396.5986428,0.04,-0.65,0.49,98.88,154.36,-84.05
376,1778611396.608664,0.04,-0.65,0.49,98.88,154.36,-84.05
377,1778611396.61868,0.04,-0.65,0.49,98.88,154.36,-84.05
378,1778611396.6285949,0.06,-0.88,-0.07,98.88,154.36,-84.05
379,1778611396.6386392,0.06,-0.88,-0.07,27.71,108.52,-24.66
380,1778611396.6486452,0.06,-0.88,-0.07,27.71,108.52,-24.66
381,1778611396.658678,0.06,-0.88,-0.07,27.71,108.52,-24.66
382,1778611396.6686988,0.1,-0.79,-0.05,-31.43,77.39,20.51
383,1778611396.678592,0.1,-0.79,-0.05,-31.43,77.39,20.51
384,1778611396.6886,0.1,-0.79,-0.05,-31.43,77.39,20.51
385,1778611396.698626,0.1,-0.79,-0.05,-31.43,77.39,20.51
386,1778611396.708668,0.21,-0.78,-0.19,-73.49,56.82,54.38
387,1778611396.718668,0.21,-0.78,-0.19,-73.49,56.82,54.38
388,1778611396.728589,0.21,-0.78,-0.19,-73.49,56.82,54.38
389,1778611396.7386189,0.21,-0.78,-0.19,-73.49,56.82,54.38
390,1778611396.7486598,0.47,-0.54,-0.32,-85.45,-10.25,93.26
391,1778611396.758709,0.47,-0.54,-0.32,-85.45,-10.25,93.26
392,1778611396.7686,0.47,-0.54,-0.32,-85.45,-10.25,93.26
393,1778611396.778641,0.47,-0.54,-0.32,-85.45,-10.25,93.26
394,1778611396.78866,0.59,-0.47,0.04,-118.84,-57.56,82.89
395,1778611396.7986739,0.59,-0.47,0.04,-118.84,-57.56,82.89
396,1778611396.8087091,0.59,-0.47,0.04,-118.84,-57.56,82.89
397,1778611396.81862,1.01,-0.44,-0.66,-118.84,-57.56,82.89
398,1778611396.828659,1.01,-0.44,-0.66,-110.47,-129.76,160.77
399,1778611396.8386822,1.01,-0.44,-0.66,-110.47,-129.76,160.77
400,1778611396.848588,1.01,-0.44,-0.66,-110.47,-129.76,160.77
401,1778611396.858645,1.01,-0.44,-0.66,-110.47,-129.76,160.77
402,1778611396.868675,1.01,-0.44,-0.66,-110.47,-129.76,160.77
403,1778611396.878581,1.01,-0.44,-0.66,-110.47,-129.76,160.77
404,1778611396.88863,1.01,-0.44,-0.66,-110.47,-129.76,160.77
405,1778611396.898675,1.01,-0.44,-0.66,-110.47,-129.76,160.77
406,1778611396.90869,1.01,-0.44,-0.66,-110.47,-129.76,160.77
407,1778611396.918682,1.01,-0.44,-0.66,-110.47,-129.76,160.77
408,1778611396.9286048,1.01,-0.44,-0.66,-110.47,-129.76,160.77
409,1778611396.938668,1.01,-0.44,-0.66,-110.47,-129.76,160.77
410,1778611396.948693,0.22,2.04,3.03,-168.21,-91.92,66.53
411,1778611396.958698,0.22,2.04,3.03,-168.21,-91.92,66.53
412,1778611396.968599,0.22,2.04,3.03,-168.21,-91.92,66.53
413,1778611396.978657,0.19,1.91,2.16,-106.81,13.67,90.39
414,1778611396.988659,0.19,1.91,2.16,-106.81,13.67,90.39
415,1778611396.998697,0.19,1.91,2.16,-106.81,13.67,90.39
416,1778611397.00859,0.19,1.91,2.16,-106.81,13.67,90.39
417,1778611397.018639,0.18,1.5,0.65,-62.19,68.79,26.79
418,1778611397.028678,0.18,1.5,0.65,-62.19,68.79,26.79
419,1778611397.038683,0.18,1.5,0.65,-62.19,68.79,26.79
420,1778611397.0486898,0.18,1.5,0.65,-62.19,68.79,26.79
421,1778611397.0587049,-0.07,1.03,0.2,-51.76,37.96,-29.11
422,1778611397.068647,-0.07,1.03,0.2,-51.76,37.96,-29.11
423,1778611397.0785952,-0.07,1.03,0.2,-51.76,37.96,-29.11
424,1778611397.088609,-0.07,1.03,0.2,-51.76,37.96,-29.11
425,1778611397.098635,-0.3,0.92,0.3,-35.22,50.72,-31.37
426,1778611397.10866,-0.3,0.92,0.3,-35.22,50.72,-31.37
427,1778611397.118696,-0.3,0.92,0.3,-35.22,50.72,-31.37
428,1778611397.1286001,-0.3,0.92,0.3,-35.22,50.72,-31.37
429,1778611397.1386209,-0.37,0.82,0.23,21.24,58.96,-13.0
430,1778611397.148652,-0.37,0.82,0.23,21.24,58.96,-13.0
431,1778611397.1586812,-0.37,0.82,0.23,21.24,58.96,-13.0
432,1778611397.1685948,-0.37,0.68,0.3,64.58,84.78,-3.78
433,1778611397.1786292,-0.37,0.68,0.3,64.58,84.78,-3.78
434,1778611397.1886342,-0.37,0.68,0.3,64.58,84.78,-3.78
435,1778611397.198668,-0.37,0.68,0.3,64.58,84.78,-3.78
436,1778611397.208589,-0.34,0.49,0.51,103.39,123.84,36.13
437,1778611397.2186081,-0.34,0.49,0.51,103.39,123.84,36.13
438,1778611397.2286332,-0.34,0.49,0.51,103.39,123.84,36.13
439,1778611397.238667,-0.34,0.49,0.51,103.39,123.84,36.13
440,1778611397.2485812,-0.37,1.67,1.11,121.52,167.54,24.41
441,1778611397.25861,-0.37,1.67,1.11,121.52,167.54,24.41
442,1778611397.268641,-0.37,1.67,1.11,121.52,167.54,24.41
443,1778611397.2786849,-0.37,1.67,1.11,121.52,167.54,24.41
444,1778611397.2885911,-1.25,2.3,3.64,121.09,189.39,-48.16
445,1778611397.2986088,-1.25,2.3,3.64,121.09,189.39,-48.16
446,1778611397.308636,-1.25,2.3,3.64,121.09,189.39,-48.16
447,1778611397.318676,-0.18,2.08,2.53,121.09,189.39,-48.16
448,1778611397.328683,-0.18,2.08,2.53,347.53,84.84,147.89
449,1778611397.3386931,-0.18,2.08,2.53,347.53,84.84,147.89
450,1778611397.348598,-0.18,2.08,2.53,347.53,84.84,147.89
451,1778611397.358648,0.55,1.1,2.49,347.53,84.84,147.89
452,1778611397.3686929,0.55,1.1,2.49,285.89,120.24,-79.9
453,1778611397.378603,0.55,1.1,2.49,285.89,120.24,-79.9
454,1778611397.388625,0.55,1.1,2.49,285.89,120.24,-79.9
455,1778611397.398664,0.55,1.1,2.49,285.89,120.24,-79.9
456,1778611397.40869,0.55,1.1,2.49,285.89,120.24,-79.9
457,1778611397.418587,0.55,1.1,2.49,285.89,120.24,-79.9
458,1778611397.428611,0.55,1.1,2.49,285.89,120.24,-79.9
459,1778611397.4386408,0.55,1.1,2.49,285.89,120.24,-79.9
460,1778611397.448596,0.55,1.1,2.49,285.89,120.24,-79.9
461,1778611397.458648,0.55,1.1,2.49,285.89,120.24,-79.9
462,1778611397.4685829,0.55,1.1,2.49,285.89,120.24,-79.9
463,1778611397.478621,0.15,-0.82,0.06,48.77,62.81,-44.8
464,1778611397.488673,0.15,-0.82,0.06,48.77,62.81,-44.8
465,1778611397.498635,0.05,-1.03,-0.16,10.74,41.69,-14.71
466,1778611397.508597,0.05,-1.03,-0.16,10.74,41.69,-14.71
467,1778611397.518626,0.05,-1.03,-0.16,10.74,41.69,-14.71
468,1778611397.528672,0.05,-1.03,-0.16,10.74,41.69,-14.71
469,1778611397.538597,0.19,-1.0,-0.29,13.18,-23.01,66.16
470,1778611397.5486422,0.19,-1.0,-0.29,13.18,-23.01,66.16
471,1778611397.558697,0.35,-0.73,-0.08,-13.67,-56.76,93.08
472,1778611397.5686111,0.35,-0.73,-0.08,-13.67,-56.76,93.08
473,1778611397.578665,0.35,-0.73,-0.08,-13.67,-56.76,93.08
474,1778611397.5885959,0.35,-0.73,-0.08,-13.67,-56.76,93.08
475,1778611397.59867,0.47,-0.7,0.09,-103.76,-53.41,82.89
476,1778611397.608585,0.47,-0.7,0.09,-103.76,-53.41,82.89
477,1778611397.618649,0.47,-0.7,0.09,-103.76,-53.41,82.89
478,1778611397.628581,0.47,-0.7,0.09,-103.76,-53.41,82.89
479,1778611397.63863,0.87,-0.65,-0.56,-117.37,-100.71,161.62
480,1778611397.6486819,0.87,-0.65,-0.56,-117.37,-100.71,161.62
481,1778611397.658614,0.87,-0.65,-0.56,-117.37,-100.71,161.62
482,1778611397.668639,1.48,0.73,0.76,-298.89,-157.9,120.79
483,1778611397.678661,1.48,0.73,0.76,-298.89,-157.9,120.79
484,1778611397.688691,1.48,0.73,0.76,-298.89,-157.9,120.79
485,1778611397.698596,1.48,0.73,0.76,-298.89,-157.9,120.79
486,1778611397.708643,0.72,1.38,3.21,-463.87,-161.8,-71.9
487,1778611397.718682,0.72,1.38,3.21,-463.87,-161.8,-71.9
488,1778611397.728596,0.72,1.38,3.21,-463.87,-161.8,-71.9
489,1778611397.738629,0.72,1.38,3.21,-463.87,-161.8,-71.9
490,1778611397.748661,-0.22,1.45,3.96,-247.99,-171.39,57.13
491,1778611397.758705,-0.22,1.45,3.96,-247.99,-171.39,57.13
492,1778611397.7686,-0.22,1.45,3.96,-247.99,-171.39,57.13
493,1778611397.7786381,-0.22,1.45,3.96,-247.99,-171.39,57.13
494,1778611397.788641,0.21,2.76,2.96,-9.52,-43.4,99.43
495,1778611397.7986538,0.21,2.76,2.96,-9.52,-43.4,99.43
496,1778611397.8086689,0.21,2.76,2.96,-9.52,-43.4,99.43
497,1778611397.8185961,0.08,1.74,0.91,-119.02,99.73,-60.06
498,1778611397.8286998,0.08,1.74,0.91,-119.02,99.73,-60.06
499,1778611397.838666,0.08,1.74,0.91,-119.02,99.73,-60.06
500,1778611397.8486772,0.08,1.74,0.91,-119.02,99.73,-60.06
501,1778611397.858675,-0.13,0.94,0.2,-57.43,65.43,-64.7
502,1778611397.868672,-0.13,0.94,0.2,-57.43,65.43,-64.7
503,1778611397.878591,-0.13,0.94,0.2,-57.43,65.43,-64.7
504,1778611397.88865,-0.13,0.94,0.2,-57.43,65.43,-64.7
505,1778611397.898583,-0.14,0.95,-0.02,-32.47,44.07,-69.27
506,1778611397.908631,-0.14,0.95,-0.02,-32.47,44.07,-69.27
507,1778611397.9186502,-0.14,0.95,-0.02,-32.47,44.07,-69.27
508,1778611397.928691,-0.14,0.95,-0.02,-32.47,44.07,-69.27
509,1778611397.938698,-0.14,0.95,-0.02,-32.47,44.07,-69.27
510,1778611397.9485838,-0.14,0.95,-0.02,-32.47,44.07,-69.27
511,1778611397.958644,-0.14,0.95,-0.02,-32.47,44.07,-69.27
512,1778611397.968651,-0.14,0.95,-0.02,-32.47,44.07,-69.27
513,1778611397.9786189,-0.14,0.95,-0.02,-32.47,44.07,-69.27
514,1778611397.988682,-0.14,0.95,-0.02,-32.47,44.07,-69.27
515,1778611397.998707,-0.42,0.43,0.13,46.14,40.53,-25.63
516,1778611398.008628,-0.42,0.43,0.13,46.14,40.53,-25.63
517,1778611398.018661,-0.27,0.67,0.58,71.78,69.34,13.67
518,1778611398.028578,-0.27,0.67,0.58,71.78,69.34,13.67
519,1778611398.038618,-0.27,0.67,0.58,71.78,69.34,13.67
520,1778611398.048636,-0.39,1.39,1.11,71.78,69.34,13.67
521,1778611398.058654,-0.39,1.39,1.11,101.93,124.57,-9.03
522,1778611398.068619,-0.39,1.39,1.11,101.93,124.57,-9.03
523,1778611398.078657,-1.0,1.73,2.26,31.19,178.04,-35.89
524,1778611398.0886772,-1.0,1.73,2.26,31.19,178.04,-35.89
525,1778611398.098697,-1.0,1.73,2.26,31.19,178.04,-35.89
526,1778611398.108587,-1.0,1.73,2.26,31.19,178.04,-35.89
527,1778611398.118619,-0.3,2.01,3.5,335.88,96.31,76.72
528,1778611398.128659,-0.3,2.01,3.5,335.88,96.31,76.72
529,1778611398.1386728,-0.3,2.01,3.5,335.88,96.31,76.72
530,1778611398.1485922,-0.3,2.01,3.5,335.88,96.31,76.72
531,1778611398.158613,0.32,1.25,2.05,215.39,135.99,-31.37
532,1778611398.16864,0.32,1.25,2.05,215.39,135.99,-31.37
533,1778611398.178672,0.32,1.25,2.05,215.39,135.99,-31.37
534,1778611398.1885922,0.32,1.25,2.05,215.39,135.99,-31.37
535,1778611398.198625,0.23,-0.01,0.91,230.65,81.48,-43.09
536,1778611398.2086751,0.23,-0.01,0.91,230.65,81.48,-43.09
537,1778611398.218688,0.23,-0.01,0.91,230.65,81.48,-43.09
538,1778611398.228597,0.23,-0.01,0.91,230.65,81.48,-43.09
539,1778611398.2386491,0.08,-0.44,0.03,150.57,21.73,-25.94
540,1778611398.248702,0.08,-0.44,0.03,150.57,21.73,-25.94
541,1778611398.258626,0.08,-0.44,0.03,150.57,21.73,-25.94
542,1778611398.268669,0.08,-0.44,0.03,150.57,21.73,-25.94
543,1778611398.2785861,-0.05,-0.62,-0.05,96.98,-32.41,2.08
544,1778611398.288613,-0.05,-0.62,-0.05,96.98,-32.41,2.08
545,1778611398.298657,-0.05,-0.62,-0.05,96.98,-32.41,2.08
546,1778611398.308676,-0.04,-0.74,0.09,24.54,-12.33,20.02
547,1778611398.3186,-0.04,-0.74,0.09,24.54,-12.33,20.02
548,1778611398.328622,-0.04,-0.74,0.09,24.54,-12.33,20.02
549,1778611398.338623,-0.04,-0.74,0.09,24.54,-12.33,20.02
550,1778611398.348653,0.11,-0.87,-0.03,-14.77,-16.54,43.03
551,1778611398.358691,0.11,-0.87,-0.03,-14.77,-16.54,43.03
552,1778611398.368603,0.11,-0.87,-0.03,-14.77,-16.54,43.03
553,1778611398.378651,0.2,-0.86,0.0,-40.22,-43.27,59.39
554,1778611398.388692,0.2,-0.86,0.0,-40.22,-43.27,59.39
555,1778611398.398589,0.2,-0.86,0.0,-40.22,-43.27,59.39
556,1778611398.408598,0.2,-0.86,0.0,-40.22,-43.27,59.39
557,1778611398.418614,0.2,-0.86,0.0,-40.22,-43.27,59.39
558,1778611398.428641,0.26,-0.87,0.11,-109.56,-34.3,75.32
559,1778611398.4386618,0.26,-0.87,0.11,-109.56,-34.3,75.32
560,1778611398.4485812,0.26,-0.87,0.11,-109.56,-34.3,75.32
561,1778611398.4586,0.26,-0.87,0.11,-109.56,-34.3,75.32
562,1778611398.4686122,0.26,-0.87,0.11,-109.56,-34.3,75.32
563,1778611398.478613,0.26,-0.87,0.11,-109.56,-34.3,75.32
564,1778611398.488661,0.26,-0.87,0.11,-109.56,-34.3,75.32
565,1778611398.498704,0.26,-0.87,0.11,-109.56,-34.3,75.32
566,1778611398.5086432,0.26,-0.87,0.11,-109.56,-34.3,75.32
567,1778611398.518673,0.26,-0.87,0.11,-109.56,-34.3,75.32
568,1778611398.528707,0.71,1.59,3.32,-517.88,-114.01,-195.5
569,1778611398.5385869,0.71,1.59,3.32,-517.88,-114.01,-195.5
570,1778611398.5486112,0.71,1.59,3.32,-517.88,-114.01,-195.5
571,1778611398.5586188,0.71,1.59,3.32,-517.88,-114.01,-195.5
572,1778611398.568633,-0.22,1.42,3.23,-127.44,-169.98,21.48
573,1778611398.578655,-0.22,1.42,3.23,-127.44,-169.98,21.48
574,1778611398.5886679,-0.22,1.42,3.23,-127.44,-169.98,21.48
575,1778611398.598591,0.12,1.82,2.05,-127.44,-169.98,21.48
576,1778611398.60862,0.12,1.82,2.05,5.0,-115.54,110.35
577,1778611398.6186519,0.12,1.82,2.05,5.0,-115.54,110.35
578,1778611398.628693,0.12,1.82,2.05,5.0,-115.54,110.35
579,1778611398.638589,-0.04,1.45,1.17,-93.99,39.49,7.63
580,1778611398.648608,-0.04,1.45,1.17,-93.99,39.49,7.63
581,1778611398.658648,-0.04,1.45,1.17,-93.99,39.49,7.63
582,1778611398.6686919,-0.04,1.45,1.17,-93.99,39.49,7.63
583,1778611398.678584,-0.28,0.79,0.47,-41.93,44.19,-17.27
584,1778611398.68862,-0.28,0.79,0.47,-41.93,44.19,-17.27
585,1778611398.698677,-0.28,0.79,0.47,-41.93,44.19,-17.27
586,1778611398.708695,-0.28,0.79,0.47,-41.93,44.19,-17.27
587,1778611398.7185931,-0.39,0.65,0.34,-29.66,45.53,-18.62
588,1778611398.728624,-0.39,0.65,0.34,-29.66,45.53,-18.62
589,1778611398.738645,-0.39,0.65,0.34,-29.66,45.53,-18.62
590,1778611398.748677,-0.39,0.65,0.34,-29.66,45.53,-18.62
591,1778611398.758602,-0.63,0.41,0.39,-25.94,87.1,-18.07
592,1778611398.768638,-0.63,0.41,0.39,-25.94,87.1,-18.07
593,1778611398.778682,-0.63,0.41,0.39,-25.94,87.1,-18.07
594,1778611398.788594,-0.63,0.41,0.39,-25.94,87.1,-18.07
595,1778611398.798642,-0.63,0.41,0.39,-25.94,87.1,-18.07
596,1778611398.8086772,-0.62,0.19,0.11,50.54,86.61,64.45
597,1778611398.8185961,-0.49,0.21,0.06,50.54,86.61,64.45
598,1778611398.828693,-0.49,0.21,0.06,76.66,83.44,108.28
599,1778611398.838654,-0.49,0.21,0.06,76.66,83.44,108.28
600,1778611398.848593,-0.49,0.21,0.06,76.66,83.44,108.28
601,1778611398.858614,-0.33,0.52,0.59,81.05,100.22,136.41
602,1778611398.8686469,-0.33,0.52,0.59,81.05,100.22,136.41
603,1778611398.878676,-0.33,0.52,0.59,81.05,100.22,136.41
604,1778611398.8886988,-0.65,1.67,2.05,53.96,128.48,110.23
605,1778611398.898598,-0.65,1.67,2.05,53.96,128.48,110.23
606,1778611398.908621,-0.65,1.67,2.05,53.96,128.48,110.23
607,1778611398.918598,-0.65,1.67,2.05,53.96,128.48,110.23
608,1778611398.9286668,-0.81,2.21,5.37,197.02,137.76,120.73
609,1778611398.938604,-0.81,2.21,5.37,197.02,137.76,120.73
610,1778611398.948629,-0.81,2.21,5.37,197.02,137.76,120.73
611,1778611398.9586828,-0.81,2.21,5.37,197.02,137.76,120.73
612,1778611398.96858,-0.81,2.21,5.37,197.02,137.76,120.73
613,1778611398.9786491,-0.81,2.21,5.37,197.02,137.76,120.73
614,1778611398.988689,-0.81,2.21,5.37,197.02,137.76,120.73
615,1778611398.9985979,-0.81,2.21,5.37,197.02,137.76,120.73
616,1778611399.00861,-0.81,2.21,5.37,197.02,137.76,120.73
617,1778611399.018684,-0.81,2.21,5.37,197.02,137.76,120.73
618,1778611399.028686,-0.81,2.21,5.37,197.02,137.76,120.73
619,1778611399.038615,-0.81,2.21,5.37,197.02,137.76,120.73
620,1778611399.0485811,0.71,0.6,2.11,292.24,212.16,-26.49
621,1778611399.058707,0.25,-0.87,0.17,180.36,236.33,-86.67
622,1778611399.0686898,0.25,-0.87,0.17,147.52,143.37,-36.99
623,1778611399.0786738,0.25,-0.87,0.17,147.52,143.37,-36.99
624,1778611399.088695,0.25,-0.87,0.17,147.52,143.37,-36.99
625,1778611399.098659,0.2,-0.79,0.13,91.37,104.19,-5.25
626,1778611399.108642,0.2,-0.79,0.13,91.37,104.19,-5.25
627,1778611399.118634,0.2,-0.79,0.13,91.37,104.19,-5.25
628,1778611399.128681,0.2,-0.79,0.13,91.37,104.19,-5.25
629,1778611399.1386821,0.22,-0.76,0.05,91.37,104.19,-5.25
630,1778611399.1485791,0.22,-0.76,0.05,27.47,105.04,18.13
631,1778611399.158609,0.22,-0.76,0.05,27.47,105.04,18.13
632,1778611399.168641,0.22,-0.76,0.05,27.47,105.04,18.13
633,1778611399.178684,0.33,-0.75,-0.11,22.58,67.69,44.68
634,1778611399.1886919,0.33,-0.75,-0.11,22.58,67.69,44.68
635,1778611399.198616,0.33,-0.75,-0.11,22.58,67.69,44.68
636,1778611399.208661,0.33,-0.75,-0.11,22.58,67.69,44.68
637,1778611399.218691,0.2,-0.72,-0.31,-27.28,47.91,52.8
638,1778611399.2285812,0.2,-0.72,-0.31,-27.28,47.91,52.8
639,1778611399.238613,0.2,-0.72,-0.31,-27.28,47.91,52.8
640,1778611399.248637,0.2,-0.72,-0.31,-27.28,47.91,52.8
641,1778611399.25867,0.25,-0.8,-1.63,-139.04,16.17,112.18
642,1778611399.268702,0.25,-0.8,-1.63,-139.04,16.17,112.18
643,1778611399.2786062,0.25,-0.8,-1.63,-139.04,16.17,112.18
644,1778611399.288633,1.17,0.72,1.0,-139.04,16.17,112.18
645,1778611399.2986612,1.17,0.72,1.0,-257.51,-163.7,97.84
646,1778611399.308695,1.17,0.72,1.0,-257.51,-163.7,97.84
647,1778611399.318707,1.17,0.72,1.0,-257.51,-163.7,97.84
648,1778611399.328625,0.39,1.14,2.83,-434.81,3.42,-91.37
649,1778611399.338658,0.39,1.14,2.83,-434.81,3.42,-91.37
650,1778611399.34869,0.39,1.14,2.83,-434.81,3.42,-91.37
651,1778611399.358704,0.39,1.14,2.83,-434.81,3.42,-91.37
652,1778611399.368622,-0.05,0.55,2.58,-259.4,-126.34,88.81
653,1778611399.3786612,-0.05,0.55,2.58,-259.4,-126.34,88.81
654,1778611399.388583,-0.05,0.55,2.58,-259.4,-126.34,88.81
655,1778611399.3986208,-0.05,0.55,2.58,-259.4,-126.34,88.81
656,1778611399.408672,0.68,1.74,2.39,2.5,-147.71,242.98
657,1778611399.418678,0.68,1.74,2.39,2.5,-147.71,242.98
658,1778611399.428588,0.68,1.74,2.39,2.5,-147.71,242.98
659,1778611399.4386098,0.68,1.74,2.39,2.5,-147.71,242.98
660,1778611399.4486542,0.32,1.4,1.13,-141.54,15.44,85.75
661,1778611399.458678,0.32,1.4,1.13,-141.54,15.44,85.75
662,1778611399.468687,0.32,1.4,1.13,-141.54,15.44,85.75
663,1778611399.4785979,0.32,1.4,1.13,-141.54,15.44,85.75
664,1778611399.488619,0.32,1.4,1.13,-141.54,15.44,85.75
665,1778611399.498667,0.32,1.4,1.13,-141.54,15.44,85.75
666,1778611399.5087051,0.32,1.4,1.13,-141.54,15.44,85.75
667,1778611399.5185962,0.32,1.4,1.13,-141.54,15.44,85.75
668,1778611399.528623,0.32,1.4,1.13,-141.54,15.44,85.75
669,1778611399.538644,0.32,1.4,1.13,-141.54,15.44,85.75
670,1778611399.548637,0.32,1.4,1.13,-141.54,15.44,85.75
671,1778611399.5586839,0.32,1.4,1.13,-141.54,15.44,85.75
672,1778611399.568661,-0.49,0.69,0.85,30.7,47.91,132.26
673,1778611399.578589,-0.49,0.69,0.85,30.7,47.91,132.26
674,1778611399.58865,-0.49,0.69,0.85,30.7,47.91,132.26
675,1778611399.598698,-0.68,0.48,1.05,84.78,89.36,140.38
676,1778611399.60862,-0.68,0.48,1.05,84.78,89.36,140.38
677,1778611399.6186318,-0.68,0.48,1.05,84.78,89.36,140.38
678,1778611399.6286788,-0.68,0.48,1.05,84.78,89.36,140.38
679,1778611399.6385999,-0.62,0.51,0.99,142.27,93.93,169.13
680,1778611399.648656,-0.62,0.51,0.99,142.27,93.93,169.13
681,1778611399.6587,-0.62,0.51,0.99,142.27,93.93,169.13
682,1778611399.668635,-0.62,0.51,0.99,142.27,93.93,169.13
683,1778611399.678667,-0.28,1.66,2.83,242.25,155.15,123.17
684,1778611399.688687,-0.28,1.66,2.83,242.25,155.15,123.17
685,1778611399.698587,-0.28,1.66,2.83,242.25,155.15,123.17
686,1778611399.708626,-0.28,1.66,2.83,242.25,155.15,123.17
687,1778611399.718685,-0.39,1.6,3.25,292.72,241.46,54.69
688,1778611399.7286122,-0.39,1.6,3.25,292.72,241.46,54.69
689,1778611399.7386382,-0.39,1.6,3.25,292.72,241.46,54.69
690,1778611399.748681,-0.39,1.6,3.25,292.72,241.46,54.69
691,1778611399.758584,0.44,1.49,3.02,396.18,190.12,100.04
692,1778611399.768629,0.44,1.49,3.02,396.18,190.12,100.04
693,1778611399.778698,0.44,1.49,3.02,396.18,190.12,100.04
694,1778611399.7886028,0.44,1.49,3.02,396.18,190.12,100.04
695,1778611399.798649,0.44,1.49,3.02,396.18,190.12,100.04
696,1778611399.8086982,0.98,1.23,2.71,316.65,186.89,-116.76
697,1778611399.818649,0.98,1.23,2.71,316.65,186.89,-116.76
698,1778611399.828653,0.98,1.23,2.71,316.65,186.89,-116.76
699,1778611399.8386838,0.41,-0.8,1.36,173.4,241.7,-190.37
700,1778611399.848595,0.41,-0.8,1.36,173.4,241.7,-190.37
701,1778611399.858614,0.41,-0.8,1.36,173.4,241.7,-190.37
702,1778611399.8686368,0.41,-0.8,1.36,173.4,241.7,-190.37
703,1778611399.878689,0.21,-1.32,0.3,27.16,280.15,-118.77
704,1778611399.8885791,0.21,-1.32,0.3,27.16,280.15,-118.77
705,1778611399.8986251,0.21,-1.32,0.3,27.16,280.15,-118.77
706,1778611399.9086552,0.21,-1.32,0.3,27.16,280.15,-118.77
707,1778611399.918684,0.08,-1.27,-0.42,-20.57,196.84,6.16
708,1778611399.928585,0.08,-1.27,-0.42,-20.57,196.84,6.16
709,1778611399.9386098,0.08,-1.27,-0.42,-20.57,196.84,6.16
710,1778611399.948645,0.17,-1.06,-0.45,-39.12,96.8,95.21
711,1778611399.958679,0.17,-1.06,-0.45,-39.12,96.8,95.21
712,1778611399.968696,0.17,-1.06,-0.45,-39.12,96.8,95.21
713,1778611399.978595,0.17,-1.06,-0.45,-39.12,96.8,95.21
714,1778611399.988626,0.39,-0.9,-0.32,-96.25,39.55,132.14
715,1778611399.9986649,0.39,-0.9,-0.32,-96.25,39.55,132.14
716,1778611400.0086951,0.39,-0.9,-0.32,-96.25,39.55,132.14
717,1778611400.0186071,0.39,-0.9,-0.32,-96.25,39.55,132.14
718,1778611400.028655,0.39,-0.9,-0.32,-96.25,39.55,132.14
719,1778611400.038668,0.39,-0.9,-0.32,-96.25,39.55,132.14
720,1778611400.0485919,0.39,-0.9,-0.32,-96.25,39.55,132.14
721,1778611400.058615,0.39,-0.9,-0.32,-96.25,39.55,132.14
722,1778611400.0686562,0.39,-0.9,-0.32,-96.25,39.55,132.14
723,1778611400.0786,0.39,-0.9,-0.32,-96.25,39.55,132.14
724,1778611400.088591,0.39,-0.9,-0.32,-96.25,39.55,132.14
725,1778611400.098579,1.07,-0.58,-0.15,-177.37,-15.99,183.41
726,1778611400.1086311,1.53,0.24,0.47,-356.69,-49.68,119.63
727,1778611400.1186671,1.53,0.24,0.47,-356.69,-49.68,119.63
728,1778611400.12868,1.53,0.24,0.47,-356.69,-49.68,119.63
729,1778611400.13858,1.53,0.24,0.47,-356.69,-49.68,119.63
730,1778611400.14863,1.53,0.24,0.47,-356.69,-49.68,119.63
731,1778611400.158693,1.53,0.24,0.47,-356.69,-49.68,119.63
732,1778611400.168603,1.53,0.24,0.47,-356.69,-49.68,119.63
733,1778611400.178633,1.53,0.24,0.47,-356.69,-49.68,119.63
734,1778611400.188652,1.53,0.24,0.47,-356.69,-49.68,119.63
735,1778611400.198684,1.53,0.24,0.47,-356.69,-49.68,119.63
736,1778611400.208582,1.53,0.24,0.47,-356.69,-49.68,119.63
737,1778611400.2185931,1.53,0.24,0.47,-356.69,-49.68,119.63
738,1778611400.22861,0.43,1.95,3.26,-109.31,-77.39,157.84
739,1778611400.238647,0.43,1.95,3.26,-109.31,-77.39,157.84
740,1778611400.248662,0.43,1.95,3.26,-109.31,-77.39,157.84
741,1778611400.258687,0.43,1.95,3.26,-109.31,-77.39,157.84
742,1778611400.268579,0.43,1.95,3.26,-109.31,-77.39,157.84
743,1778611400.278601,0.43,1.95,3.26,-109.31,-77.39,157.84
744,1778611400.288642,0.08,1.23,0.88,-56.64,36.5,85.75
745,1778611400.298662,0.08,1.23,0.88,-56.64,36.5,85.75
746,1778611400.308692,0.08,1.23,0.88,-23.93,80.69,10.62
747,1778611400.31869,0.08,1.23,0.88,-23.93,80.69,10.62
748,1778611400.328671,0.08,1.23,0.88,-23.93,80.69,10.62
749,1778611400.338642,-0.24,0.69,0.3,4.46,42.18,16.66
750,1778611400.348607,-0.24,0.69,0.3,4.46,42.18,16.66
751,1778611400.3587048,-0.24,0.69,0.3,4.46,42.18,16.66
752,1778611400.3686662,-0.24,0.69,0.3,4.46,42.18,16.66
753,1778611400.378659,-0.43,0.63,0.5,13.73,43.46,35.28
754,1778611400.388638,-0.43,0.63,0.5,13.73,43.46,35.28
755,1778611400.398659,-0.43,0.63,0.5,13.73,43.46,35.28
756,1778611400.408684,-0.53,0.65,0.68,70.31,51.82,55.3
757,1778611400.418698,-0.53,0.65,0.68,70.31,51.82,55.3
758,1778611400.428599,-0.53,0.65,0.68,70.31,51.82,55.3
759,1778611400.438604,-0.5,0.46,0.89,123.05,82.03,82.89
760,1778611400.448614,-0.5,0.46,0.89,123.05,82.03,82.89
761,1778611400.458685,-0.5,0.46,0.89,123.05,82.03,82.89
762,1778611400.46862,-0.5,0.46,0.89,123.05,82.03,82.89
763,1778611400.478678,-0.27,0.33,0.86,142.33,144.35,110.29
764,1778611400.488589,-0.27,0.33,0.86,142.33,144.35,110.29
765,1778611400.498664,-0.27,0.33,0.86,142.33,144.35,110.29
766,1778611400.5086021,-0.27,0.33,0.86,142.33,144.35,110.29
767,1778611400.518646,-0.24,0.67,1.04,146.12,198.43,114.32
768,1778611400.5286772,-0.24,0.67,1.04,146.12,198.43,114.32
769,1778611400.538644,-0.24,0.67,1.04,146.12,198.43,114.32
770,1778611400.548667,-0.24,0.67,1.04,146.12,198.43,114.32
771,1778611400.558683,-0.24,0.67,1.04,146.12,198.43,114.32
772,1778611400.5686882,-0.24,0.67,1.04,146.12,198.43,114.32
773,1778611400.5786932,-0.24,0.67,1.04,146.12,198.43,114.32
774,1778611400.588584,-0.24,0.67,1.04,146.12,198.43,114.32
775,1778611400.598699,-0.24,0.67,1.04,146.12,198.43,114.32
776,1778611400.608588,-0.24,0.67,1.04,146.12,198.43,114.32
777,1778611400.618631,-0.09,1.4,3.18,240.42,188.6,179.32
778,1778611400.628692,0.5,1.23,2.68,298.71,95.4,98.39
779,1778611400.638578,0.5,1.23,2.68,298.71,95.4,98.39
780,1778611400.648604,0.5,1.23,2.68,298.71,95.4,98.39
781,1778611400.65863,0.5,1.23,2.68,298.71,95.4,98.39
782,1778611400.668681,0.38,-0.04,1.54,208.74,175.42,-63.66
783,1778611400.678693,0.38,-0.04,1.54,208.74,175.42,-63.66
784,1778611400.6885812,0.38,-0.04,1.54,208.74,175.42,-63.66
785,1778611400.6986198,0.25,-0.68,0.36,208.74,175.42,-63.66
786,1778611400.708674,0.25,-0.68,0.36,150.51,162.48,-76.78
787,1778611400.718703,0.25,-0.68,0.36,150.51,162.48,-76.78
788,1778611400.728624,0.25,-0.68,0.36,150.51,162.48,-76.78
789,1778611400.738689,0.2,-0.8,-0.04,83.25,110.29,-56.15
790,1778611400.748617,0.2,-0.8,-0.04,83.25,110.29,-56.15
791,1778611400.758689,0.2,-0.8,-0.04,83.25,110.29,-56.15
792,1778611400.768626,0.26,-0.92,-0.16,34.73,41.69,-27.53
793,1778611400.778682,0.26,-0.92,-0.16,34.73,41.69,-27.53
794,1778611400.788578,0.26,-0.92,-0.16,34.73,41.69,-27.53
795,1778611400.7986329,0.26,-0.92,-0.16,34.73,41.69,-27.53
796,1778611400.80866,0.26,-0.92,-0.16,34.73,41.69,-27.53
797,1778611400.8186848,0.28,-1.27,-0.38,22.95,-41.93,14.77
798,1778611400.828587,0.28,-1.27,-0.38,22.95,-41.93,14.77
799,1778611400.838625,0.4,-1.22,-0.58,-26.12,-81.54,55.24
800,1778611400.848646,0.4,-1.22,-0.58,-26.12,-81.54,55.24
801,1778611400.858678,0.4,-1.22,-0.58,-26.12,-81.54,55.24
802,1778611400.868694,0.4,-1.22,-0.58,-26.12,-81.54,55.24
803,1778611400.8785899,0.59,-1.17,-0.26,-187.74,-100.4,46.75
804,1778611400.888615,0.59,-1.17,-0.26,-187.74,-100.4,46.75
805,1778611400.898668,0.59,-1.17,-0.26,-187.74,-100.4,46.75
806,1778611400.90868,0.59,-1.17,-0.26,-187.74,-100.4,46.75
807,1778611400.918632,1.16,-0.86,-0.16,-290.47,-121.52,73.36
808,1778611400.928691,1.16,-0.86,-0.16,-290.47,-121.52,73.36
809,1778611400.938619,1.16,-0.86,-0.16,-290.47,-121.52,73.36
810,1778611400.948684,1.16,-0.86,-0.16,-290.47,-121.52,73.36
811,1778611400.958614,1.61,0.55,2.7,-435.49,-282.53,12.27
812,1778611400.9686458,1.61,0.55,2.7,-435.49,-282.53,12.27
813,1778611400.978672,1.61,0.55,2.7,-435.49,-282.53,12.27
814,1778611400.9885812,0.99,2.7,6.04,-435.49,-282.53,12.27
815,1778611400.998652,0.99,2.7,6.04,-298.83,-206.97,-176.51
816,1778611401.008586,0.99,2.7,6.04,-298.83,-206.97,-176.51
817,1778611401.018645,0.99,2.7,6.04,-298.83,-206.97,-176.51
818,1778611401.0286982,0.99,2.7,6.04,-298.83,-206.97,-176.51
819,1778611401.0386298,-0.34,1.27,3.68,-210.82,27.16,-214.05
820,1778611401.048676,-0.34,1.27,3.68,-210.82,27.16,-214.05
821,1778611401.058634,-0.34,1.27,3.68,-210.82,27.16,-214.05
822,1778611401.068675,-0.34,1.27,3.68,-210.82,27.16,-214.05
823,1778611401.078609,-0.34,1.27,3.68,-210.82,27.16,-214.05
824,1778611401.088643,-0.34,1.27,3.68,-210.82,27.16,-214.05
825,1778611401.098639,-0.34,1.27,3.68,-210.82,27.16,-214.05
826,1778611401.108646,-0.34,1.27,3.68,-210.82,27.16,-214.05
827,1778611401.1186,-0.34,1.27,3.68,-210.82,27.16,-214.05
828,1778611401.128609,-0.34,1.27,3.68,-210.82,27.16,-214.05
829,1778611401.13858,-0.34,1.27,3.68,-210.82,27.16,-214.05
830,1778611401.148681,-0.02,0.69,0.14,23.19,38.39,-56.88
831,1778611401.158598,-0.02,0.69,0.14,23.19,38.39,-56.88
832,1778611401.168659,-0.02,0.69,0.14,23.19,38.39,-56.88
833,1778611401.178678,-0.23,0.52,-0.17,15.87,46.88,-63.96
834,1778611401.188684,-0.23,0.52,-0.17,15.87,46.88,-63.96
835,1778611401.198585,-0.23,0.52,-0.17,15.87,46.88,-63.96
836,1778611401.208598,-0.23,0.52,-0.17,15.87,46.88,-63.96
837,1778611401.218695,-0.36,0.3,-0.48,15.87,46.88,-63.96
838,1778611401.228692,-0.36,0.3,-0.48,52.98,25.76,1.89
839,1778611401.2385962,-0.36,0.3,-0.48,52.98,25.76,1.89
840,1778611401.248634,-0.05,0.41,-0.36,149.41,-40.71,114.14
841,1778611401.258687,-0.05,0.41,-0.36,149.41,-40.71,114.14
842,1778611401.2686021,-0.05,0.41,-0.36,149.41,-40.71,114.14
843,1778611401.278657,-0.05,0.41,-0.36,149.41,-40.71,114.14
844,1778611401.288689,0.22,0.91,-0.05,199.71,-59.88,137.45
845,1778611401.298593,0.22,0.91,-0.05,199.71,-59.88,137.45
846,1778611401.308615,0.22,0.91,-0.05,199.71,-59.88,137.45
847,1778611401.318654,0.22,0.91,-0.05,199.71,-59.88,137.45
848,1778611401.328578,0.11,1.34,0.44,49.07,46.75,16.11
849,1778611401.338589,0.11,1.34,0.44,49.07,46.75,16.11
850,1778611401.3486028,0.11,1.34,0.44,49.07,46.75,16.11
851,1778611401.3585851,0.11,1.34,0.44,49.07,46.75,16.11
852,1778611401.368615,-0.05,3.2,4.47,46.75,-176.64,86.85
853,1778611401.378675,-0.05,3.2,4.47,46.75,-176.64,86.85
854,1778611401.3886871,-0.05,3.2,4.47,46.75,-176.64,86.85
855,1778611401.398597,-0.05,3.2,4.47,46.75,-176.64,86.85
856,1778611401.408635,0.85,2.44,4.42,210.33,187.38,-68.05
857,1778611401.418659,0.85,2.44,4.42,210.33,187.38,-68.05
858,1778611401.428682,0.85,2.44,4.42,210.33,187.38,-68.05
859,1778611401.438702,0.85,2.44,4.42,210.33,187.38,-68.05
860,1778611401.448614,0.51,0.11,1.73,219.18,177.06,-127.2
861,1778611401.458654,0.51,0.11,1.73,219.18,177.06,-127.2
862,1778611401.468693,0.51,0.11,1.73,219.18,177.06,-127.2
863,1778611401.4785762,0.3,-0.44,0.75,219.18,177.06,-127.2
864,1778611401.488585,0.3,-0.44,0.75,169.62,165.89,-81.6
865,1778611401.498592,0.3,-0.44,0.75,169.62,165.89,-81.6
866,1778611401.5086348,0.3,-0.44,0.75,169.62,165.89,-81.6
867,1778611401.518661,0.24,-0.56,-0.06,169.62,165.89,-81.6
868,1778611401.528693,0.24,-0.56,-0.06,74.89,164.12,-70.8
869,1778611401.538618,0.24,-0.56,-0.06,74.89,164.12,-70.8
870,1778611401.548678,0.12,-0.73,-0.51,38.7,88.99,-44.43
871,1778611401.5586119,0.12,-0.73,-0.51,38.7,88.99,-44.43
872,1778611401.5686662,0.12,-0.73,-0.51,38.7,88.99,-44.43
873,1778611401.578589,0.12,-0.73,-0.51,38.7,88.99,-44.43
874,1778611401.588629,0.12,-0.73,-0.51,38.7,88.99,-44.43
875,1778611401.5986838,0.12,-0.73,-0.51,38.7,88.99,-44.43
876,1778611401.608597,0.12,-0.73,-0.51,38.7,88.99,-44.43
877,1778611401.618638,0.12,-0.73,-0.51,38.7,88.99,-44.43
878,1778611401.628591,0.12,-0.73,-0.51,38.7,88.99,-44.43
879,1778611401.638648,0.12,-0.73,-0.51,38.7,88.99,-44.43
880,1778611401.648698,0.12,-0.73,-0.51,38.7,88.99,-44.43
881,1778611401.6586251,0.12,-0.73,-0.51,38.7,88.99,-44.43
882,1778611401.668687,0.12,-0.73,-0.51,38.7,88.99,-44.43
883,1778611401.6786492,0.34,-1.01,-0.15,-26.67,-78.98,119.45
884,1778611401.6886861,0.34,-1.01,-0.15,-26.67,-78.98,119.45
885,1778611401.698655,0.54,-0.86,-0.06,-158.45,-34.61,109.19
886,1778611401.708698,0.54,-0.86,-0.06,-158.45,-34.61,109.19
887,1778611401.7186298,0.54,-0.86,-0.06,-158.45,-34.61,109.19
888,1778611401.728648,0.54,-0.86,-0.06,-158.45,-34.61,109.19
889,1778611401.738677,1.34,-0.36,-0.45,-336.3,-39.31,89.9
890,1778611401.748704,1.34,-0.36,-0.45,-336.3,-39.31,89.9
891,1778611401.75861,1.34,-0.36,-0.45,-336.3,-39.31,89.9
892,1778611401.768657,1.34,-0.36,-0.45,-336.3,-39.31,89.9
893,1778611401.7785852,2.36,1.4,3.37,-377.99,-249.21,-38.51
894,1778611401.788619,2.36,1.4,3.37,-377.99,-249.21,-38.51
895,1778611401.798677,2.36,1.4,3.37,-377.99,-249.21,-38.51
896,1778611401.808613,0.98,2.22,5.0,-377.99,-249.21,-38.51
897,1778611401.818679,0.98,2.22,5.0,-389.89,-50.72,-158.33
898,1778611401.828655,0.98,2.22,5.0,-389.89,-50.72,-158.33
899,1778611401.8386428,0.98,2.22,5.0,-389.89,-50.72,-158.33
900,1778611401.8486001,0.11,1.61,2.52,-389.89,-50.72,-158.33
901,1778611401.858624,0.11,1.61,2.52,-66.71,-11.66,-41.75
902,1778611401.868629,0.11,1.61,2.52,-66.71,-11.66,-41.75
903,1778611401.8786838,0.11,1.61,2.52,-66.71,-11.66,-41.75
904,1778611401.888588,0.08,1.22,0.96,-50.23,25.09,-21.55
905,1778611401.8986099,0.08,1.22,0.96,-50.23,25.09,-21.55
906,1778611401.908609,0.08,1.22,0.96,-50.23,25.09,-21.55
907,1778611401.918632,0.08,1.22,0.96,-50.23,25.09,-21.55
908,1778611401.928684,-0.03,0.95,0.3,-35.46,26.92,-24.66
909,1778611401.938586,-0.03,0.95,0.3,-35.46,26.92,-24.66
910,1778611401.948601,-0.03,0.95,0.3,-35.46,26.92,-24.66
911,1778611401.958633,-0.03,0.95,0.3,-35.46,26.92,-24.66
912,1778611401.9686599,-0.22,0.9,-0.05,-10.31,26.18,-28.56
913,1778611401.978681,-0.22,0.9,-0.05,-10.31,26.18,-28.56
914,1778611401.98858,-0.22,0.9,-0.05,-10.31,26.18,-28.56
915,1778611401.998615,-0.22,0.9,-0.05,-10.31,26.18,-28.56
916,1778611402.008596,-0.32,0.84,-0.07,-17.21,54.02,-38.27
917,1778611402.018661,-0.32,0.84,-0.07,-17.21,54.02,-38.27
918,1778611402.028596,-0.32,0.84,-0.07,-17.21,54.02,-38.27
919,1778611402.038659,-0.32,0.84,-0.07,-17.21,54.02,-38.27
920,1778611402.048609,-0.37,0.66,0.06,7.63,87.59,-27.1
921,1778611402.058657,-0.37,0.66,0.06,7.63,87.59,-27.1
922,1778611402.068581,-0.37,0.66,0.06,7.63,87.59,-27.1
923,1778611402.078627,-0.44,0.41,0.08,66.35,71.59,10.44
924,1778611402.088659,-0.44,0.41,0.08,66.35,71.59,10.44
925,1778611402.09859,-0.44,0.41,0.08,66.35,71.59,10.44
926,1778611402.108646,-0.44,0.41,0.08,66.35,71.59,10.44
927,1778611402.11869,-0.44,0.41,0.08,66.35,71.59,10.44
928,1778611402.128663,-0.44,0.41,0.08,66.35,71.59,10.44
929,1778611402.138703,-0.44,0.41,0.08,66.35,71.59,10.44
930,1778611402.148611,-0.44,0.41,0.08,66.35,71.59,10.44
931,1778611402.158647,-0.44,0.41,0.08,66.35,71.59,10.44
932,1778611402.168576,-0.44,0.41,0.08,66.35,71.59,10.44
933,1778611402.178609,-0.44,0.41,0.08,66.35,71.59,10.44
934,1778611402.188705,-0.44,0.41,0.08,66.35,71.59,10.44
935,1778611402.198635,-0.56,2.36,4.31,175.84,230.47,-85.82
936,1778611402.208658,-0.56,2.36,4.31,175.84,230.47,-85.82
937,1778611402.2186182,-0.56,2.36,4.31,175.84,230.47,-85.82
938,1778611402.2286642,-0.15,0.98,2.44,280.82,115.42,55.18
939,1778611402.238677,-0.15,0.98,2.44,280.82,115.42,55.18
940,1778611402.248673,-0.15,0.98,2.44,280.82,115.42,55.18
941,1778611402.258581,-0.15,0.98,2.44,280.82,115.42,55.18
942,1778611402.268637,0.66,0.56,2.18,405.15,74.4,18.8
943,1778611402.2787032,0.66,0.56,2.18,405.15,74.4,18.8
944,1778611402.2886012,0.66,0.56,2.18,405.15,74.4,18.8
945,1778611402.298608,0.66,0.56,2.18,405.15,74.4,18.8
946,1778611402.308635,0.59,-0.67,0.54,99.18,223.94,-128.97
947,1778611402.318642,0.59,-0.67,0.54,99.18,223.94,-128.97
948,1778611402.328674,0.59,-0.67,0.54,99.18,223.94,-128.97
949,1778611402.338578,0.59,-0.67,0.54,99.18,223.94,-128.97
950,1778611402.3486102,0.2,-1.12,-0.14,76.29,148.8,-70.25
951,1778611402.3586402,0.2,-1.12,-0.14,76.29,148.8,-70.25
952,1778611402.368643,0.2,-1.12,-0.14,76.29,148.8,-70.25
953,1778611402.3786821,0.13,-1.09,-0.25,43.76,89.72,-0.31
954,1778611402.388683,0.13,-1.09,-0.25,43.76,89.72,-0.31
955,1778611402.398703,0.13,-1.09,-0.25,43.76,89.72,-0.31
956,1778611402.4086158,0.13,-1.09,-0.25,43.76,89.72,-0.31
957,1778611402.418636,0.31,-0.86,-0.16,1.89,51.51,46.88
958,1778611402.4286442,0.31,-0.86,-0.16,1.89,51.51,46.88
959,1778611402.438664,0.31,-0.86,-0.16,1.89,51.51,46.88
960,1778611402.448703,0.54,-0.72,-0.12,1.89,51.51,46.88
961,1778611402.458611,0.54,-0.72,-0.12,-28.5,15.75,53.89
962,1778611402.468629,0.54,-0.72,-0.12,-28.5,15.75,53.89
963,1778611402.478677,0.54,-0.72,-0.12,-28.5,15.75,53.89
964,1778611402.488601,0.5,-0.6,-0.35,-106.08,10.86,33.51
965,1778611402.4986188,0.5,-0.6,-0.35,-106.08,10.86,33.51
966,1778611402.508676,0.5,-0.6,-0.35,-106.08,10.86,33.51
967,1778611402.518692,0.5,-0.6,-0.35,-106.08,10.86,33.51
968,1778611402.528596,0.93,-0.44,-1.11,-106.08,10.86,33.51
969,1778611402.538591,0.93,-0.44,-1.11,-210.57,-48.1,90.7
970,1778611402.548697,0.93,-0.44,-1.11,-210.57,-48.1,90.7
971,1778611402.5586078,0.93,-0.44,-1.11,-210.57,-48.1,90.7
972,1778611402.568629,1.1,0.6,1.73,-278.26,-233.52,-32.41
973,1778611402.578665,1.1,0.6,1.73,-278.26,-233.52,-32.41
974,1778611402.5886788,1.1,0.6,1.73,-278.26,-233.52,-32.41
975,1778611402.598589,1.1,0.6,1.73,-278.26,-233.52,-32.41
976,1778611402.60862,-0.29,0.68,3.9,-512.33,-84.23,-77.21
977,1778611402.6186109,-0.29,0.68,3.9,-512.33,-84.23,-77.21
978,1778611402.6286578,-0.29,0.68,3.9,-512.33,-84.23,-77.21
979,1778611402.638664,-0.29,0.68,3.9,-512.33,-84.23,-77.21
980,1778611402.6486871,-0.29,0.68,3.9,-512.33,-84.23,-77.21
981,1778611402.6587021,-0.29,0.68,3.9,-512.33,-84.23,-77.21
982,1778611402.6686258,-0.29,0.68,3.9,-512.33,-84.23,-77.21
983,1778611402.6786501,-0.29,0.68,3.9,-512.33,-84.23,-77.21
984,1778611402.6886568,-0.29,0.68,3.9,-512.33,-84.23,-77.21
985,1778611402.698687,-0.29,0.68,3.9,-512.33,-84.23,-77.21
986,1778611402.70858,-0.29,0.68,3.9,-512.33,-84.23,-77.21
987,1778611402.718581,0.54,3.02,2.85,-50.35,-14.4,205.32
988,1778611402.7286148,-0.08,1.5,0.85,-138.92,127.44,-10.25
989,1778611402.738615,-0.08,1.5,0.85,-138.92,127.44,-10.25
990,1778611402.7486389,-0.08,1.5,0.85,-138.92,127.44,-10.25
991,1778611402.7586539,-0.55,0.64,0.42,-67.26,75.26,28.87
992,1778611402.768682,-0.55,0.64,0.42,-67.26,75.26,28.87
993,1778611402.778699,-0.55,0.64,0.42,-67.26,75.26,28.87
994,1778611402.7886982,-0.55,0.64,0.42,-67.26,75.26,28.87
995,1778611402.798599,-0.61,0.58,0.2,-17.64,70.01,103.58
996,1778611402.8086379,-0.61,0.58,0.2,-17.64,70.01,103.58
997,1778611402.818644,-0.61,0.58,0.2,-17.64,70.01,103.58
998,1778611402.8286679,-0.61,0.58,0.2,-17.64,70.01,103.58
999,1778611402.8386939,-0.55,0.68,0.33,11.17,101.07,129.88
1000,1778611402.848594,-0.55,0.68,0.33,11.17,101.07,129.88
