id,timestamp,acc_x,acc_y,acc_z,gyro_x,gyro_y,gyro_z
1,1778612177.115864,0.49,-0.91,0.05,-8.67,-15.63,-67.02
2,1778612177.1158762,0.49,-0.91,0.05,-8.67,-15.63,-67.02
3,1778612177.1244822,0.49,-0.91,0.05,-8.67,-15.63,-67.02
4,1778612177.134497,0.49,-0.91,0.05,-8.67,-15.63,-67.02
5,1778612177.144556,0.49,-0.91,0.05,-8.67,-15.63,-67.02
6,1778612177.1545348,0.37,-0.92,-0.06,14.59,-12.02,-28.26
7,1778612177.164505,0.37,-0.92,-0.06,14.59,-12.02,-28.26
8,1778612177.1745589,0.37,-0.92,-0.06,14.59,-12.02,-28.26
9,1778612177.184542,0.56,-0.66,-0.14,9.7,-30.21,-10.31
10,1778612177.1945071,0.56,-0.66,-0.14,9.7,-30.21,-10.31
11,1778612177.204577,0.56,-0.66,-0.14,9.7,-30.21,-10.31
12,1778612177.21453,0.72,-0.72,-0.19,-25.82,-0.79,-27.1
13,1778612177.224481,0.72,-0.72,-0.19,-25.82,-0.79,-27.1
14,1778612177.234543,0.72,-0.72,-0.19,-25.82,-0.79,-27.1
15,1778612177.244582,0.72,-0.72,-0.19,-25.82,-0.79,-27.1
16,1778612177.254511,0.67,-0.81,-0.25,-52.25,27.89,-40.16
17,1778612177.26455,0.67,-0.81,-0.25,-52.25,27.89,-40.16
18,1778612177.274482,0.67,-0.81,-0.25,-52.25,27.89,-40.16
19,1778612177.284537,0.67,-0.81,-0.25,-52.25,27.89,-40.16
20,1778612177.294471,0.59,-0.85,-0.23,-64.7,63.23,-48.46
21,1778612177.304522,0.59,-0.85,-0.23,-64.7,63.23,-48.46
22,1778612177.314581,0.59,-0.85,-0.23,-64.7,63.23,-48.46
23,1778612177.324499,0.59,-0.85,-0.23,-64.7,63.23,-48.46
24,1778612177.33449,0.57,-0.84,-0.21,-64.7,63.23,-48.46
25,1778612177.3445919,0.57,-0.84,-0.21,-45.59,84.17,-20.45
26,1778612177.3545759,0.57,-0.84,-0.21,-45.59,84.17,-20.45
27,1778612177.364471,0.57,-0.84,-0.21,-45.59,84.17,-20.45
28,1778612177.374513,0.59,-0.7,-0.14,-13.92,83.92,14.71
29,1778612177.384544,0.59,-0.7,-0.14,-13.92,83.92,14.71
30,1778612177.3945951,0.59,-0.7,-0.14,-13.92,83.92,14.71
31,1778612177.404472,0.68,-0.63,-0.12,-35.64,108.64,11.05
32,1778612177.41451,0.68,-0.63,-0.12,-35.64,108.64,11.05
33,1778612177.424541,0.68,-0.63,-0.12,-35.64,108.64,11.05
34,1778612177.434579,0.68,-0.63,-0.12,-35.64,108.64,11.05
35,1778612177.444486,0.68,-0.63,-0.12,-35.64,108.64,11.05
36,1778612177.4545112,0.57,-0.61,-0.15,-75.74,203.74,-35.34
37,1778612177.464534,0.57,-0.61,-0.15,-75.74,203.74,-35.34
38,1778612177.4745831,0.57,-0.61,-0.15,-75.74,203.74,-35.34
39,1778612177.484502,0.31,-0.84,-0.65,-140.93,248.96,-35.95
40,1778612177.4945312,0.31,-0.84,-0.65,-140.93,248.96,-35.95
41,1778612177.504525,0.31,-0.84,-0.65,-140.93,248.96,-35.95
42,1778612177.5145721,0.31,-0.84,-0.65,-140.93,248.96,-35.95
43,1778612177.52448,0.09,-0.7,-0.57,-140.93,248.96,-35.95
44,1778612177.53449,0.09,-0.7,-0.57,-140.93,248.96,-35.95
45,1778612177.544481,0.09,-0.7,-0.57,-140.93,248.96,-35.95
46,1778612177.5545459,0.09,-0.7,-0.57,-140.93,248.96,-35.95
47,1778612177.5645509,0.09,-0.7,-0.57,-140.93,248.96,-35.95
48,1778612177.5745668,0.09,-0.7,-0.57,-140.93,248.96,-35.95
49,1778612177.584515,0.09,-0.7,-0.57,-140.93,248.96,-35.95
50,1778612177.5945878,0.09,-0.7,-0.57,-140.93,248.96,-35.95
51,1778612177.60451,0.09,-0.7,-0.57,-140.93,248.96,-35.95
52,1778612177.6145742,1.95,-0.15,-2.24,-353.88,5.49,33.33
53,1778612177.6245918,1.95,-0.15,-2.24,-353.88,5.49,33.33
54,1778612177.634582,1.95,-0.15,-2.24,-353.88,5.49,33.33
55,1778612177.644501,2.74,-1.22,-2.15,-570.56,265.75,-45.17
56,1778612177.65452,2.74,-1.22,-2.15,-570.56,265.75,-45.17
57,1778612177.664544,2.74,-1.22,-2.15,-570.56,265.75,-45.17
58,1778612177.674554,2.74,-1.22,-2.15,-570.56,265.75,-45.17
59,1778612177.6845949,3.54,-2.24,-1.2,-696.78,429.99,-155.33
60,1778612177.694489,3.54,-2.24,-1.2,-696.78,429.99,-155.33
61,1778612177.7045178,3.54,-2.24,-1.2,-696.78,429.99,-155.33
62,1778612177.7145479,3.84,-2.47,-0.51,-579.83,682.43,-189.33
63,1778612177.724472,3.84,-2.47,-0.51,-579.83,682.43,-189.33
64,1778612177.73452,3.84,-2.47,-0.51,-579.83,682.43,-189.33
65,1778612177.744558,3.84,-2.47,-0.51,-579.83,682.43,-189.33
66,1778612177.7545578,2.55,-3.06,0.1,-363.34,540.89,-245.85
67,1778612177.7645729,2.55,-3.06,0.1,-363.34,540.89,-245.85
68,1778612177.774474,2.55,-3.06,0.1,-363.34,540.89,-245.85
69,1778612177.784592,2.55,-3.06,0.1,-363.34,540.89,-245.85
70,1778612177.794555,2.1,-1.74,1.3,48.77,224.67,-195.92
71,1778612177.80459,2.1,-1.74,1.3,48.77,224.67,-195.92
72,1778612177.814516,2.1,-1.74,1.3,48.77,224.67,-195.92
73,1778612177.824511,2.1,-1.74,1.3,48.77,224.67,-195.92
74,1778612177.834552,2.26,-0.83,0.53,83.92,478.09,-33.39
75,1778612177.8444679,2.26,-0.83,0.53,83.92,478.09,-33.39
76,1778612177.8544798,2.26,-0.83,0.53,83.92,478.09,-33.39
77,1778612177.864595,2.26,-0.83,0.53,83.92,478.09,-33.39
78,1778612177.874493,1.73,-1.0,0.41,160.95,392.88,-73.97
79,1778612177.884541,1.73,-1.0,0.41,160.95,392.88,-73.97
80,1778612177.894583,1.73,-1.0,0.41,160.95,392.88,-73.97
81,1778612177.904501,1.73,-1.0,0.41,160.95,392.88,-73.97
82,1778612177.914565,1.83,-1.96,0.37,311.77,204.1,-236.82
83,1778612177.9245949,1.83,-1.96,0.37,311.77,204.1,-236.82
84,1778612177.934502,1.83,-1.96,0.37,311.77,204.1,-236.82
85,1778612177.9445708,1.83,-1.96,0.37,311.77,204.1,-236.82
86,1778612177.954519,2.52,-2.31,0.33,278.02,304.38,-250.18
87,1778612177.964576,2.52,-2.31,0.33,278.02,304.38,-250.18
88,1778612177.974475,2.52,-2.31,0.33,278.02,304.38,-250.18
89,1778612177.984535,2.52,-2.31,0.33,278.02,304.38,-250.18
90,1778612177.994474,2.33,-2.14,0.17,283.57,316.83,-187.68
91,1778612178.0044942,2.33,-2.14,0.17,283.57,316.83,-187.68
92,1778612178.014526,2.33,-2.14,0.17,283.57,316.83,-187.68
93,1778612178.024572,2.33,-2.14,0.17,283.57,316.83,-187.68
94,1778612178.034492,2.88,-2.23,-0.2,336.79,346.86,-211.18
95,1778612178.044537,2.88,-2.23,-0.2,336.79,346.86,-211.18
96,1778612178.05454,2.88,-2.23,-0.2,336.79,346.86,-211.18
97,1778612178.064577,2.88,-2.23,-0.2,336.79,346.86,-211.18
98,1778612178.074589,2.88,-2.23,-0.2,336.79,346.86,-211.18
99,1778612178.08449,2.88,-2.23,-0.2,336.79,346.86,-211.18
100,1778612178.094505,2.88,-2.23,-0.2,336.79,346.86,-211.18
101,1778612178.1045198,2.88,-2.23,-0.2,336.79,346.86,-211.18
102,1778612178.114553,2.88,-2.23,-0.2,336.79,346.86,-211.18
103,1778612178.124592,2.88,-2.23,-0.2,336.79,346.86,-211.18
104,1778612178.134509,2.88,-2.23,-0.2,336.79,346.86,-211.18
105,1778612178.144553,-0.8,-0.7,-5.94,482.18,-108.03,-301.64
106,1778612178.154588,-0.8,-0.7,-5.94,482.18,-108.03,-301.64
107,1778612178.164487,-0.8,-0.7,-5.94,482.18,-108.03,-301.64
108,1778612178.1745129,-1.63,-1.4,-0.5,-97.96,-784.85,-265.99
109,1778612178.184552,-1.63,-1.4,-0.5,-97.96,-784.85,-265.99
110,1778612178.194589,-1.63,-1.4,-0.5,-97.96,-784.85,-265.99
111,1778612178.204496,-1.63,-1.4,-0.5,-97.96,-784.85,-265.99
112,1778612178.214526,-3.69,-2.19,-4.55,-45.9,-221.68,29.3
113,1778612178.224573,-3.69,-2.19,-4.55,-45.9,-221.68,29.3
114,1778612178.234474,-3.69,-2.19,-4.55,-45.9,-221.68,29.3
115,1778612178.244511,-3.69,-2.19,-4.55,-45.9,-221.68,29.3
116,1778612178.254526,-4.43,-2.5,-2.0,-252.2,-82.21,96.5
117,1778612178.264569,-4.43,-2.5,-2.0,-252.2,-82.21,96.5
118,1778612178.274477,-4.43,-2.5,-2.0,-252.2,-82.21,96.5
119,1778612178.284519,-4.43,-2.5,-2.0,-252.2,-82.21,96.5
120,1778612178.294569,-0.67,-2.8,-2.19,90.52,-528.56,266.72
121,1778612178.304471,-0.67,-2.8,-2.19,90.52,-528.56,266.72
122,1778612178.314574,-0.67,-2.8,-2.19,90.52,-528.56,266.72
123,1778612178.3245509,-0.67,-2.8,-2.19,90.52,-528.56,266.72
124,1778612178.334593,4.06,-1.05,-3.68,369.02,-567.5,193.42
125,1778612178.344519,4.06,-1.05,-3.68,369.02,-567.5,193.42
126,1778612178.3545458,4.06,-1.05,-3.68,369.02,-567.5,193.42
127,1778612178.3645492,4.06,-1.05,-3.68,369.02,-567.5,193.42
128,1778612178.3745642,2.33,-2.09,-2.82,154.36,-293.88,346.74
129,1778612178.3845818,2.33,-2.09,-2.82,154.36,-293.88,346.74
130,1778612178.3944829,2.33,-2.09,-2.82,154.36,-293.88,346.74
131,1778612178.404516,2.32,-3.61,-1.31,78.0,-362.24,380.92
132,1778612178.414547,2.32,-3.61,-1.31,78.0,-362.24,380.92
133,1778612178.424581,2.32,-3.61,-1.31,78.0,-362.24,380.92
134,1778612178.434502,2.32,-3.61,-1.31,78.0,-362.24,380.92
135,1778612178.444531,3.36,-4.21,-0.86,78.0,-362.24,380.92
136,1778612178.454571,3.36,-4.21,-0.86,69.15,-186.65,545.1
137,1778612178.46458,3.36,-4.21,-0.86,69.15,-186.65,545.1
138,1778612178.474487,3.36,-4.21,-0.86,69.15,-186.65,545.1
139,1778612178.484531,3.83,-4.27,-1.36,66.41,-233.28,541.26
140,1778612178.4945521,3.83,-4.27,-1.36,66.41,-233.28,541.26
141,1778612178.504591,3.83,-4.27,-1.36,66.41,-233.28,541.26
142,1778612178.514498,3.83,-4.27,-1.36,66.41,-233.28,541.26
143,1778612178.5245361,3.84,-4.07,-0.28,46.33,-219.67,567.99
144,1778612178.534579,3.84,-4.07,-0.28,46.33,-219.67,567.99
145,1778612178.544501,3.84,-4.07,-0.28,46.33,-219.67,567.99
146,1778612178.554581,3.84,-4.07,-0.28,46.33,-219.67,567.99
147,1778612178.564495,3.25,-3.0,0.46,-93.57,224.73,669.86
148,1778612178.5745542,3.25,-3.0,0.46,-93.57,224.73,669.86
149,1778612178.584477,3.25,-3.0,0.46,-93.57,224.73,669.86
150,1778612178.594545,3.25,-3.0,0.46,-93.57,224.73,669.86
151,1778612178.604471,3.25,-3.0,0.46,-93.57,224.73,669.86
152,1778612178.6145,3.25,-3.0,0.46,-93.57,224.73,669.86
153,1778612178.6245189,3.25,-3.0,0.46,-93.57,224.73,669.86
154,1778612178.634548,3.25,-3.0,0.46,-93.57,224.73,669.86
155,1778612178.644568,3.25,-3.0,0.46,-93.57,224.73,669.86
156,1778612178.654506,3.25,-3.0,0.46,-93.57,224.73,669.86
157,1778612178.6645188,6.32,-1.44,1.69,-171.51,-120.18,261.47
158,1778612178.674556,8.0,1.08,0.74,-38.21,-169.68,295.59
159,1778612178.6844878,8.0,1.08,0.74,-38.21,-169.68,295.59
160,1778612178.6945112,8.0,1.08,0.74,-38.21,-169.68,295.59
161,1778612178.704533,8.0,1.08,0.74,-38.21,-169.68,295.59
162,1778612178.714581,6.71,-2.45,-0.69,125.06,24.23,-512.82
163,1778612178.724489,6.71,-2.45,-0.69,125.06,24.23,-512.82
164,1778612178.734526,6.71,-2.45,-0.69,125.06,24.23,-512.82
165,1778612178.744548,6.71,-2.45,-0.69,125.06,24.23,-512.82
166,1778612178.754584,3.63,-4.36,0.01,121.4,169.8,-373.66
167,1778612178.764493,3.63,-4.36,0.01,121.4,169.8,-373.66
168,1778612178.774543,3.63,-4.36,0.01,121.4,169.8,-373.66
169,1778612178.7845519,3.63,-4.36,0.01,121.4,169.8,-373.66
170,1778612178.794584,4.49,-2.41,-0.94,-2.87,490.91,-207.46
171,1778612178.804544,4.49,-2.41,-0.94,-2.87,490.91,-207.46
172,1778612178.814582,4.49,-2.41,-0.94,-2.87,490.91,-207.46
173,1778612178.824468,4.49,-2.41,-0.94,-2.87,490.91,-207.46
174,1778612178.83451,2.75,-2.55,-0.06,140.75,271.36,-258.73
175,1778612178.844495,2.75,-2.55,-0.06,140.75,271.36,-258.73
176,1778612178.854517,2.75,-2.55,-0.06,140.75,271.36,-258.73
177,1778612178.864535,2.75,-2.55,-0.06,140.75,271.36,-258.73
178,1778612178.8744938,2.46,-2.02,0.19,186.34,259.83,-216.19
179,1778612178.8845592,2.46,-2.02,0.19,186.34,259.83,-216.19
180,1778612178.894474,2.46,-2.02,0.19,186.34,259.83,-216.19
181,1778612178.904514,2.46,-2.02,0.19,186.34,259.83,-216.19
182,1778612178.914509,2.86,-2.56,-0.07,154.85,336.43,-200.68
183,1778612178.924536,2.86,-2.56,-0.07,154.85,336.43,-200.68
184,1778612178.93447,2.86,-2.56,-0.07,154.85,336.43,-200.68
185,1778612178.9444742,2.44,-3.66,-0.56,333.37,298.28,-313.72
186,1778612178.954487,2.44,-3.66,-0.56,333.37,298.28,-313.72
187,1778612178.96452,2.44,-3.66,-0.56,333.37,298.28,-313.72
188,1778612178.974556,2.44,-3.66,-0.56,333.37,298.28,-313.72
189,1778612178.98448,1.9,-3.6,-1.17,448.49,68.97,-406.68
190,1778612178.994525,1.9,-3.6,-1.17,448.49,68.97,-406.68
191,1778612179.004568,1.9,-3.6,-1.17,448.49,68.97,-406.68
192,1778612179.014584,1.9,-3.6,-1.17,448.49,68.97,-406.68
193,1778612179.0244749,2.5,-3.68,-0.75,300.23,65.0,-422.18
194,1778612179.034505,2.5,-3.68,-0.75,300.23,65.0,-422.18
195,1778612179.044559,2.5,-3.68,-0.75,300.23,65.0,-422.18
196,1778612179.054469,2.5,-3.68,-0.75,300.23,65.0,-422.18
197,1778612179.064499,2.24,-4.06,-0.7,259.34,177.67,-403.69
198,1778612179.074543,2.24,-4.06,-0.7,259.34,177.67,-403.69
199,1778612179.084565,2.24,-4.06,-0.7,259.34,177.67,-403.69
200,1778612179.094589,2.24,-4.06,-0.7,259.34,177.67,-403.69
201,1778612179.104504,2.24,-4.06,-0.7,259.34,177.67,-403.69
202,1778612179.114528,2.24,-4.06,-0.7,259.34,177.67,-403.69
203,1778612179.124567,2.24,-4.06,-0.7,259.34,177.67,-403.69
204,1778612179.13457,2.24,-4.06,-0.7,259.34,177.67,-403.69
205,1778612179.144555,2.24,-4.06,-0.7,259.34,177.67,-403.69
206,1778612179.1545548,2.24,-4.06,-0.7,259.34,177.67,-403.69
207,1778612179.1644769,2.24,-4.06,-0.7,259.34,177.67,-403.69
208,1778612179.174519,2.24,-4.06,-0.7,259.34,177.67,-403.69
209,1778612179.1845639,-2.11,-0.76,-3.36,-6.65,-156.01,-153.02
210,1778612179.1944692,-2.11,-0.76,-3.36,-6.65,-156.01,-153.02
211,1778612179.204512,-2.11,-0.76,-3.36,-6.65,-156.01,-153.02
212,1778612179.214546,-5.94,-0.88,-4.27,-227.36,349.12,-88.99
213,1778612179.224589,-5.94,-0.88,-4.27,-227.36,349.12,-88.99
214,1778612179.234475,-5.94,-0.88,-4.27,-227.36,349.12,-88.99
215,1778612179.2444952,-5.94,-0.88,-4.27,-227.36,349.12,-88.99
216,1778612179.254522,-4.17,-1.4,-3.35,-214.72,-241.33,131.96
217,1778612179.2645252,-4.17,-1.4,-3.35,-214.72,-241.33,131.96
218,1778612179.274495,-4.17,-1.4,-3.35,-214.72,-241.33,131.96
219,1778612179.284559,-4.17,-1.4,-3.35,-214.72,-241.33,131.96
220,1778612179.2945762,1.1,-2.37,-1.11,10.8,-706.05,240.36
221,1778612179.30449,1.1,-2.37,-1.11,10.8,-706.05,240.36
222,1778612179.3145459,1.1,-2.37,-1.11,10.8,-706.05,240.36
223,1778612179.324509,1.1,-2.37,-1.11,10.8,-706.05,240.36
224,1778612179.3344982,0.43,-2.19,-1.51,91.86,-301.09,298.03
225,1778612179.344482,0.43,-2.19,-1.51,91.86,-301.09,298.03
226,1778612179.354523,0.43,-2.19,-1.51,91.86,-301.09,298.03
227,1778612179.3645241,0.43,-2.19,-1.51,91.86,-301.09,298.03
228,1778612179.374573,0.32,-2.91,-1.49,-114.07,-288.88,311.83
229,1778612179.384492,0.32,-2.91,-1.49,-114.07,-288.88,311.83
230,1778612179.3945138,0.32,-2.91,-1.49,-114.07,-288.88,311.83
231,1778612179.4044979,0.32,-2.91,-1.49,-114.07,-288.88,311.83
232,1778612179.414525,1.05,-3.76,-0.24,-87.59,-254.7,376.04
233,1778612179.424547,1.05,-3.76,-0.24,-87.59,-254.7,376.04
234,1778612179.434572,1.05,-3.76,-0.24,-87.59,-254.7,376.04
235,1778612179.444469,1.05,-3.76,-0.24,-87.59,-254.7,376.04
236,1778612179.4545112,1.16,-4.21,-0.88,-9.34,-179.32,420.1
237,1778612179.464536,1.16,-4.21,-0.88,-9.34,-179.32,420.1
238,1778612179.4745631,1.16,-4.21,-0.88,-9.34,-179.32,420.1
239,1778612179.4844658,1.16,-4.21,-0.88,-9.34,-179.32,420.1
240,1778612179.494484,1.89,-4.91,-0.95,32.78,-183.41,484.19
241,1778612179.504519,1.89,-4.91,-0.95,32.78,-183.41,484.19
242,1778612179.514536,1.89,-4.91,-0.95,32.78,-183.41,484.19
243,1778612179.524534,1.89,-4.91,-0.95,32.78,-183.41,484.19
244,1778612179.534579,2.55,-5.17,-0.8,110.84,-138.18,523.01
245,1778612179.544477,2.55,-5.17,-0.8,110.84,-138.18,523.01
246,1778612179.554533,2.55,-5.17,-0.8,110.84,-138.18,523.01
247,1778612179.5644748,2.55,-5.17,-0.8,110.84,-138.18,523.01
248,1778612179.574544,2.57,-5.41,-0.29,82.46,-53.83,605.04
249,1778612179.5844722,2.57,-5.41,-0.29,82.46,-53.83,605.04
250,1778612179.594469,2.57,-5.41,-0.29,82.46,-53.83,605.04
251,1778612179.604512,4.42,-5.18,-1.13,82.46,-53.83,605.04
252,1778612179.6145651,4.42,-5.18,-1.13,132.63,-142.03,578.19
253,1778612179.62447,4.42,-5.18,-1.13,132.63,-142.03,578.19
254,1778612179.634513,4.42,-5.18,-1.13,132.63,-142.03,578.19
255,1778612179.644587,4.42,-5.18,-1.13,132.63,-142.03,578.19
256,1778612179.654583,4.42,-5.18,-1.13,132.63,-142.03,578.19
257,1778612179.664512,4.42,-5.18,-1.13,132.63,-142.03,578.19
258,1778612179.674562,4.42,-5.18,-1.13,132.63,-142.03,578.19
259,1778612179.684482,4.42,-5.18,-1.13,132.63,-142.03,578.19
260,1778612179.694517,4.42,-5.18,-1.13,132.63,-142.03,578.19
261,1778612179.704566,4.42,-5.18,-1.13,132.63,-142.03,578.19
262,1778612179.71457,8.0,1.36,-3.12,23.86,-370.79,155.09
263,1778612179.724494,3.37,-3.2,-3.56,-205.26,259.52,-481.14
264,1778612179.734546,3.37,-3.2,-3.56,-205.26,259.52,-481.14
265,1778612179.744574,3.37,-3.2,-3.56,-205.26,259.52,-481.14
266,1778612179.754501,3.37,-3.2,-3.56,-205.26,259.52,-481.14
267,1778612179.7645261,3.36,-3.56,0.3,-338.38,380.62,-191.41
268,1778612179.774555,3.36,-3.56,0.3,-338.38,380.62,-191.41
269,1778612179.784469,3.36,-3.56,0.3,-338.38,380.62,-191.41
270,1778612179.794511,3.36,-3.56,0.3,-338.38,380.62,-191.41
271,1778612179.8045561,3.84,-3.09,-0.39,-42.48,398.01,-247.68
272,1778612179.814513,3.84,-3.09,-0.39,-42.48,398.01,-247.68
273,1778612179.824513,3.84,-3.09,-0.39,-42.48,398.01,-247.68
274,1778612179.8345459,3.33,-2.5,-0.82,146.36,369.63,-289.0
275,1778612179.844573,3.33,-2.5,-0.82,146.36,369.63,-289.0
276,1778612179.854584,3.33,-2.5,-0.82,146.36,369.63,-289.0
277,1778612179.86448,3.33,-2.5,-0.82,146.36,369.63,-289.0
278,1778612179.8745222,2.82,-2.36,-0.62,137.7,267.52,-317.26
279,1778612179.884567,2.82,-2.36,-0.62,137.7,267.52,-317.26
280,1778612179.894468,2.82,-2.36,-0.62,137.7,267.52,-317.26
281,1778612179.904512,2.82,-2.36,-0.62,137.7,267.52,-317.26
282,1778612179.914568,2.82,-2.36,-0.62,137.7,267.52,-317.26
283,1778612179.924476,2.77,-3.48,-0.52,148.38,392.7,-259.46
284,1778612179.934487,2.77,-3.48,-0.52,148.38,392.7,-259.46
285,1778612179.944473,2.77,-3.48,-0.52,148.38,392.7,-259.46
286,1778612179.95453,2.78,-3.52,-1.43,237.3,402.83,-295.29
287,1778612179.9645948,2.78,-3.52,-1.43,237.3,402.83,-295.29
288,1778612179.974475,2.78,-3.52,-1.43,237.3,402.83,-295.29
289,1778612179.984531,2.56,-3.69,-1.52,237.3,402.83,-295.29
290,1778612179.9945679,2.56,-3.69,-1.52,336.79,247.25,-378.54
291,1778612180.004481,2.56,-3.69,-1.52,336.79,247.25,-378.54
292,1778612180.014529,2.56,-3.69,-1.52,336.79,247.25,-378.54
293,1778612180.0245812,2.56,-3.69,-1.52,336.79,247.25,-378.54
294,1778612180.034475,2.88,-4.19,-1.37,427.06,238.53,-373.41
295,1778612180.044517,2.88,-4.19,-1.37,427.06,238.53,-373.41
296,1778612180.054516,2.88,-4.19,-1.37,427.06,238.53,-373.41
297,1778612180.0644832,2.8,-4.18,-1.85,427.06,238.53,-373.41
298,1778612180.074492,2.8,-4.18,-1.85,338.68,288.45,-411.87
299,1778612180.0845451,2.8,-4.18,-1.85,338.68,288.45,-411.87
300,1778612180.094593,2.8,-4.18,-1.85,338.68,288.45,-411.87
301,1778612180.104494,-0.31,-3.83,-2.39,485.66,324.71,-403.87
302,1778612180.1145458,-0.31,-3.83,-2.39,485.66,324.71,-403.87
303,1778612180.1245859,-0.31,-3.83,-2.39,485.66,324.71,-403.87
304,1778612180.134474,-0.31,-3.83,-2.39,485.66,324.71,-403.87
305,1778612180.144502,-4.1,-1.54,-5.85,164.0,157.29,-193.79
306,1778612180.154548,-4.1,-1.54,-5.85,164.0,157.29,-193.79
307,1778612180.164535,-4.1,-1.54,-5.85,164.0,157.29,-193.79
308,1778612180.1744761,-4.1,-1.54,-5.85,164.0,157.29,-193.79
309,1778612180.1845372,-4.1,-1.54,-5.85,164.0,157.29,-193.79
310,1778612180.194468,-4.1,-1.54,-5.85,164.0,157.29,-193.79
311,1778612180.20452,-4.1,-1.54,-5.85,164.0,157.29,-193.79
312,1778612180.214568,-4.1,-1.54,-5.85,164.0,157.29,-193.79
313,1778612180.224479,-4.1,-1.54,-5.85,164.0,157.29,-193.79
314,1778612180.234537,-4.38,0.92,-1.95,-333.74,363.71,15.63
315,1778612180.2444842,-4.38,0.92,-1.95,-333.74,363.71,15.63
316,1778612180.254559,-4.38,0.92,-1.95,-333.74,363.71,15.63
317,1778612180.264516,-3.29,-0.57,-3.83,-20.81,-344.42,104.86
318,1778612180.274555,-3.29,-0.57,-3.83,-20.81,-344.42,104.86
319,1778612180.2844958,-3.29,-0.57,-3.83,-20.81,-344.42,104.86
320,1778612180.294587,1.23,-1.68,-2.57,-6.53,-586.79,205.63
321,1778612180.304511,1.23,-1.68,-2.57,-6.53,-586.79,205.63
322,1778612180.314581,1.23,-1.68,-2.57,-6.53,-586.79,205.63
323,1778612180.324527,1.23,-1.68,-2.57,-6.53,-586.79,205.63
324,1778612180.334474,0.55,-1.94,-1.86,-152.53,-240.66,256.41
325,1778612180.344477,0.55,-1.94,-1.86,-152.53,-240.66,256.41
326,1778612180.354487,0.55,-1.94,-1.86,-152.53,-240.66,256.41
327,1778612180.3645298,0.55,-1.94,-1.86,-152.53,-240.66,256.41
328,1778612180.374559,0.3,-3.31,-1.42,-200.07,-286.87,229.25
329,1778612180.384483,0.3,-3.31,-1.42,-200.07,-286.87,229.25
330,1778612180.3945138,0.3,-3.31,-1.42,-200.07,-286.87,229.25
331,1778612180.404542,0.3,-3.31,-1.42,-200.07,-286.87,229.25
332,1778612180.414567,1.42,-4.08,-0.71,-126.71,-293.46,349.0
333,1778612180.4244668,1.42,-4.08,-0.71,-126.71,-293.46,349.0
334,1778612180.434509,1.42,-4.08,-0.71,-126.71,-293.46,349.0
335,1778612180.4445262,1.42,-4.08,-0.71,-126.71,-293.46,349.0
336,1778612180.454559,1.7,-4.44,-0.75,-134.09,-238.89,392.46
337,1778612180.464589,1.7,-4.44,-0.75,-134.09,-238.89,392.46
338,1778612180.474485,1.7,-4.44,-0.75,-134.09,-238.89,392.46
339,1778612180.484517,1.7,-4.44,-0.75,-134.09,-238.89,392.46
340,1778612180.494535,2.43,-4.93,-1.0,-135.93,-267.88,415.65
341,1778612180.504566,2.43,-4.93,-1.0,-135.93,-267.88,415.65
342,1778612180.5145879,2.43,-4.93,-1.0,-135.93,-267.88,415.65
343,1778612180.5245051,2.43,-4.93,-1.0,-135.93,-267.88,415.65
344,1778612180.534514,2.82,-3.97,-0.49,-124.63,-166.63,430.54
345,1778612180.5445492,2.82,-3.97,-0.49,-124.63,-166.63,430.54
346,1778612180.5545092,2.82,-3.97,-0.49,-124.63,-166.63,430.54
347,1778612180.564544,2.67,-3.39,-0.78,-124.63,-166.63,430.54
348,1778612180.574521,2.67,-3.39,-0.78,-145.75,-90.09,455.81
349,1778612180.584553,2.67,-3.39,-0.78,-145.75,-90.09,455.81
350,1778612180.594562,2.67,-3.39,-0.78,-145.75,-90.09,455.81
351,1778612180.6045718,2.67,-3.39,-0.78,-145.75,-90.09,455.81
352,1778612180.614469,4.84,-1.77,0.69,-164.37,-216.43,405.03
353,1778612180.6244879,4.84,-1.77,0.69,-164.37,-216.43,405.03
354,1778612180.634518,4.84,-1.77,0.69,-164.37,-216.43,405.03
355,1778612180.644532,7.3,0.23,1.05,-144.1,-114.01,258.3
356,1778612180.654552,7.3,0.23,1.05,-144.1,-114.01,258.3
357,1778612180.6645901,7.3,0.23,1.05,-144.1,-114.01,258.3
358,1778612180.674485,7.3,0.23,1.05,-144.1,-114.01,258.3
359,1778612180.684534,7.3,0.23,1.05,-144.1,-114.01,258.3
360,1778612180.694564,7.3,0.23,1.05,-144.1,-114.01,258.3
361,1778612180.704478,7.3,0.23,1.05,-144.1,-114.01,258.3
362,1778612180.714509,7.3,0.23,1.05,-144.1,-114.01,258.3
363,1778612180.7245271,7.3,0.23,1.05,-144.1,-114.01,258.3
364,1778612180.734587,7.3,0.23,1.05,-144.1,-114.01,258.3
365,1778612180.744475,7.3,0.23,1.05,-144.1,-114.01,258.3
366,1778612180.754524,7.3,0.23,1.05,-144.1,-114.01,258.3
367,1778612180.764555,4.88,-3.61,-0.23,139.22,44.68,-320.43
368,1778612180.774591,4.88,-3.61,-0.23,139.22,44.68,-320.43
369,1778612180.784482,4.88,-3.61,-0.23,139.22,44.68,-320.43
370,1778612180.794503,3.56,-1.61,-0.65,67.38,364.75,-149.78
371,1778612180.8045812,3.56,-1.61,-0.65,67.38,364.75,-149.78
372,1778612180.814467,3.56,-1.61,-0.65,67.38,364.75,-149.78
373,1778612180.824505,3.56,-1.61,-0.65,67.38,364.75,-149.78
374,1778612180.834543,2.7,-1.32,0.25,81.97,255.13,-209.29
375,1778612180.8445802,2.7,-1.32,0.25,81.97,255.13,-209.29
376,1778612180.85449,2.7,-1.32,0.25,81.97,255.13,-209.29
377,1778612180.864505,2.85,-1.64,0.16,159.85,287.23,-222.6
378,1778612180.874493,2.85,-1.64,0.16,159.85,287.23,-222.6
379,1778612180.884496,2.85,-1.64,0.16,159.85,287.23,-222.6
380,1778612180.894509,2.85,-1.64,0.16,159.85,287.23,-222.6
381,1778612180.904532,2.47,-2.35,-0.54,215.52,298.46,-253.36
382,1778612180.914536,2.47,-2.35,-0.54,215.52,298.46,-253.36
383,1778612180.924567,2.47,-2.35,-0.54,215.52,298.46,-253.36
384,1778612180.934497,2.47,-2.35,-0.54,215.52,298.46,-253.36
385,1778612180.944525,2.2,-2.84,-0.67,299.93,184.57,-321.11
386,1778612180.9545531,2.2,-2.84,-0.67,299.93,184.57,-321.11
387,1778612180.964541,2.2,-2.84,-0.67,299.93,184.57,-321.11
388,1778612180.9745479,2.2,-2.84,-0.67,299.93,184.57,-321.11
389,1778612180.9845362,2.09,-2.97,-0.56,272.89,181.21,-346.25
390,1778612180.994515,2.09,-2.97,-0.56,272.89,181.21,-346.25
391,1778612181.004477,2.09,-2.97,-0.56,272.89,181.21,-346.25
392,1778612181.014585,2.09,-2.97,-0.56,272.89,181.21,-346.25
393,1778612181.0244842,2.4,-3.13,-0.82,254.39,241.09,-323.43
394,1778612181.034513,2.4,-3.13,-0.82,254.39,241.09,-323.43
395,1778612181.044501,2.4,-3.13,-0.82,254.39,241.09,-323.43
396,1778612181.054525,2.4,-3.13,-0.82,254.39,241.09,-323.43
397,1778612181.064576,2.8,-2.86,-1.07,246.95,333.8,-298.34
398,1778612181.074496,2.8,-2.86,-1.07,246.95,333.8,-298.34
399,1778612181.084527,2.8,-2.86,-1.07,246.95,333.8,-298.34
400,1778612181.094568,2.8,-2.86,-1.07,246.95,333.8,-298.34
401,1778612181.104469,2.59,-2.93,-2.22,149.78,683.23,-81.18
402,1778612181.11451,2.59,-2.93,-2.22,149.78,683.23,-81.18
403,1778612181.1245482,2.59,-2.93,-2.22,149.78,683.23,-81.18
404,1778612181.134578,-2.25,-0.41,-6.05,523.68,201.72,-281.25
405,1778612181.144483,-2.25,-0.41,-6.05,523.68,201.72,-281.25
406,1778612181.154521,-2.25,-0.41,-6.05,523.68,201.72,-281.25
407,1778612181.1645539,-2.25,-0.41,-6.05,523.68,201.72,-281.25
408,1778612181.174473,-2.08,-0.41,-4.14,37.48,-174.5,-225.71
409,1778612181.184522,-2.08,-0.41,-4.14,37.48,-174.5,-225.71
410,1778612181.194531,-2.08,-0.41,-4.14,37.48,-174.5,-225.71
411,1778612181.204549,-2.08,-0.41,-4.14,37.48,-174.5,-225.71
412,1778612181.214488,-2.08,-0.41,-4.14,37.48,-174.5,-225.71
413,1778612181.224503,-2.08,-0.41,-4.14,37.48,-174.5,-225.71
414,1778612181.234545,-2.08,-0.41,-4.14,37.48,-174.5,-225.71
415,1778612181.244554,-2.08,-0.41,-4.14,37.48,-174.5,-225.71
416,1778612181.254465,-2.08,-0.41,-4.14,37.48,-174.5,-225.71
417,1778612181.2644851,-2.08,-0.41,-4.14,37.48,-174.5,-225.71
418,1778612181.274519,-2.08,-0.41,-4.14,37.48,-174.5,-225.71
419,1778612181.284551,-1.14,-1.51,-1.93,30.88,-541.26,218.26
420,1778612181.2945778,-1.14,-1.51,-1.93,30.88,-541.26,218.26
421,1778612181.304468,-1.14,-1.51,-1.93,30.88,-541.26,218.26
422,1778612181.31449,-1.14,-1.51,-1.93,30.88,-541.26,218.26
423,1778612181.324476,2.49,-0.35,-3.3,30.88,-541.26,218.26
424,1778612181.3345091,2.49,-0.35,-3.3,201.54,-602.78,139.89
425,1778612181.344547,2.49,-0.35,-3.3,201.54,-602.78,139.89
426,1778612181.3545861,2.49,-0.35,-3.3,201.54,-602.78,139.89
427,1778612181.364512,0.72,-1.76,-2.21,-61.28,-366.21,145.08
428,1778612181.374568,0.72,-1.76,-2.21,-61.28,-366.21,145.08
429,1778612181.384486,0.72,-1.76,-2.21,-61.28,-366.21,145.08
430,1778612181.3945081,0.72,-1.76,-2.21,-61.28,-366.21,145.08
431,1778612181.4045389,0.68,-3.0,-1.03,-205.2,-294.43,229.06
432,1778612181.414571,0.68,-3.0,-1.03,-205.2,-294.43,229.06
433,1778612181.4245791,0.68,-3.0,-1.03,-205.2,-294.43,229.06
434,1778612181.4344919,0.68,-3.0,-1.03,-205.2,-294.43,229.06
435,1778612181.444543,1.17,-3.27,-0.88,20.51,-290.65,297.85
436,1778612181.454546,1.17,-3.27,-0.88,20.51,-290.65,297.85
437,1778612181.464585,1.17,-3.27,-0.88,20.51,-290.65,297.85
438,1778612181.474504,1.17,-3.27,-0.88,20.51,-290.65,297.85
439,1778612181.4845471,1.66,-3.66,-1.79,127.75,-341.67,302.19
440,1778612181.494565,1.66,-3.66,-1.79,127.75,-341.67,302.19
441,1778612181.504471,1.66,-3.66,-1.79,127.75,-341.67,302.19
442,1778612181.514501,1.66,-3.66,-1.79,127.75,-341.67,302.19
443,1778612181.524539,1.94,-3.99,-1.31,50.35,-141.17,475.1
444,1778612181.534493,1.94,-3.99,-1.31,50.35,-141.17,475.1
445,1778612181.544534,1.94,-3.99,-1.31,50.35,-141.17,475.1
446,1778612181.554471,1.94,-3.99,-1.31,50.35,-141.17,475.1
447,1778612181.564519,2.15,-4.26,-1.82,-193.42,-35.58,593.69
448,1778612181.5745668,2.15,-4.26,-1.82,-193.42,-35.58,593.69
449,1778612181.58448,2.15,-4.26,-1.82,-193.42,-35.58,593.69
450,1778612181.594526,2.15,-4.26,-1.82,-193.42,-35.58,593.69
451,1778612181.6045902,2.83,-4.97,-0.51,-271.0,-6.84,612.0
452,1778612181.614508,2.83,-4.97,-0.51,-271.0,-6.84,612.0
453,1778612181.624542,2.83,-4.97,-0.51,-271.0,-6.84,612.0
454,1778612181.6345909,5.32,-2.78,0.45,-271.0,-6.84,612.0
455,1778612181.644511,5.32,-2.78,0.45,-232.48,-238.4,414.61
456,1778612181.65457,5.32,-2.78,0.45,-232.48,-238.4,414.61
457,1778612181.664482,5.32,-2.78,0.45,-232.48,-238.4,414.61
458,1778612181.674519,8.0,-2.39,0.97,-232.48,-238.4,414.61
459,1778612181.684469,8.0,-2.39,0.97,-39.61,-333.19,127.26
460,1778612181.694528,8.0,-2.39,0.97,-39.61,-333.19,127.26
461,1778612181.704478,8.0,-2.39,0.97,-39.61,-333.19,127.26
462,1778612181.714527,8.0,1.27,3.29,-39.61,-333.19,127.26
463,1778612181.724579,8.0,1.27,3.29,-39.61,-333.19,127.26
464,1778612181.734516,8.0,1.27,3.29,-39.61,-333.19,127.26
465,1778612181.744568,8.0,1.27,3.29,-39.61,-333.19,127.26
466,1778612181.754485,8.0,1.27,3.29,-39.61,-333.19,127.26
467,1778612181.764504,8.0,1.27,3.29,-39.61,-333.19,127.26
468,1778612181.774555,8.0,1.27,3.29,-39.61,-333.19,127.26
469,1778612181.784488,8.0,1.27,3.29,-39.61,-333.19,127.26
470,1778612181.794549,8.0,1.27,3.29,-39.61,-333.19,127.26
471,1778612181.804469,4.53,-3.4,-0.13,234.25,253.97,-328.0
472,1778612181.814537,4.53,-3.4,-0.13,234.25,253.97,-328.0
473,1778612181.824548,3.18,-2.15,-0.86,149.9,398.5,-260.19
474,1778612181.834548,3.18,-2.15,-0.86,149.9,398.5,-260.19
475,1778612181.844484,3.18,-2.15,-0.86,149.9,398.5,-260.19
476,1778612181.8544881,3.18,-2.15,-0.86,149.9,398.5,-260.19
477,1778612181.864511,2.43,-2.38,-0.25,111.94,326.48,-274.54
478,1778612181.8745458,2.43,-2.38,-0.25,111.94,326.48,-274.54
479,1778612181.884575,2.43,-2.38,-0.25,111.94,326.48,-274.54
480,1778612181.894576,2.43,-2.38,-0.25,111.94,326.48,-274.54
481,1778612181.904493,2.31,-2.6,-0.04,189.09,325.62,-216.8
482,1778612181.914515,2.31,-2.6,-0.04,189.09,325.62,-216.8
483,1778612181.924532,2.31,-2.6,-0.04,189.09,325.62,-216.8
484,1778612181.9345798,2.25,-2.84,-0.61,189.09,325.62,-216.8
485,1778612181.9445848,2.25,-2.84,-0.61,257.39,279.48,-292.24
486,1778612181.9544919,2.25,-2.84,-0.61,257.39,279.48,-292.24
487,1778612181.964528,2.25,-2.84,-0.61,257.39,279.48,-292.24
488,1778612181.974568,2.25,-2.84,-0.61,257.39,279.48,-292.24
489,1778612181.984592,1.9,-3.21,-0.72,362.73,68.18,-381.53
490,1778612181.994506,1.9,-3.21,-0.72,362.73,68.18,-381.53
491,1778612182.004522,1.9,-3.21,-0.72,362.73,68.18,-381.53
492,1778612182.014564,2.76,-2.87,-0.64,309.81,37.48,-396.97
493,1778612182.024582,2.76,-2.87,-0.64,309.81,37.48,-396.97
494,1778612182.0345159,2.76,-2.87,-0.64,309.81,37.48,-396.97
495,1778612182.044511,2.76,-2.87,-0.64,309.81,37.48,-396.97
496,1778612182.054506,2.75,-3.37,-0.9,164.86,292.85,-386.29
497,1778612182.064502,2.75,-3.37,-0.9,164.86,292.85,-386.29
498,1778612182.0745668,2.75,-3.37,-0.9,164.86,292.85,-386.29
499,1778612182.084497,1.71,-3.09,-1.75,164.86,292.85,-386.29
500,1778612182.094517,1.71,-3.09,-1.75,271.85,226.44,-354.92
501,1778612182.104531,1.71,-3.09,-1.75,271.85,226.44,-354.92
502,1778612182.11455,1.71,-3.09,-1.75,271.85,226.44,-354.92
503,1778612182.124575,0.52,-3.06,-1.53,122.07,505.86,-207.76
504,1778612182.1344771,0.52,-3.06,-1.53,122.07,505.86,-207.76
505,1778612182.144502,0.52,-3.06,-1.53,122.07,505.86,-207.76
506,1778612182.154568,0.52,-3.06,-1.53,122.07,505.86,-207.76
507,1778612182.16449,-3.18,0.34,-5.03,206.36,443.05,3.91
508,1778612182.174515,-3.18,0.34,-5.03,206.36,443.05,3.91
509,1778612182.184561,-3.18,0.34,-5.03,206.36,443.05,3.91
510,1778612182.1945012,-3.18,0.34,-5.03,206.36,443.05,3.91
511,1778612182.204541,2.46,2.81,2.91,-22.16,-2000.0,-446.66
512,1778612182.214586,2.46,2.81,2.91,-22.16,-2000.0,-446.66
513,1778612182.2244868,2.46,2.81,2.91,-22.16,-2000.0,-446.66
514,1778612182.2345212,2.46,2.81,2.91,-22.16,-2000.0,-446.66
515,1778612182.24455,2.46,2.81,2.91,-22.16,-2000.0,-446.66
516,1778612182.254573,2.46,2.81,2.91,-22.16,-2000.0,-446.66
517,1778612182.264478,2.46,2.81,2.91,-22.16,-2000.0,-446.66
518,1778612182.274534,2.46,2.81,2.91,-22.16,-2000.0,-446.66
519,1778612182.284566,2.46,2.81,2.91,-22.16,-2000.0,-446.66
520,1778612182.2945862,2.46,2.81,2.91,-22.16,-2000.0,-446.66
521,1778612182.3044648,2.46,2.81,2.91,-22.16,-2000.0,-446.66
522,1778612182.3144782,2.46,2.81,2.91,-22.16,-2000.0,-446.66
523,1778612182.3245099,2.46,2.81,2.91,-22.16,-2000.0,-446.66
524,1778612182.334547,2.45,0.34,-5.64,86.55,-459.59,179.38
525,1778612182.344573,2.45,0.34,-5.64,86.55,-459.59,179.38
526,1778612182.354485,1.94,-1.16,-3.58,86.55,-459.59,179.38
527,1778612182.364534,1.94,-1.16,-3.58,-151.67,-353.7,210.51
528,1778612182.3745909,1.94,-1.16,-3.58,-151.67,-353.7,210.51
529,1778612182.384512,1.94,-1.16,-3.58,-151.67,-353.7,210.51
530,1778612182.3945348,1.65,-2.46,-2.21,-386.35,-246.46,253.6
531,1778612182.4045901,1.65,-2.46,-2.21,-386.35,-246.46,253.6
532,1778612182.4145112,1.65,-2.46,-2.21,-386.35,-246.46,253.6
533,1778612182.424547,1.65,-2.46,-2.21,-386.35,-246.46,253.6
534,1778612182.434591,1.65,-2.46,-2.21,-386.35,-246.46,253.6
535,1778612182.444503,1.49,-3.52,-0.98,-294.62,-386.11,204.53
536,1778612182.454568,1.49,-3.52,-0.98,-294.62,-386.11,204.53
537,1778612182.4644759,1.49,-3.52,-0.98,-294.62,-386.11,204.53
538,1778612182.474539,1.44,-3.0,0.06,46.75,-442.69,162.29
539,1778612182.4845881,1.44,-3.0,0.06,46.75,-442.69,162.29
540,1778612182.494499,1.44,-3.0,0.06,46.75,-442.69,162.29
541,1778612182.5045109,1.44,-3.0,0.06,46.75,-442.69,162.29
542,1778612182.51454,1.44,-3.0,0.06,46.75,-442.69,162.29
543,1778612182.5245702,1.44,-3.0,0.06,46.75,-442.69,162.29
544,1778612182.534512,1.44,-3.0,0.06,46.75,-442.69,162.29
545,1778612182.544538,1.44,-3.0,0.06,46.75,-442.69,162.29
546,1778612182.554471,1.44,-3.0,0.06,46.75,-442.69,162.29
547,1778612182.564495,1.44,-3.0,0.06,46.75,-442.69,162.29
548,1778612182.57455,1.44,-3.0,0.06,46.75,-442.69,162.29
549,1778612182.58448,1.44,-3.0,0.06,46.75,-442.69,162.29
550,1778612182.594517,1.44,-3.0,0.06,46.75,-442.69,162.29
551,1778612182.604521,2.57,-3.16,-0.7,59.02,-102.97,424.93
552,1778612182.614573,3.16,-2.18,-1.76,-83.31,-29.91,505.8
553,1778612182.624508,3.16,-2.18,-1.76,-83.31,-29.91,505.8
554,1778612182.6345549,3.16,-2.18,-1.76,-83.31,-29.91,505.8
555,1778612182.644493,3.16,-2.18,-1.76,-83.31,-29.91,505.8
556,1778612182.654538,3.16,-2.18,-1.76,-83.31,-29.91,505.8
557,1778612182.664594,4.73,-2.86,-0.33,-366.09,115.36,525.39
558,1778612182.674502,4.73,-2.86,-0.33,-366.09,115.36,525.39
559,1778612182.6845472,6.99,-0.71,1.25,-207.76,-3.05,352.97
560,1778612182.694467,6.99,-0.71,1.25,-207.76,-3.05,352.97
561,1778612182.704479,6.99,-0.71,1.25,-207.76,-3.05,352.97
562,1778612182.714506,6.99,-0.71,1.25,-207.76,-3.05,352.97
563,1778612182.7245529,8.0,-1.09,1.45,-123.35,-199.34,4.46
564,1778612182.734593,8.0,-1.09,1.45,-123.35,-199.34,4.46
565,1778612182.74448,8.0,-1.09,1.45,-123.35,-199.34,4.46
566,1778612182.7545228,8.0,-1.09,1.45,-123.35,-199.34,4.46
567,1778612182.764529,8.0,-1.09,1.45,-123.35,-199.34,4.46
568,1778612182.774575,8.0,-1.09,1.45,-123.35,-199.34,4.46
569,1778612182.7844748,8.0,-1.09,1.45,-123.35,-199.34,4.46
570,1778612182.7944992,8.0,-1.09,1.45,-123.35,-199.34,4.46
571,1778612182.8045068,8.0,-1.09,1.45,-123.35,-199.34,4.46
572,1778612182.814559,8.0,-1.09,1.45,-123.35,-199.34,4.46
573,1778612182.824567,8.0,-1.09,1.45,-123.35,-199.34,4.46
574,1778612182.834579,8.0,-1.09,1.45,-123.35,-199.34,4.46
575,1778612182.8444648,8.0,-1.09,1.45,-123.35,-199.34,4.46
576,1778612182.854499,3.53,-1.57,0.03,209.11,281.49,-241.33
577,1778612182.864513,3.53,-1.57,0.03,209.11,281.49,-241.33
578,1778612182.8745549,3.53,-1.57,0.03,209.11,281.49,-241.33
579,1778612182.884467,2.94,-1.26,-0.48,143.07,329.47,-218.81
580,1778612182.894489,2.94,-1.26,-0.48,143.07,329.47,-218.81
581,1778612182.90452,2.94,-1.26,-0.48,143.07,329.47,-218.81
582,1778612182.9145322,2.94,-1.26,-0.48,143.07,329.47,-218.81
583,1778612182.924543,2.45,-2.12,-0.27,122.13,344.6,-243.84
584,1778612182.934468,2.45,-2.12,-0.27,122.13,344.6,-243.84
585,1778612182.944504,2.45,-2.12,-0.27,122.13,344.6,-243.84
586,1778612182.954533,2.45,-2.12,-0.27,122.13,344.6,-243.84
587,1778612182.964554,2.17,-2.86,-0.1,157.9,374.51,-178.47
588,1778612182.97458,2.17,-2.86,-0.1,157.9,374.51,-178.47
589,1778612182.984483,2.17,-2.86,-0.1,157.9,374.51,-178.47
590,1778612182.994517,2.17,-2.86,-0.1,157.9,374.51,-178.47
591,1778612183.004538,3.05,-3.05,-0.97,204.1,394.71,-112.24
592,1778612183.014549,3.05,-3.05,-0.97,204.1,394.71,-112.24
593,1778612183.0245771,3.05,-3.05,-0.97,204.1,394.71,-112.24
594,1778612183.0344698,3.69,-3.14,-0.99,204.1,394.71,-112.24
595,1778612183.0444999,3.69,-3.14,-0.99,326.9,309.51,-226.75
596,1778612183.054508,3.69,-3.14,-0.99,326.9,309.51,-226.75
597,1778612183.064566,3.69,-3.14,-0.99,326.9,309.51,-226.75
598,1778612183.074524,4.55,-3.17,-1.38,325.99,406.62,-333.74
599,1778612183.084552,4.55,-3.17,-1.38,325.99,406.62,-333.74
600,1778612183.094568,4.55,-3.17,-1.38,325.99,406.62,-333.74
601,1778612183.1045172,4.55,-3.17,-1.38,325.99,406.62,-333.74
602,1778612183.114572,4.05,-2.95,-2.6,219.12,533.57,-283.63
603,1778612183.1245599,4.05,-2.95,-2.6,219.12,533.57,-283.63
604,1778612183.134466,4.05,-2.95,-2.6,219.12,533.57,-283.63
605,1778612183.1445692,4.05,-2.95,-2.6,219.12,533.57,-283.63
606,1778612183.154478,1.67,-1.37,-3.91,311.65,390.69,-306.76
607,1778612183.164505,1.67,-1.37,-3.91,311.65,390.69,-306.76
608,1778612183.1745348,1.67,-1.37,-3.91,311.65,390.69,-306.76
609,1778612183.184586,1.67,-1.37,-3.91,311.65,390.69,-306.76
610,1778612183.1945002,-4.13,-1.37,-4.79,213.68,-38.7,-522.03
611,1778612183.204534,-4.13,-1.37,-4.79,213.68,-38.7,-522.03
612,1778612183.2145438,-4.13,-1.37,-4.79,213.68,-38.7,-522.03
613,1778612183.224521,-4.13,-1.37,-4.79,213.68,-38.7,-522.03
614,1778612183.234475,-4.53,1.58,5.22,-519.29,-162.6,160.71
615,1778612183.2445152,-4.53,1.58,5.22,-519.29,-162.6,160.71
616,1778612183.254549,-4.53,1.58,5.22,-519.29,-162.6,160.71
617,1778612183.264543,-4.53,1.58,5.22,-519.29,-162.6,160.71
618,1778612183.274582,-6.18,-3.34,-6.33,114.81,45.29,-59.57
619,1778612183.284478,-6.18,-3.34,-6.33,114.81,45.29,-59.57
620,1778612183.294483,-6.18,-3.34,-6.33,114.81,45.29,-59.57
621,1778612183.304492,-6.18,-3.34,-6.33,114.81,45.29,-59.57
622,1778612183.3145332,-6.18,-3.34,-6.33,114.81,45.29,-59.57
623,1778612183.324547,-6.18,-3.34,-6.33,114.81,45.29,-59.57
624,1778612183.3345878,-6.18,-3.34,-6.33,114.81,45.29,-59.57
625,1778612183.344474,-6.18,-3.34,-6.33,114.81,45.29,-59.57
626,1778612183.354503,-6.18,-3.34,-6.33,114.81,45.29,-59.57
627,1778612183.364536,-6.18,-3.34,-6.33,114.81,45.29,-59.57
628,1778612183.374569,-6.18,-3.34,-6.33,114.81,45.29,-59.57
629,1778612183.384475,-0.37,-1.34,-4.08,271.48,-409.48,177.37
630,1778612183.394494,-0.37,-1.34,-4.08,271.48,-409.48,177.37
631,1778612183.404521,-0.37,-1.34,-4.08,271.48,-409.48,177.37
632,1778612183.41454,-0.37,-1.34,-4.08,271.48,-409.48,177.37
633,1778612183.424567,1.06,-2.55,-2.71,56.09,-294.68,402.95
634,1778612183.434581,1.06,-2.55,-2.71,56.09,-294.68,402.95
635,1778612183.4445848,1.06,-2.55,-2.71,56.09,-294.68,402.95
636,1778612183.454485,1.06,-2.55,-2.71,56.09,-294.68,402.95
637,1778612183.464532,2.17,-2.93,-1.8,-44.25,-149.23,528.63
638,1778612183.4745479,2.17,-2.93,-1.8,-44.25,-149.23,528.63
639,1778612183.4844658,2.17,-2.93,-1.8,-44.25,-149.23,528.63
640,1778612183.49459,2.17,-2.93,-1.8,-44.25,-149.23,528.63
641,1778612183.504493,2.39,-2.69,-1.49,-8.0,-200.87,368.35
642,1778612183.514503,2.39,-2.69,-1.49,-8.0,-200.87,368.35
643,1778612183.5245252,2.39,-2.69,-1.49,-8.0,-200.87,368.35
644,1778612183.53455,2.39,-2.69,-1.49,-8.0,-200.87,368.35
645,1778612183.544468,2.06,-3.19,-1.68,156.74,-274.41,241.76
646,1778612183.554514,2.06,-3.19,-1.68,156.74,-274.41,241.76
647,1778612183.564523,2.06,-3.19,-1.68,156.74,-274.41,241.76
648,1778612183.5745192,2.06,-3.19,-1.68,156.74,-274.41,241.76
649,1778612183.584558,2.47,-2.74,-2.05,133.0,-355.65,267.52
650,1778612183.5945668,2.47,-2.74,-2.05,133.0,-355.65,267.52
651,1778612183.6045902,2.47,-2.74,-2.05,133.0,-355.65,267.52
652,1778612183.6144729,2.47,-2.74,-2.05,133.0,-355.65,267.52
653,1778612183.624541,2.48,-2.39,-1.65,96.37,-266.05,251.83
654,1778612183.634584,2.48,-2.39,-1.65,96.37,-266.05,251.83
655,1778612183.6444879,2.48,-2.39,-1.65,96.37,-266.05,251.83
656,1778612183.654548,2.48,-2.39,-1.65,96.37,-266.05,251.83
657,1778612183.664521,2.99,-2.98,-2.64,222.78,-324.16,236.21
658,1778612183.674541,2.99,-2.98,-2.64,222.78,-324.16,236.21
659,1778612183.684465,2.99,-2.98,-2.64,222.78,-324.16,236.21
660,1778612183.694495,2.99,-2.98,-2.64,222.78,-324.16,236.21
661,1778612183.704581,5.83,-0.76,-4.7,126.65,-147.46,535.77
662,1778612183.714515,5.83,-0.76,-4.7,126.65,-147.46,535.77
663,1778612183.7245739,5.83,-0.76,-4.7,126.65,-147.46,535.77
664,1778612183.734528,5.83,-0.76,-4.7,126.65,-147.46,535.77
665,1778612183.744577,8.0,2.69,-2.17,-276.25,-121.52,619.32
666,1778612183.754501,8.0,2.69,-2.17,-276.25,-121.52,619.32
667,1778612183.764582,8.0,2.69,-2.17,-276.25,-121.52,619.32
668,1778612183.774524,8.0,1.69,-4.07,-276.25,-121.52,619.32
669,1778612183.784588,8.0,1.69,-4.07,269.78,273.19,-730.29
670,1778612183.794514,8.0,1.69,-4.07,269.78,273.19,-730.29
671,1778612183.8045518,8.0,1.69,-4.07,269.78,273.19,-730.29
672,1778612183.81449,8.0,1.69,-4.07,269.78,273.19,-730.29
673,1778612183.824478,8.0,1.69,-4.07,269.78,273.19,-730.29
674,1778612183.834479,8.0,1.69,-4.07,269.78,273.19,-730.29
675,1778612183.84448,8.0,1.69,-4.07,269.78,273.19,-730.29
676,1778612183.854513,8.0,1.69,-4.07,269.78,273.19,-730.29
677,1778612183.864532,8.0,1.69,-4.07,269.78,273.19,-730.29
678,1778612183.87459,8.0,1.69,-4.07,269.78,273.19,-730.29
679,1778612183.88452,8.0,1.69,-4.07,269.78,273.19,-730.29
680,1778612183.894552,8.0,1.69,-4.07,269.78,273.19,-730.29
681,1778612183.904465,2.62,-0.59,-2.67,-256.77,336.43,-245.73
682,1778612183.914496,2.62,-0.59,-2.67,-256.77,336.43,-245.73
683,1778612183.924543,2.62,-0.59,-2.67,-256.77,336.43,-245.73
684,1778612183.934477,2.68,-1.7,-1.75,-232.48,419.92,-188.35
685,1778612183.944515,2.68,-1.7,-1.75,-232.48,419.92,-188.35
686,1778612183.9545732,2.68,-1.7,-1.75,-232.48,419.92,-188.35
687,1778612183.964482,2.68,-1.7,-1.75,-232.48,419.92,-188.35
688,1778612183.9745212,2.68,-1.7,-1.75,-232.48,419.92,-188.35
689,1778612183.984567,2.82,-2.1,-1.82,-48.16,337.59,-286.13
690,1778612183.994462,2.82,-2.1,-1.82,-48.16,337.59,-286.13
691,1778612184.00452,2.82,-2.1,-1.82,-48.16,337.59,-286.13
692,1778612184.0145652,3.44,-1.75,-2.34,4.21,175.05,-496.15
693,1778612184.0244842,3.44,-1.75,-2.34,4.21,175.05,-496.15
694,1778612184.034532,3.44,-1.75,-2.34,4.21,175.05,-496.15
695,1778612184.04459,3.44,-1.75,-2.34,4.21,175.05,-496.15
696,1778612184.054519,3.56,-2.21,-2.85,-43.15,268.8,-556.03
697,1778612184.064561,3.56,-2.21,-2.85,-43.15,268.8,-556.03
698,1778612184.0745778,3.56,-2.21,-2.85,-43.15,268.8,-556.03
699,1778612184.084474,3.56,-2.21,-2.85,-43.15,268.8,-556.03
700,1778612184.094513,3.56,-2.21,-2.85,-43.15,268.8,-556.03
701,1778612184.104553,3.56,-2.21,-2.85,-43.15,268.8,-556.03
702,1778612184.1145768,3.56,-2.21,-2.85,-43.15,268.8,-556.03
703,1778612184.124567,3.56,-2.21,-2.85,-43.15,268.8,-556.03
704,1778612184.134484,2.86,-1.82,-3.48,-251.22,230.53,-515.62
705,1778612184.144526,2.86,-1.82,-3.48,-251.22,230.53,-515.62
706,1778612184.154517,2.86,-1.82,-3.48,-251.22,230.53,-515.62
707,1778612184.1644979,0.05,-2.42,-2.81,-381.96,356.63,-362.3
708,1778612184.1745741,0.05,-2.42,-2.81,-381.96,356.63,-362.3
709,1778612184.1845791,0.05,-2.42,-2.81,-381.96,356.63,-362.3
710,1778612184.19458,0.05,-2.42,-2.81,-381.96,356.63,-362.3
711,1778612184.204581,-3.97,-4.35,-0.8,-137.33,-18.62,-376.34
712,1778612184.214584,-3.97,-4.35,-0.8,-137.33,-18.62,-376.34
713,1778612184.224483,-3.97,-4.35,-0.8,-137.33,-18.62,-376.34
714,1778612184.234496,-3.97,-4.35,-0.8,-137.33,-18.62,-376.34
715,1778612184.2445061,-3.97,-4.35,-0.8,-137.33,-18.62,-376.34
716,1778612184.254534,-3.97,-4.35,-0.8,-137.33,-18.62,-376.34
717,1778612184.2645571,-3.97,-4.35,-0.8,-137.33,-18.62,-376.34
718,1778612184.2745879,-4.11,-4.47,2.66,182.19,-385.31,-45.78
719,1778612184.284487,-4.11,-4.47,2.66,182.19,-385.31,-45.78
720,1778612184.2945101,-4.11,-4.47,2.66,182.19,-385.31,-45.78
721,1778612184.3045828,-4.11,-4.47,2.66,182.19,-385.31,-45.78
722,1778612184.314471,-1.25,-2.26,-2.34,508.18,-182.01,122.19
723,1778612184.324497,-1.25,-2.26,-2.34,508.18,-182.01,122.19
724,1778612184.334523,-1.25,-2.26,-2.34,508.18,-182.01,122.19
725,1778612184.344544,-1.25,-2.26,-2.34,508.18,-182.01,122.19
726,1778612184.354571,-1.25,-2.26,-2.34,508.18,-182.01,122.19
727,1778612184.3645709,-1.25,-2.26,-2.34,508.18,-182.01,122.19
728,1778612184.374488,-1.25,-2.26,-2.34,508.18,-182.01,122.19
729,1778612184.384511,-1.25,-2.26,-2.34,508.18,-182.01,122.19
730,1778612184.3945248,-1.25,-2.26,-2.34,508.18,-182.01,122.19
731,1778612184.404541,-1.25,-2.26,-2.34,508.18,-182.01,122.19
732,1778612184.4145439,-1.25,-2.26,-2.34,508.18,-182.01,122.19
733,1778612184.42456,-1.25,-2.26,-2.34,508.18,-182.01,122.19
734,1778612184.4344692,0.63,-2.87,-2.77,472.11,-181.7,159.3
735,1778612184.4444969,0.63,-2.87,-2.77,472.11,-181.7,159.3
736,1778612184.4545448,0.63,-2.87,-2.77,472.11,-181.7,159.3
737,1778612184.464555,0.63,-2.87,-2.77,472.11,-181.7,159.3
738,1778612184.474592,1.69,-2.59,-3.24,364.56,-80.38,308.35
739,1778612184.484477,1.69,-2.59,-3.24,364.56,-80.38,308.35
740,1778612184.494517,1.69,-2.59,-3.24,364.56,-80.38,308.35
741,1778612184.5045602,2.3,-3.06,-3.0,227.42,23.44,453.19
742,1778612184.514577,2.3,-3.06,-3.0,227.42,23.44,453.19
743,1778612184.524468,2.3,-3.06,-3.0,227.42,23.44,453.19
744,1778612184.5345228,2.3,-3.06,-3.0,227.42,23.44,453.19
745,1778612184.544547,2.61,-2.2,-3.58,234.74,-116.76,406.86
746,1778612184.5545652,2.61,-2.2,-3.58,234.74,-116.76,406.86
747,1778612184.564585,2.61,-2.2,-3.58,234.74,-116.76,406.86
748,1778612184.574473,2.61,-2.2,-3.58,234.74,-116.76,406.86
749,1778612184.584503,2.46,-2.37,-2.53,125.43,-113.83,448.67
750,1778612184.594495,2.46,-2.37,-2.53,125.43,-113.83,448.67
751,1778612184.604564,2.46,-2.37,-2.53,125.43,-113.83,448.67
752,1778612184.61447,2.46,-2.37,-2.53,125.43,-113.83,448.67
753,1778612184.624529,3.11,-2.67,-2.72,220.95,-179.99,441.77
754,1778612184.6345441,3.11,-2.67,-2.72,220.95,-179.99,441.77
755,1778612184.6445801,3.11,-2.67,-2.72,220.95,-179.99,441.77
756,1778612184.654523,3.11,-2.67,-2.72,220.95,-179.99,441.77
757,1778612184.6645901,4.29,-1.95,-2.93,166.38,-153.99,465.7
758,1778612184.674531,4.29,-1.95,-2.93,166.38,-153.99,465.7
759,1778612184.684574,4.29,-1.95,-2.93,166.38,-153.99,465.7
760,1778612184.694499,4.29,-1.95,-2.93,166.38,-153.99,465.7
761,1778612184.7045708,6.2,-1.48,-2.77,239.2,-89.29,494.14
762,1778612184.714497,6.2,-1.48,-2.77,239.2,-89.29,494.14
763,1778612184.724561,6.2,-1.48,-2.77,239.2,-89.29,494.14
764,1778612184.7344651,8.0,1.33,-3.19,239.2,-89.29,494.14
765,1778612184.74451,8.0,1.33,-3.19,-42.72,-181.46,266.6
766,1778612184.754557,8.0,1.33,-3.19,-42.72,-181.46,266.6
767,1778612184.764504,8.0,1.33,-3.19,-42.72,-181.46,266.6
768,1778612184.77458,8.0,2.86,-0.83,101.2,-87.52,9.83
769,1778612184.78453,8.0,2.86,-0.83,101.2,-87.52,9.83
770,1778612184.7945678,8.0,2.86,-0.83,101.2,-87.52,9.83
771,1778612184.804489,8.0,2.86,-0.83,101.2,-87.52,9.83
772,1778612184.81455,6.23,-1.3,-1.73,186.71,103.64,-531.31
773,1778612184.824509,6.23,-1.3,-1.73,186.71,103.64,-531.31
774,1778612184.834579,6.23,-1.3,-1.73,186.71,103.64,-531.31
775,1778612184.844477,6.23,-1.3,-1.73,186.71,103.64,-531.31
776,1778612184.854493,3.15,-1.72,-2.2,283.02,-41.99,-655.88
777,1778612184.864521,3.15,-1.72,-2.2,283.02,-41.99,-655.88
778,1778612184.874539,3.15,-1.72,-2.2,283.02,-41.99,-655.88
779,1778612184.884555,3.15,-1.72,-2.2,283.02,-41.99,-655.88
780,1778612184.8945768,3.15,-1.72,-2.2,283.02,-41.99,-655.88
781,1778612184.904507,3.15,-1.72,-2.2,283.02,-41.99,-655.88
782,1778612184.9145238,3.15,-1.72,-2.2,283.02,-41.99,-655.88
783,1778612184.924553,3.15,-1.72,-2.2,283.02,-41.99,-655.88
784,1778612184.9344919,3.15,-1.72,-2.2,283.02,-41.99,-655.88
785,1778612184.94452,3.15,-1.72,-2.2,283.02,-41.99,-655.88
786,1778612184.954565,2.82,-1.99,-1.62,-288.88,126.46,-345.52
787,1778612184.964481,2.82,-1.99,-1.62,-288.88,126.46,-345.52
788,1778612184.974505,2.8,-2.5,-1.26,-297.12,256.9,-348.69
789,1778612184.98453,2.8,-2.5,-1.26,-297.12,256.9,-348.69
790,1778612184.9945679,2.8,-2.5,-1.26,-297.12,256.9,-348.69
791,1778612185.004461,2.49,-2.6,-1.92,-297.12,256.9,-348.69
792,1778612185.0144892,2.49,-2.6,-1.92,-146.42,156.74,-418.82
793,1778612185.024535,2.49,-2.6,-1.92,-146.42,156.74,-418.82
794,1778612185.034577,2.49,-2.6,-1.92,-146.42,156.74,-418.82
795,1778612185.044481,2.58,-2.57,-1.94,-102.29,122.44,-454.71
796,1778612185.054497,2.58,-2.57,-1.94,-102.29,122.44,-454.71
797,1778612185.0645251,2.58,-2.57,-1.94,-102.29,122.44,-454.71
798,1778612185.0745459,2.58,-2.57,-1.94,-102.29,122.44,-454.71
799,1778612185.084586,2.23,-2.61,-2.26,-126.4,85.45,-449.16
800,1778612185.094579,2.23,-2.61,-2.26,-126.4,85.45,-449.16
801,1778612185.104506,2.23,-2.61,-2.26,-126.4,85.45,-449.16
802,1778612185.114555,2.23,-2.61,-2.26,-126.4,85.45,-449.16
803,1778612185.124466,2.49,-2.38,-2.2,-123.96,-23.19,-488.04
804,1778612185.1344829,2.49,-2.38,-2.2,-123.96,-23.19,-488.04
805,1778612185.144495,2.49,-2.38,-2.2,-123.96,-23.19,-488.04
806,1778612185.1545758,2.49,-2.38,-2.2,-123.96,-23.19,-488.04
807,1778612185.164501,1.46,-2.33,-2.35,-183.23,-54.93,-479.25
808,1778612185.17456,1.46,-2.33,-2.35,-183.23,-54.93,-479.25
809,1778612185.1844978,1.46,-2.33,-2.35,-183.23,-54.93,-479.25
810,1778612185.1945522,1.46,-2.33,-2.35,-183.23,-54.93,-479.25
811,1778612185.204493,-3.3,-4.86,0.86,-493.77,55.85,-194.58
812,1778612185.214516,-3.3,-4.86,0.86,-493.77,55.85,-194.58
813,1778612185.2245362,-3.3,-4.86,0.86,-493.77,55.85,-194.58
814,1778612185.234498,-3.3,-4.86,0.86,-493.77,55.85,-194.58
815,1778612185.244546,-6.56,-3.84,2.89,-354.98,252.87,196.35
816,1778612185.254538,-6.56,-3.84,2.89,-354.98,252.87,196.35
817,1778612185.264461,-6.56,-3.84,2.89,-354.98,252.87,196.35
818,1778612185.27453,-4.94,-2.37,3.78,-5.55,8.73,251.53
819,1778612185.28455,-4.94,-2.37,3.78,-5.55,8.73,251.53
820,1778612185.294469,-4.94,-2.37,3.78,-5.55,8.73,251.53
821,1778612185.304534,-4.94,-2.37,3.78,-5.55,8.73,251.53
822,1778612185.314572,-1.85,-0.43,-0.9,344.24,-105.35,-7.14
823,1778612185.32448,-1.85,-0.43,-0.9,344.24,-105.35,-7.14
824,1778612185.3345091,-1.85,-0.43,-0.9,344.24,-105.35,-7.14
825,1778612185.344536,-1.85,-0.43,-0.9,344.24,-105.35,-7.14
826,1778612185.354569,-2.55,-1.5,-2.18,394.78,-320.43,-276.86
827,1778612185.364481,-2.55,-1.5,-2.18,394.78,-320.43,-276.86
828,1778612185.374516,-2.55,-1.5,-2.18,394.78,-320.43,-276.86
829,1778612185.384541,-2.55,-1.5,-2.18,394.78,-320.43,-276.86
830,1778612185.394563,-2.55,-1.5,-2.18,394.78,-320.43,-276.86
831,1778612185.4044642,-2.55,-1.5,-2.18,394.78,-320.43,-276.86
832,1778612185.4145012,-2.55,-1.5,-2.18,394.78,-320.43,-276.86
833,1778612185.424525,-2.55,-1.5,-2.18,394.78,-320.43,-276.86
834,1778612185.43456,-2.55,-1.5,-2.18,394.78,-320.43,-276.86
835,1778612185.444584,-2.55,-1.5,-2.18,394.78,-320.43,-276.86
836,1778612185.454489,-2.55,-1.5,-2.18,394.78,-320.43,-276.86
837,1778612185.4644969,-2.55,-1.5,-2.18,394.78,-320.43,-276.86
838,1778612185.474535,2.01,-3.08,-2.42,245.36,29.48,443.36
839,1778612185.484558,2.01,-3.08,-2.42,245.36,29.48,443.36
840,1778612185.494578,2.01,-3.08,-2.42,245.36,29.48,443.36
841,1778612185.50447,2.01,-3.08,-2.42,245.36,29.48,443.36
842,1778612185.514493,2.2,-3.01,-1.88,338.87,-57.19,364.62
843,1778612185.524513,2.2,-3.01,-1.88,338.87,-57.19,364.62
844,1778612185.534561,2.2,-3.01,-1.88,338.87,-57.19,364.62
845,1778612185.544587,2.2,-3.01,-1.88,338.87,-57.19,364.62
846,1778612185.554486,2.7,-3.71,-2.47,397.28,-64.27,289.49
847,1778612185.564502,2.7,-3.71,-2.47,397.28,-64.27,289.49
848,1778612185.5745459,2.7,-3.71,-2.47,397.28,-64.27,289.49
849,1778612185.58446,2.87,-3.18,-2.33,271.67,-9.22,403.44
850,1778612185.594499,2.87,-3.18,-2.33,271.67,-9.22,403.44
851,1778612185.6044989,2.87,-3.18,-2.33,271.67,-9.22,403.44
852,1778612185.6145449,2.87,-3.18,-2.33,271.67,-9.22,403.44
853,1778612185.624484,2.77,-1.85,-2.24,272.71,64.58,411.07
854,1778612185.634495,2.77,-1.85,-2.24,272.71,64.58,411.07
855,1778612185.644494,2.77,-1.85,-2.24,272.71,64.58,411.07
856,1778612185.654529,2.77,-1.85,-2.24,272.71,64.58,411.07
857,1778612185.664482,2.8,-1.42,-2.56,109.92,79.9,494.02
858,1778612185.6745112,2.8,-1.42,-2.56,109.92,79.9,494.02
859,1778612185.68458,2.8,-1.42,-2.56,109.92,79.9,494.02
860,1778612185.694518,2.8,-1.42,-2.56,109.92,79.9,494.02
861,1778612185.7045708,2.8,-1.42,-2.56,109.92,79.9,494.02
862,1778612185.7145019,6.18,-0.34,-2.49,67.08,29.85,433.65
863,1778612185.724561,6.18,-0.34,-2.49,67.08,29.85,433.65
864,1778612185.734496,5.49,-0.05,-2.13,-4.94,-12.33,342.53
865,1778612185.744529,5.49,-0.05,-2.13,-4.94,-12.33,342.53
866,1778612185.7545788,5.49,-0.05,-2.13,-4.94,-12.33,342.53
867,1778612185.764481,5.49,-0.05,-2.13,-4.94,-12.33,342.53
868,1778612185.774519,8.0,2.47,-0.92,20.02,71.35,167.91
869,1778612185.784579,8.0,2.47,-0.92,20.02,71.35,167.91
870,1778612185.7945101,8.0,2.47,-0.92,20.02,71.35,167.91
871,1778612185.804561,8.0,2.47,-0.92,20.02,71.35,167.91
872,1778612185.8145149,7.07,1.63,-2.8,192.69,-2.2,-322.14
873,1778612185.824513,7.07,1.63,-2.8,192.69,-2.2,-322.14
874,1778612185.834514,7.07,1.63,-2.8,192.69,-2.2,-322.14
875,1778612185.844531,7.07,1.63,-2.8,192.69,-2.2,-322.14
876,1778612185.8545668,3.43,-0.54,-1.86,35.95,187.26,-297.49
877,1778612185.8645802,3.43,-0.54,-1.86,35.95,187.26,-297.49
878,1778612185.874503,3.43,-0.54,-1.86,35.95,187.26,-297.49
879,1778612185.8845801,2.87,-0.41,-1.86,35.95,187.26,-297.49
880,1778612185.894495,2.87,-0.41,-1.86,5.62,231.08,-287.72
881,1778612185.904543,2.87,-0.41,-1.86,5.62,231.08,-287.72
882,1778612185.914475,2.87,-0.41,-1.86,5.62,231.08,-287.72
883,1778612185.924512,2.87,-0.41,-1.86,5.62,231.08,-287.72
884,1778612185.934565,2.87,-0.41,-1.86,5.62,231.08,-287.72
885,1778612185.944465,2.87,-0.41,-1.86,5.62,231.08,-287.72
886,1778612185.954531,2.87,-0.41,-1.86,5.62,231.08,-287.72
887,1778612185.964564,2.87,-0.41,-1.86,5.62,231.08,-287.72
888,1778612185.974466,2.87,-0.41,-1.86,5.62,231.08,-287.72
889,1778612185.984499,2.87,-0.41,-1.86,5.62,231.08,-287.72
890,1778612185.994533,2.87,-0.41,-1.86,5.62,231.08,-287.72
891,1778612186.004571,2.87,-2.01,-0.81,-45.9,304.02,-308.23
892,1778612186.014496,2.87,-2.01,-0.81,-45.9,304.02,-308.23
893,1778612186.0245419,2.87,-2.01,-0.81,-45.9,304.02,-308.23
894,1778612186.034477,2.87,-2.01,-0.81,-45.9,304.02,-308.23
895,1778612186.044516,2.72,-2.49,-1.49,-45.9,304.02,-308.23
896,1778612186.054556,2.72,-2.49,-1.49,53.16,286.68,-440.67
897,1778612186.064478,2.72,-2.49,-1.49,53.16,286.68,-440.67
898,1778612186.074518,2.72,-2.49,-1.49,53.16,286.68,-440.67
899,1778612186.0845811,2.59,-2.8,-1.42,88.5,195.68,-526.98
900,1778612186.094501,2.59,-2.8,-1.42,88.5,195.68,-526.98
901,1778612186.1045382,2.59,-2.8,-1.42,88.5,195.68,-526.98
902,1778612186.114547,2.59,-2.8,-1.42,88.5,195.68,-526.98
903,1778612186.124566,2.39,-2.81,-1.47,96.5,167.48,-544.86
904,1778612186.1344798,2.39,-2.81,-1.47,96.5,167.48,-544.86
905,1778612186.1445189,2.39,-2.81,-1.47,96.5,167.48,-544.86
906,1778612186.15449,2.39,-2.81,-1.47,96.5,167.48,-544.86
907,1778612186.1645582,1.89,-2.72,-2.19,23.13,237.61,-440.37
908,1778612186.174495,1.89,-2.72,-2.19,23.13,237.61,-440.37
909,1778612186.18452,1.89,-2.72,-2.19,23.13,237.61,-440.37
910,1778612186.194481,-3.06,-1.9,-3.11,23.13,237.61,-440.37
911,1778612186.204573,-3.06,-1.9,-3.11,153.87,-54.93,-527.22
912,1778612186.2145238,-3.06,-1.9,-3.11,153.87,-54.93,-527.22
913,1778612186.224592,-3.06,-1.9,-3.11,153.87,-54.93,-527.22
914,1778612186.234496,-7.07,-3.77,0.5,-255.86,-218.14,-133.36
915,1778612186.24453,-7.07,-3.77,0.5,-255.86,-218.14,-133.36
916,1778612186.254553,-7.07,-3.77,0.5,-255.86,-218.14,-133.36
917,1778612186.2645812,-7.07,-3.77,0.5,-255.86,-218.14,-133.36
918,1778612186.274475,-7.07,-3.77,0.5,-255.86,-218.14,-133.36
919,1778612186.284482,-5.02,-3.1,1.53,-1.95,-216.49,243.41
920,1778612186.294515,-5.02,-3.1,1.53,-1.95,-216.49,243.41
921,1778612186.304532,-5.02,-3.1,1.53,-1.95,-216.49,243.41
922,1778612186.314485,-2.47,-0.99,-0.9,-1.95,-216.49,243.41
923,1778612186.324555,-2.47,-0.99,-0.9,-96.5,4.76,331.36
924,1778612186.334461,-2.47,-0.99,-0.9,-96.5,4.76,331.36
925,1778612186.344501,-1.0,-0.39,-2.28,255.19,-394.17,40.16
926,1778612186.354513,-1.0,-0.39,-2.28,255.19,-394.17,40.16
927,1778612186.3645818,-1.0,-0.39,-2.28,255.19,-394.17,40.16
928,1778612186.374485,-1.0,-0.39,-2.28,255.19,-394.17,40.16
929,1778612186.3845499,-0.26,-1.22,-2.51,282.71,-383.36,39.79
930,1778612186.394494,-0.26,-1.22,-2.51,282.71,-383.36,39.79
931,1778612186.404547,-0.26,-1.22,-2.51,282.71,-383.36,39.79
932,1778612186.414485,-0.26,-1.22,-2.51,282.71,-383.36,39.79
933,1778612186.424533,0.47,-2.45,-2.11,66.16,-95.89,296.33
934,1778612186.434554,0.47,-2.45,-2.11,66.16,-95.89,296.33
935,1778612186.4445708,0.47,-2.45,-2.11,66.16,-95.89,296.33
936,1778612186.4544818,0.47,-2.45,-2.11,66.16,-95.89,296.33
937,1778612186.46449,0.47,-2.45,-2.11,66.16,-95.89,296.33
938,1778612186.4745128,0.47,-2.45,-2.11,66.16,-95.89,296.33
939,1778612186.4845262,0.47,-2.45,-2.11,66.16,-95.89,296.33
940,1778612186.494533,0.47,-2.45,-2.11,66.16,-95.89,296.33
941,1778612186.50458,0.47,-2.45,-2.11,66.16,-95.89,296.33
942,1778612186.514494,0.47,-2.45,-2.11,66.16,-95.89,296.33
943,1778612186.5245252,1.89,-2.5,-1.14,165.53,-277.4,201.17
944,1778612186.534553,1.89,-2.5,-1.14,165.53,-277.4,201.17
945,1778612186.544576,1.25,-4.25,-0.77,262.08,-278.2,155.15
946,1778612186.554473,1.25,-4.25,-0.77,262.08,-278.2,155.15
947,1778612186.564499,1.25,-4.25,-0.77,262.08,-278.2,155.15
948,1778612186.574544,1.25,-4.25,-0.77,262.08,-278.2,155.15
949,1778612186.584471,2.55,-5.01,-1.21,291.14,-22.16,406.8
950,1778612186.594511,2.55,-5.01,-1.21,291.14,-22.16,406.8
951,1778612186.604519,2.55,-5.01,-1.21,291.14,-22.16,406.8
952,1778612186.614508,2.55,-5.01,-1.21,291.14,-22.16,406.8
953,1778612186.624536,2.84,-3.25,-2.64,190.73,80.51,545.35
954,1778612186.634565,2.84,-3.25,-2.64,190.73,80.51,545.35
955,1778612186.6444669,2.84,-3.25,-2.64,190.73,80.51,545.35
956,1778612186.654505,3.94,-3.1,-2.25,-21.73,118.23,718.44
957,1778612186.664531,3.94,-3.1,-2.25,-21.73,118.23,718.44
958,1778612186.6745658,3.94,-3.1,-2.25,-21.73,118.23,718.44
959,1778612186.68448,3.94,-3.1,-2.25,-21.73,118.23,718.44
960,1778612186.694517,6.63,-2.71,-1.59,-241.52,-99.61,679.08
961,1778612186.704546,6.63,-2.71,-1.59,-241.52,-99.61,679.08
962,1778612186.7145689,6.63,-2.71,-1.59,-241.52,-99.61,679.08
963,1778612186.7244658,6.63,-2.71,-1.59,-241.52,-99.61,679.08
964,1778612186.7344902,6.63,-2.71,-1.59,-241.52,-99.61,679.08
965,1778612186.7445078,8.0,-1.96,-1.14,94.79,-344.67,119.2
966,1778612186.7545369,8.0,-1.96,-1.14,94.79,-344.67,119.2
967,1778612186.764561,8.0,-1.96,-1.14,94.79,-344.67,119.2
968,1778612186.774567,8.0,-1.96,-1.14,94.79,-344.67,119.2
969,1778612186.784467,8.0,-1.96,-1.14,94.79,-344.67,119.2
970,1778612186.794485,8.0,-1.96,-1.14,94.79,-344.67,119.2
971,1778612186.804553,8.0,-1.96,-1.14,94.79,-344.67,119.2
972,1778612186.814482,6.48,-1.44,-2.55,214.72,11.96,-591.37
973,1778612186.824537,6.48,-1.44,-2.55,214.72,11.96,-591.37
974,1778612186.834579,6.48,-1.44,-2.55,214.72,11.96,-591.37
975,1778612186.844502,6.48,-1.44,-2.55,214.72,11.96,-591.37
976,1778612186.854511,6.48,-1.44,-2.55,214.72,11.96,-591.37
977,1778612186.8645298,6.48,-1.44,-2.55,214.72,11.96,-591.37
978,1778612186.874548,4.13,-2.07,-1.5,138.55,159.85,-449.34
979,1778612186.884584,2.92,-1.62,-2.01,14.34,193.73,-371.28
980,1778612186.8944771,2.92,-1.62,-2.01,14.34,193.73,-371.28
981,1778612186.9045131,2.92,-1.62,-2.01,14.34,193.73,-371.28
982,1778612186.9145112,2.92,-1.62,-2.01,14.34,193.73,-371.28
983,1778612186.9245682,2.92,-1.62,-2.01,14.34,193.73,-371.28
984,1778612186.9344718,2.92,-1.62,-2.01,14.34,193.73,-371.28
985,1778612186.944491,2.92,-1.62,-2.01,14.34,193.73,-371.28
986,1778612186.954536,2.92,-1.62,-2.01,14.34,193.73,-371.28
987,1778612186.964556,2.64,-1.77,-0.6,-65.37,184.81,-394.17
988,1778612186.974467,2.64,-1.77,-0.6,-65.37,184.81,-394.17
989,1778612186.984499,2.64,-1.77,-0.6,-65.37,184.81,-394.17
990,1778612186.994546,2.64,-1.77,-0.6,-65.37,184.81,-394.17
991,1778612187.004571,2.64,-1.77,-0.6,-65.37,184.81,-394.17
992,1778612187.014574,2.64,-1.77,-0.6,-65.37,184.81,-394.17
993,1778612187.0244741,2.64,-1.77,-0.6,-65.37,184.81,-394.17
994,1778612187.0345259,2.64,-1.77,-0.6,-65.37,184.81,-394.17
995,1778612187.044553,2.64,-1.77,-0.6,-65.37,184.81,-394.17
996,1778612187.054466,2.3,-2.43,-0.97,39.73,208.62,-400.21
997,1778612187.064503,2.53,-2.32,-1.18,101.44,52.86,-442.87
998,1778612187.074527,2.53,-2.32,-1.18,101.44,52.86,-442.87
999,1778612187.0845592,2.53,-2.32,-1.18,101.44,52.86,-442.87
1000,1778612187.094476,2.53,-2.32,-1.18,101.44,52.86,-442.87
