id,timestamp,acc_x,acc_y,acc_z,gyro_x,gyro_y,gyro_z
1,1778616039.390583,0.31,0.94,0.3,31.49,43.58,8.97
2,1778616039.390604,0.31,0.94,0.3,31.49,43.58,8.97
3,1778616039.398409,0.31,0.94,0.3,31.49,43.58,8.97
4,1778616039.408423,0.31,0.94,0.3,31.49,43.58,8.97
5,1778616039.4183848,0.31,0.94,0.3,31.49,43.58,8.97
6,1778616039.4283571,0.31,0.94,0.3,31.49,43.58,8.97
7,1778616039.438355,0.31,0.94,0.3,31.49,43.58,8.97
8,1778616039.448415,0.31,0.94,0.3,31.49,43.58,8.97
9,1778616039.458324,0.31,0.94,0.3,31.49,43.58,8.97
10,1778616039.468396,0.33,0.8,0.32,0.49,-16.36,11.9
11,1778616039.478417,0.33,0.8,0.32,0.49,-16.36,11.9
12,1778616039.4884422,0.33,0.8,0.32,0.49,-16.36,11.9
13,1778616039.4983318,0.29,0.99,0.34,20.26,21.91,27.95
14,1778616039.508375,0.29,0.99,0.34,20.26,21.91,27.95
15,1778616039.518411,0.29,0.99,0.34,20.26,21.91,27.95
16,1778616039.52843,0.29,0.99,0.34,20.26,21.91,27.95
17,1778616039.538372,0.24,0.95,0.29,15.32,30.76,13.85
18,1778616039.5484412,0.24,0.95,0.29,15.32,30.76,13.85
19,1778616039.558368,0.24,0.95,0.29,15.32,30.76,13.85
20,1778616039.568414,0.24,0.95,0.29,15.32,30.76,13.85
21,1778616039.578339,0.26,0.94,0.26,4.27,10.8,4.58
22,1778616039.588382,0.26,0.94,0.26,4.27,10.8,4.58
23,1778616039.598327,0.26,0.94,0.26,4.27,10.8,4.58
24,1778616039.608407,0.26,0.94,0.26,4.27,10.8,4.58
25,1778616039.618366,0.3,0.94,0.29,-7.08,-17.4,-7.08
26,1778616039.628427,0.3,0.94,0.29,-7.08,-17.4,-7.08
27,1778616039.6383371,0.3,0.94,0.29,-7.08,-17.4,-7.08
28,1778616039.64836,0.32,0.99,0.35,-12.88,-31.8,-7.93
29,1778616039.658376,0.32,0.99,0.35,-12.88,-31.8,-7.93
30,1778616039.668413,0.32,0.99,0.35,-12.88,-31.8,-7.93
31,1778616039.678338,0.32,0.99,0.35,-12.88,-31.8,-7.93
32,1778616039.6883662,0.3,0.89,0.32,-18.8,-15.01,-11.41
33,1778616039.698399,0.3,0.89,0.32,-18.8,-15.01,-11.41
34,1778616039.708412,0.3,0.89,0.32,-18.8,-15.01,-11.41
35,1778616039.718325,0.3,0.89,0.32,-18.8,-15.01,-11.41
36,1778616039.728367,0.3,0.89,0.32,-18.8,-15.01,-11.41
37,1778616039.738406,0.3,0.89,0.32,-18.8,-15.01,-11.41
38,1778616039.748451,0.3,0.89,0.32,-18.8,-15.01,-11.41
39,1778616039.758347,0.3,0.89,0.32,-18.8,-15.01,-11.41
40,1778616039.7683892,0.3,0.89,0.32,-18.8,-15.01,-11.41
41,1778616039.7784178,0.3,0.89,0.32,-18.8,-15.01,-11.41
42,1778616039.788353,0.3,0.89,0.32,-18.8,-15.01,-11.41
43,1778616039.798364,0.3,0.89,0.32,-18.8,-15.01,-11.41
44,1778616039.808424,0.36,0.96,0.32,-47.0,12.57,5.68
45,1778616039.818432,0.36,0.96,0.32,-47.0,12.57,5.68
46,1778616039.828328,0.36,0.96,0.32,-47.0,12.57,5.68
47,1778616039.838346,0.36,0.96,0.32,-47.0,12.57,5.68
48,1778616039.848353,0.28,1.05,0.2,-18.62,-37.72,-29.24
49,1778616039.85838,0.28,1.05,0.2,-18.62,-37.72,-29.24
50,1778616039.868427,0.28,1.05,0.2,-18.62,-37.72,-29.24
51,1778616039.8783329,0.13,1.24,-0.96,-38.76,-248.78,-102.29
52,1778616039.8883688,0.13,1.24,-0.96,-38.76,-248.78,-102.29
53,1778616039.898413,0.13,1.24,-0.96,-38.76,-248.78,-102.29
54,1778616039.9083169,0.13,1.24,-0.96,-38.76,-248.78,-102.29
55,1778616039.9183419,0.13,1.24,-0.96,-38.76,-248.78,-102.29
56,1778616039.9283571,0.13,1.24,-0.96,-38.76,-248.78,-102.29
57,1778616039.93837,0.13,1.24,-0.96,-38.76,-248.78,-102.29
58,1778616039.9483788,0.13,1.24,-0.96,-38.76,-248.78,-102.29
59,1778616039.95841,0.13,1.24,-0.96,-38.76,-248.78,-102.29
60,1778616039.96842,0.13,1.24,-0.96,-38.76,-248.78,-102.29
61,1778616039.978431,0.13,1.24,-0.96,-38.76,-248.78,-102.29
62,1778616039.988331,0.13,1.24,-0.96,-38.76,-248.78,-102.29
63,1778616039.998344,0.38,0.5,0.68,87.4,96.19,-100.71
64,1778616040.008374,0.38,0.5,0.68,87.4,96.19,-100.71
65,1778616040.018409,0.38,0.5,0.68,87.4,96.19,-100.71
66,1778616040.02843,0.64,0.48,0.31,93.75,252.69,-34.12
67,1778616040.0383449,0.64,0.48,0.31,93.75,252.69,-34.12
68,1778616040.048361,0.64,0.48,0.31,93.75,252.69,-34.12
69,1778616040.0583522,1.0,0.92,0.44,-136.11,176.57,104.61
70,1778616040.068424,1.0,0.92,0.44,-136.11,176.57,104.61
71,1778616040.0784268,1.0,0.92,0.44,-136.11,176.57,104.61
72,1778616040.0884,1.0,0.92,0.44,-136.11,176.57,104.61
73,1778616040.098403,1.92,2.53,1.37,-201.05,37.9,310.79
74,1778616040.1083388,1.92,2.53,1.37,-201.05,37.9,310.79
75,1778616040.11837,1.92,2.53,1.37,-201.05,37.9,310.79
76,1778616040.128408,1.92,2.53,1.37,-201.05,37.9,310.79
77,1778616040.138348,1.09,3.44,-2.37,-50.84,-214.48,12.82
78,1778616040.148368,1.09,3.44,-2.37,-50.84,-214.48,12.82
79,1778616040.158376,1.09,3.44,-2.37,-50.84,-214.48,12.82
80,1778616040.168403,1.09,3.44,-2.37,-50.84,-214.48,12.82
81,1778616040.1784132,0.51,1.07,0.5,-69.15,-287.48,-23.44
82,1778616040.1883252,0.51,1.07,0.5,-69.15,-287.48,-23.44
83,1778616040.198356,0.51,1.07,0.5,-69.15,-287.48,-23.44
84,1778616040.20838,0.51,1.07,0.5,-69.15,-287.48,-23.44
85,1778616040.218431,-0.17,0.75,0.23,113.16,-86.36,8.85
86,1778616040.228348,-0.17,0.75,0.23,113.16,-86.36,8.85
87,1778616040.238365,-0.17,0.75,0.23,113.16,-86.36,8.85
88,1778616040.248366,-0.17,0.75,0.23,113.16,-86.36,8.85
89,1778616040.2584078,-0.17,0.75,0.23,113.16,-86.36,8.85
90,1778616040.268328,-0.17,0.75,0.23,113.16,-86.36,8.85
91,1778616040.278346,-0.17,0.75,0.23,113.16,-86.36,8.85
92,1778616040.288356,-0.17,0.75,0.23,113.16,-86.36,8.85
93,1778616040.29836,-0.17,0.75,0.23,113.16,-86.36,8.85
94,1778616040.308369,-0.17,0.75,0.23,113.16,-86.36,8.85
95,1778616040.318431,-0.17,0.75,0.23,113.16,-86.36,8.85
96,1778616040.328352,-0.12,-0.09,-0.26,123.35,122.01,3.97
97,1778616040.3383691,-0.12,-0.09,-0.26,123.35,122.01,3.97
98,1778616040.348382,-0.12,-0.09,-0.26,123.35,122.01,3.97
99,1778616040.358402,-0.12,-0.09,-0.26,123.35,122.01,3.97
100,1778616040.3684301,-0.05,-0.1,0.02,40.1,-22.22,37.84
101,1778616040.378332,-0.05,-0.1,0.02,40.1,-22.22,37.84
102,1778616040.388364,-0.05,-0.1,0.02,40.1,-22.22,37.84
103,1778616040.398405,-0.05,-0.1,0.02,40.1,-22.22,37.84
104,1778616040.408431,0.01,0.12,0.05,36.38,-15.81,36.32
105,1778616040.418317,0.01,0.12,0.05,36.38,-15.81,36.32
106,1778616040.4283252,0.01,0.12,0.05,36.38,-15.81,36.32
107,1778616040.4383419,0.01,0.12,0.05,36.38,-15.81,36.32
108,1778616040.4484322,0.01,0.12,0.05,36.38,-15.81,36.32
109,1778616040.458344,0.01,0.12,0.05,36.38,-15.81,36.32
110,1778616040.468402,0.01,0.12,0.05,36.38,-15.81,36.32
111,1778616040.4784262,0.01,0.12,0.05,36.38,-15.81,36.32
112,1778616040.48843,0.01,0.12,0.05,36.38,-15.81,36.32
113,1778616040.4983182,0.01,0.12,0.05,36.38,-15.81,36.32
114,1778616040.508322,0.01,0.12,0.05,36.38,-15.81,36.32
115,1778616040.518355,-0.79,0.64,-1.57,-15.99,119.45,-81.91
116,1778616040.528399,-0.79,0.64,-1.57,-15.99,119.45,-81.91
117,1778616040.538319,-0.79,0.64,-1.57,-15.99,119.45,-81.91
118,1778616040.548364,0.71,1.83,0.22,155.88,-85.08,47.91
119,1778616040.5583942,0.71,1.83,0.22,155.88,-85.08,47.91
120,1778616040.568413,0.71,1.83,0.22,155.88,-85.08,47.91
121,1778616040.578437,0.71,1.83,0.22,155.88,-85.08,47.91
122,1778616040.588341,3.95,3.56,-0.69,-386.84,-194.46,-61.95
123,1778616040.5983412,3.95,3.56,-0.69,-386.84,-194.46,-61.95
124,1778616040.608354,3.95,3.56,-0.69,-386.84,-194.46,-61.95
125,1778616040.618387,3.95,3.56,-0.69,-386.84,-194.46,-61.95
126,1778616040.6284091,1.78,1.85,0.6,148.93,192.38,-1.34
127,1778616040.6384299,1.78,1.85,0.6,148.93,192.38,-1.34
128,1778616040.648444,1.78,1.85,0.6,148.93,192.38,-1.34
129,1778616040.658423,1.0,0.83,-0.43,12.33,134.7,60.85
130,1778616040.668438,1.0,0.83,-0.43,12.33,134.7,60.85
131,1778616040.678333,1.0,0.83,-0.43,12.33,134.7,60.85
132,1778616040.68837,1.0,0.83,-0.43,12.33,134.7,60.85
133,1778616040.698379,1.0,0.83,-0.43,12.33,134.7,60.85
134,1778616040.708412,0.36,0.59,0.1,-28.14,112.67,-20.26
135,1778616040.718414,0.36,0.59,0.1,-28.14,112.67,-20.26
136,1778616040.7284439,0.36,0.59,0.1,-28.14,112.67,-20.26
137,1778616040.7383559,0.08,0.03,-0.04,-83.98,83.56,-46.26
138,1778616040.748369,0.08,0.03,-0.04,-83.98,83.56,-46.26
139,1778616040.758395,0.08,0.03,-0.04,-83.98,83.56,-46.26
140,1778616040.768407,0.08,0.03,-0.04,-83.98,83.56,-46.26
141,1778616040.778413,0.08,0.03,-0.04,-83.98,83.56,-46.26
142,1778616040.788335,0.08,0.03,-0.04,-83.98,83.56,-46.26
143,1778616040.798362,0.08,0.03,-0.04,-83.98,83.56,-46.26
144,1778616040.808404,0.08,0.03,-0.04,-83.98,83.56,-46.26
145,1778616040.818429,0.08,0.03,-0.04,-83.98,83.56,-46.26
146,1778616040.8284318,0.08,0.03,-0.04,-83.98,83.56,-46.26
147,1778616040.838336,0.08,0.03,-0.04,-83.98,83.56,-46.26
148,1778616040.8484402,0.08,0.03,-0.04,-83.98,83.56,-46.26
149,1778616040.858347,-0.01,-0.0,0.01,-75.38,-137.7,73.61
150,1778616040.868427,-0.01,-0.0,0.01,-75.38,-137.7,73.61
151,1778616040.878339,-0.01,-0.0,0.01,-75.38,-137.7,73.61
152,1778616040.8884108,0.01,0.01,0.03,-80.57,-132.39,63.42
153,1778616040.898349,0.01,0.01,0.03,-80.57,-132.39,63.42
154,1778616040.908405,0.01,0.01,0.03,-80.57,-132.39,63.42
155,1778616040.918443,0.01,0.01,0.03,-80.57,-132.39,63.42
156,1778616040.9283662,0.0,0.12,0.2,-77.27,-88.5,50.66
157,1778616040.9384232,0.0,0.12,0.2,-77.27,-88.5,50.66
158,1778616040.948343,0.0,0.12,0.2,-77.27,-88.5,50.66
159,1778616040.958328,0.0,0.12,0.2,-77.27,-88.5,50.66
160,1778616040.9683928,0.0,0.12,0.2,-77.27,-88.5,50.66
161,1778616040.978444,0.0,0.12,0.2,-77.27,-88.5,50.66
162,1778616040.988341,0.0,0.12,0.2,-77.27,-88.5,50.66
163,1778616040.998354,0.0,0.12,0.2,-77.27,-88.5,50.66
164,1778616041.008399,0.0,0.12,0.2,-77.27,-88.5,50.66
165,1778616041.018427,0.0,0.12,0.2,-77.27,-88.5,50.66
166,1778616041.02833,0.0,0.12,0.2,-77.27,-88.5,50.66
167,1778616041.0383658,0.03,0.11,-0.09,88.75,95.46,-122.13
168,1778616041.048382,0.03,0.11,-0.09,88.75,95.46,-122.13
169,1778616041.058435,0.03,0.11,-0.09,88.75,95.46,-122.13
170,1778616041.068335,0.03,0.11,-0.09,88.75,95.46,-122.13
171,1778616041.078377,8.0,7.73,3.06,419.56,-333.44,1549.07
172,1778616041.088418,8.0,7.73,3.06,419.56,-333.44,1549.07
173,1778616041.098444,8.0,7.73,3.06,419.56,-333.44,1549.07
174,1778616041.108335,8.0,7.73,3.06,419.56,-333.44,1549.07
175,1778616041.118401,8.0,7.73,3.06,419.56,-333.44,1549.07
176,1778616041.1284428,0.48,0.13,0.12,-64.82,319.21,-231.08
177,1778616041.138429,0.48,0.13,0.12,-64.82,319.21,-231.08
178,1778616041.1483562,-0.24,-0.44,-1.03,-661.07,-188.84,12.02
179,1778616041.1583931,-0.24,-0.44,-1.03,-661.07,-188.84,12.02
180,1778616041.168319,-0.24,-0.44,-1.03,-661.07,-188.84,12.02
181,1778616041.178317,-0.24,-0.44,-1.03,-661.07,-188.84,12.02
182,1778616041.1883562,-0.11,0.08,-0.28,-630.62,-379.39,76.97
183,1778616041.198386,-0.11,0.08,-0.28,-630.62,-379.39,76.97
184,1778616041.208411,-0.11,0.08,-0.28,-630.62,-379.39,76.97
185,1778616041.218442,-0.11,0.08,-0.28,-630.62,-379.39,76.97
186,1778616041.228339,-0.17,0.29,0.04,239.75,-8.79,-33.39
187,1778616041.238374,-0.17,0.29,0.04,239.75,-8.79,-33.39
188,1778616041.248388,-0.17,0.29,0.04,239.75,-8.79,-33.39
189,1778616041.258411,-0.17,0.29,0.04,239.75,-8.79,-33.39
190,1778616041.268436,-0.43,0.44,-0.2,132.69,86.43,-63.42
191,1778616041.278324,-0.43,0.44,-0.2,132.69,86.43,-63.42
192,1778616041.288353,-0.43,0.44,-0.2,132.69,86.43,-63.42
193,1778616041.298368,-0.43,0.44,-0.2,132.69,86.43,-63.42
194,1778616041.308403,-0.43,0.44,-0.2,132.69,86.43,-63.42
195,1778616041.3184168,-0.43,0.44,-0.2,132.69,86.43,-63.42
196,1778616041.328426,-0.43,0.44,-0.2,132.69,86.43,-63.42
197,1778616041.3383198,-0.43,0.44,-0.2,132.69,86.43,-63.42
198,1778616041.34835,-0.43,0.44,-0.2,132.69,86.43,-63.42
199,1778616041.3583739,-0.43,0.44,-0.2,132.69,86.43,-63.42
200,1778616041.368428,-0.43,0.44,-0.2,132.69,86.43,-63.42
201,1778616041.378429,0.02,0.23,0.11,39.73,-117.92,18.62
202,1778616041.388439,0.02,0.23,0.11,112.85,-89.84,17.64
203,1778616041.398339,0.02,0.23,0.11,112.85,-89.84,17.64
204,1778616041.408364,0.02,0.23,0.11,112.85,-89.84,17.64
205,1778616041.4184089,-0.05,0.28,0.2,112.85,-89.84,17.64
206,1778616041.428436,-0.05,0.28,0.2,193.91,5.62,-28.26
207,1778616041.4383569,-0.05,0.28,0.2,193.91,5.62,-28.26
208,1778616041.448371,-0.05,0.28,0.2,193.91,5.62,-28.26
209,1778616041.4584188,-0.05,0.28,0.2,193.91,5.62,-28.26
210,1778616041.4683259,0.58,0.98,0.12,209.05,50.66,-1.95
211,1778616041.4783611,0.58,0.98,0.12,209.05,50.66,-1.95
212,1778616041.488406,0.58,0.98,0.12,209.05,50.66,-1.95
213,1778616041.4984279,0.58,0.98,0.12,209.05,50.66,-1.95
214,1778616041.5083258,0.58,0.98,0.12,209.05,50.66,-1.95
215,1778616041.518337,0.58,0.98,0.12,209.05,50.66,-1.95
216,1778616041.528358,0.58,0.98,0.12,209.05,50.66,-1.95
217,1778616041.538406,0.58,0.98,0.12,209.05,50.66,-1.95
218,1778616041.548414,0.58,0.98,0.12,209.05,50.66,-1.95
219,1778616041.5584419,0.58,0.98,0.12,209.05,50.66,-1.95
220,1778616041.568342,1.91,-0.9,0.51,314.45,-68.36,-77.88
221,1778616041.578361,1.91,-0.9,0.51,314.45,-68.36,-77.88
222,1778616041.588385,1.91,-0.9,0.51,314.45,-68.36,-77.88
223,1778616041.598422,0.61,-0.47,0.75,314.45,-68.36,-77.88
224,1778616041.608356,0.61,-0.47,0.75,180.66,51.57,50.17
225,1778616041.618399,0.61,-0.47,0.75,180.66,51.57,50.17
226,1778616041.6284359,0.61,-0.47,0.75,180.66,51.57,50.17
227,1778616041.638358,0.27,-0.69,0.14,-140.93,218.99,19.53
228,1778616041.648382,0.27,-0.69,0.14,-140.93,218.99,19.53
229,1778616041.658439,0.27,-0.69,0.14,-140.93,218.99,19.53
230,1778616041.668355,0.27,-0.69,0.14,-140.93,218.99,19.53
231,1778616041.678422,0.09,-0.33,-0.56,308.29,-45.23,8.79
232,1778616041.688355,0.09,-0.33,-0.56,308.29,-45.23,8.79
233,1778616041.6983879,0.09,-0.33,-0.56,308.29,-45.23,8.79
234,1778616041.708441,0.09,-0.33,-0.56,308.29,-45.23,8.79
235,1778616041.718333,0.1,0.31,-0.02,161.8,28.02,52.67
236,1778616041.728359,0.1,0.31,-0.02,161.8,28.02,52.67
237,1778616041.73843,0.1,0.31,-0.02,161.8,28.02,52.67
238,1778616041.7483351,0.1,0.31,-0.02,161.8,28.02,52.67
239,1778616041.758371,-0.01,0.11,0.05,-190.06,55.11,-40.89
240,1778616041.768409,-0.01,0.11,0.05,-190.06,55.11,-40.89
241,1778616041.7784362,-0.01,0.11,0.05,-190.06,55.11,-40.89
242,1778616041.788352,-0.01,0.11,0.05,-190.06,55.11,-40.89
243,1778616041.798389,-0.01,0.04,0.02,-180.79,26.67,-46.08
244,1778616041.808442,-0.01,0.04,0.02,-180.79,26.67,-46.08
245,1778616041.818329,-0.01,0.04,0.02,-180.79,26.67,-46.08
246,1778616041.82844,-0.01,0.04,0.02,-180.79,26.67,-46.08
247,1778616041.8383548,-0.01,0.04,0.02,-180.79,26.67,-46.08
248,1778616041.848406,-0.01,0.04,0.02,-180.79,26.67,-46.08
249,1778616041.858342,-0.01,0.04,0.02,-180.79,26.67,-46.08
250,1778616041.868393,-0.01,0.04,0.02,-180.79,26.67,-46.08
251,1778616041.878319,-0.01,0.04,0.02,-180.79,26.67,-46.08
252,1778616041.8883572,-0.01,0.04,0.02,-180.79,26.67,-46.08
253,1778616041.898419,0.01,-0.01,0.05,-93.2,81.24,-39.67
254,1778616041.9083278,0.02,-0.05,-0.03,-47.3,137.15,-41.08
255,1778616041.918381,0.02,-0.05,-0.03,-47.3,137.15,-41.08
256,1778616041.928419,0.02,-0.05,-0.03,-47.3,137.15,-41.08
257,1778616041.9383569,0.02,-0.05,-0.03,-47.3,137.15,-41.08
258,1778616041.948421,0.71,0.06,0.19,660.1,-207.89,17.33
259,1778616041.958348,0.71,0.06,0.19,660.1,-207.89,17.33
260,1778616041.968404,0.71,0.06,0.19,660.1,-207.89,17.33
261,1778616041.978334,0.71,0.06,0.19,660.1,-207.89,17.33
262,1778616041.988362,5.04,-3.67,0.27,-207.09,159.18,43.46
263,1778616041.998406,5.04,-3.67,0.27,-207.09,159.18,43.46
264,1778616042.00844,5.04,-3.67,0.27,-207.09,159.18,43.46
265,1778616042.0183759,5.04,-3.67,0.27,-207.09,159.18,43.46
266,1778616042.028428,5.04,-3.67,0.27,-207.09,159.18,43.46
267,1778616042.03834,5.04,-3.67,0.27,-207.09,159.18,43.46
268,1778616042.048382,5.04,-3.67,0.27,-207.09,159.18,43.46
269,1778616042.0584419,5.04,-3.67,0.27,-207.09,159.18,43.46
270,1778616042.068362,5.04,-3.67,0.27,-207.09,159.18,43.46
271,1778616042.0784152,5.04,-3.67,0.27,-207.09,159.18,43.46
272,1778616042.088325,5.04,-3.67,0.27,-207.09,159.18,43.46
273,1778616042.098389,1.42,0.55,-0.3,179.32,-148.32,145.2
274,1778616042.108317,1.42,0.55,-0.3,179.32,-148.32,145.2
275,1778616042.118326,1.42,0.55,-0.3,179.32,-148.32,145.2
276,1778616042.128408,1.42,0.55,-0.3,179.32,-148.32,145.2
277,1778616042.1383271,0.07,0.3,-0.22,-259.7,278.38,216.67
278,1778616042.148362,0.07,0.3,-0.22,-259.7,278.38,216.67
279,1778616042.158315,0.07,0.3,-0.22,-259.7,278.38,216.67
280,1778616042.16835,0.07,0.3,-0.22,-259.7,278.38,216.67
281,1778616042.178329,0.12,0.68,-0.31,-405.03,288.33,223.75
282,1778616042.1883771,0.12,0.68,-0.31,-405.03,288.33,223.75
283,1778616042.198407,0.12,0.68,-0.31,-405.03,288.33,223.75
284,1778616042.208408,-0.13,0.21,-0.07,-90.82,147.09,78.98
285,1778616042.2183838,-0.13,0.21,-0.07,-90.82,147.09,78.98
286,1778616042.228377,-0.13,0.21,-0.07,-90.82,147.09,78.98
287,1778616042.2384,-0.13,0.21,-0.07,-90.82,147.09,78.98
288,1778616042.248415,-0.14,0.16,-0.02,-18.55,67.32,47.42
289,1778616042.258423,-0.14,0.16,-0.02,-18.55,67.32,47.42
290,1778616042.268341,-0.14,0.16,-0.02,-18.55,67.32,47.42
291,1778616042.2783942,-0.14,0.16,-0.02,-18.55,67.32,47.42
292,1778616042.288407,-0.1,0.11,-0.02,-3.3,47.0,22.89
293,1778616042.298434,-0.1,0.11,-0.02,-3.3,47.0,22.89
294,1778616042.308367,-0.1,0.11,-0.02,-3.3,47.0,22.89
295,1778616042.318391,-0.1,0.11,-0.02,-3.3,47.0,22.89
296,1778616042.328435,-0.04,0.08,-0.18,21.61,-18.74,31.31
297,1778616042.338329,-0.04,0.08,-0.18,21.61,-18.74,31.31
298,1778616042.348364,-0.04,0.08,-0.18,21.61,-18.74,31.31
299,1778616042.3583791,-0.04,0.08,-0.18,21.61,-18.74,31.31
300,1778616042.368425,-0.04,0.08,-0.18,21.61,-18.74,31.31
301,1778616042.3784451,-0.04,0.08,-0.18,21.61,-18.74,31.31
302,1778616042.388345,-0.04,0.08,-0.18,21.61,-18.74,31.31
303,1778616042.3983538,-0.04,0.08,-0.18,21.61,-18.74,31.31
304,1778616042.408381,-0.04,0.08,-0.18,21.61,-18.74,31.31
305,1778616042.418407,-0.04,0.08,-0.18,21.61,-18.74,31.31
306,1778616042.428323,0.52,0.73,0.3,161.5,-121.52,-94.54
307,1778616042.4383612,0.91,-0.04,-0.15,6.59,-152.04,44.43
308,1778616042.448394,0.91,-0.04,-0.15,6.59,-152.04,44.43
309,1778616042.45841,0.91,-0.04,-0.15,6.59,-152.04,44.43
310,1778616042.4683158,0.91,-0.04,-0.15,6.59,-152.04,44.43
311,1778616042.47839,4.31,-4.08,-0.43,-222.47,-105.29,452.76
312,1778616042.488409,4.31,-4.08,-0.43,-222.47,-105.29,452.76
313,1778616042.498421,4.31,-4.08,-0.43,-222.47,-105.29,452.76
314,1778616042.508328,0.85,-5.0,-0.54,-59.02,473.88,626.83
315,1778616042.518354,0.85,-5.0,-0.54,-59.02,473.88,626.83
316,1778616042.5283682,0.85,-5.0,-0.54,-59.02,473.88,626.83
317,1778616042.538423,0.85,-5.0,-0.54,-59.02,473.88,626.83
318,1778616042.5483148,0.85,-5.0,-0.54,-59.02,473.88,626.83
319,1778616042.558346,0.85,-5.0,-0.54,-59.02,473.88,626.83
320,1778616042.568382,0.85,-5.0,-0.54,-59.02,473.88,626.83
321,1778616042.578423,0.85,-5.0,-0.54,-59.02,473.88,626.83
322,1778616042.5884402,0.85,-5.0,-0.54,-59.02,473.88,626.83
323,1778616042.5983648,0.85,-5.0,-0.54,-59.02,473.88,626.83
324,1778616042.608407,0.85,-5.0,-0.54,-59.02,473.88,626.83
325,1778616042.61832,-0.63,-1.89,0.05,-59.02,473.88,626.83
326,1778616042.628331,-0.63,-1.89,0.05,-59.02,473.88,626.83
327,1778616042.6383948,-1.22,-0.6,0.7,108.4,158.14,190.98
328,1778616042.648442,-1.22,-0.6,0.7,108.4,158.14,190.98
329,1778616042.65837,-0.91,-0.0,-1.19,214.97,-37.11,51.7
330,1778616042.6684108,-0.91,-0.0,-1.19,214.97,-37.11,51.7
331,1778616042.6783261,-0.91,-0.0,-1.19,214.97,-37.11,51.7
332,1778616042.688319,-0.91,-0.0,-1.19,214.97,-37.11,51.7
333,1778616042.698347,-0.91,-0.0,-1.19,214.97,-37.11,51.7
334,1778616042.7083719,-0.91,-0.0,-1.19,214.97,-37.11,51.7
335,1778616042.7184079,-0.91,-0.0,-1.19,214.97,-37.11,51.7
336,1778616042.728435,-0.91,-0.0,-1.19,214.97,-37.11,51.7
337,1778616042.738343,-0.91,-0.0,-1.19,214.97,-37.11,51.7
338,1778616042.748395,-0.91,-0.0,-1.19,214.97,-37.11,51.7
339,1778616042.7583308,-0.91,-0.0,-1.19,214.97,-37.11,51.7
340,1778616042.7683709,-0.91,-0.0,-1.19,214.97,-37.11,51.7
341,1778616042.778424,-0.91,-0.0,-1.19,214.97,-37.11,51.7
342,1778616042.788349,-0.07,-0.09,-0.11,214.97,-37.11,51.7
343,1778616042.79839,-0.07,-0.09,-0.11,-59.14,-338.13,59.45
344,1778616042.808417,-0.07,-0.09,-0.11,-59.14,-338.13,59.45
345,1778616042.818333,-0.07,-0.09,-0.11,-59.14,-338.13,59.45
346,1778616042.828373,-0.07,-0.09,-0.11,-59.14,-338.13,59.45
347,1778616042.8384151,0.04,0.1,0.22,40.34,-83.8,92.53
348,1778616042.848314,0.03,0.05,0.01,62.26,42.42,60.0
349,1778616042.858377,0.08,-0.09,-0.15,23.5,-2.62,-21.0
350,1778616042.868433,0.08,-0.09,-0.15,23.5,-2.62,-21.0
351,1778616042.87836,0.08,-0.09,-0.15,23.5,-2.62,-21.0
352,1778616042.8883939,0.08,-0.09,-0.15,23.5,-2.62,-21.0
353,1778616042.898433,0.08,-0.09,-0.15,23.5,-2.62,-21.0
354,1778616042.9083571,0.08,-0.09,-0.15,23.5,-2.62,-21.0
355,1778616042.9184158,0.08,-0.09,-0.15,23.5,-2.62,-21.0
356,1778616042.928441,0.08,-0.09,-0.15,23.5,-2.62,-21.0
357,1778616042.938345,0.08,-0.09,-0.15,23.5,-2.62,-21.0
358,1778616042.948401,0.05,-0.11,-0.02,60.42,-85.21,-24.6
359,1778616042.958432,-0.42,-6.3,1.34,-47.06,-116.09,548.83
360,1778616042.9683452,-0.42,-6.3,1.34,-47.06,-116.09,548.83
361,1778616042.978394,-0.42,-6.3,1.34,-47.06,-116.09,548.83
362,1778616042.988428,-1.66,-4.05,0.75,-47.06,-116.09,548.83
363,1778616042.998346,-1.66,-4.05,0.75,-6.35,36.56,-333.56
364,1778616043.008397,-1.66,-4.05,0.75,-6.35,36.56,-333.56
365,1778616043.0184388,-1.66,-4.05,0.75,-6.35,36.56,-333.56
366,1778616043.028345,-0.21,-0.6,0.18,177.19,150.63,5.8
367,1778616043.038382,-0.21,-0.6,0.18,177.19,150.63,5.8
368,1778616043.048415,-0.21,-0.6,0.18,177.19,150.63,5.8
369,1778616043.058321,-0.21,-0.6,0.18,177.19,150.63,5.8
370,1778616043.068363,-0.21,-0.6,0.18,177.19,150.63,5.8
371,1778616043.078408,-0.21,-0.6,0.18,177.19,150.63,5.8
372,1778616043.088344,-0.21,-0.6,0.18,177.19,150.63,5.8
373,1778616043.098389,-0.21,-0.6,0.18,177.19,150.63,5.8
374,1778616043.108396,-0.21,-0.6,0.18,177.19,150.63,5.8
375,1778616043.118318,-0.21,-0.6,0.18,177.19,150.63,5.8
376,1778616043.128362,-0.21,-0.6,0.18,177.19,150.63,5.8
377,1778616043.138411,-0.21,-0.6,0.18,177.19,150.63,5.8
378,1778616043.1483579,0.42,0.03,-0.69,388.92,230.16,72.94
379,1778616043.158432,0.42,0.03,-0.69,388.92,230.16,72.94
380,1778616043.168389,0.42,0.03,-0.69,388.92,230.16,72.94
381,1778616043.178436,0.42,0.03,-0.69,388.92,230.16,72.94
382,1778616043.188361,0.08,0.01,-0.38,-71.96,148.44,-74.28
383,1778616043.198377,0.08,0.01,-0.38,-71.96,148.44,-74.28
384,1778616043.208413,0.08,0.01,-0.38,-71.96,148.44,-74.28
385,1778616043.2183301,0.17,0.12,0.13,-71.96,148.44,-74.28
386,1778616043.2283788,0.17,0.12,0.13,-204.83,-134.28,-41.5
387,1778616043.2384121,0.17,0.12,0.13,-204.83,-134.28,-41.5
388,1778616043.248342,0.17,0.12,0.13,-204.83,-134.28,-41.5
389,1778616043.258396,0.17,0.1,0.2,-112.06,-67.99,-74.04
390,1778616043.2683961,0.17,0.1,0.2,-112.06,-67.99,-74.04
391,1778616043.278431,0.17,0.1,0.2,-112.06,-67.99,-74.04
392,1778616043.288332,0.17,0.1,0.2,-112.06,-67.99,-74.04
393,1778616043.2983449,0.16,-0.09,0.17,-119.02,-65.8,-17.64
394,1778616043.308367,0.16,-0.09,0.17,-119.02,-65.8,-17.64
395,1778616043.318408,0.16,-0.09,0.17,-119.02,-65.8,-17.64
396,1778616043.328403,0.16,-0.09,0.17,-119.02,-65.8,-17.64
397,1778616043.338426,0.29,-0.27,0.01,-172.67,-197.39,57.13
398,1778616043.348324,0.29,-0.27,0.01,-172.67,-197.39,57.13
399,1778616043.358356,0.29,-0.27,0.01,-172.67,-197.39,57.13
400,1778616043.368397,0.73,-0.99,0.11,-172.67,-197.39,57.13
401,1778616043.378421,0.73,-0.99,0.11,-149.9,-431.21,47.85
402,1778616043.388321,0.73,-0.99,0.11,-149.9,-431.21,47.85
403,1778616043.3983512,0.73,-0.99,0.11,-149.9,-431.21,47.85
404,1778616043.4083872,0.73,-0.99,0.11,-149.9,-431.21,47.85
405,1778616043.4184058,0.73,-0.99,0.11,-149.9,-431.21,47.85
406,1778616043.4284081,0.73,-0.99,0.11,-149.9,-431.21,47.85
407,1778616043.438417,0.73,-0.99,0.11,-149.9,-431.21,47.85
408,1778616043.44843,0.73,-0.99,0.11,-149.9,-431.21,47.85
409,1778616043.4583192,0.73,-0.99,0.11,-149.9,-431.21,47.85
410,1778616043.468369,0.73,-0.99,0.11,-149.9,-431.21,47.85
411,1778616043.4784179,-2.85,-2.45,-1.43,-4.21,-83.68,-99.98
412,1778616043.4883258,-2.85,-2.45,-1.43,-4.21,-83.68,-99.98
413,1778616043.4983208,-2.85,-2.45,-1.43,-4.21,-83.68,-99.98
414,1778616043.50835,-2.85,-2.45,-1.43,-4.21,-83.68,-99.98
415,1778616043.518372,-2.85,-2.45,-1.43,-4.21,-83.68,-99.98
416,1778616043.528404,-2.23,-1.11,-0.99,100.34,-79.47,2.99
417,1778616043.538432,-2.23,-1.11,-0.99,100.34,-79.47,2.99
418,1778616043.54833,-1.8,-0.4,-0.01,17.7,-343.99,168.46
419,1778616043.558382,-1.8,-0.4,-0.01,17.7,-343.99,168.46
420,1778616043.568403,-1.8,-0.4,-0.01,17.7,-343.99,168.46
421,1778616043.578432,0.01,-0.1,-0.39,17.7,-343.99,168.46
422,1778616043.588321,0.01,-0.1,-0.39,17.7,-343.99,168.46
423,1778616043.598336,0.01,-0.1,-0.39,17.7,-343.99,168.46
424,1778616043.608372,0.01,-0.1,-0.39,17.7,-343.99,168.46
425,1778616043.618381,0.01,-0.1,-0.39,17.7,-343.99,168.46
426,1778616043.628418,0.01,-0.1,-0.39,17.7,-343.99,168.46
427,1778616043.63844,0.01,-0.1,-0.39,17.7,-343.99,168.46
428,1778616043.648322,0.01,-0.1,-0.39,17.7,-343.99,168.46
429,1778616043.6583612,0.01,-0.1,-0.39,17.7,-343.99,168.46
430,1778616043.668409,-0.01,-0.07,0.05,151.06,229.49,-44.74
431,1778616043.678435,-0.01,-0.07,0.05,151.06,229.49,-44.74
432,1778616043.68834,0.05,0.09,0.02,153.14,128.11,-39.37
433,1778616043.6983209,0.05,0.09,0.02,153.14,128.11,-39.37
434,1778616043.708433,0.05,0.09,0.02,153.14,128.11,-39.37
435,1778616043.718347,0.14,0.09,0.13,106.38,53.22,-22.58
436,1778616043.728387,0.14,0.09,0.13,106.38,53.22,-22.58
437,1778616043.738423,0.14,0.09,0.13,106.38,53.22,-22.58
438,1778616043.7483299,0.14,0.09,0.13,106.38,53.22,-22.58
439,1778616043.7583349,0.17,-0.01,0.17,49.07,2.87,-32.59
440,1778616043.768383,0.17,-0.01,0.17,49.07,2.87,-32.59
441,1778616043.778392,0.17,-0.01,0.17,49.07,2.87,-32.59
442,1778616043.788426,0.17,-0.01,0.17,49.07,2.87,-32.59
443,1778616043.7984252,0.14,-0.03,-0.01,-37.66,-65.86,-0.37
444,1778616043.808318,0.14,-0.03,-0.01,-37.66,-65.86,-0.37
445,1778616043.81842,0.14,-0.03,-0.01,-37.66,-65.86,-0.37
446,1778616043.8284302,0.14,-0.03,-0.01,-37.66,-65.86,-0.37
447,1778616043.83841,0.06,0.04,-0.01,-65.31,-127.44,-30.52
448,1778616043.848329,0.06,0.04,-0.01,-65.31,-127.44,-30.52
449,1778616043.858367,0.06,0.04,-0.01,-65.31,-127.44,-30.52
450,1778616043.868412,0.03,0.06,-0.01,-57.92,-128.97,-68.73
451,1778616043.878342,0.03,0.06,-0.01,-57.92,-128.97,-68.73
452,1778616043.888392,0.03,0.06,-0.01,-57.92,-128.97,-68.73
453,1778616043.898439,0.03,0.06,-0.01,-57.92,-128.97,-68.73
454,1778616043.9083462,0.03,0.06,-0.01,-57.92,-128.97,-68.73
455,1778616043.9184058,0.03,0.06,-0.01,-57.92,-128.97,-68.73
456,1778616043.92832,0.03,0.06,-0.01,-57.92,-128.97,-68.73
457,1778616043.938345,0.03,0.06,-0.01,-57.92,-128.97,-68.73
458,1778616043.948415,0.03,0.06,-0.01,-57.92,-128.97,-68.73
459,1778616043.958358,0.03,0.06,-0.01,-57.92,-128.97,-68.73
460,1778616043.9684181,0.03,0.06,-0.01,-57.92,-128.97,-68.73
461,1778616043.978338,0.03,0.06,-0.01,-57.92,-128.97,-68.73
462,1778616043.988402,0.03,0.06,-0.01,-57.92,-128.97,-68.73
463,1778616043.998337,-0.69,-1.94,0.12,155.7,140.81,-100.16
464,1778616044.0083892,-0.69,-1.94,0.12,155.7,140.81,-100.16
465,1778616044.018313,-0.69,-1.94,0.12,155.7,140.81,-100.16
466,1778616044.028343,-0.58,-1.23,-0.53,200.62,247.92,197.08
467,1778616044.038398,-0.58,-1.23,-0.53,200.62,247.92,197.08
468,1778616044.0484369,-0.58,-1.23,-0.53,200.62,247.92,197.08
469,1778616044.058342,-0.18,-0.76,-0.29,200.62,247.92,197.08
470,1778616044.0683782,-0.18,-0.76,-0.29,-71.9,76.78,130.98
471,1778616044.078316,-0.18,-0.76,-0.29,-71.9,76.78,130.98
472,1778616044.0883489,-0.18,-0.76,-0.29,-71.9,76.78,130.98
473,1778616044.098368,-0.18,-0.76,-0.29,-71.9,76.78,130.98
474,1778616044.1084201,0.16,-0.15,-0.21,-13.37,-47.36,-26.0
475,1778616044.118328,0.16,-0.15,-0.21,-13.37,-47.36,-26.0
476,1778616044.128333,0.16,-0.15,-0.21,-13.37,-47.36,-26.0
477,1778616044.138363,0.16,-0.15,-0.21,-13.37,-47.36,-26.0
478,1778616044.148381,0.16,-0.15,-0.21,-13.37,-47.36,-26.0
479,1778616044.158417,0.16,-0.15,-0.21,-13.37,-47.36,-26.0
480,1778616044.168442,0.16,-0.15,-0.21,-13.37,-47.36,-26.0
481,1778616044.178334,0.16,-0.15,-0.21,-13.37,-47.36,-26.0
482,1778616044.1883578,0.07,0.14,0.05,-40.34,52.12,-58.47
483,1778616044.198379,0.07,0.14,0.05,-40.34,52.12,-58.47
484,1778616044.208396,0.07,0.14,0.05,-40.34,52.12,-58.47
485,1778616044.218401,0.09,0.16,0.01,-99.37,10.86,-53.83
486,1778616044.228429,0.09,0.16,0.01,-99.37,10.86,-53.83
487,1778616044.2383392,0.09,0.16,0.01,-99.37,10.86,-53.83
488,1778616044.2483442,0.09,0.16,0.01,-99.37,10.86,-53.83
489,1778616044.258383,0.07,0.14,0.02,-80.93,-33.63,-55.97
490,1778616044.268427,0.07,0.14,0.02,-80.93,-33.63,-55.97
491,1778616044.27832,0.07,0.14,0.02,-80.93,-33.63,-55.97
492,1778616044.2883341,0.07,0.15,0.05,-54.75,-61.52,-58.47
493,1778616044.298367,0.07,0.15,0.05,-54.75,-61.52,-58.47
494,1778616044.3083708,0.07,0.15,0.05,-54.75,-61.52,-58.47
495,1778616044.318343,0.07,0.15,0.05,-54.75,-61.52,-58.47
496,1778616044.3284202,0.22,0.13,0.16,-18.01,-142.09,-60.24
497,1778616044.3383849,0.22,0.13,0.16,-18.01,-142.09,-60.24
498,1778616044.348366,0.22,0.13,0.16,-18.01,-142.09,-60.24
499,1778616044.35839,0.22,0.13,0.16,-18.01,-142.09,-60.24
500,1778616044.3684218,0.46,-0.1,0.25,-161.13,-177.67,-9.4
501,1778616044.3784351,0.46,-0.1,0.25,-161.13,-177.67,-9.4
502,1778616044.3883362,0.46,-0.1,0.25,-161.13,-177.67,-9.4
503,1778616044.398359,0.46,-0.1,0.25,-161.13,-177.67,-9.4
504,1778616044.408383,0.21,-0.32,0.11,-211.0,-160.77,40.53
505,1778616044.418397,0.21,-0.32,0.11,-211.0,-160.77,40.53
506,1778616044.428425,0.21,-0.32,0.11,-211.0,-160.77,40.53
507,1778616044.438324,0.21,-0.32,0.11,-211.0,-160.77,40.53
508,1778616044.448339,0.21,-0.32,0.11,-211.0,-160.77,40.53
509,1778616044.458368,0.21,-0.32,0.11,-211.0,-160.77,40.53
510,1778616044.468377,0.21,-0.32,0.11,-211.0,-160.77,40.53
511,1778616044.4783711,0.21,-0.32,0.11,-211.0,-160.77,40.53
512,1778616044.48835,0.21,-0.32,0.11,-211.0,-160.77,40.53
513,1778616044.4983659,0.21,-0.32,0.11,-211.0,-160.77,40.53
514,1778616044.5083892,0.21,-0.32,0.11,-211.0,-160.77,40.53
515,1778616044.5184078,0.21,-0.32,0.11,-211.0,-160.77,40.53
516,1778616044.5284212,-0.65,0.13,0.05,-170.17,-212.52,89.05
517,1778616044.538441,-0.65,0.13,0.05,-170.17,-212.52,89.05
518,1778616044.548447,-0.65,0.13,0.05,-170.17,-212.52,89.05
519,1778616044.558348,-1.88,3.01,-0.34,152.1,-247.74,-12.51
520,1778616044.568371,-1.88,3.01,-0.34,152.1,-247.74,-12.51
521,1778616044.578388,-1.88,3.01,-0.34,152.1,-247.74,-12.51
522,1778616044.588438,0.15,0.77,0.4,-651.79,-49.99,-117.13
523,1778616044.598367,0.15,0.77,0.4,-651.79,-49.99,-117.13
524,1778616044.6084049,0.15,0.77,0.4,-651.79,-49.99,-117.13
525,1778616044.618421,0.15,0.77,0.4,-651.79,-49.99,-117.13
526,1778616044.628313,0.31,-0.02,-0.08,-651.79,-49.99,-117.13
527,1778616044.638326,0.31,-0.02,-0.08,-651.79,-49.99,-117.13
528,1778616044.648322,0.31,-0.02,-0.08,-651.79,-49.99,-117.13
529,1778616044.658376,0.31,-0.02,-0.08,-651.79,-49.99,-117.13
530,1778616044.668394,0.31,-0.02,-0.08,-651.79,-49.99,-117.13
531,1778616044.6784132,0.31,-0.02,-0.08,-651.79,-49.99,-117.13
532,1778616044.6883252,0.31,-0.02,-0.08,-651.79,-49.99,-117.13
533,1778616044.698358,0.31,-0.02,-0.08,-651.79,-49.99,-117.13
534,1778616044.708391,0.31,-0.02,-0.08,-651.79,-49.99,-117.13
535,1778616044.718387,0.06,0.08,0.05,302.67,69.95,57.68
536,1778616044.72842,0.06,0.08,0.05,302.67,69.95,57.68
537,1778616044.738323,0.11,0.01,0.07,140.01,-24.84,83.92
538,1778616044.748331,0.11,0.01,0.07,140.01,-24.84,83.92
539,1778616044.758361,0.11,0.01,0.07,140.01,-24.84,83.92
540,1778616044.7683861,0.12,-0.02,0.09,27.77,-84.35,123.29
541,1778616044.778399,0.12,-0.02,0.09,27.77,-84.35,123.29
542,1778616044.788411,0.12,-0.02,0.09,27.77,-84.35,123.29
543,1778616044.798437,0.12,-0.02,0.09,27.77,-84.35,123.29
544,1778616044.808322,0.07,-0.03,0.07,-22.03,-124.45,128.72
545,1778616044.81836,0.07,-0.03,0.07,-22.03,-124.45,128.72
546,1778616044.828393,0.07,-0.03,0.07,-22.03,-124.45,128.72
547,1778616044.8384361,0.07,-0.03,0.07,-22.03,-124.45,128.72
548,1778616044.8483388,0.07,-0.02,0.12,-39.98,-122.5,77.21
549,1778616044.858366,0.07,-0.02,0.12,-39.98,-122.5,77.21
550,1778616044.868381,0.07,-0.02,0.12,-39.98,-122.5,77.21
551,1778616044.878398,0.07,-0.02,0.12,-39.98,-122.5,77.21
552,1778616044.88842,-0.04,-0.02,0.05,-20.51,-84.84,-1.95
553,1778616044.898439,-0.04,-0.02,0.05,-20.51,-84.84,-1.95
554,1778616044.90835,-0.04,-0.02,0.05,-20.51,-84.84,-1.95
555,1778616044.918379,-0.04,-0.02,0.05,-20.51,-84.84,-1.95
556,1778616044.9283998,-0.72,-0.35,1.56,87.71,30.94,16.91
557,1778616044.9384232,-0.72,-0.35,1.56,87.71,30.94,16.91
558,1778616044.948443,-0.72,-0.35,1.56,87.71,30.94,16.91
559,1778616044.9583511,-0.72,-0.35,1.56,87.71,30.94,16.91
560,1778616044.9683719,-0.72,-0.35,1.56,87.71,30.94,16.91
561,1778616044.978413,-0.72,-0.35,1.56,87.71,30.94,16.91
562,1778616044.98832,-0.72,-0.35,1.56,87.71,30.94,16.91
563,1778616044.9983501,-0.72,-0.35,1.56,87.71,30.94,16.91
564,1778616045.008388,-0.72,-0.35,1.56,87.71,30.94,16.91
565,1778616045.018442,-0.72,-0.35,1.56,87.71,30.94,16.91
566,1778616045.028336,-0.72,-0.35,1.56,87.71,30.94,16.91
567,1778616045.0383842,-0.72,-0.35,1.56,87.71,30.94,16.91
568,1778616045.048424,-1.03,0.01,-0.84,491.76,134.52,135.44
569,1778616045.058344,-1.03,0.01,-0.84,491.76,134.52,135.44
570,1778616045.068373,-0.52,-0.22,0.02,491.76,134.52,135.44
571,1778616045.0784051,-0.52,-0.22,0.02,112.92,-57.68,93.2
572,1778616045.088313,-0.52,-0.22,0.02,112.92,-57.68,93.2
573,1778616045.098342,-0.52,-0.22,0.02,112.92,-57.68,93.2
574,1778616045.108355,-0.52,-0.22,0.02,112.92,-57.68,93.2
575,1778616045.118402,-0.26,-0.46,-0.07,69.7,-85.08,89.36
576,1778616045.1283488,-0.26,-0.46,-0.07,69.7,-85.08,89.36
577,1778616045.138402,-0.26,-0.46,-0.07,69.7,-85.08,89.36
578,1778616045.148316,-0.26,-0.46,-0.07,69.7,-85.08,89.36
579,1778616045.158438,-0.07,-0.35,0.24,24.66,84.35,14.59
580,1778616045.1683352,-0.07,-0.35,0.24,24.66,84.35,14.59
581,1778616045.178377,-0.07,-0.35,0.24,24.66,84.35,14.59
582,1778616045.188437,-0.07,-0.35,0.24,24.66,84.35,14.59
583,1778616045.1983218,-0.07,-0.35,0.24,24.66,84.35,14.59
584,1778616045.2083578,-0.07,-0.35,0.24,24.66,84.35,14.59
585,1778616045.2183921,-0.07,-0.35,0.24,24.66,84.35,14.59
586,1778616045.228422,-0.07,-0.35,0.24,24.66,84.35,14.59
587,1778616045.238357,0.12,-0.11,0.06,-62.93,116.33,-144.53
588,1778616045.248401,0.12,-0.11,0.06,-62.93,116.33,-144.53
589,1778616045.2584288,0.11,-0.23,0.12,-62.93,116.33,-144.53
590,1778616045.268358,0.11,-0.23,0.12,-92.65,14.71,-139.77
591,1778616045.278404,0.11,-0.23,0.12,-92.65,14.71,-139.77
592,1778616045.288333,0.11,-0.23,0.12,-92.65,14.71,-139.77
593,1778616045.29839,0.17,-0.37,0.27,-150.94,-27.59,-46.63
594,1778616045.308327,0.17,-0.37,0.27,-150.94,-27.59,-46.63
595,1778616045.318379,0.17,-0.37,0.27,-150.94,-27.59,-46.63
596,1778616045.328408,0.17,-0.37,0.27,-150.94,-27.59,-46.63
597,1778616045.338439,0.17,-0.37,0.27,-150.94,-27.59,-46.63
598,1778616045.348356,0.17,-0.37,0.27,-150.94,-27.59,-46.63
599,1778616045.358331,0.17,-0.37,0.27,-150.94,-27.59,-46.63
600,1778616045.3684008,-0.08,-0.46,0.58,-265.08,63.05,49.38
601,1778616045.37839,-3.54,0.79,-4.95,-99.37,90.33,213.38
602,1778616045.388405,-3.54,0.79,-4.95,-99.37,90.33,213.38
603,1778616045.398317,-3.54,0.79,-4.95,-99.37,90.33,213.38
604,1778616045.408345,-3.54,0.79,-4.95,-99.37,90.33,213.38
605,1778616045.41837,-6.75,3.2,-3.4,744.51,167.79,-128.72
606,1778616045.428407,-6.75,3.2,-3.4,744.51,167.79,-128.72
607,1778616045.438316,-6.75,3.2,-3.4,744.51,167.79,-128.72
608,1778616045.4483578,-6.75,3.2,-3.4,744.51,167.79,-128.72
609,1778616045.458391,-2.56,0.49,0.69,744.51,167.79,-128.72
610,1778616045.468436,-2.56,0.49,0.69,-408.69,226.68,-79.53
611,1778616045.4783528,-2.56,0.49,0.69,-408.69,226.68,-79.53
612,1778616045.488354,-2.56,0.49,0.69,-408.69,226.68,-79.53
613,1778616045.498402,-2.56,0.49,0.69,-408.69,226.68,-79.53
614,1778616045.508333,-2.56,0.49,0.69,-408.69,226.68,-79.53
615,1778616045.51839,-2.56,0.49,0.69,-408.69,226.68,-79.53
616,1778616045.5284321,-2.56,0.49,0.69,-408.69,226.68,-79.53
617,1778616045.538322,-2.56,0.49,0.69,-408.69,226.68,-79.53
618,1778616045.548352,-2.56,0.49,0.69,-408.69,226.68,-79.53
619,1778616045.558377,-2.56,0.49,0.69,-408.69,226.68,-79.53
620,1778616045.568406,-2.56,0.49,0.69,-408.69,226.68,-79.53
621,1778616045.578419,0.04,0.75,0.0,-423.83,183.59,121.09
622,1778616045.58832,0.04,0.75,0.0,-423.83,183.59,121.09
623,1778616045.598368,-0.07,0.63,-0.78,-423.83,183.59,121.09
624,1778616045.608396,-0.07,0.63,-0.78,-540.65,67.5,99.37
625,1778616045.618315,-0.07,0.63,-0.78,-540.65,67.5,99.37
626,1778616045.628326,-0.07,0.63,-0.78,-540.65,67.5,99.37
627,1778616045.6383622,-0.15,0.52,-0.94,103.33,4.58,0.92
628,1778616045.648412,-0.15,0.52,-0.94,103.33,4.58,0.92
629,1778616045.658328,-0.15,0.52,-0.94,103.33,4.58,0.92
630,1778616045.6683562,-0.15,0.52,-0.94,103.33,4.58,0.92
631,1778616045.678366,-0.15,0.52,-0.94,103.33,4.58,0.92
632,1778616045.688402,-0.15,0.52,-0.94,103.33,4.58,0.92
633,1778616045.6984189,-0.15,0.52,-0.94,103.33,4.58,0.92
634,1778616045.7083142,-0.15,0.52,-0.94,103.33,4.58,0.92
635,1778616045.718335,-0.15,0.52,-0.94,103.33,4.58,0.92
636,1778616045.728317,-0.15,0.52,-0.94,103.33,4.58,0.92
637,1778616045.738349,-0.15,0.52,-0.94,103.33,4.58,0.92
638,1778616045.748377,-0.15,0.52,-0.94,103.33,4.58,0.92
639,1778616045.758399,0.01,0.01,0.02,167.36,-80.32,-39.25
640,1778616045.7684212,0.01,0.01,0.02,167.36,-80.32,-39.25
641,1778616045.778311,0.01,0.01,0.02,167.36,-80.32,-39.25
642,1778616045.788346,0.01,0.01,0.02,167.36,-80.32,-39.25
643,1778616045.798371,0.26,-0.17,-0.47,149.17,-81.05,-46.81
644,1778616045.808398,0.26,-0.17,-0.47,149.17,-81.05,-46.81
645,1778616045.8183732,0.26,-0.17,-0.47,149.17,-81.05,-46.81
646,1778616045.828383,0.26,-0.17,-0.47,149.17,-81.05,-46.81
647,1778616045.838424,-0.13,0.07,0.14,-22.83,8.54,-34.91
648,1778616045.84833,-0.13,0.07,0.14,-22.83,8.54,-34.91
649,1778616045.85834,-0.13,0.07,0.14,-22.83,8.54,-34.91
650,1778616045.8683798,-1.22,0.6,-0.86,-22.83,8.54,-34.91
651,1778616045.878407,-1.22,0.6,-0.86,-337.95,240.17,69.95
652,1778616045.888403,-1.22,0.6,-0.86,-337.95,240.17,69.95
653,1778616045.898428,-1.22,0.6,-0.86,-337.95,240.17,69.95
654,1778616045.908352,-5.36,2.57,0.15,383.97,35.16,98.27
655,1778616045.918317,-5.36,2.57,0.15,383.97,35.16,98.27
656,1778616045.9284081,-5.36,2.57,0.15,383.97,35.16,98.27
657,1778616045.938334,-5.36,2.57,0.15,383.97,35.16,98.27
658,1778616045.948388,-2.16,0.21,-0.47,4.88,-16.17,24.54
659,1778616045.958431,-2.16,0.21,-0.47,4.88,-16.17,24.54
660,1778616045.968371,-2.16,0.21,-0.47,4.88,-16.17,24.54
661,1778616045.978435,-2.16,0.21,-0.47,4.88,-16.17,24.54
662,1778616045.9883819,-1.77,0.71,0.01,116.33,-28.32,36.62
663,1778616045.998425,-1.77,0.71,0.01,116.33,-28.32,36.62
664,1778616046.0083609,-1.77,0.71,0.01,116.33,-28.32,36.62
665,1778616046.01842,-1.77,0.71,0.01,116.33,-28.32,36.62
666,1778616046.028342,-1.77,0.71,0.01,116.33,-28.32,36.62
667,1778616046.038399,-1.77,0.71,0.01,116.33,-28.32,36.62
668,1778616046.04832,-1.77,0.71,0.01,116.33,-28.32,36.62
669,1778616046.058391,-1.77,0.71,0.01,116.33,-28.32,36.62
670,1778616046.068322,-1.77,0.71,0.01,116.33,-28.32,36.62
671,1778616046.0783749,-1.77,0.71,0.01,116.33,-28.32,36.62
672,1778616046.088417,-1.77,0.71,0.01,116.33,-28.32,36.62
673,1778616046.09834,-0.83,0.19,-0.02,-99.85,17.21,8.97
674,1778616046.1083992,0.2,-0.39,-1.64,-174.01,-648.93,31.86
675,1778616046.118312,0.2,-0.39,-1.64,-174.01,-648.93,31.86
676,1778616046.128363,0.2,-0.39,-1.64,-174.01,-648.93,31.86
677,1778616046.138423,0.03,0.02,0.33,141.72,-67.38,13.55
678,1778616046.1483362,0.03,0.02,0.33,141.72,-67.38,13.55
679,1778616046.158404,0.03,0.02,0.33,141.72,-67.38,13.55
680,1778616046.1683252,0.03,0.02,0.33,141.72,-67.38,13.55
681,1778616046.1783738,0.12,0.03,0.17,3.17,35.34,17.46
682,1778616046.188416,0.12,0.03,0.17,3.17,35.34,17.46
683,1778616046.1983218,0.12,0.03,0.17,3.17,35.34,17.46
684,1778616046.208374,0.12,0.03,0.17,3.17,35.34,17.46
685,1778616046.218431,0.12,0.03,0.17,3.17,35.34,17.46
686,1778616046.228412,0.12,0.03,0.17,3.17,35.34,17.46
687,1778616046.238316,0.12,0.03,0.17,3.17,35.34,17.46
688,1778616046.2483468,0.12,0.03,0.17,3.17,35.34,17.46
689,1778616046.258388,0.12,0.03,0.17,3.17,35.34,17.46
690,1778616046.268428,0.12,0.03,0.17,3.17,35.34,17.46
691,1778616046.2783291,0.12,0.03,0.17,3.17,35.34,17.46
692,1778616046.288376,-0.33,-0.02,-2.33,-54.5,-101.93,35.52
693,1778616046.2984161,-0.33,-0.02,-2.33,-54.5,-101.93,35.52
694,1778616046.308346,-0.33,-0.02,-2.33,-54.5,-101.93,35.52
695,1778616046.3184168,0.1,0.14,0.25,213.44,-144.04,-22.77
696,1778616046.328435,0.1,0.14,0.25,213.44,-144.04,-22.77
697,1778616046.338321,0.1,0.14,0.25,213.44,-144.04,-22.77
698,1778616046.3483908,0.1,0.14,0.25,213.44,-144.04,-22.77
699,1778616046.358437,-0.14,0.48,0.53,-20.63,33.57,-102.48
700,1778616046.3683589,-0.14,0.48,0.53,-20.63,33.57,-102.48
701,1778616046.378389,-0.14,0.48,0.53,-20.63,33.57,-102.48
702,1778616046.388433,-0.14,0.48,0.53,-20.63,33.57,-102.48
703,1778616046.398323,-6.67,0.72,1.28,-37.9,1030.58,-231.63
704,1778616046.408355,-6.67,0.72,1.28,-37.9,1030.58,-231.63
705,1778616046.418436,-6.67,0.72,1.28,-37.9,1030.58,-231.63
706,1778616046.428371,-6.67,0.72,1.28,-37.9,1030.58,-231.63
707,1778616046.43841,-2.06,0.53,0.03,-297.67,-230.41,-170.65
708,1778616046.448412,-2.06,0.53,0.03,-297.67,-230.41,-170.65
709,1778616046.458394,-2.06,0.53,0.03,-297.67,-230.41,-170.65
710,1778616046.468329,-0.03,0.14,-1.06,123.9,-240.36,55.24
711,1778616046.47838,-0.03,0.14,-1.06,123.9,-240.36,55.24
712,1778616046.4884071,-0.03,0.14,-1.06,123.9,-240.36,55.24
713,1778616046.4983418,-0.03,0.14,-1.06,123.9,-240.36,55.24
714,1778616046.50835,-0.24,0.26,0.16,102.54,33.45,26.31
715,1778616046.5183518,-0.24,0.26,0.16,102.54,33.45,26.31
716,1778616046.528349,-0.24,0.26,0.16,102.54,33.45,26.31
717,1778616046.5383732,-0.24,0.26,0.16,102.54,33.45,26.31
718,1778616046.548397,-0.24,0.26,0.16,102.54,33.45,26.31
719,1778616046.558429,-0.24,0.26,0.16,102.54,33.45,26.31
720,1778616046.568335,-0.24,0.26,0.16,102.54,33.45,26.31
721,1778616046.578348,-0.24,0.26,0.16,102.54,33.45,26.31
722,1778616046.588372,-0.24,0.26,0.16,102.54,33.45,26.31
723,1778616046.59839,-0.24,0.26,0.16,102.54,33.45,26.31
724,1778616046.6084192,-0.24,0.26,0.16,102.54,33.45,26.31
725,1778616046.618316,-0.29,0.12,0.03,231.57,-20.75,-5.19
726,1778616046.6283169,-0.29,0.12,0.03,117.55,34.48,-54.99
727,1778616046.638348,-0.29,0.12,0.03,117.55,34.48,-54.99
728,1778616046.6483588,0.03,0.02,0.16,23.99,106.02,-55.18
729,1778616046.658389,0.03,0.02,0.16,23.99,106.02,-55.18
730,1778616046.668421,0.03,0.02,0.16,23.99,106.02,-55.18
731,1778616046.678329,0.03,0.02,0.16,23.99,106.02,-55.18
732,1778616046.6883368,0.13,0.03,0.21,23.99,106.02,-55.18
733,1778616046.698368,0.13,0.03,0.21,-31.62,134.83,-24.41
734,1778616046.708378,0.13,0.03,0.21,-31.62,134.83,-24.41
735,1778616046.71842,0.13,0.03,0.21,-31.62,134.83,-24.41
736,1778616046.72831,0.13,0.03,0.21,-31.62,134.83,-24.41
737,1778616046.738328,0.13,0.03,0.21,-31.62,134.83,-24.41
738,1778616046.748352,0.13,0.03,0.21,-31.62,134.83,-24.41
739,1778616046.758398,0.13,0.03,0.21,-31.62,134.83,-24.41
740,1778616046.768416,0.13,0.03,0.21,-31.62,134.83,-24.41
741,1778616046.778434,0.13,0.03,0.21,-31.62,134.83,-24.41
742,1778616046.788328,0.13,0.03,0.21,-31.62,134.83,-24.41
743,1778616046.798327,0.13,0.03,0.21,-31.62,134.83,-24.41
744,1778616046.8083782,-0.45,-0.09,0.67,-244.81,201.35,-3.6
745,1778616046.818402,-0.45,-0.09,0.67,-244.81,201.35,-3.6
746,1778616046.828413,-0.45,-0.09,0.67,-244.81,201.35,-3.6
747,1778616046.8384352,-3.55,0.61,-4.94,-244.81,201.35,-3.6
748,1778616046.8483121,-3.55,0.61,-4.94,-61.34,-137.51,-173.46
749,1778616046.858334,-3.55,0.61,-4.94,-61.34,-137.51,-173.46
750,1778616046.868366,-3.55,0.61,-4.94,-61.34,-137.51,-173.46
751,1778616046.878411,-3.71,1.4,-0.38,342.22,-23.62,85.02
752,1778616046.88831,-3.71,1.4,-0.38,342.22,-23.62,85.02
753,1778616046.898325,-3.71,1.4,-0.38,342.22,-23.62,85.02
754,1778616046.90835,-3.71,1.4,-0.38,342.22,-23.62,85.02
755,1778616046.918407,-1.37,1.32,-0.14,36.74,-244.32,-157.41
756,1778616046.92831,-1.37,1.32,-0.14,36.74,-244.32,-157.41
757,1778616046.9383411,-1.37,1.32,-0.14,36.74,-244.32,-157.41
758,1778616046.948344,-1.37,1.32,-0.14,36.74,-244.32,-157.41
759,1778616046.958356,-3.12,1.61,0.05,-147.34,73.55,-5.13
760,1778616046.9683268,-3.12,1.61,0.05,-147.34,73.55,-5.13
761,1778616046.978351,-3.12,1.61,0.05,-147.34,73.55,-5.13
762,1778616046.988352,-3.12,1.61,0.05,-147.34,73.55,-5.13
763,1778616046.998367,-0.8,1.28,-0.12,69.09,-80.44,17.21
764,1778616047.0083158,-0.8,1.28,-0.12,69.09,-80.44,17.21
765,1778616047.018379,-0.8,1.28,-0.12,69.09,-80.44,17.21
766,1778616047.028424,-0.82,1.0,0.0,35.89,-110.05,38.51
767,1778616047.0383492,-0.82,1.0,0.0,35.89,-110.05,38.51
768,1778616047.0484202,-0.82,1.0,0.0,35.89,-110.05,38.51
769,1778616047.058317,-0.82,1.0,0.0,35.89,-110.05,38.51
770,1778616047.068363,-0.82,1.0,0.0,35.89,-110.05,38.51
771,1778616047.07844,-0.82,1.0,0.0,35.89,-110.05,38.51
772,1778616047.088374,-0.82,1.0,0.0,35.89,-110.05,38.51
773,1778616047.098401,-0.82,1.0,0.0,35.89,-110.05,38.51
774,1778616047.10833,-0.82,1.0,0.0,35.89,-110.05,38.51
775,1778616047.118403,-0.82,1.0,0.0,35.89,-110.05,38.51
776,1778616047.128331,-0.82,1.0,0.0,35.89,-110.05,38.51
777,1778616047.138376,-0.82,1.0,0.0,35.89,-110.05,38.51
778,1778616047.1484008,-0.17,-0.0,0.3,143.86,-46.14,40.47
779,1778616047.158336,-0.17,-0.0,0.3,143.86,-46.14,40.47
780,1778616047.1683788,-0.17,-0.0,0.3,143.86,-46.14,40.47
781,1778616047.178412,0.03,-0.06,0.14,23.8,-22.83,-22.71
782,1778616047.188332,0.03,-0.06,0.14,23.8,-22.83,-22.71
783,1778616047.198384,0.03,-0.06,0.14,23.8,-22.83,-22.71
784,1778616047.208441,0.03,-0.06,0.14,23.8,-22.83,-22.71
785,1778616047.218348,0.04,-0.08,0.07,16.72,-29.97,-81.36
786,1778616047.228367,0.04,-0.08,0.07,16.72,-29.97,-81.36
787,1778616047.238401,0.04,-0.08,0.07,16.72,-29.97,-81.36
788,1778616047.248436,0.04,-0.08,0.07,16.72,-29.97,-81.36
789,1778616047.258325,0.04,-0.08,0.07,16.72,-29.97,-81.36
790,1778616047.268357,0.04,-0.08,0.07,16.72,-29.97,-81.36
791,1778616047.27839,0.04,-0.08,0.07,16.72,-29.97,-81.36
792,1778616047.2884421,0.04,-0.08,0.07,16.72,-29.97,-81.36
793,1778616047.298334,0.04,-0.08,0.07,16.72,-29.97,-81.36
794,1778616047.308377,0.04,-0.08,0.07,16.72,-29.97,-81.36
795,1778616047.3184052,0.04,-0.08,0.07,16.72,-29.97,-81.36
796,1778616047.328406,0.04,-0.08,0.07,16.72,-29.97,-81.36
797,1778616047.338381,0.04,-0.03,-0.04,-186.77,-130.92,-65.61
798,1778616047.348406,0.04,-0.03,-0.04,-186.77,-130.92,-65.61
799,1778616047.3584352,0.04,-0.03,-0.04,-186.77,-130.92,-65.61
800,1778616047.368358,0.05,-0.04,-0.01,-173.16,-122.5,-91.19
801,1778616047.378401,0.05,-0.04,-0.01,-173.16,-122.5,-91.19
802,1778616047.3884218,0.05,-0.04,-0.01,-173.16,-122.5,-91.19
803,1778616047.3983202,0.05,-0.04,-0.01,-173.16,-122.5,-91.19
804,1778616047.408362,-4.87,-4.44,0.93,-10.31,1.77,354.31
805,1778616047.418394,-4.87,-4.44,0.93,-10.31,1.77,354.31
806,1778616047.428433,-4.87,-4.44,0.93,-10.31,1.77,354.31
807,1778616047.438349,-7.63,7.26,2.27,-100.89,-308.29,-219.18
808,1778616047.448402,-7.63,7.26,2.27,-100.89,-308.29,-219.18
809,1778616047.458318,-7.63,7.26,2.27,-100.89,-308.29,-219.18
810,1778616047.468354,-7.63,7.26,2.27,-100.89,-308.29,-219.18
811,1778616047.478367,-0.74,0.63,-0.56,872.44,338.56,44.07
812,1778616047.488429,-0.74,0.63,-0.56,872.44,338.56,44.07
813,1778616047.498424,-0.74,0.63,-0.56,872.44,338.56,44.07
814,1778616047.508385,-0.07,-0.04,0.14,-138.55,-215.7,-39.86
815,1778616047.518379,-0.07,-0.04,0.14,-138.55,-215.7,-39.86
816,1778616047.528414,-0.07,-0.04,0.14,-138.55,-215.7,-39.86
817,1778616047.5383139,-0.07,-0.04,0.14,-138.55,-215.7,-39.86
818,1778616047.5483332,0.03,-0.2,0.21,23.01,134.4,3.05
819,1778616047.558354,0.03,-0.2,0.21,23.01,134.4,3.05
820,1778616047.568393,0.03,-0.2,0.21,23.01,134.4,3.05
821,1778616047.578411,0.03,-0.2,0.21,23.01,134.4,3.05
822,1778616047.5884259,0.03,-0.2,0.21,23.01,134.4,3.05
823,1778616047.598443,0.03,-0.2,0.21,23.01,134.4,3.05
824,1778616047.6083431,0.03,-0.2,0.21,23.01,134.4,3.05
825,1778616047.618369,0.03,-0.2,0.21,23.01,134.4,3.05
826,1778616047.6283991,0.03,-0.2,0.21,23.01,134.4,3.05
827,1778616047.638432,0.03,-0.2,0.21,23.01,134.4,3.05
828,1778616047.648312,0.03,-0.2,0.21,23.01,134.4,3.05
829,1778616047.658357,0.03,-0.2,0.21,23.01,134.4,3.05
830,1778616047.668399,0.03,-0.01,0.02,5.8,95.15,-1.89
831,1778616047.678432,0.03,-0.01,0.02,5.8,95.15,-1.89
832,1778616047.688341,0.03,-0.01,0.02,5.8,95.15,-1.89
833,1778616047.698373,0.07,-0.01,0.11,18.92,49.99,4.46
834,1778616047.708388,0.07,-0.01,0.11,18.92,49.99,4.46
835,1778616047.718404,0.07,-0.01,0.11,18.92,49.99,4.46
836,1778616047.72843,0.07,-0.01,0.11,18.92,49.99,4.46
837,1778616047.7383292,0.01,0.1,0.18,-39.12,93.26,-9.52
838,1778616047.7483509,0.01,0.1,0.18,-39.12,93.26,-9.52
839,1778616047.758322,0.01,0.1,0.18,-39.12,93.26,-9.52
840,1778616047.768367,0.01,0.1,0.18,-39.12,93.26,-9.52
841,1778616047.778388,0.01,0.1,0.18,-39.12,93.26,-9.52
842,1778616047.788418,0.01,0.1,0.18,-39.12,93.26,-9.52
843,1778616047.7984178,0.01,0.1,0.18,-39.12,93.26,-9.52
844,1778616047.808314,0.01,0.1,0.18,-39.12,93.26,-9.52
845,1778616047.818421,0.01,0.1,0.18,-39.12,93.26,-9.52
846,1778616047.828332,0.01,0.1,0.18,-39.12,93.26,-9.52
847,1778616047.838336,0.01,0.1,0.18,-39.12,93.26,-9.52
848,1778616047.8483331,0.01,0.1,0.18,-39.12,93.26,-9.52
849,1778616047.858355,-1.78,-0.43,0.17,-209.41,64.82,-69.58
850,1778616047.8683782,-1.78,-0.43,0.17,-209.41,64.82,-69.58
851,1778616047.878413,-1.78,-0.43,0.17,-209.41,64.82,-69.58
852,1778616047.888327,-5.69,0.59,0.81,-209.41,64.82,-69.58
853,1778616047.8983622,-5.69,0.59,0.81,424.5,-51.21,-61.65
854,1778616047.908383,-5.69,0.59,0.81,424.5,-51.21,-61.65
855,1778616047.918427,-5.69,0.59,0.81,424.5,-51.21,-61.65
856,1778616047.928333,-1.06,2.01,0.6,424.5,-51.21,-61.65
857,1778616047.938368,-1.06,2.01,0.6,424.5,-51.21,-61.65
858,1778616047.9483478,-1.06,2.01,0.6,197.69,-237.49,-135.07
859,1778616047.9583738,-1.06,2.01,0.6,197.69,-237.49,-135.07
860,1778616047.96841,-2.22,1.08,0.07,-327.03,154.85,-42.18
861,1778616047.9783192,-2.22,1.08,0.07,-327.03,154.85,-42.18
862,1778616047.9883862,-2.22,1.08,0.07,-327.03,154.85,-42.18
863,1778616047.9984078,-1.99,1.91,0.51,-327.03,154.85,-42.18
864,1778616048.008317,-1.99,1.91,0.51,-327.03,154.85,-42.18
865,1778616048.018338,-1.99,1.91,0.51,-45.47,-149.11,-6.29
866,1778616048.0283678,-0.67,1.18,0.36,119.14,-229.31,-48.03
867,1778616048.038412,-0.67,1.18,0.36,119.14,-229.31,-48.03
868,1778616048.048314,-0.67,1.18,0.36,119.14,-229.31,-48.03
869,1778616048.05833,-0.67,1.18,0.36,119.14,-229.31,-48.03
870,1778616048.068377,-0.3,0.57,0.1,-121.03,-22.71,18.86
871,1778616048.078399,-0.3,0.57,0.1,-121.03,-22.71,18.86
872,1778616048.088424,-0.3,0.57,0.1,-121.03,-22.71,18.86
873,1778616048.0983438,-0.3,0.57,0.1,-121.03,-22.71,18.86
874,1778616048.1083899,-0.3,0.57,0.1,-121.03,-22.71,18.86
875,1778616048.118415,-0.3,0.57,0.1,-121.03,-22.71,18.86
876,1778616048.128336,-0.3,0.57,0.1,-121.03,-22.71,18.86
877,1778616048.138376,-0.3,0.57,0.1,-121.03,-22.71,18.86
878,1778616048.148331,-0.3,0.57,0.1,-121.03,-22.71,18.86
879,1778616048.1583622,-0.3,0.57,0.1,-121.03,-22.71,18.86
880,1778616048.168389,-0.3,0.57,0.1,-121.03,-22.71,18.86
881,1778616048.178401,-0.3,0.57,0.1,-121.03,-22.71,18.86
882,1778616048.188319,-0.3,0.57,0.1,-121.03,-22.71,18.86
883,1778616048.198375,0.05,0.15,-0.04,324.34,-204.83,5.8
884,1778616048.20843,0.05,0.15,-0.04,324.34,-204.83,5.8
885,1778616048.218364,0.08,0.12,0.07,355.41,-215.45,3.3
886,1778616048.228383,0.08,0.12,0.07,355.41,-215.45,3.3
887,1778616048.2383099,0.08,0.12,0.07,355.41,-215.45,3.3
888,1778616048.248352,0.08,0.12,0.07,355.41,-215.45,3.3
889,1778616048.258348,0.08,0.06,0.18,283.02,-172.06,3.78
890,1778616048.268372,0.08,0.06,0.18,283.02,-172.06,3.78
891,1778616048.278375,0.08,0.06,0.18,283.02,-172.06,3.78
892,1778616048.28839,0.05,0.0,0.1,283.02,-172.06,3.78
893,1778616048.298429,0.05,0.0,0.1,146.42,-106.14,18.8
894,1778616048.308356,0.05,0.0,0.1,146.42,-106.14,18.8
895,1778616048.3184159,0.05,0.0,0.1,146.42,-106.14,18.8
896,1778616048.328316,0.05,0.0,0.1,146.42,-106.14,18.8
897,1778616048.338337,0.05,0.0,0.1,146.42,-106.14,18.8
898,1778616048.348356,0.05,0.0,0.1,146.42,-106.14,18.8
899,1778616048.3583941,0.05,0.0,0.1,146.42,-106.14,18.8
900,1778616048.36831,0.05,0.0,0.1,146.42,-106.14,18.8
901,1778616048.3783412,0.05,0.0,0.1,146.42,-106.14,18.8
902,1778616048.388406,-0.13,0.14,-0.53,-443.48,275.39,-19.78
903,1778616048.398417,-7.65,8.0,-1.65,-443.48,275.39,-19.78
904,1778616048.4083269,-7.65,8.0,-1.65,230.47,185.18,1103.21
905,1778616048.4183612,-7.65,8.0,-1.65,230.47,185.18,1103.21
906,1778616048.428395,-7.65,8.0,-1.65,230.47,185.18,1103.21
907,1778616048.43843,-7.65,8.0,-1.65,230.47,185.18,1103.21
908,1778616048.448321,-0.68,1.16,0.34,447.33,-555.3,-143.86
909,1778616048.458356,-0.68,1.16,0.34,447.33,-555.3,-143.86
910,1778616048.468406,-0.68,1.16,0.34,447.33,-555.3,-143.86
911,1778616048.478434,0.0,0.09,0.52,249.45,-226.81,-146.3
912,1778616048.488343,0.0,0.09,0.52,249.45,-226.81,-146.3
913,1778616048.498373,0.0,0.09,0.52,249.45,-226.81,-146.3
914,1778616048.5083551,0.0,0.09,0.52,249.45,-226.81,-146.3
915,1778616048.518435,-0.11,0.03,0.06,90.7,1.4,-12.88
916,1778616048.528314,-0.11,0.03,0.06,90.7,1.4,-12.88
917,1778616048.538343,-0.11,0.03,0.06,90.7,1.4,-12.88
918,1778616048.548382,-0.11,0.1,0.15,90.7,1.4,-12.88
919,1778616048.5583518,-0.11,0.1,0.15,67.44,0.55,-20.02
920,1778616048.568424,-0.11,0.1,0.15,67.44,0.55,-20.02
921,1778616048.5784268,-0.11,0.1,0.15,67.44,0.55,-20.02
922,1778616048.588352,-0.11,0.1,0.15,67.44,0.55,-20.02
923,1778616048.5984058,-0.24,0.22,0.31,-18.8,104.8,33.57
924,1778616048.6083379,-0.24,0.22,0.31,-18.8,104.8,33.57
925,1778616048.6183739,-0.24,0.22,0.31,-18.8,104.8,33.57
926,1778616048.628392,-0.24,0.22,0.31,-18.8,104.8,33.57
927,1778616048.638313,-0.24,0.22,0.31,-18.8,104.8,33.57
928,1778616048.6483378,-0.24,0.22,0.31,-18.8,104.8,33.57
929,1778616048.658378,-0.24,0.22,0.31,-18.8,104.8,33.57
930,1778616048.668391,-0.24,0.22,0.31,-18.8,104.8,33.57
931,1778616048.678397,-0.24,0.22,0.31,-18.8,104.8,33.57
932,1778616048.688423,-0.24,0.22,0.31,-18.8,104.8,33.57
933,1778616048.698421,-0.24,0.22,0.31,-18.8,104.8,33.57
934,1778616048.708407,-0.24,0.22,0.31,-18.8,104.8,33.57
935,1778616048.718313,0.03,-0.02,0.02,-162.66,60.42,-37.66
936,1778616048.728429,0.03,-0.02,0.02,-162.66,60.42,-37.66
937,1778616048.738335,0.03,-0.04,0.05,-162.66,60.42,-37.66
938,1778616048.74836,0.03,-0.04,0.05,-135.99,59.33,-44.68
939,1778616048.758357,0.03,-0.04,0.05,-135.99,59.33,-44.68
940,1778616048.768349,0.03,-0.04,0.05,-135.99,59.33,-44.68
941,1778616048.778369,-3.41,1.04,0.43,-172.61,99.67,72.75
942,1778616048.788415,-3.41,1.04,0.43,-172.61,99.67,72.75
943,1778616048.79843,-3.41,1.04,0.43,-172.61,99.67,72.75
944,1778616048.8083332,-3.41,1.04,0.43,-172.61,99.67,72.75
945,1778616048.818389,-1.77,2.53,-0.15,-308.11,137.02,49.5
946,1778616048.828405,-1.77,2.53,-0.15,-308.11,137.02,49.5
947,1778616048.8383129,-1.77,2.53,-0.15,-308.11,137.02,49.5
948,1778616048.848347,-1.77,2.53,-0.15,-308.11,137.02,49.5
949,1778616048.858358,-1.77,2.53,-0.15,-308.11,137.02,49.5
950,1778616048.868363,-1.77,2.53,-0.15,-308.11,137.02,49.5
951,1778616048.8783932,-1.77,2.53,-0.15,-308.11,137.02,49.5
952,1778616048.8884091,-1.77,2.53,-0.15,-308.11,137.02,49.5
953,1778616048.898426,-1.77,2.53,-0.15,-308.11,137.02,49.5
954,1778616048.908329,-0.43,0.41,0.02,30.58,6.71,-108.52
955,1778616048.918358,-0.43,0.41,0.02,30.58,6.71,-108.52
956,1778616048.928372,-0.61,0.31,-0.06,73.12,2.44,-87.83
957,1778616048.9383879,-0.61,0.31,-0.06,73.12,2.44,-87.83
958,1778616048.948407,-0.61,0.31,-0.06,73.12,2.44,-87.83
959,1778616048.9583302,-0.61,0.31,-0.06,73.12,2.44,-87.83
960,1778616048.968391,-0.78,0.69,-0.14,135.86,-114.87,14.83
961,1778616048.978425,-0.78,0.69,-0.14,135.86,-114.87,14.83
962,1778616048.988367,-0.78,0.69,-0.14,135.86,-114.87,14.83
963,1778616048.998403,-0.78,0.69,-0.14,135.86,-114.87,14.83
964,1778616049.00842,-0.41,0.68,-0.01,225.28,-215.52,30.52
965,1778616049.0183191,-0.41,0.68,-0.01,225.28,-215.52,30.52
966,1778616049.0283341,-0.41,0.68,-0.01,225.28,-215.52,30.52
967,1778616049.038391,-0.41,0.68,-0.01,225.28,-215.52,30.52
968,1778616049.048408,-0.41,0.68,-0.01,225.28,-215.52,30.52
969,1778616049.058319,-0.41,0.68,-0.01,225.28,-215.52,30.52
970,1778616049.0683599,-0.41,0.68,-0.01,225.28,-215.52,30.52
971,1778616049.078398,-0.41,0.68,-0.01,225.28,-215.52,30.52
972,1778616049.088337,-0.41,0.68,-0.01,225.28,-215.52,30.52
973,1778616049.098389,-0.41,0.68,-0.01,225.28,-215.52,30.52
974,1778616049.108427,-0.41,0.68,-0.01,225.28,-215.52,30.52
975,1778616049.118315,-0.41,0.68,-0.01,225.28,-215.52,30.52
976,1778616049.128355,-1.29,1.38,0.12,75.56,42.48,20.32
977,1778616049.138378,-1.29,1.38,0.12,75.56,42.48,20.32
978,1778616049.148418,-1.29,1.38,0.12,75.56,42.48,20.32
979,1778616049.158336,-1.29,1.38,0.12,75.56,42.48,20.32
980,1778616049.168386,-1.29,1.38,0.12,75.56,42.48,20.32
981,1778616049.1783838,-1.29,1.38,0.12,75.56,42.48,20.32
982,1778616049.188432,-1.29,1.38,0.12,75.56,42.48,20.32
983,1778616049.198346,-1.29,1.38,0.12,75.56,42.48,20.32
984,1778616049.2083688,-1.29,1.38,0.12,75.56,42.48,20.32
985,1778616049.218397,-1.29,1.38,0.12,75.56,42.48,20.32
986,1778616049.2284238,-1.29,1.38,0.12,75.56,42.48,20.32
987,1778616049.238334,-0.8,0.54,-0.06,-163.82,170.96,-48.46
988,1778616049.248354,-0.8,0.54,-0.06,-163.82,170.96,-48.46
989,1778616049.258378,-0.8,0.54,-0.06,-163.82,170.96,-48.46
990,1778616049.268411,-0.8,0.54,-0.06,-163.82,170.96,-48.46
991,1778616049.278429,-0.8,0.54,-0.06,-163.82,170.96,-48.46
992,1778616049.288325,-0.89,0.47,-0.06,-163.33,128.66,-21.55
993,1778616049.298354,-0.89,0.47,-0.06,-163.33,128.66,-21.55
994,1778616049.308363,-0.81,0.56,-0.08,-163.33,128.66,-21.55
995,1778616049.3184052,-0.81,0.56,-0.08,-163.33,128.66,-21.55
996,1778616049.328313,-0.81,0.56,-0.08,-146.48,116.21,-19.53
997,1778616049.3383439,-0.81,0.56,-0.08,-146.48,116.21,-19.53
998,1778616049.3483598,-0.84,0.64,-0.09,-146.48,116.21,-19.53
999,1778616049.358398,-0.84,0.64,-0.09,-146.48,116.21,-19.53
1000,1778616049.3683982,-0.84,0.64,-0.09,-146.48,116.21,-19.53
1001,1778616049.378308,-0.84,0.64,-0.09,-146.48,116.21,-19.53
