id,timestamp,acc_x,acc_y,acc_z,gyro_x,gyro_y,gyro_z
1,1778612240.105427,0.41,-0.86,-0.38,27.83,5.0,5.0
2,1778612240.105442,0.41,-0.86,-0.38,27.83,5.0,5.0
3,1778612240.1133912,0.41,-0.86,-0.38,27.83,5.0,5.0
4,1778612240.123323,0.41,-0.86,-0.38,27.83,5.0,5.0
5,1778612240.1333709,0.56,-0.82,-0.35,21.36,-53.71,-4.21
6,1778612240.143338,0.56,-0.82,-0.35,21.36,-53.71,-4.21
7,1778612240.153373,0.56,-0.82,-0.35,21.36,-53.71,-4.21
8,1778612240.1633658,0.56,-0.82,-0.35,21.36,-53.71,-4.21
9,1778612240.173337,0.64,-0.83,-0.22,-2.75,-35.16,-5.98
10,1778612240.183274,0.64,-0.83,-0.22,-2.75,-35.16,-5.98
11,1778612240.193346,0.64,-0.83,-0.22,-2.75,-35.16,-5.98
12,1778612240.20328,0.64,-0.83,-0.22,-2.75,-35.16,-5.98
13,1778612240.213345,0.65,-0.87,-0.17,-12.7,7.45,-14.47
14,1778612240.223383,0.65,-0.87,-0.17,-12.7,7.45,-14.47
15,1778612240.233325,0.65,-0.87,-0.17,-12.7,7.45,-14.47
16,1778612240.243383,0.57,-0.9,-0.21,-1.28,34.61,-29.17
17,1778612240.2533069,0.57,-0.9,-0.21,-1.28,34.61,-29.17
18,1778612240.263382,0.57,-0.9,-0.21,-1.28,34.61,-29.17
19,1778612240.2733161,0.48,-0.83,-0.27,-1.28,34.61,-29.17
20,1778612240.283381,0.48,-0.83,-0.27,1.04,34.67,-37.41
21,1778612240.293301,0.48,-0.83,-0.27,1.04,34.67,-37.41
22,1778612240.30337,0.48,-0.83,-0.27,1.04,34.67,-37.41
23,1778612240.3133051,0.41,-0.82,-0.35,1.04,34.67,-37.41
24,1778612240.3233721,0.41,-0.82,-0.35,4.09,2.81,-49.26
25,1778612240.333301,0.41,-0.82,-0.35,4.09,2.81,-49.26
26,1778612240.343332,0.41,-0.82,-0.35,4.09,2.81,-49.26
27,1778612240.3533812,0.43,-0.86,-0.39,17.52,-53.1,-53.77
28,1778612240.363391,0.43,-0.86,-0.39,17.52,-53.1,-53.77
29,1778612240.3733,0.43,-0.86,-0.39,17.52,-53.1,-53.77
30,1778612240.383359,0.43,-0.86,-0.39,17.52,-53.1,-53.77
31,1778612240.393288,0.55,-0.92,-0.45,36.07,-86.79,-42.72
32,1778612240.403358,0.55,-0.92,-0.45,36.07,-86.79,-42.72
33,1778612240.413396,0.55,-0.92,-0.45,36.07,-86.79,-42.72
34,1778612240.4232981,0.55,-0.92,-0.45,36.07,-86.79,-42.72
35,1778612240.433341,0.29,-0.99,-0.35,66.53,7.45,-72.14
36,1778612240.443362,0.29,-0.99,-0.35,66.53,7.45,-72.14
37,1778612240.453283,0.29,-0.99,-0.35,66.53,7.45,-72.14
38,1778612240.4633322,0.29,-0.99,-0.35,66.53,7.45,-72.14
39,1778612240.4733791,0.29,-0.99,-0.35,66.53,7.45,-72.14
40,1778612240.4833212,0.29,-0.99,-0.35,66.53,7.45,-72.14
41,1778612240.4933429,0.29,-0.99,-0.35,66.53,7.45,-72.14
42,1778612240.503375,0.29,-0.99,-0.35,66.53,7.45,-72.14
43,1778612240.51328,0.29,-0.99,-0.35,66.53,7.45,-72.14
44,1778612240.52333,0.29,-0.99,-0.35,66.53,7.45,-72.14
45,1778612240.533365,-0.21,-0.78,-1.44,-362.92,455.44,118.29
46,1778612240.543287,-0.21,-0.78,-1.44,-362.92,455.44,118.29
47,1778612240.553317,-0.41,-1.32,-1.38,-407.9,369.75,53.89
48,1778612240.5633469,-0.41,-1.32,-1.38,-407.9,369.75,53.89
49,1778612240.573278,-0.41,-1.32,-1.38,-407.9,369.75,53.89
50,1778612240.583346,-0.41,-1.32,-1.38,-407.9,369.75,53.89
51,1778612240.5933912,0.37,-0.85,-1.27,-368.96,215.76,77.33
52,1778612240.603308,0.37,-0.85,-1.27,-368.96,215.76,77.33
53,1778612240.613346,0.37,-0.85,-1.27,-368.96,215.76,77.33
54,1778612240.6233869,0.37,-0.85,-1.27,-368.96,215.76,77.33
55,1778612240.633305,1.93,-1.35,-2.2,-416.93,168.88,54.5
56,1778612240.643337,1.93,-1.35,-2.2,-416.93,168.88,54.5
57,1778612240.653273,1.93,-1.35,-2.2,-416.93,168.88,54.5
58,1778612240.66332,3.35,-1.76,-2.1,-486.02,312.99,76.23
59,1778612240.673353,3.35,-1.76,-2.1,-486.02,312.99,76.23
60,1778612240.683394,3.35,-1.76,-2.1,-486.02,312.99,76.23
61,1778612240.693315,3.35,-1.76,-2.1,-486.02,312.99,76.23
62,1778612240.703377,3.71,-2.7,-0.57,-565.49,702.58,-22.03
63,1778612240.713286,3.71,-2.7,-0.57,-565.49,702.58,-22.03
64,1778612240.7233222,3.71,-2.7,-0.57,-565.49,702.58,-22.03
65,1778612240.733369,3.71,-2.7,-0.57,-565.49,702.58,-22.03
66,1778612240.743288,1.56,-3.54,0.54,-332.09,720.95,-148.99
67,1778612240.753354,1.56,-3.54,0.54,-332.09,720.95,-148.99
68,1778612240.763387,1.56,-3.54,0.54,-332.09,720.95,-148.99
69,1778612240.7733178,1.56,-3.54,0.54,-332.09,720.95,-148.99
70,1778612240.78336,2.08,-2.58,2.04,263.92,51.09,-239.62
71,1778612240.79338,2.08,-2.58,2.04,263.92,51.09,-239.62
72,1778612240.803306,2.08,-2.58,2.04,263.92,51.09,-239.62
73,1778612240.81338,2.08,-2.58,2.04,263.92,51.09,-239.62
74,1778612240.823309,2.75,-2.04,0.73,288.33,338.87,-149.11
75,1778612240.833378,2.75,-2.04,0.73,288.33,338.87,-149.11
76,1778612240.843344,2.75,-2.04,0.73,288.33,338.87,-149.11
77,1778612240.853276,2.75,-2.04,0.73,288.33,338.87,-149.11
78,1778612240.863324,2.5,-2.45,0.08,360.05,275.82,-194.52
79,1778612240.873281,2.5,-2.45,0.08,360.05,275.82,-194.52
80,1778612240.883316,2.5,-2.45,0.08,360.05,275.82,-194.52
81,1778612240.89327,2.19,-3.07,-0.55,432.13,141.6,-288.15
82,1778612240.903287,2.19,-3.07,-0.55,432.13,141.6,-288.15
83,1778612240.9133818,2.19,-3.07,-0.55,432.13,141.6,-288.15
84,1778612240.9233768,1.36,-2.87,-0.97,432.13,141.6,-288.15
85,1778612240.933273,1.36,-2.87,-0.97,398.93,71.66,-341.92
86,1778612240.943396,1.36,-2.87,-0.97,398.93,71.66,-341.92
87,1778612240.953284,1.36,-2.87,-0.97,398.93,71.66,-341.92
88,1778612240.963321,1.36,-2.87,-0.97,398.93,71.66,-341.92
89,1778612240.973363,1.36,-2.87,-0.97,398.93,71.66,-341.92
90,1778612240.9833941,1.36,-2.87,-0.97,398.93,71.66,-341.92
91,1778612240.993286,1.36,-2.87,-0.97,398.93,71.66,-341.92
92,1778612241.0033312,1.36,-2.87,-0.97,398.93,71.66,-341.92
93,1778612241.0133471,1.36,-2.87,-0.97,398.93,71.66,-341.92
94,1778612241.023381,1.36,-2.87,-0.97,398.93,71.66,-341.92
95,1778612241.033393,1.36,-2.87,-0.97,398.93,71.66,-341.92
96,1778612241.043296,1.36,-2.87,-0.97,398.93,71.66,-341.92
97,1778612241.053334,1.82,-2.21,-1.09,262.15,38.21,-293.95
98,1778612241.063358,0.95,-2.26,-0.99,198.24,186.46,-311.83
99,1778612241.0733,0.95,-2.26,-0.99,198.24,186.46,-311.83
100,1778612241.083331,-2.22,-1.94,-2.27,396.42,-294.07,-475.89
101,1778612241.093351,-2.22,-1.94,-2.27,396.42,-294.07,-475.89
102,1778612241.1032698,-2.22,-1.94,-2.27,396.42,-294.07,-475.89
103,1778612241.113306,-2.22,-1.94,-2.27,396.42,-294.07,-475.89
104,1778612241.123323,-3.24,-1.54,-1.83,193.24,-414.18,-253.6
105,1778612241.133355,-3.24,-1.54,-1.83,193.24,-414.18,-253.6
106,1778612241.143384,-3.24,-1.54,-1.83,193.24,-414.18,-253.6
107,1778612241.153269,-3.24,-1.54,-1.83,193.24,-414.18,-253.6
108,1778612241.163323,-4.44,-1.24,-1.5,144.41,-323.12,-31.25
109,1778612241.173388,-4.44,-1.24,-1.5,144.41,-323.12,-31.25
110,1778612241.183279,-4.44,-1.24,-1.5,144.41,-323.12,-31.25
111,1778612241.193311,-4.44,-1.24,-1.5,144.41,-323.12,-31.25
112,1778612241.203342,-2.92,0.42,-0.08,-244.57,167.91,147.89
113,1778612241.213365,-2.92,0.42,-0.08,-244.57,167.91,147.89
114,1778612241.223391,-2.92,0.42,-0.08,-244.57,167.91,147.89
115,1778612241.233288,-2.92,0.42,-0.08,-244.57,167.91,147.89
116,1778612241.243309,-5.65,-1.86,-0.47,-461.36,706.24,54.87
117,1778612241.253331,-5.65,-1.86,-0.47,-461.36,706.24,54.87
118,1778612241.263347,-5.65,-1.86,-0.47,-461.36,706.24,54.87
119,1778612241.273391,-5.65,-1.86,-0.47,-461.36,706.24,54.87
120,1778612241.2833002,-3.47,-3.79,-2.04,-151.25,-507.2,381.53
121,1778612241.293352,-3.47,-3.79,-2.04,-151.25,-507.2,381.53
122,1778612241.3033862,-3.47,-3.79,-2.04,-151.25,-507.2,381.53
123,1778612241.313271,-3.47,-3.79,-2.04,-151.25,-507.2,381.53
124,1778612241.323393,4.01,-3.4,-1.16,465.09,-1103.64,351.38
125,1778612241.3332841,4.01,-3.4,-1.16,465.09,-1103.64,351.38
126,1778612241.343385,4.01,-3.4,-1.16,465.09,-1103.64,351.38
127,1778612241.353371,1.46,-3.62,-1.35,212.34,204.53,441.28
128,1778612241.363286,1.46,-3.62,-1.35,212.34,204.53,441.28
129,1778612241.373319,1.46,-3.62,-1.35,212.34,204.53,441.28
130,1778612241.383272,1.46,-3.62,-1.35,212.34,204.53,441.28
131,1778612241.393336,-0.05,-4.37,0.1,-40.16,12.45,515.32
132,1778612241.4033868,-0.05,-4.37,0.1,-40.16,12.45,515.32
133,1778612241.4133189,-0.05,-4.37,0.1,-40.16,12.45,515.32
134,1778612241.423367,-0.05,-4.37,0.1,-40.16,12.45,515.32
135,1778612241.433295,1.74,-5.91,1.05,81.42,-272.46,553.1
136,1778612241.44336,1.74,-5.91,1.05,81.42,-272.46,553.1
137,1778612241.453283,1.74,-5.91,1.05,81.42,-272.46,553.1
138,1778612241.463317,1.74,-5.91,1.05,81.42,-272.46,553.1
139,1778612241.473363,3.05,-5.92,0.0,273.86,-231.69,619.63
140,1778612241.483392,3.05,-5.92,0.0,273.86,-231.69,619.63
141,1778612241.493289,3.05,-5.92,0.0,273.86,-231.69,619.63
142,1778612241.503339,3.05,-5.92,0.0,273.86,-231.69,619.63
143,1778612241.513373,3.05,-5.92,0.0,273.86,-231.69,619.63
144,1778612241.523394,3.05,-5.92,0.0,273.86,-231.69,619.63
145,1778612241.533283,3.05,-5.92,0.0,273.86,-231.69,619.63
146,1778612241.543294,3.05,-5.92,0.0,273.86,-231.69,619.63
147,1778612241.5533261,3.05,-5.92,0.0,273.86,-231.69,619.63
148,1778612241.5633469,3.05,-5.92,0.0,273.86,-231.69,619.63
149,1778612241.573324,2.6,-5.06,-1.91,383.61,202.03,415.83
150,1778612241.583374,2.6,-5.06,-1.91,383.61,202.03,415.83
151,1778612241.593297,3.95,-2.98,-4.77,196.04,109.44,560.12
152,1778612241.60335,3.95,-2.98,-4.77,196.04,109.44,560.12
153,1778612241.613389,3.95,-2.98,-4.77,196.04,109.44,560.12
154,1778612241.6233249,8.0,-1.34,-8.0,246.28,-447.45,196.47
155,1778612241.6333618,8.0,-1.34,-8.0,246.28,-447.45,196.47
156,1778612241.643332,8.0,-1.34,-8.0,246.28,-447.45,196.47
157,1778612241.653378,8.0,-1.34,-8.0,246.28,-447.45,196.47
158,1778612241.663316,8.0,-1.34,-8.0,246.28,-447.45,196.47
159,1778612241.673314,4.91,-4.7,-3.83,-401.37,406.92,-228.52
160,1778612241.68332,4.91,-4.7,-3.83,-401.37,406.92,-228.52
161,1778612241.693364,4.91,-4.7,-3.83,-401.37,406.92,-228.52
162,1778612241.703391,1.35,-4.88,-1.21,-104.25,136.23,-301.82
163,1778612241.713279,1.35,-4.88,-1.21,-104.25,136.23,-301.82
164,1778612241.723304,1.35,-4.88,-1.21,-104.25,136.23,-301.82
165,1778612241.73333,1.35,-4.88,-1.21,-104.25,136.23,-301.82
166,1778612241.743371,2.17,-2.69,-0.67,-105.71,225.95,-246.95
167,1778612241.753386,2.17,-2.69,-0.67,-105.71,225.95,-246.95
168,1778612241.763272,2.17,-2.69,-0.67,-105.71,225.95,-246.95
169,1778612241.773279,2.17,-2.69,-0.67,-105.71,225.95,-246.95
170,1778612241.783315,1.8,-2.4,-0.39,-69.89,75.26,-329.41
171,1778612241.793356,1.8,-2.4,-0.39,-69.89,75.26,-329.41
172,1778612241.803396,1.8,-2.4,-0.39,-69.89,75.26,-329.41
173,1778612241.8133068,1.79,-2.34,-0.38,-39.98,-61.83,-405.15
174,1778612241.8232782,1.79,-2.34,-0.38,-39.98,-61.83,-405.15
175,1778612241.833364,1.79,-2.34,-0.38,-39.98,-61.83,-405.15
176,1778612241.843368,1.79,-2.34,-0.38,-39.98,-61.83,-405.15
177,1778612241.8533802,1.33,-3.23,-0.33,-121.64,40.1,-442.81
178,1778612241.863269,1.33,-3.23,-0.33,-121.64,40.1,-442.81
179,1778612241.873309,1.33,-3.23,-0.33,-121.64,40.1,-442.81
180,1778612241.883351,1.33,-3.23,-0.33,-121.64,40.1,-442.81
181,1778612241.893381,0.75,-3.75,-0.03,-105.04,-22.89,-459.47
182,1778612241.903272,0.75,-3.75,-0.03,-105.04,-22.89,-459.47
183,1778612241.913397,0.75,-3.75,-0.03,-105.04,-22.89,-459.47
184,1778612241.923291,0.75,-3.75,-0.03,-105.04,-22.89,-459.47
185,1778612241.9332821,1.08,-3.5,-0.43,-114.5,-160.4,-490.48
186,1778612241.943341,1.08,-3.5,-0.43,-114.5,-160.4,-490.48
187,1778612241.953373,1.08,-3.5,-0.43,-114.5,-160.4,-490.48
188,1778612241.9633548,1.08,-3.5,-0.43,-114.5,-160.4,-490.48
189,1778612241.9732869,1.85,-3.77,-0.7,-187.68,-161.68,-554.69
190,1778612241.983354,1.85,-3.77,-0.7,-187.68,-161.68,-554.69
191,1778612241.993377,1.85,-3.77,-0.7,-187.68,-161.68,-554.69
192,1778612242.003283,1.85,-3.77,-0.7,-187.68,-161.68,-554.69
193,1778612242.013333,1.72,-4.26,-0.47,-217.16,-71.72,-603.03
194,1778612242.0232818,1.72,-4.26,-0.47,-217.16,-71.72,-603.03
195,1778612242.0333261,1.72,-4.26,-0.47,-217.16,-71.72,-603.03
196,1778612242.04336,1.72,-4.26,-0.47,-217.16,-71.72,-603.03
197,1778612242.0533912,1.72,-4.26,-0.47,-217.16,-71.72,-603.03
198,1778612242.063293,1.72,-4.26,-0.47,-217.16,-71.72,-603.03
199,1778612242.07331,1.72,-4.26,-0.47,-217.16,-71.72,-603.03
200,1778612242.083338,1.72,-4.26,-0.47,-217.16,-71.72,-603.03
201,1778612242.093382,1.72,-4.26,-0.47,-217.16,-71.72,-603.03
202,1778612242.103287,-4.38,-2.95,1.44,-209.66,64.94,-389.71
203,1778612242.113339,-4.38,-2.95,1.44,-209.66,64.94,-389.71
204,1778612242.123362,-6.99,-1.78,1.77,-157.65,-41.87,-54.69
205,1778612242.133369,-6.99,-1.78,1.77,-157.65,-41.87,-54.69
206,1778612242.1433961,-6.99,-1.78,1.77,-157.65,-41.87,-54.69
207,1778612242.153302,-6.99,-1.78,1.77,-157.65,-41.87,-54.69
208,1778612242.16333,-7.13,-1.06,2.45,-238.71,341.13,280.09
209,1778612242.1733482,-7.13,-1.06,2.45,-238.71,341.13,280.09
210,1778612242.1833751,-7.13,-1.06,2.45,-238.71,341.13,280.09
211,1778612242.193286,-7.13,-1.06,2.45,-238.71,341.13,280.09
212,1778612242.20331,-4.78,-1.01,2.11,-142.58,-0.67,450.81
213,1778612242.2133372,-4.78,-1.01,2.11,-142.58,-0.67,450.81
214,1778612242.223378,-4.78,-1.01,2.11,-142.58,-0.67,450.81
215,1778612242.233278,-4.78,-1.01,2.11,-142.58,-0.67,450.81
216,1778612242.243304,-1.88,-1.64,-0.23,278.26,-446.17,309.88
217,1778612242.253345,-1.88,-1.64,-0.23,278.26,-446.17,309.88
218,1778612242.263387,-1.88,-1.64,-0.23,278.26,-446.17,309.88
219,1778612242.2732859,-1.88,-1.64,-0.23,278.26,-446.17,309.88
220,1778612242.283317,-1.19,-2.35,-2.73,174.26,-271.12,245.61
221,1778612242.2933419,-1.19,-2.35,-2.73,174.26,-271.12,245.61
222,1778612242.3033779,-1.19,-2.35,-2.73,174.26,-271.12,245.61
223,1778612242.313269,-1.19,-2.35,-2.73,174.26,-271.12,245.61
224,1778612242.3233302,-1.35,-3.26,-0.15,80.69,-140.87,353.76
225,1778612242.333385,-1.35,-3.26,-0.15,80.69,-140.87,353.76
226,1778612242.3433979,-1.35,-3.26,-0.15,80.69,-140.87,353.76
227,1778612242.3532941,-1.35,-3.26,-0.15,80.69,-140.87,353.76
228,1778612242.363322,0.26,-4.28,-0.33,241.88,-237.37,325.26
229,1778612242.3733602,0.26,-4.28,-0.33,241.88,-237.37,325.26
230,1778612242.3833861,0.26,-4.28,-0.33,241.88,-237.37,325.26
231,1778612242.393286,0.26,-4.28,-0.33,241.88,-237.37,325.26
232,1778612242.403317,0.74,-4.27,-0.51,251.53,-88.01,378.05
233,1778612242.413328,0.74,-4.27,-0.51,251.53,-88.01,378.05
234,1778612242.423352,0.88,-4.41,-0.3,251.53,-88.01,378.05
235,1778612242.433384,0.88,-4.41,-0.3,219.12,-64.45,367.49
236,1778612242.443269,0.88,-4.41,-0.3,219.12,-64.45,367.49
237,1778612242.453297,0.88,-4.41,-0.3,219.12,-64.45,367.49
238,1778612242.463327,1.05,-4.61,-0.25,254.21,-44.31,341.06
239,1778612242.4733691,1.05,-4.61,-0.25,254.21,-44.31,341.06
240,1778612242.4833899,1.05,-4.61,-0.25,254.21,-44.31,341.06
241,1778612242.493282,1.05,-4.61,-0.25,254.21,-44.31,341.06
242,1778612242.503294,1.1,-4.21,-0.83,307.13,-45.65,292.91
243,1778612242.513323,1.1,-4.21,-0.83,307.13,-45.65,292.91
244,1778612242.523339,1.1,-4.21,-0.83,307.13,-45.65,292.91
245,1778612242.533314,1.1,-4.21,-0.83,307.13,-45.65,292.91
246,1778612242.543347,1.1,-4.21,-0.83,307.13,-45.65,292.91
247,1778612242.553271,1.1,-4.21,-0.83,307.13,-45.65,292.91
248,1778612242.563306,1.1,-4.21,-0.83,307.13,-45.65,292.91
249,1778612242.573364,1.1,-4.21,-0.83,307.13,-45.65,292.91
250,1778612242.583305,1.1,-4.21,-0.83,307.13,-45.65,292.91
251,1778612242.593344,1.1,-4.21,-0.83,307.13,-45.65,292.91
252,1778612242.6033778,1.1,-4.21,-0.83,307.13,-45.65,292.91
253,1778612242.6133,1.1,-4.21,-0.83,307.13,-45.65,292.91
254,1778612242.623376,8.0,-2.4,-5.48,-15.44,-203.31,371.15
255,1778612242.633297,8.0,-2.4,-5.48,-15.44,-203.31,371.15
256,1778612242.643351,8.0,-2.4,-5.48,-15.44,-203.31,371.15
257,1778612242.6532931,8.0,-2.4,-5.48,-15.44,-203.31,371.15
258,1778612242.663338,8.0,-2.4,-5.48,-15.44,-203.31,371.15
259,1778612242.673274,8.0,-2.4,-5.48,-15.44,-203.31,371.15
260,1778612242.683327,8.0,-2.4,-5.48,-15.44,-203.31,371.15
261,1778612242.693355,8.0,1.7,-8.0,-115.6,113.89,-335.45
262,1778612242.703267,2.86,-4.45,-0.32,-285.83,150.57,-164.79
263,1778612242.713289,2.86,-4.45,-0.32,-285.83,150.57,-164.79
264,1778612242.7233121,2.86,-4.45,-0.32,-285.83,150.57,-164.79
265,1778612242.733352,2.86,-4.45,-0.32,-285.83,150.57,-164.79
266,1778612242.743371,2.86,-4.45,-0.32,-285.83,150.57,-164.79
267,1778612242.753273,2.86,-4.45,-0.32,-285.83,150.57,-164.79
268,1778612242.7633028,2.86,-4.45,-0.32,-285.83,150.57,-164.79
269,1778612242.773351,2.86,-4.45,-0.32,-285.83,150.57,-164.79
270,1778612242.783392,2.86,-4.45,-0.32,-285.83,150.57,-164.79
271,1778612242.7932951,2.86,-4.45,-0.32,-285.83,150.57,-164.79
272,1778612242.8033128,2.86,-4.45,-0.32,-285.83,150.57,-164.79
273,1778612242.81335,2.86,-4.45,-0.32,-285.83,150.57,-164.79
274,1778612242.82328,2.59,-2.3,-0.66,110.72,169.19,-341.74
275,1778612242.833332,2.59,-2.3,-0.66,110.72,169.19,-341.74
276,1778612242.843352,2.12,-2.22,-0.91,110.72,169.19,-341.74
277,1778612242.8532732,2.12,-2.22,-0.91,89.11,144.78,-385.13
278,1778612242.8632882,2.12,-2.22,-0.91,89.11,144.78,-385.13
279,1778612242.8733199,2.12,-2.22,-0.91,89.11,144.78,-385.13
280,1778612242.883368,1.91,-3.04,-0.87,89.11,144.78,-385.13
281,1778612242.89327,1.91,-3.04,-0.87,23.07,126.59,-444.46
282,1778612242.903295,1.91,-3.04,-0.87,23.07,126.59,-444.46
283,1778612242.913314,1.91,-3.04,-0.87,23.07,126.59,-444.46
284,1778612242.9233122,1.63,-3.46,-0.99,123.6,116.03,-436.83
285,1778612242.933341,1.63,-3.46,-0.99,123.6,116.03,-436.83
286,1778612242.943365,1.63,-3.46,-0.99,123.6,116.03,-436.83
287,1778612242.953273,1.5,-3.25,-1.49,127.26,-2.26,-493.35
288,1778612242.9633012,1.5,-3.25,-1.49,127.26,-2.26,-493.35
289,1778612242.973366,1.5,-3.25,-1.49,127.26,-2.26,-493.35
290,1778612242.98327,1.5,-3.25,-1.49,127.26,-2.26,-493.35
291,1778612242.993398,1.62,-3.54,-1.47,44.92,37.41,-468.81
292,1778612243.003325,1.62,-3.54,-1.47,44.92,37.41,-468.81
293,1778612243.013348,1.62,-3.54,-1.47,44.92,37.41,-468.81
294,1778612243.023339,1.62,-3.54,-1.47,44.92,37.41,-468.81
295,1778612243.033342,1.39,-2.98,-1.81,57.43,23.32,-487.49
296,1778612243.0433438,1.39,-2.98,-1.81,57.43,23.32,-487.49
297,1778612243.0533729,1.39,-2.98,-1.81,57.43,23.32,-487.49
298,1778612243.063275,1.39,-2.98,-1.81,57.43,23.32,-487.49
299,1778612243.073317,1.39,-2.98,-1.81,57.43,23.32,-487.49
300,1778612243.083358,1.39,-2.98,-1.81,57.43,23.32,-487.49
301,1778612243.0933928,1.39,-2.98,-1.81,57.43,23.32,-487.49
302,1778612243.103371,1.39,-2.98,-1.81,57.43,23.32,-487.49
303,1778612243.113274,1.39,-2.98,-1.81,57.43,23.32,-487.49
304,1778612243.123318,1.39,-2.98,-1.81,57.43,23.32,-487.49
305,1778612243.133363,1.39,-2.98,-1.81,57.43,23.32,-487.49
306,1778612243.143397,1.39,-2.98,-1.81,57.43,23.32,-487.49
307,1778612243.153291,-6.48,-2.0,-1.02,-171.51,319.95,-70.74
308,1778612243.1633348,-6.48,-2.0,-1.02,-171.51,319.95,-70.74
309,1778612243.1733708,-7.32,-0.94,0.35,-171.51,319.95,-70.74
310,1778612243.1833951,-7.32,-0.94,0.35,-271.36,218.32,75.5
311,1778612243.193296,-7.32,-0.94,0.35,-271.36,218.32,75.5
312,1778612243.203307,-7.32,-0.94,0.35,-271.36,218.32,75.5
313,1778612243.213325,-5.7,-1.54,0.1,-132.08,-133.97,261.17
314,1778612243.223379,-5.7,-1.54,0.1,-132.08,-133.97,261.17
315,1778612243.233279,-5.7,-1.54,0.1,-132.08,-133.97,261.17
316,1778612243.243291,-5.7,-1.54,0.1,-132.08,-133.97,261.17
317,1778612243.2533429,-0.82,-1.99,-1.3,-132.08,-133.97,261.17
318,1778612243.263268,-0.82,-1.99,-1.3,190.55,-513.31,250.0
319,1778612243.273289,-0.82,-1.99,-1.3,190.55,-513.31,250.0
320,1778612243.283325,-0.82,-1.99,-1.3,190.55,-513.31,250.0
321,1778612243.293356,0.09,-1.72,-3.51,227.05,-340.03,210.75
322,1778612243.303379,0.09,-1.72,-3.51,227.05,-340.03,210.75
323,1778612243.313266,0.09,-1.72,-3.51,227.05,-340.03,210.75
324,1778612243.323297,0.09,-1.72,-3.51,227.05,-340.03,210.75
325,1778612243.333338,0.09,-1.72,-3.51,227.05,-340.03,210.75
326,1778612243.3433769,0.1,-2.6,-2.41,-52.0,-102.17,428.71
327,1778612243.353396,0.1,-2.6,-2.41,-52.0,-102.17,428.71
328,1778612243.363308,0.72,-3.26,-1.07,-52.0,-102.17,428.71
329,1778612243.373334,0.72,-3.26,-1.07,-87.4,-225.77,396.36
330,1778612243.3833768,0.72,-3.26,-1.07,-87.4,-225.77,396.36
331,1778612243.393288,0.72,-3.26,-1.07,-87.4,-225.77,396.36
332,1778612243.403305,1.13,-3.44,-0.34,80.26,-261.23,366.09
333,1778612243.4133382,1.13,-3.44,-0.34,80.26,-261.23,366.09
334,1778612243.423379,1.13,-3.44,-0.34,80.26,-261.23,366.09
335,1778612243.433302,1.13,-3.44,-0.34,80.26,-261.23,366.09
336,1778612243.4433331,1.09,-3.56,-0.64,148.07,-159.97,353.64
337,1778612243.4533691,1.09,-3.56,-0.64,148.07,-159.97,353.64
338,1778612243.463379,1.09,-3.56,-0.64,148.07,-159.97,353.64
339,1778612243.473266,1.09,-3.56,-0.64,148.07,-159.97,353.64
340,1778612243.4833229,1.25,-3.56,-0.75,143.31,-133.18,373.41
341,1778612243.493365,1.25,-3.56,-0.75,143.31,-133.18,373.41
342,1778612243.503387,1.25,-3.56,-0.75,143.31,-133.18,373.41
343,1778612243.513375,1.38,-3.22,-0.6,143.31,-133.18,373.41
344,1778612243.523339,1.38,-3.22,-0.6,127.44,-81.73,355.29
345,1778612243.533362,1.38,-3.22,-0.6,127.44,-81.73,355.29
346,1778612243.543388,1.38,-3.22,-0.6,127.44,-81.73,355.29
347,1778612243.553281,1.38,-3.22,-0.6,127.44,-81.73,355.29
348,1778612243.563324,1.7,-3.25,-0.9,129.09,40.04,385.19
349,1778612243.573375,1.7,-3.25,-0.9,129.09,40.04,385.19
350,1778612243.583297,1.7,-3.25,-0.9,129.09,40.04,385.19
351,1778612243.593347,1.7,-3.25,-0.9,129.09,40.04,385.19
352,1778612243.603272,1.7,-3.25,-0.9,129.09,40.04,385.19
353,1778612243.6133099,1.7,-3.25,-0.9,129.09,40.04,385.19
354,1778612243.6233659,1.7,-3.25,-0.9,129.09,40.04,385.19
355,1778612243.6332679,1.7,-3.25,-0.9,129.09,40.04,385.19
356,1778612243.6433148,1.7,-3.25,-0.9,129.09,40.04,385.19
357,1778612243.6533601,1.7,-3.25,-0.9,129.09,40.04,385.19
358,1778612243.6632671,1.7,-3.25,-0.9,129.09,40.04,385.19
359,1778612243.673377,8.0,-0.57,-1.15,64.88,-83.07,-37.9
360,1778612243.68334,8.0,-0.57,-1.15,64.88,-83.07,-37.9
361,1778612243.6933708,8.0,-0.57,-1.15,64.88,-83.07,-37.9
362,1778612243.7032871,8.0,-0.57,-1.15,64.88,-83.07,-37.9
363,1778612243.713297,6.49,-1.57,-2.26,39.86,61.22,-362.79
364,1778612243.7233238,6.49,-1.57,-2.26,39.86,61.22,-362.79
365,1778612243.733349,6.49,-1.57,-2.26,39.86,61.22,-362.79
366,1778612243.7433531,6.49,-1.57,-2.26,39.86,61.22,-362.79
367,1778612243.753334,3.76,-2.64,-0.88,-5.31,313.23,-240.72
368,1778612243.763349,3.76,-2.64,-0.88,-5.31,313.23,-240.72
369,1778612243.773392,3.76,-2.64,-0.88,-5.31,313.23,-240.72
370,1778612243.7832918,3.76,-2.64,-0.88,-5.31,313.23,-240.72
371,1778612243.793302,3.76,-2.64,-0.88,-5.31,313.23,-240.72
372,1778612243.803309,2.93,-2.17,-0.76,124.82,147.22,-330.75
373,1778612243.813347,2.93,-2.17,-0.76,124.82,147.22,-330.75
374,1778612243.823336,2.93,-2.17,-0.76,124.82,147.22,-330.75
375,1778612243.83331,2.12,-2.67,-0.16,34.24,110.41,-376.46
376,1778612243.843338,2.12,-2.67,-0.16,34.24,110.41,-376.46
377,1778612243.8533351,2.12,-2.67,-0.16,34.24,110.41,-376.46
378,1778612243.863348,2.12,-2.67,-0.16,34.24,110.41,-376.46
379,1778612243.873368,2.47,-3.45,0.05,38.15,350.46,-244.87
380,1778612243.8833852,2.47,-3.45,0.05,38.15,350.46,-244.87
381,1778612243.893292,2.47,-3.45,0.05,38.15,350.46,-244.87
382,1778612243.903317,2.47,-3.45,0.05,38.15,350.46,-244.87
383,1778612243.913301,1.96,-3.87,-1.01,265.56,260.19,-397.22
384,1778612243.923337,1.96,-3.87,-1.01,265.56,260.19,-397.22
385,1778612243.933367,1.96,-3.87,-1.01,265.56,260.19,-397.22
386,1778612243.943271,1.96,-3.87,-1.01,265.56,260.19,-397.22
387,1778612243.9533062,1.94,-4.2,-1.75,303.59,-89.6,-592.59
388,1778612243.963315,1.94,-4.2,-1.75,303.59,-89.6,-592.59
389,1778612243.973363,1.94,-4.2,-1.75,303.59,-89.6,-592.59
390,1778612243.983273,1.94,-4.2,-1.75,303.59,-89.6,-592.59
391,1778612243.993301,2.15,-4.66,-1.43,168.4,-104.37,-625.12
392,1778612244.0033438,2.15,-4.66,-1.43,168.4,-104.37,-625.12
393,1778612244.013392,2.15,-4.66,-1.43,168.4,-104.37,-625.12
394,1778612244.023286,1.63,-4.3,-1.72,168.4,-104.37,-625.12
395,1778612244.033302,1.63,-4.3,-1.72,27.77,191.41,-505.43
396,1778612244.04333,1.63,-4.3,-1.72,27.77,191.41,-505.43
397,1778612244.053344,1.63,-4.3,-1.72,27.77,191.41,-505.43
398,1778612244.063286,-1.49,-4.03,-2.5,87.46,144.9,-510.19
399,1778612244.073384,-1.49,-4.03,-2.5,87.46,144.9,-510.19
400,1778612244.083277,-1.49,-4.03,-2.5,87.46,144.9,-510.19
401,1778612244.093285,-1.49,-4.03,-2.5,87.46,144.9,-510.19
402,1778612244.103293,-6.34,-0.82,-1.31,-94.06,34.18,-59.45
403,1778612244.113272,-6.34,-0.82,-1.31,-94.06,34.18,-59.45
404,1778612244.123314,-6.34,-0.82,-1.31,-94.06,34.18,-59.45
405,1778612244.133336,-6.34,-0.82,-1.31,-94.06,34.18,-59.45
406,1778612244.143342,-6.34,-0.82,-1.31,-94.06,34.18,-59.45
407,1778612244.153366,-6.34,-0.82,-1.31,-94.06,34.18,-59.45
408,1778612244.1633868,-6.34,-0.82,-1.31,-94.06,34.18,-59.45
409,1778612244.1732879,-6.34,-0.82,-1.31,-94.06,34.18,-59.45
410,1778612244.183286,-6.34,-0.82,-1.31,-94.06,34.18,-59.45
411,1778612244.1933692,-6.34,-0.82,-1.31,-94.06,34.18,-59.45
412,1778612244.2033029,-7.19,1.11,0.61,-433.23,582.7,122.74
413,1778612244.213343,-7.19,1.11,0.61,-433.23,582.7,122.74
414,1778612244.223371,-4.73,-0.45,0.48,-1.89,-290.77,109.5
415,1778612244.233275,-4.73,-0.45,0.48,-1.89,-290.77,109.5
416,1778612244.2432919,-4.73,-0.45,0.48,-1.89,-290.77,109.5
417,1778612244.253323,-4.73,-0.45,0.48,-1.89,-290.77,109.5
418,1778612244.263347,-0.61,-0.79,-1.75,77.09,-465.21,148.5
419,1778612244.273377,-0.61,-0.79,-1.75,77.09,-465.21,148.5
420,1778612244.283384,-0.61,-0.79,-1.75,77.09,-465.21,148.5
421,1778612244.293389,-0.61,-0.79,-1.75,77.09,-465.21,148.5
422,1778612244.3032901,-0.57,-1.76,-1.94,88.44,-411.13,99.67
423,1778612244.31332,-0.57,-1.76,-1.94,88.44,-411.13,99.67
424,1778612244.323352,-0.57,-1.76,-1.94,88.44,-411.13,99.67
425,1778612244.3333828,-0.57,-1.76,-1.94,88.44,-411.13,99.67
426,1778612244.3433878,-0.31,-2.34,-1.4,-34.18,-154.3,352.23
427,1778612244.353292,-0.31,-2.34,-1.4,-34.18,-154.3,352.23
428,1778612244.363304,0.19,-2.71,-0.97,-110.47,-108.95,368.29
429,1778612244.373334,0.19,-2.71,-0.97,-110.47,-108.95,368.29
430,1778612244.3833752,0.19,-2.71,-0.97,-110.47,-108.95,368.29
431,1778612244.393279,0.19,-2.71,-0.97,-110.47,-108.95,368.29
432,1778612244.4033139,0.51,-3.0,-0.47,-42.36,-210.02,303.59
433,1778612244.413329,0.51,-3.0,-0.47,-42.36,-210.02,303.59
434,1778612244.42337,0.51,-3.0,-0.47,-42.36,-210.02,303.59
435,1778612244.4332669,0.51,-3.0,-0.47,-42.36,-210.02,303.59
436,1778612244.443319,0.82,-3.07,-0.8,31.98,-133.97,316.35
437,1778612244.453355,0.82,-3.07,-0.8,31.98,-133.97,316.35
438,1778612244.463377,0.82,-3.07,-0.8,31.98,-133.97,316.35
439,1778612244.473293,1.05,-2.95,-1.16,13.55,-116.82,323.73
440,1778612244.483341,1.05,-2.95,-1.16,13.55,-116.82,323.73
441,1778612244.493355,1.05,-2.95,-1.16,13.55,-116.82,323.73
442,1778612244.503273,1.05,-2.95,-1.16,13.55,-116.82,323.73
443,1778612244.513314,1.42,-2.62,-0.97,35.89,-93.26,321.96
444,1778612244.523338,1.42,-2.62,-0.97,35.89,-93.26,321.96
445,1778612244.533351,1.42,-2.62,-0.97,35.89,-93.26,321.96
446,1778612244.54338,1.42,-2.62,-0.97,35.89,-93.26,321.96
447,1778612244.553293,1.61,-1.69,-1.65,33.39,-18.74,371.15
448,1778612244.563333,1.61,-1.69,-1.65,33.39,-18.74,371.15
449,1778612244.573384,1.61,-1.69,-1.65,33.39,-18.74,371.15
450,1778612244.5833442,1.61,-1.69,-1.65,33.39,-18.74,371.15
451,1778612244.593269,2.38,-2.0,-1.78,-65.92,-132.08,348.14
452,1778612244.6033149,2.38,-2.0,-1.78,-65.92,-132.08,348.14
453,1778612244.613323,2.38,-2.0,-1.78,-65.92,-132.08,348.14
454,1778612244.623355,2.38,-2.0,-1.78,-65.92,-132.08,348.14
455,1778612244.633274,6.14,-1.56,-2.14,-23.13,-340.09,314.64
456,1778612244.64332,6.14,-1.56,-2.14,-23.13,-340.09,314.64
457,1778612244.6533601,6.14,-1.56,-2.14,-23.13,-340.09,314.64
458,1778612244.6633759,6.14,-1.56,-2.14,-23.13,-340.09,314.64
459,1778612244.6733902,6.14,-1.56,-2.14,-23.13,-340.09,314.64
460,1778612244.6833138,6.14,-1.56,-2.14,-23.13,-340.09,314.64
461,1778612244.693362,6.14,-1.56,-2.14,-23.13,-340.09,314.64
462,1778612244.703286,6.14,-1.56,-2.14,-23.13,-340.09,314.64
463,1778612244.7133172,6.14,-1.56,-2.14,-23.13,-340.09,314.64
464,1778612244.72337,6.38,-1.71,0.4,-23.38,-271.61,-201.05
465,1778612244.733293,6.38,-1.71,0.4,-23.38,-271.61,-201.05
466,1778612244.743315,5.25,-1.79,-0.99,-23.38,-271.61,-201.05
467,1778612244.7533572,5.25,-1.79,-0.99,59.14,126.46,-209.11
468,1778612244.763386,5.25,-1.79,-0.99,59.14,126.46,-209.11
469,1778612244.773389,5.25,-1.79,-0.99,59.14,126.46,-209.11
470,1778612244.783378,5.25,-1.79,-0.99,59.14,126.46,-209.11
471,1778612244.793314,3.23,-1.87,-2.03,106.63,123.78,-329.47
472,1778612244.803355,3.23,-1.87,-2.03,106.63,123.78,-329.47
473,1778612244.8132842,3.23,-1.87,-2.03,106.63,123.78,-329.47
474,1778612244.823319,2.32,-1.46,-0.99,55.24,46.2,-357.73
475,1778612244.833367,2.32,-1.46,-0.99,55.24,46.2,-357.73
476,1778612244.843372,2.32,-1.46,-0.99,55.24,46.2,-357.73
477,1778612244.853293,2.32,-1.46,-0.99,55.24,46.2,-357.73
478,1778612244.863334,2.27,-1.3,-0.83,62.32,157.47,-273.44
479,1778612244.873365,2.27,-1.3,-0.83,62.32,157.47,-273.44
480,1778612244.8833091,2.27,-1.3,-0.83,62.32,157.47,-273.44
481,1778612244.8933601,2.27,-1.3,-0.83,62.32,157.47,-273.44
482,1778612244.9032829,1.93,-1.84,-0.79,39.49,172.85,-313.23
483,1778612244.9133198,1.93,-1.84,-0.79,39.49,172.85,-313.23
484,1778612244.923379,1.93,-1.84,-0.79,39.49,172.85,-313.23
485,1778612244.933297,1.93,-1.84,-0.79,39.49,172.85,-313.23
486,1778612244.943326,1.88,-2.8,-0.32,0.49,124.76,-393.31
487,1778612244.953381,1.88,-2.8,-0.32,0.49,124.76,-393.31
488,1778612244.96327,1.88,-2.8,-0.32,0.49,124.76,-393.31
489,1778612244.9733171,1.88,-2.8,-0.32,0.49,124.76,-393.31
490,1778612244.983388,1.21,-2.99,-0.81,107.42,206.3,-418.88
491,1778612244.9933062,1.21,-2.99,-0.81,107.42,206.3,-418.88
492,1778612245.003358,1.21,-2.99,-0.81,107.42,206.3,-418.88
493,1778612245.0132852,0.89,-2.88,-1.1,107.42,206.3,-418.88
494,1778612245.023337,0.89,-2.88,-1.1,99.67,10.13,-478.15
495,1778612245.0333881,0.89,-2.88,-1.1,99.67,10.13,-478.15
496,1778612245.043371,0.89,-2.88,-1.1,99.67,10.13,-478.15
497,1778612245.053292,1.23,-3.15,-1.06,57.43,-60.06,-490.36
498,1778612245.063356,1.23,-3.15,-1.06,57.43,-60.06,-490.36
499,1778612245.073292,1.23,-3.15,-1.06,57.43,-60.06,-490.36
500,1778612245.08339,0.82,-2.97,-1.83,38.76,-82.7,-467.83
501,1778612245.093326,0.82,-2.97,-1.83,38.76,-82.7,-467.83
502,1778612245.1033869,0.82,-2.97,-1.83,38.76,-82.7,-467.83
503,1778612245.113385,0.82,-2.97,-1.83,38.76,-82.7,-467.83
504,1778612245.123324,-2.17,-2.4,-1.68,12.33,-299.38,-491.76
505,1778612245.133357,-2.17,-2.4,-1.68,12.33,-299.38,-491.76
506,1778612245.1433558,-2.17,-2.4,-1.68,12.33,-299.38,-491.76
507,1778612245.1533802,-2.17,-2.4,-1.68,12.33,-299.38,-491.76
508,1778612245.1632829,-2.17,-2.4,-1.68,12.33,-299.38,-491.76
509,1778612245.173335,-2.17,-2.4,-1.68,12.33,-299.38,-491.76
510,1778612245.183351,-2.17,-2.4,-1.68,12.33,-299.38,-491.76
511,1778612245.1933062,-2.17,-2.4,-1.68,12.33,-299.38,-491.76
512,1778612245.203367,-2.17,-2.4,-1.68,12.33,-299.38,-491.76
513,1778612245.213394,-2.17,-2.4,-1.68,12.33,-299.38,-491.76
514,1778612245.2233012,-2.17,-2.4,-1.68,12.33,-299.38,-491.76
515,1778612245.233328,-2.17,-2.4,-1.68,12.33,-299.38,-491.76
516,1778612245.243331,-3.76,3.06,0.57,-445.62,1010.38,264.89
517,1778612245.253351,-3.76,3.06,0.57,-445.62,1010.38,264.89
518,1778612245.263272,-3.76,3.06,0.57,-445.62,1010.38,264.89
519,1778612245.273313,-3.76,3.06,0.57,-445.62,1010.38,264.89
520,1778612245.283338,-5.23,0.47,-1.14,-121.15,-392.27,49.5
521,1778612245.293372,-5.23,0.47,-1.14,-121.15,-392.27,49.5
522,1778612245.303285,-5.23,0.47,-1.14,-121.15,-392.27,49.5
523,1778612245.313316,-5.23,0.47,-1.14,-121.15,-392.27,49.5
524,1778612245.323328,-0.16,-1.37,-0.23,292.42,-586.12,118.04
525,1778612245.333348,-0.16,-1.37,-0.23,292.42,-586.12,118.04
526,1778612245.3433778,-0.16,-1.37,-0.23,292.42,-586.12,118.04
527,1778612245.353282,-0.36,-1.47,-2.13,292.42,-586.12,118.04
528,1778612245.3633122,-0.36,-1.47,-2.13,53.04,18.86,269.41
529,1778612245.3733141,-0.36,-1.47,-2.13,53.04,18.86,269.41
530,1778612245.383338,-0.36,-1.47,-2.13,53.04,18.86,269.41
531,1778612245.393364,-0.2,-2.0,-1.44,-178.89,-100.34,326.78
532,1778612245.403271,-0.2,-2.0,-1.44,-178.89,-100.34,326.78
533,1778612245.413283,-0.2,-2.0,-1.44,-178.89,-100.34,326.78
534,1778612245.423326,-0.2,-2.0,-1.44,-178.89,-100.34,326.78
535,1778612245.433352,0.76,-2.56,-0.1,-203.67,-255.86,243.1
536,1778612245.443358,0.76,-2.56,-0.1,-203.67,-255.86,243.1
537,1778612245.453386,0.76,-2.56,-0.1,-203.67,-255.86,243.1
538,1778612245.463278,0.76,-2.56,-0.1,-203.67,-255.86,243.1
539,1778612245.4733188,0.76,-2.56,-0.1,-203.67,-255.86,243.1
540,1778612245.483341,0.76,-2.56,-0.1,-203.67,-255.86,243.1
541,1778612245.493357,0.76,-2.56,-0.1,-203.67,-255.86,243.1
542,1778612245.503371,0.76,-2.56,-0.1,-203.67,-255.86,243.1
543,1778612245.513388,0.76,-2.56,-0.1,-203.67,-255.86,243.1
544,1778612245.523316,0.76,-2.56,-0.1,-203.67,-255.86,243.1
545,1778612245.533346,0.76,-2.56,-0.1,-203.67,-255.86,243.1
546,1778612245.543385,0.83,-2.58,0.02,-29.85,-189.76,260.44
547,1778612245.5533922,1.61,-1.37,-1.23,155.7,-157.96,237.79
548,1778612245.563287,1.61,-1.37,-1.23,155.7,-157.96,237.79
549,1778612245.573312,1.61,-1.37,-1.23,155.7,-157.96,237.79
550,1778612245.5833228,1.61,-1.37,-1.23,155.7,-157.96,237.79
551,1778612245.593357,2.0,-0.91,-1.99,70.07,58.59,333.5
552,1778612245.603264,2.0,-0.91,-1.99,70.07,58.59,333.5
553,1778612245.613272,2.0,-0.91,-1.99,70.07,58.59,333.5
554,1778612245.6232839,2.0,-0.91,-1.99,70.07,58.59,333.5
555,1778612245.633329,4.91,0.14,-1.75,-158.81,-68.6,427.86
556,1778612245.643359,4.91,0.14,-1.75,-158.81,-68.6,427.86
557,1778612245.653295,4.91,0.14,-1.75,-158.81,-68.6,427.86
558,1778612245.66329,4.91,0.14,-1.75,-158.81,-68.6,427.86
559,1778612245.673352,6.84,-0.87,3.28,-203.86,191.77,123.96
560,1778612245.683278,6.84,-0.87,3.28,-203.86,191.77,123.96
561,1778612245.693266,6.84,-0.87,3.28,-203.86,191.77,123.96
562,1778612245.703386,6.84,-0.87,3.28,-203.86,191.77,123.96
563,1778612245.713393,6.84,-0.87,3.28,-203.86,191.77,123.96
564,1778612245.7232902,6.84,-0.87,3.28,-203.86,191.77,123.96
565,1778612245.733304,6.84,-0.87,3.28,-203.86,191.77,123.96
566,1778612245.743309,6.84,-0.87,3.28,-203.86,191.77,123.96
567,1778612245.75331,6.84,-0.87,3.28,-203.86,191.77,123.96
568,1778612245.7633421,6.84,-0.87,3.28,-203.86,191.77,123.96
569,1778612245.773369,2.38,-1.07,-0.05,-5.07,-56.58,-182.56
570,1778612245.783381,2.8,-0.78,1.22,51.03,-34.36,-49.93
571,1778612245.793277,2.8,-0.78,1.22,51.03,-34.36,-49.93
572,1778612245.803282,2.8,-0.78,1.22,51.03,-34.36,-49.93
573,1778612245.813331,2.8,-0.78,1.22,51.03,-34.36,-49.93
574,1778612245.823304,3.17,-0.75,0.49,104.92,224.79,41.81
575,1778612245.833309,3.17,-0.75,0.49,104.92,224.79,41.81
576,1778612245.843333,3.17,-0.75,0.49,104.92,224.79,41.81
577,1778612245.853357,3.17,-0.75,0.49,104.92,224.79,41.81
578,1778612245.863379,3.63,-0.65,-0.55,213.68,139.83,-19.23
579,1778612245.8732731,3.63,-0.65,-0.55,213.68,139.83,-19.23
580,1778612245.883285,3.63,-0.65,-0.55,213.68,139.83,-19.23
581,1778612245.893321,3.63,-0.65,-0.55,213.68,139.83,-19.23
582,1778612245.903369,3.78,-0.4,-0.49,156.74,-10.44,-197.63
583,1778612245.913383,3.78,-0.4,-0.49,156.74,-10.44,-197.63
584,1778612245.923266,3.78,-0.4,-0.49,156.74,-10.44,-197.63
585,1778612245.933287,2.91,-1.8,-0.11,117.0,67.02,-348.88
586,1778612245.943299,2.91,-1.8,-0.11,117.0,67.02,-348.88
587,1778612245.9533162,2.91,-1.8,-0.11,117.0,67.02,-348.88
588,1778612245.963315,2.91,-1.8,-0.11,117.0,67.02,-348.88
589,1778612245.973365,2.26,-2.69,-0.75,170.47,103.52,-422.0
590,1778612245.9833899,2.26,-2.69,-0.75,170.47,103.52,-422.0
591,1778612245.993276,2.26,-2.69,-0.75,170.47,103.52,-422.0
592,1778612246.003335,2.26,-2.69,-0.75,170.47,103.52,-422.0
593,1778612246.01336,1.64,-2.81,-1.1,200.99,118.29,-518.98
594,1778612246.02336,1.64,-2.81,-1.1,200.99,118.29,-518.98
595,1778612246.033271,1.64,-2.81,-1.1,200.99,118.29,-518.98
596,1778612246.043325,0.73,-3.18,-1.46,151.98,64.27,-526.06
597,1778612246.0533571,0.73,-3.18,-1.46,151.98,64.27,-526.06
598,1778612246.063265,0.73,-3.18,-1.46,151.98,64.27,-526.06
599,1778612246.07331,0.73,-3.18,-1.46,151.98,64.27,-526.06
600,1778612246.083275,1.01,-3.12,-1.66,155.03,-7.69,-455.38
601,1778612246.093314,1.01,-3.12,-1.66,155.03,-7.69,-455.38
602,1778612246.103384,1.01,-3.12,-1.66,155.03,-7.69,-455.38
603,1778612246.113299,-1.63,-2.19,-2.47,111.39,-13.85,-510.25
604,1778612246.123368,-1.63,-2.19,-2.47,111.39,-13.85,-510.25
605,1778612246.133327,-1.63,-2.19,-2.47,111.39,-13.85,-510.25
606,1778612246.14334,-1.63,-2.19,-2.47,111.39,-13.85,-510.25
607,1778612246.153363,-4.83,-1.27,-1.56,-92.22,-122.74,-227.48
608,1778612246.163381,-4.83,-1.27,-1.56,-92.22,-122.74,-227.48
609,1778612246.173395,-4.83,-1.27,-1.56,-92.22,-122.74,-227.48
610,1778612246.18333,-4.83,-1.27,-1.56,-92.22,-122.74,-227.48
611,1778612246.193345,-2.71,-0.39,-0.98,-183.35,-74.83,32.71
612,1778612246.2033112,-2.71,-0.39,-0.98,-183.35,-74.83,32.71
613,1778612246.213352,-2.71,-0.39,-0.98,-183.35,-74.83,32.71
614,1778612246.223277,-2.71,-0.39,-0.98,-183.35,-74.83,32.71
615,1778612246.233314,-2.71,-0.39,-0.98,-183.35,-74.83,32.71
616,1778612246.243331,-2.71,-0.39,-0.98,-183.35,-74.83,32.71
617,1778612246.2533739,-2.71,-0.39,-0.98,-183.35,-74.83,32.71
618,1778612246.263268,-2.71,-0.39,-0.98,-183.35,-74.83,32.71
619,1778612246.273298,-2.71,-0.39,-0.98,-183.35,-74.83,32.71
620,1778612246.283307,-2.71,-0.39,-0.98,-183.35,-74.83,32.71
621,1778612246.293341,-5.34,-0.26,2.5,-117.68,-380.8,42.48
622,1778612246.303374,-1.6,-1.36,-0.11,318.54,-513.92,94.54
623,1778612246.31327,-1.6,-1.36,-0.11,318.54,-513.92,94.54
624,1778612246.3233202,-1.6,-1.36,-0.11,318.54,-513.92,94.54
625,1778612246.3333619,-1.6,-1.36,-0.11,318.54,-513.92,94.54
626,1778612246.343272,-0.75,-1.77,-2.79,239.2,-328.8,162.17
627,1778612246.35329,-0.75,-1.77,-2.79,239.2,-328.8,162.17
628,1778612246.363311,-0.75,-1.77,-2.79,239.2,-328.8,162.17
629,1778612246.373332,-0.75,-1.77,-2.79,239.2,-328.8,162.17
630,1778612246.383348,-0.13,-2.28,-2.15,67.99,-193.36,296.69
631,1778612246.3933902,-0.13,-2.28,-2.15,67.99,-193.36,296.69
632,1778612246.403291,-0.13,-2.28,-2.15,67.99,-193.36,296.69
633,1778612246.4133172,-0.13,-2.28,-2.15,67.99,-193.36,296.69
634,1778612246.423358,0.68,-2.72,-1.24,-3.72,-96.19,358.89
635,1778612246.433276,0.68,-2.72,-1.24,-3.72,-96.19,358.89
636,1778612246.44331,0.68,-2.72,-1.24,-3.72,-96.19,358.89
637,1778612246.453342,1.16,-2.99,-0.56,-3.72,-96.19,358.89
638,1778612246.463378,1.16,-2.99,-0.56,5.74,-55.11,398.93
639,1778612246.473275,1.16,-2.99,-0.56,5.74,-55.11,398.93
640,1778612246.4833121,1.16,-2.99,-0.56,5.74,-55.11,398.93
641,1778612246.4933271,1.27,-2.71,-0.19,5.74,-55.11,398.93
642,1778612246.503384,1.27,-2.71,-0.19,31.01,-25.88,373.23
643,1778612246.513273,1.27,-2.71,-0.19,31.01,-25.88,373.23
644,1778612246.5233018,1.27,-2.71,-0.19,31.01,-25.88,373.23
645,1778612246.533334,1.19,-2.69,-0.55,78.74,-100.28,292.54
646,1778612246.543355,1.19,-2.69,-0.55,78.74,-100.28,292.54
647,1778612246.553356,1.19,-2.69,-0.55,78.74,-100.28,292.54
648,1778612246.563391,1.19,-2.69,-0.55,78.74,-100.28,292.54
649,1778612246.5732841,1.61,-1.99,-1.01,168.4,-198.79,224.0
650,1778612246.583305,1.61,-1.99,-1.01,168.4,-198.79,224.0
651,1778612246.5933151,1.61,-1.99,-1.01,168.4,-198.79,224.0
652,1778612246.603344,1.61,-1.99,-1.01,168.4,-198.79,224.0
653,1778612246.613389,1.88,-0.58,-2.25,165.47,-33.94,338.26
654,1778612246.623349,1.88,-0.58,-2.25,165.47,-33.94,338.26
655,1778612246.633282,1.88,-0.58,-2.25,165.47,-33.94,338.26
656,1778612246.643344,1.88,-0.58,-2.25,165.47,-33.94,338.26
657,1778612246.653387,3.38,-1.75,-2.16,-159.91,-109.01,425.35
658,1778612246.663321,3.38,-1.75,-2.16,-159.91,-109.01,425.35
659,1778612246.673331,3.38,-1.75,-2.16,-159.91,-109.01,425.35
660,1778612246.683378,3.38,-1.75,-2.16,-159.91,-109.01,425.35
661,1778612246.693391,5.94,-1.11,-0.2,-124.94,-56.58,336.0
662,1778612246.703305,5.94,-1.11,-0.2,-124.94,-56.58,336.0
663,1778612246.713314,5.94,-1.11,-0.2,-124.94,-56.58,336.0
664,1778612246.723354,5.19,-1.62,-0.52,-124.94,-56.58,336.0
665,1778612246.733269,5.19,-1.62,-0.52,-124.94,-56.58,336.0
666,1778612246.743293,5.19,-1.62,-0.52,-124.94,-56.58,336.0
667,1778612246.753322,5.19,-1.62,-0.52,-124.94,-56.58,336.0
668,1778612246.763386,5.19,-1.62,-0.52,-124.94,-56.58,336.0
669,1778612246.773277,5.19,-1.62,-0.52,-124.94,-56.58,336.0
670,1778612246.7833269,5.19,-1.62,-0.52,-124.94,-56.58,336.0
671,1778612246.793344,5.19,-1.62,-0.52,-124.94,-56.58,336.0
672,1778612246.8033621,5.19,-1.62,-0.52,-124.94,-56.58,336.0
673,1778612246.8132758,5.19,-1.62,-0.52,-124.94,-56.58,336.0
674,1778612246.823318,3.47,-1.77,-0.69,114.87,56.15,-207.64
675,1778612246.833371,3.47,-1.77,-0.69,114.87,56.15,-207.64
676,1778612246.843385,2.66,-1.35,-1.19,133.79,170.9,-200.07
677,1778612246.853287,2.66,-1.35,-1.19,133.79,170.9,-200.07
678,1778612246.863294,2.66,-1.35,-1.19,133.79,170.9,-200.07
679,1778612246.8733351,2.66,-1.35,-1.19,133.79,170.9,-200.07
680,1778612246.883378,2.64,-0.88,-0.64,105.83,168.21,-125.85
681,1778612246.893385,2.64,-0.88,-0.64,105.83,168.21,-125.85
682,1778612246.903306,2.64,-0.88,-0.64,105.83,168.21,-125.85
683,1778612246.913318,2.64,-0.88,-0.64,105.83,168.21,-125.85
684,1778612246.9233658,2.74,-1.1,-0.15,106.51,314.33,-102.48
685,1778612246.933276,2.74,-1.1,-0.15,106.51,314.33,-102.48
686,1778612246.943288,2.74,-1.1,-0.15,106.51,314.33,-102.48
687,1778612246.953312,2.74,-1.1,-0.15,106.51,314.33,-102.48
688,1778612246.963336,2.51,-2.1,-0.6,155.82,221.5,-278.99
689,1778612246.973346,2.51,-2.1,-0.6,155.82,221.5,-278.99
690,1778612246.9833758,2.51,-2.1,-0.6,155.82,221.5,-278.99
691,1778612246.993288,2.51,-2.1,-0.6,155.82,221.5,-278.99
692,1778612247.0033128,1.92,-2.91,-0.7,231.93,116.21,-426.33
693,1778612247.013366,1.92,-2.91,-0.7,231.93,116.21,-426.33
694,1778612247.023278,1.92,-2.91,-0.7,231.93,116.21,-426.33
695,1778612247.033309,1.92,-2.91,-0.7,231.93,116.21,-426.33
696,1778612247.0432692,1.31,-3.05,-1.04,229.8,58.35,-522.77
697,1778612247.053335,1.31,-3.05,-1.04,229.8,58.35,-522.77
698,1778612247.06339,1.31,-3.05,-1.04,229.8,58.35,-522.77
699,1778612247.07331,1.31,-3.05,-1.04,229.8,58.35,-522.77
700,1778612247.08338,0.99,-3.26,-1.18,119.63,-9.89,-517.88
701,1778612247.093285,0.99,-3.26,-1.18,119.63,-9.89,-517.88
702,1778612247.103352,0.99,-3.26,-1.18,119.63,-9.89,-517.88
703,1778612247.1132889,1.24,-2.94,-0.7,119.63,-9.89,-517.88
704,1778612247.1233568,1.24,-2.94,-0.7,91.25,-43.95,-469.97
705,1778612247.1332989,1.24,-2.94,-0.7,91.25,-43.95,-469.97
706,1778612247.143347,1.24,-2.94,-0.7,91.25,-43.95,-469.97
707,1778612247.1532748,1.7,-2.67,-1.84,67.5,16.78,-479.68
708,1778612247.163338,1.7,-2.67,-1.84,67.5,16.78,-479.68
709,1778612247.173383,1.7,-2.67,-1.84,67.5,16.78,-479.68
710,1778612247.1833138,1.7,-2.67,-1.84,67.5,16.78,-479.68
711,1778612247.1933749,-2.34,-1.57,-2.11,-72.51,599.12,-375.55
712,1778612247.20333,-2.34,-1.57,-2.11,-72.51,599.12,-375.55
713,1778612247.213378,-2.34,-1.57,-2.11,-72.51,599.12,-375.55
714,1778612247.2232928,-2.34,-1.57,-2.11,-72.51,599.12,-375.55
715,1778612247.233304,-4.67,0.34,-3.68,-118.16,-84.11,-294.56
716,1778612247.2433789,-4.67,0.34,-3.68,-118.16,-84.11,-294.56
717,1778612247.253309,-4.67,0.34,-3.68,-118.16,-84.11,-294.56
718,1778612247.263296,-4.67,0.34,-3.68,-118.16,-84.11,-294.56
719,1778612247.273291,-4.67,0.34,-3.68,-118.16,-84.11,-294.56
720,1778612247.283276,-4.67,0.34,-3.68,-118.16,-84.11,-294.56
721,1778612247.293298,-4.67,0.34,-3.68,-118.16,-84.11,-294.56
722,1778612247.303333,-4.67,0.34,-3.68,-118.16,-84.11,-294.56
723,1778612247.31334,-4.67,0.34,-3.68,-118.16,-84.11,-294.56
724,1778612247.323349,-4.67,0.34,-3.68,-118.16,-84.11,-294.56
725,1778612247.3333912,-4.67,0.34,-3.68,-118.16,-84.11,-294.56
726,1778612247.343284,-5.45,-1.24,-1.81,-67.38,-170.47,2.2
727,1778612247.353329,-0.59,-1.28,-1.62,17.03,-380.19,233.64
728,1778612247.36338,-0.59,-1.28,-1.62,17.03,-380.19,233.64
729,1778612247.373278,-0.59,-1.28,-1.62,17.03,-380.19,233.64
730,1778612247.38332,-0.59,-1.28,-1.62,17.03,-380.19,233.64
731,1778612247.3933241,0.49,-1.45,-1.84,9.64,-402.59,181.4
732,1778612247.403306,0.49,-1.45,-1.84,9.64,-402.59,181.4
733,1778612247.4133341,0.49,-1.45,-1.84,9.64,-402.59,181.4
734,1778612247.423362,0.49,-1.45,-1.84,9.64,-402.59,181.4
735,1778612247.433376,0.61,-2.13,-1.24,-24.29,-367.25,239.75
736,1778612247.443269,0.61,-2.13,-1.24,-24.29,-367.25,239.75
737,1778612247.453287,0.61,-2.13,-1.24,-24.29,-367.25,239.75
738,1778612247.463287,0.61,-2.13,-1.24,-24.29,-367.25,239.75
739,1778612247.473301,0.89,-2.42,-0.64,-74.83,-207.46,303.28
740,1778612247.48333,0.89,-2.42,-0.64,-74.83,-207.46,303.28
741,1778612247.4933708,0.89,-2.42,-0.64,-74.83,-207.46,303.28
742,1778612247.503378,0.89,-2.42,-0.64,-74.83,-207.46,303.28
743,1778612247.5133739,0.75,-2.44,-0.46,-47.61,-177.86,313.78
744,1778612247.523283,0.75,-2.44,-0.46,-47.61,-177.86,313.78
745,1778612247.5333078,0.75,-2.44,-0.46,-47.61,-177.86,313.78
746,1778612247.5433369,0.75,-2.54,-0.42,30.88,-230.29,260.13
747,1778612247.5533519,0.75,-2.54,-0.42,30.88,-230.29,260.13
748,1778612247.5633438,0.75,-2.54,-0.42,30.88,-230.29,260.13
749,1778612247.573353,0.75,-2.54,-0.42,30.88,-230.29,260.13
750,1778612247.583391,0.95,-2.68,-0.7,76.48,-172.67,292.97
751,1778612247.593299,0.95,-2.68,-0.7,76.48,-172.67,292.97
752,1778612247.603316,0.95,-2.68,-0.7,76.48,-172.67,292.97
753,1778612247.613329,0.95,-2.68,-0.7,76.48,-172.67,292.97
754,1778612247.623373,1.01,-2.49,-1.04,85.57,-136.41,339.9
755,1778612247.633291,1.01,-2.49,-1.04,85.57,-136.41,339.9
756,1778612247.643373,1.01,-2.49,-1.04,85.57,-136.41,339.9
757,1778612247.6533089,1.01,-2.49,-1.04,85.57,-136.41,339.9
758,1778612247.6633852,1.21,-2.63,-1.8,183.41,-246.64,327.09
759,1778612247.673301,1.21,-2.63,-1.8,183.41,-246.64,327.09
760,1778612247.683349,1.21,-2.63,-1.8,183.41,-246.64,327.09
761,1778612247.693266,1.21,-2.63,-1.8,183.41,-246.64,327.09
762,1778612247.703425,2.13,-2.95,-3.1,142.03,-294.37,329.71
763,1778612247.71332,2.13,-2.95,-3.1,142.03,-294.37,329.71
764,1778612247.723361,2.13,-2.95,-3.1,142.03,-294.37,329.71
765,1778612247.7332659,2.13,-2.95,-3.1,142.03,-294.37,329.71
766,1778612247.743298,6.01,-1.52,-2.4,36.8,-133.06,410.95
767,1778612247.7533069,6.01,-1.52,-2.4,36.8,-133.06,410.95
768,1778612247.763327,6.01,-1.52,-2.4,36.8,-133.06,410.95
769,1778612247.773348,6.01,-1.52,-2.4,36.8,-133.06,410.95
770,1778612247.783374,6.01,-1.52,-2.4,36.8,-133.06,410.95
771,1778612247.793273,6.01,-1.52,-2.4,36.8,-133.06,410.95
772,1778612247.8032892,6.01,-1.52,-2.4,36.8,-133.06,410.95
773,1778612247.813319,6.01,-1.52,-2.4,36.8,-133.06,410.95
774,1778612247.823308,6.01,-1.52,-2.4,36.8,-133.06,410.95
775,1778612247.833287,6.01,-1.52,-2.4,36.8,-133.06,410.95
776,1778612247.843294,6.01,-1.52,-2.4,36.8,-133.06,410.95
777,1778612247.853296,6.01,-1.52,-2.4,36.8,-133.06,410.95
778,1778612247.863323,6.01,-1.52,-2.4,36.8,-133.06,410.95
779,1778612247.873371,4.66,-1.54,-1.52,121.03,120.97,-219.24
780,1778612247.8832881,4.66,-1.54,-1.52,121.03,120.97,-219.24
781,1778612247.893353,3.05,-1.21,-1.64,72.14,198.91,-216.0
782,1778612247.903285,3.05,-1.21,-1.64,72.14,198.91,-216.0
783,1778612247.913329,3.05,-1.21,-1.64,72.14,198.91,-216.0
784,1778612247.923342,3.05,-1.21,-1.64,72.14,198.91,-216.0
785,1778612247.933362,3.05,-1.21,-1.64,72.14,198.91,-216.0
786,1778612247.943274,2.08,-1.35,-0.86,39.61,171.39,-210.39
787,1778612247.9533389,2.08,-1.35,-0.86,39.61,171.39,-210.39
788,1778612247.963291,2.08,-1.35,-0.86,39.61,171.39,-210.39
789,1778612247.973333,1.9,-1.55,0.11,7.81,58.96,-247.5
790,1778612247.983372,1.9,-1.55,0.11,7.81,58.96,-247.5
791,1778612247.993262,1.9,-1.55,0.11,7.81,58.96,-247.5
792,1778612248.003306,1.9,-1.55,0.11,7.81,58.96,-247.5
793,1778612248.013348,2.06,-2.87,1.5,-92.83,321.53,-85.02
794,1778612248.023376,2.06,-2.87,1.5,-92.83,321.53,-85.02
795,1778612248.033291,2.06,-2.87,1.5,-92.83,321.53,-85.02
796,1778612248.043332,2.06,-2.87,1.5,-92.83,321.53,-85.02
797,1778612248.053385,2.3,-3.59,0.6,243.04,444.52,-144.9
798,1778612248.063265,2.3,-3.59,0.6,243.04,444.52,-144.9
799,1778612248.0733,2.3,-3.59,0.6,243.04,444.52,-144.9
800,1778612248.0833228,2.3,-4.11,-1.99,490.48,242.37,-359.07
801,1778612248.0933619,2.3,-4.11,-1.99,490.48,242.37,-359.07
802,1778612248.103382,2.3,-4.11,-1.99,490.48,242.37,-359.07
803,1778612248.113285,2.3,-4.11,-1.99,490.48,242.37,-359.07
804,1778612248.123327,1.55,-4.31,-2.05,383.42,21.0,-491.76
805,1778612248.1333609,1.55,-4.31,-2.05,383.42,21.0,-491.76
806,1778612248.143265,1.55,-4.31,-2.05,383.42,21.0,-491.76
807,1778612248.153305,1.55,-4.31,-2.05,383.42,21.0,-491.76
808,1778612248.163337,2.22,-3.63,-2.41,383.42,21.0,-491.76
809,1778612248.1732638,2.22,-3.63,-2.41,353.94,-67.63,-573.18
810,1778612248.183309,2.22,-3.63,-2.41,353.94,-67.63,-573.18
811,1778612248.1933281,2.22,-3.63,-2.41,353.94,-67.63,-573.18
812,1778612248.2033842,1.58,-3.77,-3.06,139.53,-187.44,-821.23
813,1778612248.213282,1.58,-3.77,-3.06,139.53,-187.44,-821.23
814,1778612248.2233448,1.58,-3.77,-3.06,139.53,-187.44,-821.23
815,1778612248.233382,1.58,-3.77,-3.06,139.53,-187.44,-821.23
816,1778612248.243391,-2.78,-2.69,-1.4,38.39,-304.32,-665.04
817,1778612248.253282,-2.78,-2.69,-1.4,38.39,-304.32,-665.04
818,1778612248.263267,-2.78,-2.69,-1.4,38.39,-304.32,-665.04
819,1778612248.273268,-2.78,-2.69,-1.4,38.39,-304.32,-665.04
820,1778612248.283345,-6.88,-2.37,1.05,-130.86,36.32,-88.62
821,1778612248.29333,-6.88,-2.37,1.05,-130.86,36.32,-88.62
822,1778612248.3033001,-6.88,-2.37,1.05,-130.86,36.32,-88.62
823,1778612248.3133361,-6.88,-2.37,1.05,-130.86,36.32,-88.62
824,1778612248.3233259,-6.88,-2.37,1.05,-130.86,36.32,-88.62
825,1778612248.333339,-6.88,-2.37,1.05,-130.86,36.32,-88.62
826,1778612248.3432782,-6.88,-2.37,1.05,-130.86,36.32,-88.62
827,1778612248.353309,-6.88,-2.37,1.05,-130.86,36.32,-88.62
828,1778612248.3633192,-6.88,-2.37,1.05,-130.86,36.32,-88.62
829,1778612248.3733618,-6.88,-2.37,1.05,-130.86,36.32,-88.62
830,1778612248.383268,-6.88,-2.37,1.05,-130.86,36.32,-88.62
831,1778612248.393297,-2.49,-0.77,-1.81,59.63,-65.0,123.96
832,1778612248.40332,-2.49,-0.77,-1.81,187.56,-307.01,62.5
833,1778612248.413301,-2.49,-0.77,-1.81,187.56,-307.01,62.5
834,1778612248.423328,-2.49,-0.77,-1.81,187.56,-307.01,62.5
835,1778612248.433353,-1.2,-1.75,-1.82,45.04,-289.61,165.04
836,1778612248.44339,-1.2,-1.75,-1.82,45.04,-289.61,165.04
837,1778612248.453315,-1.2,-1.75,-1.82,45.04,-289.61,165.04
838,1778612248.463354,-0.37,-2.51,-1.08,45.04,-289.61,165.04
839,1778612248.473383,-0.37,-2.51,-1.08,6.53,-194.76,262.21
840,1778612248.483279,-0.37,-2.51,-1.08,6.53,-194.76,262.21
841,1778612248.4933271,-0.37,-2.51,-1.08,6.53,-194.76,262.21
842,1778612248.503344,0.6,-2.59,-1.13,-31.74,-166.38,363.95
843,1778612248.5133681,0.6,-2.59,-1.13,-31.74,-166.38,363.95
844,1778612248.523384,0.6,-2.59,-1.13,-31.74,-166.38,363.95
845,1778612248.533299,0.6,-2.59,-1.13,-31.74,-166.38,363.95
846,1778612248.543329,1.19,-2.63,-0.86,-22.22,-178.16,309.81
847,1778612248.55338,1.19,-2.63,-0.86,-22.22,-178.16,309.81
848,1778612248.5632691,1.19,-2.63,-0.86,-22.22,-178.16,309.81
849,1778612248.5733051,1.19,-2.63,-0.86,-22.22,-178.16,309.81
850,1778612248.583363,0.89,-2.74,-0.6,42.48,-86.36,312.19
851,1778612248.593389,0.89,-2.74,-0.6,42.48,-86.36,312.19
852,1778612248.603312,0.89,-2.74,-0.6,42.48,-86.36,312.19
853,1778612248.6133602,0.89,-2.74,-0.6,42.48,-86.36,312.19
854,1778612248.6232781,0.93,-2.69,-0.83,80.87,-94.85,351.26
855,1778612248.6333141,0.93,-2.69,-0.83,80.87,-94.85,351.26
856,1778612248.643326,0.93,-2.69,-0.83,80.87,-94.85,351.26
857,1778612248.653277,0.93,-2.69,-0.83,80.87,-94.85,351.26
858,1778612248.663351,1.04,-2.29,-1.3,96.86,-80.32,361.45
859,1778612248.673287,1.04,-2.29,-1.3,96.86,-80.32,361.45
860,1778612248.683326,1.04,-2.29,-1.3,96.86,-80.32,361.45
861,1778612248.693385,1.04,-2.29,-1.3,96.86,-80.32,361.45
862,1778612248.70333,3.26,-1.72,-2.14,51.82,-160.4,500.55
863,1778612248.7133498,3.26,-1.72,-2.14,51.82,-160.4,500.55
864,1778612248.723283,3.26,-1.72,-2.14,51.82,-160.4,500.55
865,1778612248.7333188,3.26,-1.72,-2.14,51.82,-160.4,500.55
866,1778612248.7433841,5.91,-1.83,2.31,-239.81,391.17,516.3
867,1778612248.753319,5.91,-1.83,2.31,-239.81,391.17,516.3
868,1778612248.763359,5.91,-1.83,2.31,-239.81,391.17,516.3
869,1778612248.773304,4.81,-1.07,1.5,40.47,183.96,252.87
870,1778612248.783335,4.81,-1.07,1.5,40.47,183.96,252.87
871,1778612248.793379,4.81,-1.07,1.5,40.47,183.96,252.87
872,1778612248.803296,4.81,-1.07,1.5,40.47,183.96,252.87
873,1778612248.813338,4.91,-1.06,1.67,34.24,-318.91,-113.34
874,1778612248.8232682,4.91,-1.06,1.67,34.24,-318.91,-113.34
875,1778612248.833314,4.91,-1.06,1.67,34.24,-318.91,-113.34
876,1778612248.84331,4.91,-1.06,1.67,34.24,-318.91,-113.34
877,1778612248.853339,4.91,-1.06,1.67,34.24,-318.91,-113.34
878,1778612248.8633542,4.91,-1.06,1.67,34.24,-318.91,-113.34
879,1778612248.873386,4.91,-1.06,1.67,34.24,-318.91,-113.34
880,1778612248.883313,4.91,-1.06,1.67,34.24,-318.91,-113.34
881,1778612248.893336,4.91,-1.06,1.67,34.24,-318.91,-113.34
882,1778612248.9033659,4.91,-1.06,1.67,34.24,-318.91,-113.34
883,1778612248.913381,4.91,-1.06,1.67,34.24,-318.91,-113.34
884,1778612248.9233868,4.32,-1.31,0.62,180.36,81.97,-114.2
885,1778612248.933291,4.32,-1.31,0.62,180.36,81.97,-114.2
886,1778612248.943317,4.32,-1.31,0.62,180.36,81.97,-114.2
887,1778612248.953355,4.32,-1.31,0.62,180.36,81.97,-114.2
888,1778612248.9633868,3.31,-1.24,0.15,269.9,73.85,-231.51
889,1778612248.9732878,3.31,-1.24,0.15,269.9,73.85,-231.51
890,1778612248.9833112,3.31,-1.24,0.15,269.9,73.85,-231.51
891,1778612248.993335,3.31,-1.24,0.15,269.9,73.85,-231.51
892,1778612249.003375,2.47,-1.8,-0.17,182.19,157.17,-259.64
893,1778612249.013386,2.47,-1.8,-0.17,182.19,157.17,-259.64
894,1778612249.023272,2.47,-1.8,-0.17,182.19,157.17,-259.64
895,1778612249.033323,2.47,-1.8,-0.17,182.19,157.17,-259.64
896,1778612249.043348,2.09,-2.63,-0.02,206.42,270.69,-227.54
897,1778612249.053361,2.09,-2.63,-0.02,206.42,270.69,-227.54
898,1778612249.063265,2.09,-2.63,-0.02,206.42,270.69,-227.54
899,1778612249.0733051,2.09,-2.63,-0.02,206.42,270.69,-227.54
900,1778612249.083353,1.92,-3.08,-1.35,378.97,225.95,-288.27
901,1778612249.093317,1.92,-3.08,-1.35,378.97,225.95,-288.27
902,1778612249.103272,1.92,-3.08,-1.35,378.97,225.95,-288.27
903,1778612249.113305,1.92,-3.08,-1.35,378.97,225.95,-288.27
904,1778612249.123373,1.65,-3.14,-2.07,363.71,-64.82,-503.66
905,1778612249.133301,1.65,-3.14,-2.07,363.71,-64.82,-503.66
906,1778612249.1433349,1.65,-3.14,-2.07,363.71,-64.82,-503.66
907,1778612249.153294,1.65,-3.14,-2.07,363.71,-64.82,-503.66
908,1778612249.1633532,1.69,-3.42,-1.52,205.51,96.92,-531.07
909,1778612249.173271,1.69,-3.42,-1.52,205.51,96.92,-531.07
910,1778612249.1833138,1.69,-3.42,-1.52,205.51,96.92,-531.07
911,1778612249.1933591,1.69,-3.42,-1.52,205.51,96.92,-531.07
912,1778612249.203292,0.9,-2.84,-3.1,85.63,399.05,-270.87
913,1778612249.213344,0.9,-2.84,-3.1,85.63,399.05,-270.87
914,1778612249.223278,0.9,-2.84,-3.1,85.63,399.05,-270.87
915,1778612249.233311,-2.86,-0.07,-3.98,112.73,112.55,-399.72
916,1778612249.243366,-2.86,-0.07,-3.98,112.73,112.55,-399.72
917,1778612249.253302,-2.86,-0.07,-3.98,112.73,112.55,-399.72
918,1778612249.263359,-2.86,-0.07,-3.98,112.73,112.55,-399.72
919,1778612249.273302,-3.62,-0.01,-1.27,-159.3,-87.52,-141.6
920,1778612249.28334,-3.62,-0.01,-1.27,-159.3,-87.52,-141.6
921,1778612249.293279,-3.62,-0.01,-1.27,-159.3,-87.52,-141.6
922,1778612249.303328,-3.62,-0.01,-1.27,-159.3,-87.52,-141.6
923,1778612249.313279,-3.18,1.59,0.35,-107.85,68.05,-92.22
924,1778612249.3233721,-3.18,1.59,0.35,-107.85,68.05,-92.22
925,1778612249.333319,-3.18,1.59,0.35,-107.85,68.05,-92.22
926,1778612249.343298,-3.18,1.59,0.35,-107.85,68.05,-92.22
927,1778612249.353334,-3.18,1.59,0.35,-107.85,68.05,-92.22
928,1778612249.363285,-3.18,1.59,0.35,-107.85,68.05,-92.22
929,1778612249.3733408,-3.18,1.59,0.35,-107.85,68.05,-92.22
930,1778612249.3833358,-3.18,1.59,0.35,-107.85,68.05,-92.22
931,1778612249.393291,-3.18,1.59,0.35,-107.85,68.05,-92.22
932,1778612249.40336,-3.18,1.59,0.35,-107.85,68.05,-92.22
933,1778612249.4133701,-3.18,1.59,0.35,-107.85,68.05,-92.22
934,1778612249.423271,-3.18,1.59,0.35,-107.85,68.05,-92.22
935,1778612249.4332988,-3.18,1.59,0.35,-107.85,68.05,-92.22
936,1778612249.44332,0.62,0.22,-3.62,70.13,-348.21,197.88
937,1778612249.453356,0.62,0.22,-3.62,70.13,-348.21,197.88
938,1778612249.463375,0.62,0.22,-3.62,70.13,-348.21,197.88
939,1778612249.4732742,0.14,-1.06,-1.63,-89.72,-353.09,50.78
940,1778612249.483289,0.14,-1.06,-1.63,-89.72,-353.09,50.78
941,1778612249.4933162,0.14,-1.06,-1.63,-89.72,-353.09,50.78
942,1778612249.503356,0.14,-1.06,-1.63,-89.72,-353.09,50.78
943,1778612249.513375,-0.2,-1.91,-1.5,-81.54,-300.78,170.96
944,1778612249.5233788,-0.2,-1.91,-1.5,-81.54,-300.78,170.96
945,1778612249.5333078,-0.2,-1.91,-1.5,-81.54,-300.78,170.96
946,1778612249.5433311,0.81,-2.25,-1.08,-81.54,-300.78,170.96
947,1778612249.553377,0.81,-2.25,-1.08,-64.03,-278.32,255.98
948,1778612249.5632682,0.81,-2.25,-1.08,-64.03,-278.32,255.98
949,1778612249.5733209,0.81,-2.25,-1.08,-64.03,-278.32,255.98
950,1778612249.5833468,0.76,-2.33,-0.73,-64.03,-278.32,255.98
951,1778612249.5933719,0.76,-2.33,-0.73,-56.34,-217.65,255.86
952,1778612249.6033769,0.76,-2.33,-0.73,-56.34,-217.65,255.86
953,1778612249.613272,0.76,-2.33,-0.73,-56.34,-217.65,255.86
954,1778612249.623292,0.82,-2.28,-0.69,-10.8,-199.71,270.39
955,1778612249.633344,0.82,-2.28,-0.69,-10.8,-199.71,270.39
956,1778612249.6433642,0.82,-2.28,-0.69,-10.8,-199.71,270.39
957,1778612249.653383,0.82,-2.28,-0.69,-10.8,-199.71,270.39
958,1778612249.66327,1.01,-2.05,-1.06,15.14,-211.73,280.82
959,1778612249.673331,1.01,-2.05,-1.06,15.14,-211.73,280.82
960,1778612249.683378,1.01,-2.05,-1.06,15.14,-211.73,280.82
961,1778612249.693303,1.01,-2.05,-1.06,15.14,-211.73,280.82
962,1778612249.7032619,0.82,-1.09,-1.6,10.86,-156.86,382.45
963,1778612249.7132978,0.82,-1.09,-1.6,10.86,-156.86,382.45
964,1778612249.723346,0.82,-1.09,-1.6,10.86,-156.86,382.45
965,1778612249.733342,0.82,-1.09,-1.6,10.86,-156.86,382.45
966,1778612249.74337,3.77,-2.68,-1.6,-123.47,-220.03,522.22
967,1778612249.7532868,3.77,-2.68,-1.6,-123.47,-220.03,522.22
968,1778612249.763299,3.77,-2.68,-1.6,-123.47,-220.03,522.22
969,1778612249.7733219,3.77,-2.68,-1.6,-123.47,-220.03,522.22
970,1778612249.783345,5.27,-1.45,-0.17,-114.26,133.18,343.99
971,1778612249.793358,5.27,-1.45,-0.17,-114.26,133.18,343.99
972,1778612249.803387,5.27,-1.45,-0.17,-114.26,133.18,343.99
973,1778612249.8133109,5.27,-1.45,-0.17,-114.26,133.18,343.99
974,1778612249.82329,5.55,-1.75,0.05,-145.69,-308.17,-63.96
975,1778612249.833301,5.55,-1.75,0.05,-145.69,-308.17,-63.96
976,1778612249.8433259,5.55,-1.75,0.05,-145.69,-308.17,-63.96
977,1778612249.853358,5.55,-1.75,0.05,-145.69,-308.17,-63.96
978,1778612249.863271,4.39,-2.11,0.72,-2.62,-247.01,-124.21
979,1778612249.873303,4.39,-2.11,0.72,-2.62,-247.01,-124.21
980,1778612249.8833559,4.39,-2.11,0.72,-2.62,-247.01,-124.21
981,1778612249.893261,4.39,-2.11,0.72,-2.62,-247.01,-124.21
982,1778612249.903378,4.39,-2.11,0.72,-2.62,-247.01,-124.21
983,1778612249.9132612,4.39,-2.11,0.72,-2.62,-247.01,-124.21
984,1778612249.923362,4.39,-2.11,0.72,-2.62,-247.01,-124.21
985,1778612249.9333508,4.39,-2.11,0.72,-2.62,-247.01,-124.21
986,1778612249.9433632,4.39,-2.11,0.72,-2.62,-247.01,-124.21
987,1778612249.953268,4.39,-2.11,0.72,-2.62,-247.01,-124.21
988,1778612249.9632719,3.96,-0.8,-1.38,98.33,62.74,-204.9
989,1778612249.973291,3.96,-0.8,-1.38,98.33,62.74,-204.9
990,1778612249.9833128,2.68,-0.45,-1.09,82.95,5.98,-320.92
991,1778612249.993344,2.68,-0.45,-1.09,82.95,5.98,-320.92
992,1778612250.003384,2.68,-0.45,-1.09,82.95,5.98,-320.92
993,1778612250.013283,1.92,-0.63,-1.2,36.38,92.47,-263.0
994,1778612250.023335,1.92,-0.63,-1.2,36.38,92.47,-263.0
995,1778612250.033261,1.92,-0.63,-1.2,36.38,92.47,-263.0
996,1778612250.043299,1.92,-0.63,-1.2,36.38,92.47,-263.0
997,1778612250.053331,1.92,-0.63,-1.2,36.38,92.47,-263.0
998,1778612250.063348,1.86,-1.3,-0.57,-40.77,256.59,-181.88
999,1778612250.073387,1.86,-1.3,-0.57,-40.77,256.59,-181.88
1000,1778612250.0832891,1.86,-1.3,-0.57,-40.77,256.59,-181.88
