id,timestamp,acc_x,acc_y,acc_z,gyro_x,gyro_y,gyro_z
1,1778614157.590569,0.65,-1.27,0.15,556.64,195.37,44.56
2,1778614157.5905821,0.65,-1.27,0.15,556.64,195.37,44.56
3,1778614157.6000938,0.65,-1.27,0.15,556.64,195.37,44.56
4,1778614157.610065,0.65,-1.27,0.15,556.64,195.37,44.56
5,1778614157.619993,0.32,0.02,0.18,-2.2,65.98,-21.67
6,1778614157.6299882,0.32,0.02,0.18,-2.2,65.98,-21.67
7,1778614157.6400971,0.32,0.02,0.18,-2.2,65.98,-21.67
8,1778614157.6500611,0.32,0.02,0.18,-2.2,65.98,-21.67
9,1778614157.660013,0.32,0.02,0.18,-2.2,65.98,-21.67
10,1778614157.670073,0.32,0.02,0.18,-2.2,65.98,-21.67
11,1778614157.680021,0.32,0.02,0.18,-2.2,65.98,-21.67
12,1778614157.690075,0.32,0.02,0.18,-2.2,65.98,-21.67
13,1778614157.7000058,0.32,0.02,0.18,-2.2,65.98,-21.67
14,1778614157.710057,0.32,0.02,0.18,-2.2,65.98,-21.67
15,1778614157.720049,1.27,0.49,-0.52,694.76,342.77,42.11
16,1778614157.730088,1.27,0.49,-0.52,694.76,342.77,42.11
17,1778614157.739994,0.87,0.28,-0.35,457.58,111.45,-58.35
18,1778614157.750029,0.87,0.28,-0.35,457.58,111.45,-58.35
19,1778614157.760088,0.87,0.28,-0.35,457.58,111.45,-58.35
20,1778614157.769998,0.87,0.28,-0.35,457.58,111.45,-58.35
21,1778614157.7800581,1.94,0.12,0.03,270.26,-111.27,-60.3
22,1778614157.7900732,1.94,0.12,0.03,270.26,-111.27,-60.3
23,1778614157.800098,1.94,0.12,0.03,270.26,-111.27,-60.3
24,1778614157.8100328,1.94,0.12,0.03,270.26,-111.27,-60.3
25,1778614157.8200269,1.41,0.12,-0.17,175.72,-15.81,-65.55
26,1778614157.8300211,1.41,0.12,-0.17,175.72,-15.81,-65.55
27,1778614157.8400419,1.41,0.12,-0.17,175.72,-15.81,-65.55
28,1778614157.850039,1.41,0.12,-0.17,175.72,-15.81,-65.55
29,1778614157.8600278,1.41,0.12,-0.17,175.72,-15.81,-65.55
30,1778614157.870068,1.41,0.12,-0.17,175.72,-15.81,-65.55
31,1778614157.880088,1.41,0.12,-0.17,175.72,-15.81,-65.55
32,1778614157.889986,1.41,0.12,-0.17,175.72,-15.81,-65.55
33,1778614157.9000242,1.41,0.12,-0.17,175.72,-15.81,-65.55
34,1778614157.9100878,0.64,-0.0,0.0,110.29,-89.42,-95.21
35,1778614157.919999,0.64,-0.0,0.0,110.29,-89.42,-95.21
36,1778614157.930048,0.64,-0.0,0.0,110.29,-89.42,-95.21
37,1778614157.940083,0.64,-0.0,0.0,110.29,-89.42,-95.21
38,1778614157.950001,1.46,-1.43,1.63,-612.92,-61.95,37.66
39,1778614157.960077,1.46,-1.43,1.63,-612.92,-61.95,37.66
40,1778614157.9701061,0.45,-0.21,-0.85,374.27,176.76,71.29
41,1778614157.980007,0.45,-0.21,-0.85,374.27,176.76,71.29
42,1778614157.989994,0.45,-0.21,-0.85,374.27,176.76,71.29
43,1778614158.0000389,0.45,-0.21,-0.85,374.27,176.76,71.29
44,1778614158.010056,0.42,0.11,-0.16,191.53,99.06,63.9
45,1778614158.020023,0.42,0.11,-0.16,191.53,99.06,63.9
46,1778614158.0300832,1.15,-0.27,-0.31,138.67,200.32,109.07
47,1778614158.0401092,1.15,-0.27,-0.31,138.67,200.32,109.07
48,1778614158.050097,1.15,-0.27,-0.31,138.67,200.32,109.07
49,1778614158.0599859,1.15,-0.27,-0.31,138.67,200.32,109.07
50,1778614158.070039,3.38,0.32,-1.16,303.16,228.09,171.94
51,1778614158.0800982,3.38,0.32,-1.16,303.16,228.09,171.94
52,1778614158.090014,3.38,0.32,-1.16,303.16,228.09,171.94
53,1778614158.100051,1.31,0.23,-0.52,303.16,228.09,171.94
54,1778614158.110075,1.31,0.23,-0.52,255.8,146.61,45.9
55,1778614158.1201012,1.31,0.23,-0.52,255.8,146.61,45.9
56,1778614158.129986,1.31,0.23,-0.52,255.8,146.61,45.9
57,1778614158.140001,1.57,0.27,-0.48,60.06,29.17,98.08
58,1778614158.150026,1.57,0.27,-0.48,60.06,29.17,98.08
59,1778614158.160026,1.57,0.27,-0.48,60.06,29.17,98.08
60,1778614158.169987,1.57,0.27,-0.48,60.06,29.17,98.08
61,1778614158.180086,1.57,0.27,-0.48,60.06,29.17,98.08
62,1778614158.190088,1.57,0.27,-0.48,60.06,29.17,98.08
63,1778614158.200104,1.57,0.27,-0.48,60.06,29.17,98.08
64,1778614158.210031,1.57,0.27,-0.48,60.06,29.17,98.08
65,1778614158.220041,1.57,0.27,-0.48,60.06,29.17,98.08
66,1778614158.2300632,1.57,0.27,-0.48,60.06,29.17,98.08
67,1778614158.240087,0.66,0.72,-0.27,-151.98,-141.97,39.43
68,1778614158.249994,0.66,0.72,-0.27,-151.98,-141.97,39.43
69,1778614158.260017,0.53,0.42,0.02,133.73,-236.88,-57.01
70,1778614158.270041,0.53,0.42,0.02,133.73,-236.88,-57.01
71,1778614158.280064,0.53,0.42,0.02,133.73,-236.88,-57.01
72,1778614158.290096,0.53,0.42,0.02,133.73,-236.88,-57.01
73,1778614158.300104,0.44,0.42,0.23,286.07,-170.78,-58.41
74,1778614158.310008,0.44,0.42,0.23,286.07,-170.78,-58.41
75,1778614158.32002,0.44,0.42,0.23,286.07,-170.78,-58.41
76,1778614158.33004,0.44,0.42,0.23,286.07,-170.78,-58.41
77,1778614158.3400698,0.46,0.55,0.05,485.96,-173.28,-18.31
78,1778614158.3500538,0.46,0.55,0.05,485.96,-173.28,-18.31
79,1778614158.360088,0.46,0.55,0.05,485.96,-173.28,-18.31
80,1778614158.370112,0.46,0.55,0.05,485.96,-173.28,-18.31
81,1778614158.379997,0.46,0.55,0.05,485.96,-173.28,-18.31
82,1778614158.3900201,0.46,0.55,0.05,485.96,-173.28,-18.31
83,1778614158.400068,0.46,0.55,0.05,485.96,-173.28,-18.31
84,1778614158.410092,0.46,0.55,0.05,485.96,-173.28,-18.31
85,1778614158.4199848,0.46,0.55,0.05,485.96,-173.28,-18.31
86,1778614158.4300249,3.44,0.4,3.24,-38.09,37.05,-18.62
87,1778614158.4400399,3.44,0.4,3.24,-38.09,37.05,-18.62
88,1778614158.450079,1.1,0.24,-0.57,-33.2,157.17,92.9
89,1778614158.459986,1.1,0.24,-0.57,-33.2,157.17,92.9
90,1778614158.470011,1.1,0.24,-0.57,-33.2,157.17,92.9
91,1778614158.480051,1.1,0.24,-0.57,-33.2,157.17,92.9
92,1778614158.490061,0.77,0.39,-0.21,135.56,127.32,49.07
93,1778614158.5000901,0.77,0.39,-0.21,135.56,127.32,49.07
94,1778614158.509987,0.77,0.39,-0.21,135.56,127.32,49.07
95,1778614158.520046,0.77,0.39,-0.21,135.56,127.32,49.07
96,1778614158.5300732,1.58,0.68,-0.34,135.56,127.32,49.07
97,1778614158.540095,1.58,0.68,-0.34,215.45,94.3,-22.83
98,1778614158.5501099,1.58,0.68,-0.34,215.45,94.3,-22.83
99,1778614158.5599942,1.58,0.68,-0.34,215.45,94.3,-22.83
100,1778614158.570045,1.42,0.56,-0.59,9.22,93.51,-30.64
101,1778614158.580085,1.42,0.56,-0.59,9.22,93.51,-30.64
102,1778614158.590094,1.42,0.56,-0.59,9.22,93.51,-30.64
103,1778614158.600115,1.42,0.56,-0.59,9.22,93.51,-30.64
104,1778614158.610029,1.09,0.27,-0.67,-182.74,-20.87,-11.29
105,1778614158.6200671,1.09,0.27,-0.67,-182.74,-20.87,-11.29
106,1778614158.6299992,1.09,0.27,-0.67,-182.74,-20.87,-11.29
107,1778614158.640024,1.09,0.27,-0.67,-182.74,-20.87,-11.29
108,1778614158.650069,0.92,0.05,-0.57,-182.74,-20.87,-11.29
109,1778614158.660106,0.92,0.05,-0.57,18.68,80.57,-63.48
110,1778614158.6700091,0.92,0.05,-0.57,18.68,80.57,-63.48
111,1778614158.6800158,0.92,0.05,-0.57,18.68,80.57,-63.48
112,1778614158.690042,0.92,0.05,-0.57,18.68,80.57,-63.48
113,1778614158.7000709,0.92,0.05,-0.57,18.68,80.57,-63.48
114,1778614158.710088,0.92,0.05,-0.57,18.68,80.57,-63.48
115,1778614158.7201111,0.92,0.05,-0.57,18.68,80.57,-63.48
116,1778614158.7300339,0.92,0.05,-0.57,18.68,80.57,-63.48
117,1778614158.740085,0.92,0.05,-0.57,18.68,80.57,-63.48
118,1778614158.750058,0.92,0.05,-0.57,18.68,80.57,-63.48
119,1778614158.7600472,0.92,0.05,-0.57,18.68,80.57,-63.48
120,1778614158.770108,0.66,0.01,-0.11,192.87,-126.1,-106.45
121,1778614158.7800078,0.66,0.01,-0.11,192.87,-126.1,-106.45
122,1778614158.790045,0.66,0.01,-0.11,192.87,-126.1,-106.45
123,1778614158.800096,0.96,-1.32,1.61,-515.56,-61.1,73.24
124,1778614158.810101,0.96,-1.32,1.61,-515.56,-61.1,73.24
125,1778614158.8200839,0.96,-1.32,1.61,-515.56,-61.1,73.24
126,1778614158.830047,0.96,-1.32,1.61,-515.56,-61.1,73.24
127,1778614158.840081,1.5,0.2,-0.17,-53.22,51.82,119.75
128,1778614158.850095,1.5,0.2,-0.17,-53.22,51.82,119.75
129,1778614158.860105,1.5,0.2,-0.17,-53.22,51.82,119.75
130,1778614158.8699899,1.5,0.2,-0.17,-53.22,51.82,119.75
131,1778614158.880029,1.5,0.2,-0.17,-53.22,51.82,119.75
132,1778614158.890023,1.5,0.2,-0.17,-53.22,51.82,119.75
133,1778614158.900039,1.5,0.2,-0.17,-53.22,51.82,119.75
134,1778614158.910055,1.5,0.2,-0.17,-53.22,51.82,119.75
135,1778614158.920086,1.5,0.2,-0.17,-53.22,51.82,119.75
136,1778614158.9299982,1.5,0.2,-0.17,-53.22,51.82,119.75
137,1778614158.939994,1.5,0.2,-0.17,-53.22,51.82,119.75
138,1778614158.9500291,1.5,0.2,-0.17,-53.22,51.82,119.75
139,1778614158.960055,2.05,0.66,-0.46,290.16,48.28,70.01
140,1778614158.970091,2.05,0.66,-0.46,290.16,48.28,70.01
141,1778614158.980011,2.05,0.66,-0.46,290.16,48.28,70.01
142,1778614158.990041,0.94,0.72,-0.38,-123.84,38.94,85.08
143,1778614159.000072,0.94,0.72,-0.38,-123.84,38.94,85.08
144,1778614159.009987,0.94,0.72,-0.38,-123.84,38.94,85.08
145,1778614159.020011,0.94,0.72,-0.38,-123.84,38.94,85.08
146,1778614159.030032,0.71,0.65,-0.31,-378.05,-144.84,107.24
147,1778614159.040072,0.71,0.65,-0.31,-378.05,-144.84,107.24
148,1778614159.050015,0.71,0.65,-0.31,-378.05,-144.84,107.24
149,1778614159.060054,0.71,0.65,-0.31,-378.05,-144.84,107.24
150,1778614159.070105,0.34,0.52,-0.11,-119.32,-227.36,-28.38
151,1778614159.0801122,0.34,0.52,-0.11,-119.32,-227.36,-28.38
152,1778614159.090087,0.34,0.52,-0.11,-119.32,-227.36,-28.38
153,1778614159.1000278,0.34,0.52,-0.11,-119.32,-227.36,-28.38
154,1778614159.109987,0.04,0.42,0.04,119.26,-108.89,-127.5
155,1778614159.120003,0.04,0.42,0.04,119.26,-108.89,-127.5
156,1778614159.130025,0.04,0.42,0.04,119.26,-108.89,-127.5
157,1778614159.140049,0.04,0.42,0.04,119.26,-108.89,-127.5
158,1778614159.15009,0.04,0.42,0.04,119.26,-108.89,-127.5
159,1778614159.1599932,0.04,0.42,0.04,119.26,-108.89,-127.5
160,1778614159.17002,0.04,0.42,0.04,119.26,-108.89,-127.5
161,1778614159.180052,0.04,0.42,0.04,119.26,-108.89,-127.5
162,1778614159.190069,0.04,0.42,0.04,119.26,-108.89,-127.5
163,1778614159.2000918,0.22,0.28,-0.08,362.73,69.58,-21.55
164,1778614159.210102,0.22,0.28,-0.08,362.73,69.58,-21.55
165,1778614159.220007,0.22,0.28,-0.08,362.73,69.58,-21.55
166,1778614159.230016,0.22,0.28,-0.08,362.73,69.58,-21.55
167,1778614159.240033,0.22,0.28,-0.08,362.73,69.58,-21.55
168,1778614159.2500658,0.22,0.28,-0.08,362.73,69.58,-21.55
169,1778614159.2600698,0.22,0.28,-0.08,362.73,69.58,-21.55
170,1778614159.270093,0.22,0.28,-0.08,362.73,69.58,-21.55
171,1778614159.280113,0.22,0.28,-0.08,362.73,69.58,-21.55
172,1778614159.290026,1.82,0.17,-0.29,23.62,132.63,-124.02
173,1778614159.300063,0.41,0.13,-0.09,109.07,50.35,-27.1
174,1778614159.310088,0.41,0.13,-0.09,109.07,50.35,-27.1
175,1778614159.319988,0.41,0.13,-0.09,109.07,50.35,-27.1
176,1778614159.330038,0.41,0.13,-0.09,109.07,50.35,-27.1
177,1778614159.340082,1.19,0.34,-0.41,-52.8,-1.22,-80.26
178,1778614159.3501,1.19,0.34,-0.41,-52.8,-1.22,-80.26
179,1778614159.360107,1.19,0.34,-0.41,-52.8,-1.22,-80.26
180,1778614159.370032,1.19,0.34,-0.41,-52.8,-1.22,-80.26
181,1778614159.380039,1.91,0.39,-0.69,-94.18,115.66,-78.55
182,1778614159.390045,1.91,0.39,-0.69,-94.18,115.66,-78.55
183,1778614159.40008,1.91,0.39,-0.69,-94.18,115.66,-78.55
184,1778614159.410093,1.91,0.39,-0.69,-94.18,115.66,-78.55
185,1778614159.420104,1.91,0.39,-0.69,-94.18,115.66,-78.55
186,1778614159.429991,1.91,0.39,-0.69,-94.18,115.66,-78.55
187,1778614159.4400058,1.91,0.39,-0.69,-94.18,115.66,-78.55
188,1778614159.450047,1.91,0.39,-0.69,-94.18,115.66,-78.55
189,1778614159.460056,1.91,0.39,-0.69,-94.18,115.66,-78.55
190,1778614159.4700758,1.91,0.39,-0.69,-94.18,115.66,-78.55
191,1778614159.480107,0.8,0.06,-0.33,-221.62,18.92,-52.31
192,1778614159.4900212,0.8,0.06,-0.33,2.93,29.17,-92.96
193,1778614159.500052,0.8,0.06,-0.33,2.93,29.17,-92.96
194,1778614159.510072,0.8,0.06,-0.33,2.93,29.17,-92.96
195,1778614159.520107,0.64,-0.01,-0.2,84.84,-52.55,-109.25
196,1778614159.530004,0.64,-0.01,-0.2,84.84,-52.55,-109.25
197,1778614159.5400262,0.64,-0.01,-0.2,84.84,-52.55,-109.25
198,1778614159.550066,0.64,-0.01,-0.2,84.84,-52.55,-109.25
199,1778614159.560103,0.75,-0.11,-0.25,84.53,-102.78,-116.33
200,1778614159.570091,0.75,-0.11,-0.25,84.53,-102.78,-116.33
201,1778614159.579992,0.75,-0.11,-0.25,84.53,-102.78,-116.33
202,1778614159.590025,0.67,-0.3,0.83,84.53,-102.78,-116.33
203,1778614159.600063,0.67,-0.3,0.83,-223.27,-338.81,11.54
204,1778614159.610074,0.67,-0.3,0.83,-223.27,-338.81,11.54
205,1778614159.620102,0.67,-0.3,0.83,-223.27,-338.81,11.54
206,1778614159.630013,1.86,-0.76,0.26,-223.27,-338.81,11.54
207,1778614159.640047,1.86,-0.76,0.26,-461.61,-287.6,33.87
208,1778614159.650051,1.86,-0.76,0.26,-461.61,-287.6,33.87
209,1778614159.6600242,1.56,-0.28,0.2,-461.61,-287.6,33.87
210,1778614159.670007,1.56,-0.28,0.2,219.54,184.39,204.1
211,1778614159.6800609,1.56,-0.28,0.2,219.54,184.39,204.1
212,1778614159.690075,1.56,-0.28,0.2,219.54,184.39,204.1
213,1778614159.700115,2.23,-0.13,-0.45,219.54,184.39,204.1
214,1778614159.7100108,2.23,-0.13,-0.45,338.07,198.67,264.89
215,1778614159.720052,2.23,-0.13,-0.45,338.07,198.67,264.89
216,1778614159.730082,2.23,-0.13,-0.45,338.07,198.67,264.89
217,1778614159.7401102,2.23,-0.13,-0.45,338.07,198.67,264.89
218,1778614159.7500002,2.23,-0.13,-0.45,338.07,198.67,264.89
219,1778614159.76002,2.23,-0.13,-0.45,338.07,198.67,264.89
220,1778614159.770036,2.23,-0.13,-0.45,338.07,198.67,264.89
221,1778614159.780046,2.23,-0.13,-0.45,338.07,198.67,264.89
222,1778614159.790048,2.23,-0.13,-0.45,338.07,198.67,264.89
223,1778614159.800077,2.23,-0.13,-0.45,338.07,198.67,264.89
224,1778614159.810088,2.23,-0.13,-0.45,338.07,198.67,264.89
225,1778614159.8200881,0.9,1.2,-0.34,-317.5,-92.65,86.43
226,1778614159.8299892,0.9,1.2,-0.34,-317.5,-92.65,86.43
227,1778614159.840023,0.9,1.2,-0.34,-317.5,-92.65,86.43
228,1778614159.850066,0.9,1.2,-0.34,-317.5,-92.65,86.43
229,1778614159.860113,0.16,0.56,0.12,-87.95,-144.04,-67.14
230,1778614159.870024,0.16,0.56,0.12,-87.95,-144.04,-67.14
231,1778614159.880057,0.16,0.56,0.12,-87.95,-144.04,-67.14
232,1778614159.890024,0.16,0.56,0.12,-87.95,-144.04,-67.14
233,1778614159.900096,-0.18,0.57,0.1,-27.95,-182.8,-159.85
234,1778614159.909995,-0.18,0.57,0.1,-27.95,-182.8,-159.85
235,1778614159.920019,-0.18,0.57,0.1,-27.95,-182.8,-159.85
236,1778614159.930101,-0.18,0.57,0.1,-27.95,-182.8,-159.85
237,1778614159.940058,-0.18,0.57,0.1,-27.95,-182.8,-159.85
238,1778614159.950052,-0.18,0.57,0.1,-27.95,-182.8,-159.85
239,1778614159.9600089,-0.18,0.57,0.1,-27.95,-182.8,-159.85
240,1778614159.9700391,-0.18,0.57,0.1,-27.95,-182.8,-159.85
241,1778614159.980049,-0.18,0.57,0.1,-27.95,-182.8,-159.85
242,1778614159.990082,-0.18,0.57,0.1,-27.95,-182.8,-159.85
243,1778614160.000014,-0.35,0.29,-0.25,178.96,-162.17,15.75
244,1778614160.0100422,-0.35,0.29,-0.25,178.96,-162.17,15.75
245,1778614160.0200791,0.68,0.51,-0.03,-323.91,-286.32,-49.5
246,1778614160.030109,0.68,0.51,-0.03,-323.91,-286.32,-49.5
247,1778614160.0400372,0.68,0.51,-0.03,-323.91,-286.32,-49.5
248,1778614160.050074,4.78,1.86,-0.53,40.28,49.68,-27.77
249,1778614160.0600839,4.78,1.86,-0.53,40.28,49.68,-27.77
250,1778614160.07009,4.78,1.86,-0.53,40.28,49.68,-27.77
251,1778614160.0800982,4.78,1.86,-0.53,40.28,49.68,-27.77
252,1778614160.089986,0.26,0.36,-0.19,166.69,171.33,-91.06
253,1778614160.100003,0.26,0.36,-0.19,166.69,171.33,-91.06
254,1778614160.110006,0.26,0.36,-0.19,166.69,171.33,-91.06
255,1778614160.1199949,0.26,0.36,-0.19,166.69,171.33,-91.06
256,1778614160.130053,1.46,0.5,-0.2,169.74,113.77,-153.69
257,1778614160.140078,1.46,0.5,-0.2,169.74,113.77,-153.69
258,1778614160.150042,1.46,0.5,-0.2,169.74,113.77,-153.69
259,1778614160.1599958,1.46,0.5,-0.2,169.74,113.77,-153.69
260,1778614160.1699982,2.22,0.25,-0.43,-5.31,1.83,-138.0
261,1778614160.180002,2.22,0.25,-0.43,-5.31,1.83,-138.0
262,1778614160.190017,2.22,0.25,-0.43,-5.31,1.83,-138.0
263,1778614160.200032,2.22,0.25,-0.43,-5.31,1.83,-138.0
264,1778614160.210064,0.77,0.01,-0.21,-123.11,-27.77,-113.65
265,1778614160.220083,0.77,0.01,-0.21,-123.11,-27.77,-113.65
266,1778614160.2300959,0.77,0.01,-0.21,-123.11,-27.77,-113.65
267,1778614160.239996,0.77,0.01,-0.21,-123.11,-27.77,-113.65
268,1778614160.250008,0.77,0.01,-0.21,-123.11,-27.77,-113.65
269,1778614160.260025,0.77,0.01,-0.21,-123.11,-27.77,-113.65
270,1778614160.270064,0.77,0.01,-0.21,-123.11,-27.77,-113.65
271,1778614160.2800498,0.77,0.01,-0.21,-123.11,-27.77,-113.65
272,1778614160.290085,0.77,0.01,-0.21,-123.11,-27.77,-113.65
273,1778614160.3001149,0.77,0.01,-0.21,-123.11,-27.77,-113.65
274,1778614160.3099961,0.77,0.01,-0.21,-123.11,-27.77,-113.65
275,1778614160.320029,0.77,0.01,-0.21,-123.11,-27.77,-113.65
276,1778614160.330035,0.77,0.01,-0.21,-123.11,-27.77,-113.65
277,1778614160.3400671,0.81,-0.44,-0.09,-78.43,-130.0,-62.38
278,1778614160.350027,0.81,-0.44,-0.09,-78.43,-130.0,-62.38
279,1778614160.360091,0.43,-0.78,-0.21,-153.08,-256.04,-81.85
280,1778614160.370024,0.43,-0.78,-0.21,-153.08,-256.04,-81.85
281,1778614160.380067,0.43,-0.78,-0.21,-153.08,-256.04,-81.85
282,1778614160.3900979,0.43,-0.78,-0.21,-153.08,-256.04,-81.85
283,1778614160.4000168,0.43,-0.78,-0.21,-153.08,-256.04,-81.85
284,1778614160.410065,1.48,-1.08,0.69,-211.3,-588.56,88.13
285,1778614160.4199831,1.48,-1.08,0.69,-211.3,-588.56,88.13
286,1778614160.429999,1.48,-1.08,0.69,-211.3,-588.56,88.13
287,1778614160.440053,2.21,0.32,-0.06,-211.3,-588.56,88.13
288,1778614160.450083,2.21,0.32,-0.06,-211.3,-588.56,88.13
289,1778614160.460018,2.21,0.32,-0.06,-211.3,-588.56,88.13
290,1778614160.470071,2.21,0.32,-0.06,-211.3,-588.56,88.13
291,1778614160.4800022,2.21,0.32,-0.06,-211.3,-588.56,88.13
292,1778614160.4900658,2.21,0.32,-0.06,-211.3,-588.56,88.13
293,1778614160.5000908,2.21,0.32,-0.06,-211.3,-588.56,88.13
294,1778614160.510114,2.21,0.32,-0.06,-211.3,-588.56,88.13
295,1778614160.520015,2.21,0.32,-0.06,-211.3,-588.56,88.13
296,1778614160.530071,1.95,0.77,-0.22,55.11,2.5,276.49
297,1778614160.539999,1.95,0.77,-0.22,55.11,2.5,276.49
298,1778614160.550036,1.95,0.77,-0.22,55.11,2.5,276.49
299,1778614160.5600262,1.43,1.18,-0.26,107.54,-28.5,119.38
300,1778614160.570091,1.43,1.18,-0.26,107.54,-28.5,119.38
301,1778614160.580037,1.43,1.18,-0.26,107.54,-28.5,119.38
302,1778614160.589986,0.8,0.89,-0.17,-3.3,-171.81,41.44
303,1778614160.600055,0.8,0.89,-0.17,-3.3,-171.81,41.44
304,1778614160.610068,0.8,0.89,-0.17,-3.3,-171.81,41.44
305,1778614160.620109,0.06,1.04,-0.23,-3.3,-171.81,41.44
306,1778614160.630007,0.06,1.04,-0.23,-57.19,-230.96,-29.24
307,1778614160.640026,0.06,1.04,-0.23,-57.19,-230.96,-29.24
308,1778614160.6500428,0.06,1.04,-0.23,-57.19,-230.96,-29.24
309,1778614160.660084,0.06,1.04,-0.23,-57.19,-230.96,-29.24
310,1778614160.670109,-0.45,0.93,0.06,57.19,-84.47,-176.64
311,1778614160.679989,-0.45,0.93,0.06,57.19,-84.47,-176.64
312,1778614160.690027,-0.45,0.93,0.06,57.19,-84.47,-176.64
313,1778614160.700042,0.32,-1.04,1.0,57.19,-84.47,-176.64
314,1778614160.710058,0.32,-1.04,1.0,162.11,-11.96,-88.5
315,1778614160.7200692,0.32,-1.04,1.0,162.11,-11.96,-88.5
316,1778614160.730089,0.32,-1.04,1.0,162.11,-11.96,-88.5
317,1778614160.7399921,0.01,0.76,-0.17,492.37,221.8,184.45
318,1778614160.750033,0.01,0.76,-0.17,492.37,221.8,184.45
319,1778614160.7600589,0.01,0.76,-0.17,492.37,221.8,184.45
320,1778614160.770089,0.01,0.76,-0.17,492.37,221.8,184.45
321,1778614160.780098,0.01,0.76,-0.17,492.37,221.8,184.45
322,1778614160.7899818,0.01,0.76,-0.17,492.37,221.8,184.45
323,1778614160.800097,0.01,0.76,-0.17,492.37,221.8,184.45
324,1778614160.810096,0.01,0.76,-0.17,492.37,221.8,184.45
325,1778614160.820066,0.01,0.76,-0.17,492.37,221.8,184.45
326,1778614160.83003,0.01,0.76,-0.17,492.37,221.8,184.45
327,1778614160.839993,0.01,0.76,-0.17,492.37,221.8,184.45
328,1778614160.849995,0.01,0.76,-0.17,492.37,221.8,184.45
329,1778614160.860107,0.95,0.48,-0.72,-215.64,106.57,26.49
330,1778614160.869995,0.95,0.48,-0.72,-215.64,106.57,26.49
331,1778614160.880021,0.95,0.48,-0.72,-215.64,106.57,26.49
332,1778614160.8900428,0.95,0.48,-0.72,-215.64,106.57,26.49
333,1778614160.9000902,1.72,0.49,-0.21,-227.36,131.53,-168.64
334,1778614160.910004,1.72,0.49,-0.21,-227.36,131.53,-168.64
335,1778614160.920081,1.72,0.49,-0.21,-227.36,131.53,-168.64
336,1778614160.930114,1.72,0.49,-0.21,-227.36,131.53,-168.64
337,1778614160.9400089,2.0,0.08,-0.54,-95.15,182.68,-127.44
338,1778614160.950059,2.0,0.08,-0.54,-95.15,182.68,-127.44
339,1778614160.9600818,2.0,0.08,-0.54,-95.15,182.68,-127.44
340,1778614160.970013,2.0,0.08,-0.54,-95.15,182.68,-127.44
341,1778614160.980048,2.0,0.08,-0.54,-95.15,182.68,-127.44
342,1778614160.990082,2.0,0.08,-0.54,-95.15,182.68,-127.44
343,1778614160.999987,2.0,0.08,-0.54,-95.15,182.68,-127.44
344,1778614161.010012,2.0,0.08,-0.54,-95.15,182.68,-127.44
345,1778614161.020042,2.0,0.08,-0.54,-95.15,182.68,-127.44
346,1778614161.0300941,2.0,0.08,-0.54,-95.15,182.68,-127.44
347,1778614161.0400152,2.0,0.08,-0.54,-95.15,182.68,-127.44
348,1778614161.050088,1.03,-0.29,-0.09,164.79,116.33,-95.28
349,1778614161.060108,0.85,-0.29,-0.16,242.8,-11.96,-70.37
350,1778614161.070029,0.85,-0.29,-0.16,242.8,-11.96,-70.37
351,1778614161.080099,0.85,-0.29,-0.16,242.8,-11.96,-70.37
352,1778614161.089997,0.6,0.44,0.51,-186.4,-642.21,-167.42
353,1778614161.100033,0.6,0.44,0.51,-186.4,-642.21,-167.42
354,1778614161.110081,0.6,0.44,0.51,-186.4,-642.21,-167.42
355,1778614161.1201081,0.6,0.44,0.51,-186.4,-642.21,-167.42
356,1778614161.1300118,0.67,-1.8,1.15,-508.73,-494.38,-30.03
357,1778614161.1400478,0.67,-1.8,1.15,-508.73,-494.38,-30.03
358,1778614161.150086,0.67,-1.8,1.15,-508.73,-494.38,-30.03
359,1778614161.159984,0.67,-1.8,1.15,-508.73,-494.38,-30.03
360,1778614161.1699898,0.21,-1.18,0.3,170.41,162.54,70.07
361,1778614161.180007,0.21,-1.18,0.3,170.41,162.54,70.07
362,1778614161.190048,0.21,-1.18,0.3,170.41,162.54,70.07
363,1778614161.199996,0.21,-1.18,0.3,170.41,162.54,70.07
364,1778614161.210012,3.38,-0.52,-0.42,334.9,616.88,329.77
365,1778614161.2200131,3.38,-0.52,-0.42,334.9,616.88,329.77
366,1778614161.2300658,3.38,-0.52,-0.42,334.9,616.88,329.77
367,1778614161.240082,2.76,0.5,-0.54,334.9,616.88,329.77
368,1778614161.2501068,2.76,0.5,-0.54,323.55,216.92,290.34
369,1778614161.259996,2.76,0.5,-0.54,323.55,216.92,290.34
370,1778614161.270027,2.76,0.5,-0.54,323.55,216.92,290.34
371,1778614161.280066,2.67,0.88,-0.7,323.55,216.92,290.34
372,1778614161.290096,2.67,0.88,-0.7,307.56,372.31,204.04
373,1778614161.300111,2.67,0.88,-0.7,307.56,372.31,204.04
374,1778614161.310081,2.67,0.88,-0.7,307.56,372.31,204.04
375,1778614161.320004,2.67,0.88,-0.7,307.56,372.31,204.04
376,1778614161.330077,2.67,0.88,-0.7,307.56,372.31,204.04
377,1778614161.340043,2.67,0.88,-0.7,307.56,372.31,204.04
378,1778614161.350037,2.67,0.88,-0.7,307.56,372.31,204.04
379,1778614161.360063,2.67,0.88,-0.7,307.56,372.31,204.04
380,1778614161.369995,2.67,0.88,-0.7,307.56,372.31,204.04
381,1778614161.3799858,2.67,0.88,-0.7,307.56,372.31,204.04
382,1778614161.390026,0.56,1.15,-0.71,-239.2,-48.65,45.04
383,1778614161.400063,0.13,0.88,-0.18,40.83,-134.28,-102.78
384,1778614161.410111,0.13,0.88,-0.18,40.83,-134.28,-102.78
385,1778614161.420012,0.13,0.88,-0.18,40.83,-134.28,-102.78
386,1778614161.4300292,0.13,0.88,-0.18,40.83,-134.28,-102.78
387,1778614161.440087,-0.01,0.69,0.04,170.84,-245.97,-99.73
388,1778614161.4501052,-0.01,0.69,0.04,170.84,-245.97,-99.73
389,1778614161.4600089,-0.01,0.69,0.04,170.84,-245.97,-99.73
390,1778614161.4700348,0.03,0.44,0.24,170.84,-245.97,-99.73
391,1778614161.480073,0.03,0.44,0.24,152.83,-155.15,-102.36
392,1778614161.490106,0.03,0.44,0.24,152.83,-155.15,-102.36
393,1778614161.5000541,0.03,0.44,0.24,152.83,-155.15,-102.36
394,1778614161.510072,0.03,0.44,0.24,152.83,-155.15,-102.36
395,1778614161.520108,0.03,0.44,0.24,152.83,-155.15,-102.36
396,1778614161.52999,0.03,0.44,0.24,152.83,-155.15,-102.36
397,1778614161.5400262,0.03,0.44,0.24,152.83,-155.15,-102.36
398,1778614161.550045,0.03,0.44,0.24,152.83,-155.15,-102.36
399,1778614161.5600698,0.03,0.44,0.24,152.83,-155.15,-102.36
400,1778614161.569985,0.03,0.44,0.24,152.83,-155.15,-102.36
401,1778614161.5800378,1.2,0.85,0.25,290.47,85.88,104.13
402,1778614161.590049,2.77,1.29,-0.43,593.26,460.94,87.28
403,1778614161.600068,2.77,1.29,-0.43,593.26,460.94,87.28
404,1778614161.610094,2.77,1.29,-0.43,593.26,460.94,87.28
405,1778614161.620106,2.77,1.29,-0.43,593.26,460.94,87.28
406,1778614161.630005,1.41,0.97,-0.21,629.33,147.89,-37.11
407,1778614161.6400378,1.41,0.97,-0.21,629.33,147.89,-37.11
408,1778614161.650069,1.41,0.97,-0.21,629.33,147.89,-37.11
409,1778614161.660094,1.41,0.97,-0.21,629.33,147.89,-37.11
410,1778614161.669989,0.87,0.35,-0.08,231.87,-4.94,-33.2
411,1778614161.680035,0.87,0.35,-0.08,231.87,-4.94,-33.2
412,1778614161.6900501,0.87,0.35,-0.08,231.87,-4.94,-33.2
413,1778614161.700087,0.87,0.35,-0.08,231.87,-4.94,-33.2
414,1778614161.7100952,1.65,0.48,-0.05,38.09,42.91,-24.23
415,1778614161.720099,1.65,0.48,-0.05,38.09,42.91,-24.23
416,1778614161.729998,1.65,0.48,-0.05,38.09,42.91,-24.23
417,1778614161.740024,1.65,0.48,-0.05,38.09,42.91,-24.23
418,1778614161.750043,0.8,0.26,-0.07,29.85,-31.98,-42.54
419,1778614161.760009,0.8,0.26,-0.07,29.85,-31.98,-42.54
420,1778614161.770062,0.8,0.26,-0.07,29.85,-31.98,-42.54
421,1778614161.779996,0.8,0.26,-0.07,29.85,-31.98,-42.54
422,1778614161.7900538,0.82,0.19,0.04,-18.92,-71.35,-72.14
423,1778614161.80011,0.82,0.19,0.04,-18.92,-71.35,-72.14
424,1778614161.810035,0.82,0.19,0.04,-18.92,-71.35,-72.14
425,1778614161.820042,0.82,0.19,0.04,-18.92,-71.35,-72.14
426,1778614161.8300438,0.82,0.19,0.04,-18.92,-71.35,-72.14
427,1778614161.840072,0.82,0.19,0.04,-18.92,-71.35,-72.14
428,1778614161.850065,0.82,0.19,0.04,-18.92,-71.35,-72.14
429,1778614161.860082,0.82,0.19,0.04,-18.92,-71.35,-72.14
430,1778614161.870004,0.82,0.19,0.04,-18.92,-71.35,-72.14
431,1778614161.8800251,0.82,0.19,0.04,-18.92,-71.35,-72.14
432,1778614161.890062,0.82,0.19,0.04,-18.92,-71.35,-72.14
433,1778614161.9000971,0.82,0.19,0.04,-18.92,-71.35,-72.14
434,1778614161.91002,0.18,-0.31,0.51,81.18,45.96,21.91
435,1778614161.920012,0.18,-0.31,0.51,81.18,45.96,21.91
436,1778614161.930027,0.18,-0.31,0.51,81.18,45.96,21.91
437,1778614161.940076,0.2,-0.06,-0.06,122.44,177.06,22.52
438,1778614161.949993,0.2,-0.06,-0.06,122.44,177.06,22.52
439,1778614161.960035,0.2,-0.06,-0.06,122.44,177.06,22.52
440,1778614161.97005,0.2,-0.06,-0.06,122.44,177.06,22.52
441,1778614161.980077,3.34,-0.37,-0.34,233.4,289.18,55.97
442,1778614161.9900968,3.34,-0.37,-0.34,233.4,289.18,55.97
443,1778614162.000003,3.34,-0.37,-0.34,233.4,289.18,55.97
444,1778614162.010031,2.05,1.24,-0.35,535.28,0.49,-10.62
445,1778614162.02008,2.05,1.24,-0.35,535.28,0.49,-10.62
446,1778614162.030012,2.05,1.24,-0.35,535.28,0.49,-10.62
447,1778614162.0400388,2.05,1.24,-0.35,535.28,0.49,-10.62
448,1778614162.0500631,2.05,1.24,-0.35,535.28,0.49,-10.62
449,1778614162.0600672,2.05,1.24,-0.35,535.28,0.49,-10.62
450,1778614162.069983,2.05,1.24,-0.35,535.28,0.49,-10.62
451,1778614162.0800278,2.05,1.24,-0.35,535.28,0.49,-10.62
452,1778614162.090046,2.05,1.24,-0.35,535.28,0.49,-10.62
453,1778614162.100066,0.64,0.79,-0.31,-182.37,-0.31,37.66
454,1778614162.11007,0.64,0.79,-0.31,-182.37,-0.31,37.66
455,1778614162.1201,0.64,0.79,-0.31,-182.37,-0.31,37.66
456,1778614162.130016,0.28,0.21,-0.33,-72.57,-101.32,-0.85
457,1778614162.1400378,0.28,0.21,-0.33,-72.57,-101.32,-0.85
458,1778614162.150056,0.28,0.21,-0.33,-72.57,-101.32,-0.85
459,1778614162.160105,0.28,0.21,-0.33,-72.57,-101.32,-0.85
460,1778614162.1700668,0.16,0.35,0.04,146.73,59.75,-48.95
461,1778614162.18,0.16,0.35,0.04,146.73,59.75,-48.95
462,1778614162.1900449,0.16,0.35,0.04,146.73,59.75,-48.95
463,1778614162.2001028,0.16,0.35,0.04,146.73,59.75,-48.95
464,1778614162.210021,0.01,0.16,0.07,34.67,39.55,-75.44
465,1778614162.22007,0.01,0.16,0.07,34.67,39.55,-75.44
466,1778614162.230009,0.01,0.16,0.07,34.67,39.55,-75.44
467,1778614162.2400582,-0.08,0.11,0.02,-3.05,3.23,-99.73
468,1778614162.250051,-0.08,0.11,0.02,-3.05,3.23,-99.73
469,1778614162.260055,-0.08,0.11,0.02,-3.05,3.23,-99.73
470,1778614162.270103,-0.07,0.04,0.03,-42.05,-52.61,-126.59
471,1778614162.2800908,-0.07,0.04,0.03,-42.05,-52.61,-126.59
472,1778614162.290072,-0.07,0.04,0.03,-42.05,-52.61,-126.59
473,1778614162.3000908,-0.07,0.04,0.03,-42.05,-52.61,-126.59
474,1778614162.310102,0.06,-0.01,-0.14,-19.04,-87.46,-140.69
475,1778614162.319985,0.06,-0.01,-0.14,-19.04,-87.46,-140.69
476,1778614162.330078,0.06,-0.01,-0.14,-19.04,-87.46,-140.69
477,1778614162.340051,0.06,-0.01,-0.14,-19.04,-87.46,-140.69
478,1778614162.3500328,0.06,-0.01,-0.14,-19.04,-87.46,-140.69
479,1778614162.3599849,0.06,-0.01,-0.14,-19.04,-87.46,-140.69
480,1778614162.3699808,0.06,-0.01,-0.14,-19.04,-87.46,-140.69
481,1778614162.379998,0.06,-0.01,-0.14,-19.04,-87.46,-140.69
482,1778614162.390031,0.06,-0.01,-0.14,-19.04,-87.46,-140.69
483,1778614162.400067,0.06,-0.01,-0.14,-19.04,-87.46,-140.69
484,1778614162.4100878,0.06,-0.01,-0.14,-19.04,-87.46,-140.69
485,1778614162.4199831,0.06,-0.01,-0.14,-19.04,-87.46,-140.69
486,1778614162.430021,1.17,0.67,-0.13,237.67,81.24,8.91
487,1778614162.440056,1.17,0.67,-0.13,237.67,81.24,8.91
488,1778614162.450072,1.17,0.67,-0.13,237.67,81.24,8.91
489,1778614162.4601111,1.04,0.38,-0.12,237.67,81.24,8.91
490,1778614162.47,1.04,0.38,-0.12,125.12,34.55,-22.52
491,1778614162.480031,1.04,0.38,-0.12,125.12,34.55,-22.52
492,1778614162.490068,1.04,0.38,-0.12,125.12,34.55,-22.52
493,1778614162.500107,1.04,0.38,-0.12,125.12,34.55,-22.52
494,1778614162.510016,0.64,0.18,-0.04,9.89,-37.66,25.45
495,1778614162.5200388,0.64,0.18,-0.04,9.89,-37.66,25.45
496,1778614162.5300639,0.54,0.28,0.03,9.89,-37.66,25.45
497,1778614162.539984,0.54,0.28,0.03,-43.88,-44.98,30.46
498,1778614162.550017,0.54,0.28,0.03,-43.88,-44.98,30.46
499,1778614162.560045,0.54,0.28,0.03,-43.88,-44.98,30.46
500,1778614162.5700622,0.54,0.28,0.03,-43.88,-44.98,30.46
501,1778614162.58008,0.54,0.28,0.03,-43.88,-44.98,30.46
502,1778614162.5899808,0.54,0.28,0.03,-43.88,-44.98,30.46
503,1778614162.60011,0.54,0.28,0.03,-43.88,-44.98,30.46
504,1778614162.6100879,0.54,0.28,0.03,-43.88,-44.98,30.46
505,1778614162.619984,0.54,0.28,0.03,-43.88,-44.98,30.46
506,1778614162.629996,0.76,-0.53,0.96,-302.61,51.51,121.64
507,1778614162.640029,0.07,0.35,-0.72,23.01,198.97,66.65
508,1778614162.6500401,0.07,0.35,-0.72,23.01,198.97,66.65
509,1778614162.660057,0.07,0.35,-0.72,23.01,198.97,66.65
510,1778614162.67007,0.07,0.35,-0.72,23.01,198.97,66.65
511,1778614162.680109,1.14,0.12,-0.25,-47.73,61.65,77.94
512,1778614162.690022,1.14,0.12,-0.25,-47.73,61.65,77.94
513,1778614162.700014,1.14,0.12,-0.25,-47.73,61.65,77.94
514,1778614162.71009,3.24,1.13,-0.79,31.92,142.33,121.4
515,1778614162.720005,3.24,1.13,-0.79,31.92,142.33,121.4
516,1778614162.7300632,3.24,1.13,-0.79,31.92,142.33,121.4
517,1778614162.739986,3.24,1.13,-0.79,31.92,142.33,121.4
518,1778614162.750047,1.15,0.51,-0.2,287.54,45.35,19.04
519,1778614162.760088,1.15,0.51,-0.2,287.54,45.35,19.04
520,1778614162.769988,1.15,0.51,-0.2,287.54,45.35,19.04
521,1778614162.7800372,1.15,0.51,-0.2,287.54,45.35,19.04
522,1778614162.7901068,2.01,0.55,0.05,29.17,-123.05,102.42
523,1778614162.800075,2.01,0.55,0.05,29.17,-123.05,102.42
524,1778614162.809988,2.01,0.55,0.05,29.17,-123.05,102.42
525,1778614162.820065,2.01,0.55,0.05,29.17,-123.05,102.42
526,1778614162.8300319,0.92,0.74,-0.15,29.17,-123.05,102.42
527,1778614162.8400571,0.92,0.74,-0.15,-321.23,-32.47,110.11
528,1778614162.850065,0.92,0.74,-0.15,-321.23,-32.47,110.11
529,1778614162.860096,0.92,0.74,-0.15,-321.23,-32.47,110.11
530,1778614162.869996,0.53,0.73,0.24,86.85,-313.9,18.68
531,1778614162.880041,0.53,0.73,0.24,86.85,-313.9,18.68
532,1778614162.890066,0.53,0.73,0.24,86.85,-313.9,18.68
533,1778614162.9001012,0.53,0.73,0.24,86.85,-313.9,18.68
534,1778614162.909994,0.53,0.73,0.24,86.85,-313.9,18.68
535,1778614162.920043,0.53,0.73,0.24,86.85,-313.9,18.68
536,1778614162.930092,0.53,0.73,0.24,86.85,-313.9,18.68
537,1778614162.940109,0.53,0.73,0.24,86.85,-313.9,18.68
538,1778614162.950013,0.53,0.73,0.24,86.85,-313.9,18.68
539,1778614162.9600809,-0.08,0.0,0.23,118.9,32.96,-86.24
540,1778614162.970103,-0.08,0.0,0.23,118.9,32.96,-86.24
541,1778614162.980024,0.05,-0.18,1.16,505.8,214.6,-28.5
542,1778614162.990072,0.05,-0.18,1.16,505.8,214.6,-28.5
543,1778614162.999993,0.05,-0.18,1.16,505.8,214.6,-28.5
544,1778614163.01004,0.05,-0.18,1.16,505.8,214.6,-28.5
545,1778614163.020084,0.31,0.16,0.01,-58.78,44.19,-83.74
546,1778614163.029985,0.31,0.16,0.01,-58.78,44.19,-83.74
547,1778614163.040027,0.31,0.16,0.01,-58.78,44.19,-83.74
548,1778614163.050057,0.31,0.16,0.01,-58.78,44.19,-83.74
549,1778614163.0599968,1.31,-0.18,-0.22,-73.85,134.89,43.4
550,1778614163.070056,1.31,-0.18,-0.22,-73.85,134.89,43.4
551,1778614163.079989,1.31,-0.18,-0.22,-73.85,134.89,43.4
552,1778614163.090005,1.31,-0.18,-0.22,-73.85,134.89,43.4
553,1778614163.100051,1.31,-0.18,-0.22,-73.85,134.89,43.4
554,1778614163.1100779,1.31,-0.18,-0.22,-73.85,134.89,43.4
555,1778614163.1199858,1.31,-0.18,-0.22,-73.85,134.89,43.4
556,1778614163.130015,1.31,-0.18,-0.22,-73.85,134.89,43.4
557,1778614163.140039,1.31,-0.18,-0.22,-73.85,134.89,43.4
558,1778614163.150084,0.63,0.46,0.01,295.65,35.83,-29.97
559,1778614163.160005,0.63,0.46,0.01,295.65,35.83,-29.97
560,1778614163.170037,0.63,0.46,0.01,295.65,35.83,-29.97
561,1778614163.180066,2.11,0.93,-0.78,4.46,123.72,-76.05
562,1778614163.1901,2.11,0.93,-0.78,4.46,123.72,-76.05
563,1778614163.200089,2.11,0.93,-0.78,4.46,123.72,-76.05
564,1778614163.210007,1.32,0.68,-0.1,-124.02,-50.66,-0.18
565,1778614163.2200692,1.32,0.68,-0.1,-124.02,-50.66,-0.18
566,1778614163.230104,1.32,0.68,-0.1,-124.02,-50.66,-0.18
567,1778614163.240016,1.32,0.68,-0.1,-124.02,-50.66,-0.18
568,1778614163.2500632,1.32,0.68,-0.1,-124.02,-50.66,-0.18
569,1778614163.2601018,0.79,0.2,-0.1,-140.81,-39.31,19.29
570,1778614163.270043,0.79,0.2,-0.1,-140.81,-39.31,19.29
571,1778614163.280096,0.79,0.2,-0.1,-140.81,-39.31,19.29
572,1778614163.290005,0.47,0.21,-0.0,-70.68,-37.11,30.4
573,1778614163.300032,0.47,0.21,-0.0,-70.68,-37.11,30.4
574,1778614163.310028,0.47,0.21,-0.0,-70.68,-37.11,30.4
575,1778614163.32003,0.47,0.21,-0.0,-70.68,-37.11,30.4
576,1778614163.3300748,0.5,0.27,0.06,-70.74,-46.81,-6.23
577,1778614163.340069,0.5,0.27,0.06,-70.74,-46.81,-6.23
578,1778614163.35004,0.5,0.27,0.06,-70.74,-46.81,-6.23
579,1778614163.360013,0.5,0.27,0.06,-70.74,-46.81,-6.23
580,1778614163.370048,0.34,0.02,-0.07,-103.94,-42.66,-1.65
581,1778614163.3800719,0.34,0.02,-0.07,-103.94,-42.66,-1.65
582,1778614163.39008,0.34,0.02,-0.07,-103.94,-42.66,-1.65
583,1778614163.400099,0.34,0.02,-0.07,-103.94,-42.66,-1.65
584,1778614163.409989,0.34,0.02,-0.07,-103.94,-42.66,-1.65
585,1778614163.420015,0.34,0.02,-0.07,-103.94,-42.66,-1.65
586,1778614163.430038,0.34,0.02,-0.07,-103.94,-42.66,-1.65
587,1778614163.4400709,0.34,0.02,-0.07,-103.94,-42.66,-1.65
588,1778614163.450098,0.34,0.02,-0.07,-103.94,-42.66,-1.65
589,1778614163.460099,0.34,0.02,-0.07,-103.94,-42.66,-1.65
590,1778614163.470002,0.34,0.02,-0.07,-103.94,-42.66,-1.65
591,1778614163.4800398,0.34,0.02,-0.07,-103.94,-42.66,-1.65
592,1778614163.4900491,0.79,-0.04,0.04,40.47,89.54,85.27
593,1778614163.500066,0.79,-0.04,0.04,40.47,89.54,85.27
594,1778614163.510102,0.79,-0.04,0.04,40.47,89.54,85.27
595,1778614163.519999,2.28,0.16,-0.15,40.47,89.54,85.27
596,1778614163.530035,2.28,0.16,-0.15,81.73,256.77,65.19
597,1778614163.540014,2.28,0.16,-0.15,81.73,256.77,65.19
598,1778614163.550036,2.28,0.16,-0.15,81.73,256.77,65.19
599,1778614163.560061,3.35,1.5,-0.29,196.23,38.76,46.45
600,1778614163.570061,3.35,1.5,-0.29,196.23,38.76,46.45
601,1778614163.580103,3.35,1.5,-0.29,196.23,38.76,46.45
602,1778614163.590003,3.35,1.5,-0.29,196.23,38.76,46.45
603,1778614163.600055,3.35,1.5,-0.29,196.23,38.76,46.45
604,1778614163.61007,3.35,1.5,-0.29,196.23,38.76,46.45
605,1778614163.6200619,3.35,1.5,-0.29,196.23,38.76,46.45
606,1778614163.6300669,3.35,1.5,-0.29,196.23,38.76,46.45
607,1778614163.640054,3.35,1.5,-0.29,196.23,38.76,46.45
608,1778614163.650028,3.35,1.5,-0.29,196.23,38.76,46.45
609,1778614163.660038,3.35,1.5,-0.29,196.23,38.76,46.45
610,1778614163.670014,1.66,0.9,-0.41,219.3,111.21,-22.28
611,1778614163.6799831,1.66,0.9,-0.41,219.3,111.21,-22.28
612,1778614163.690078,1.66,0.9,-0.41,219.3,111.21,-22.28
613,1778614163.700054,0.59,0.29,-0.01,120.61,-65.12,-57.56
614,1778614163.710019,0.42,0.25,0.03,112.18,-101.14,-16.3
615,1778614163.720005,0.42,0.25,0.03,112.18,-101.14,-16.3
616,1778614163.7301068,0.42,0.25,0.03,112.18,-101.14,-16.3
617,1778614163.74008,0.42,0.25,0.03,112.18,-101.14,-16.3
618,1778614163.7500422,0.21,0.38,0.13,87.65,-105.41,-6.41
619,1778614163.76002,0.21,0.38,0.13,87.65,-105.41,-6.41
620,1778614163.769995,0.21,0.38,0.13,87.65,-105.41,-6.41
621,1778614163.780094,0.21,0.38,0.13,87.65,-105.41,-6.41
622,1778614163.790058,0.08,0.63,0.64,-125.55,-224.43,-92.96
623,1778614163.800025,0.08,0.63,0.64,-125.55,-224.43,-92.96
624,1778614163.8100019,0.08,0.63,0.64,-125.55,-224.43,-92.96
625,1778614163.820093,0.08,0.35,0.15,41.69,-35.16,-188.23
626,1778614163.830049,0.08,0.35,0.15,41.69,-35.16,-188.23
627,1778614163.840012,0.08,0.35,0.15,41.69,-35.16,-188.23
628,1778614163.8499851,0.08,0.35,0.15,41.69,-35.16,-188.23
629,1778614163.860078,0.08,0.35,0.15,41.69,-35.16,-188.23
630,1778614163.870044,0.01,0.14,-0.14,147.52,-41.38,-247.86
631,1778614163.880021,0.01,0.14,-0.14,147.52,-41.38,-247.86
632,1778614163.89001,0.01,0.14,-0.14,147.52,-41.38,-247.86
633,1778614163.899992,0.54,0.46,-0.17,57.92,-188.23,-138.18
634,1778614163.910094,0.54,0.46,-0.17,57.92,-188.23,-138.18
635,1778614163.920066,0.54,0.46,-0.17,57.92,-188.23,-138.18
636,1778614163.930042,0.54,0.46,-0.17,57.92,-188.23,-138.18
637,1778614163.940016,0.54,0.46,-0.17,57.92,-188.23,-138.18
638,1778614163.949993,0.54,0.46,-0.17,57.92,-188.23,-138.18
639,1778614163.9600892,0.54,0.46,-0.17,57.92,-188.23,-138.18
640,1778614163.970054,0.54,0.46,-0.17,57.92,-188.23,-138.18
641,1778614163.980018,0.54,0.46,-0.17,57.92,-188.23,-138.18
642,1778614163.9901052,0.54,0.46,-0.17,57.92,-188.23,-138.18
643,1778614164.000066,0.54,0.46,-0.17,57.92,-188.23,-138.18
644,1778614164.010026,1.42,0.05,0.11,-230.9,-54.87,31.68
645,1778614164.019991,1.42,0.05,0.11,-157.1,55.48,-132.39
646,1778614164.0300858,1.42,0.05,0.11,-157.1,55.48,-132.39
647,1778614164.040063,1.42,0.05,0.11,-157.1,55.48,-132.39
648,1778614164.0500422,1.51,0.02,-0.19,-24.66,5.43,-50.96
649,1778614164.0600052,1.51,0.02,-0.19,-24.66,5.43,-50.96
650,1778614164.0700958,1.51,0.02,-0.19,-24.66,5.43,-50.96
651,1778614164.080069,1.51,0.02,-0.19,-24.66,5.43,-50.96
652,1778614164.0900311,1.21,0.11,0.02,141.3,40.16,-34.67
653,1778614164.0999858,1.21,0.11,0.02,141.3,40.16,-34.67
654,1778614164.110077,1.21,0.11,0.02,141.3,40.16,-34.67
655,1778614164.1200461,1.21,0.11,0.02,141.3,40.16,-34.67
656,1778614164.1300108,1.21,0.11,0.02,141.3,40.16,-34.67
657,1778614164.13998,1.21,0.11,0.02,141.3,40.16,-34.67
658,1778614164.150076,1.21,0.11,0.02,141.3,40.16,-34.67
659,1778614164.160049,1.21,0.11,0.02,141.3,40.16,-34.67
660,1778614164.170017,1.21,0.11,0.02,141.3,40.16,-34.67
661,1778614164.179986,1.21,0.11,0.02,141.3,40.16,-34.67
662,1778614164.190104,1.21,0.11,0.02,141.3,40.16,-34.67
663,1778614164.200076,0.78,0.19,0.0,182.19,4.94,29.36
664,1778614164.2100348,0.78,0.19,0.0,64.64,-48.58,54.75
665,1778614164.220088,0.78,0.19,0.0,64.64,-48.58,54.75
666,1778614164.230041,0.78,0.19,0.0,64.64,-48.58,54.75
667,1778614164.240011,1.46,-0.97,3.53,-762.82,-422.0,22.46
668,1778614164.249985,1.46,-0.97,3.53,-762.82,-422.0,22.46
669,1778614164.2600498,1.46,-0.97,3.53,-762.82,-422.0,22.46
670,1778614164.270036,1.46,-0.97,3.53,-762.82,-422.0,22.46
671,1778614164.2800179,0.34,0.34,-0.4,-52.06,199.22,106.51
672,1778614164.290005,0.34,0.34,-0.4,-52.06,199.22,106.51
673,1778614164.299983,0.34,0.34,-0.4,-52.06,199.22,106.51
674,1778614164.3100748,0.34,0.34,-0.4,-52.06,199.22,106.51
675,1778614164.320052,2.33,0.18,-0.4,137.15,185.73,149.54
676,1778614164.3300219,2.33,0.18,-0.4,137.15,185.73,149.54
677,1778614164.3399942,2.33,0.18,-0.4,137.15,185.73,149.54
678,1778614164.349986,2.33,0.18,-0.4,137.15,185.73,149.54
679,1778614164.3600278,1.96,0.53,-0.27,226.93,80.38,154.48
680,1778614164.3700109,1.96,0.53,-0.27,226.93,80.38,154.48
681,1778614164.380043,1.96,0.53,-0.27,226.93,80.38,154.48
682,1778614164.3900878,1.96,0.53,-0.27,226.93,80.38,154.48
683,1778614164.4000762,2.37,0.87,0.25,-1.65,71.96,176.76
684,1778614164.410024,2.37,0.87,0.25,-1.65,71.96,176.76
685,1778614164.42001,2.37,0.87,0.25,-1.65,71.96,176.76
686,1778614164.430039,2.37,0.87,0.25,-1.65,71.96,176.76
687,1778614164.440087,1.47,1.11,-0.56,-16.48,142.7,75.81
688,1778614164.450102,1.47,1.11,-0.56,-16.48,142.7,75.81
689,1778614164.460005,1.47,1.11,-0.56,-16.48,142.7,75.81
690,1778614164.470043,1.47,1.11,-0.56,-16.48,142.7,75.81
691,1778614164.480065,1.47,1.11,-0.56,-16.48,142.7,75.81
692,1778614164.490083,1.47,1.11,-0.56,-16.48,142.7,75.81
693,1778614164.5000849,1.47,1.11,-0.56,-16.48,142.7,75.81
694,1778614164.509991,1.47,1.11,-0.56,-16.48,142.7,75.81
695,1778614164.5200992,1.47,1.11,-0.56,-16.48,142.7,75.81
696,1778614164.530068,0.17,0.57,-0.21,-11.54,-72.88,-10.62
697,1778614164.540032,0.17,0.57,-0.21,-11.54,-72.88,-10.62
698,1778614164.550078,-0.02,0.34,-0.04,88.93,-105.41,-73.61
699,1778614164.559996,-0.02,0.34,-0.04,88.93,-105.41,-73.61
700,1778614164.570051,-0.02,0.34,-0.04,88.93,-105.41,-73.61
701,1778614164.5800672,-0.02,0.34,-0.04,88.93,-105.41,-73.61
702,1778614164.590065,-0.14,0.31,0.0,102.11,-116.03,-132.63
703,1778614164.60007,-0.14,0.31,0.0,102.11,-116.03,-132.63
704,1778614164.609984,-0.14,0.31,0.0,102.11,-116.03,-132.63
705,1778614164.620021,-0.14,0.31,0.0,102.11,-116.03,-132.63
706,1778614164.630052,0.03,-0.45,1.15,331.12,52.06,-118.41
707,1778614164.640077,0.03,-0.45,1.15,331.12,52.06,-118.41
708,1778614164.6499891,0.03,-0.45,1.15,331.12,52.06,-118.41
709,1778614164.660017,0.03,-0.45,1.15,331.12,52.06,-118.41
710,1778614164.6700318,0.03,-0.45,1.15,331.12,52.06,-118.41
711,1778614164.680015,0.03,-0.45,1.15,331.12,52.06,-118.41
712,1778614164.690015,0.03,-0.45,1.15,331.12,52.06,-118.41
713,1778614164.700029,0.03,-0.45,1.15,331.12,52.06,-118.41
714,1778614164.710081,0.03,-0.45,1.15,331.12,52.06,-118.41
715,1778614164.720012,4.06,2.84,-0.34,-370.36,-140.2,139.59
716,1778614164.7300491,4.06,2.84,-0.34,-370.36,-140.2,139.59
717,1778614164.7400901,4.06,2.84,-0.34,-370.36,-140.2,139.59
718,1778614164.750011,0.41,0.55,-0.14,-76.72,16.24,-64.15
719,1778614164.760066,0.41,0.55,-0.14,-76.72,16.24,-64.15
720,1778614164.7701051,0.41,0.55,-0.14,-76.72,16.24,-64.15
721,1778614164.780011,0.41,0.55,-0.14,-76.72,16.24,-64.15
722,1778614164.789993,0.86,0.85,0.02,-52.98,79.9,-112.43
723,1778614164.8000078,0.86,0.85,0.02,-52.98,79.9,-112.43
724,1778614164.81003,0.86,0.85,0.02,-52.98,79.9,-112.43
725,1778614164.820054,0.86,0.85,0.02,-52.98,79.9,-112.43
726,1778614164.830079,2.26,0.67,-1.08,17.64,364.14,-68.73
727,1778614164.8401,2.26,0.67,-1.08,17.64,364.14,-68.73
728,1778614164.850005,2.26,0.67,-1.08,17.64,364.14,-68.73
729,1778614164.860054,1.46,0.28,-0.1,243.71,80.38,-11.11
730,1778614164.8700821,1.46,0.28,-0.1,243.71,80.38,-11.11
731,1778614164.879992,1.46,0.28,-0.1,243.71,80.38,-11.11
732,1778614164.8900359,0.57,-0.04,-0.07,254.15,85.02,-30.52
733,1778614164.90006,0.57,-0.04,-0.07,254.15,85.02,-30.52
734,1778614164.910083,0.57,-0.04,-0.07,254.15,85.02,-30.52
735,1778614164.9200032,0.57,-0.04,-0.07,254.15,85.02,-30.52
736,1778614164.930048,0.56,-0.02,-0.14,209.29,-22.28,-68.54
737,1778614164.940081,0.56,-0.02,-0.14,209.29,-22.28,-68.54
738,1778614164.94998,0.56,-0.02,-0.14,209.29,-22.28,-68.54
739,1778614164.960002,0.56,-0.02,-0.14,209.29,-22.28,-68.54
740,1778614164.970057,0.56,-0.02,-0.14,209.29,-22.28,-68.54
741,1778614164.979979,0.56,-0.02,-0.14,209.29,-22.28,-68.54
742,1778614164.990016,0.56,-0.02,-0.14,209.29,-22.28,-68.54
743,1778614165.000053,0.56,-0.02,-0.14,209.29,-22.28,-68.54
744,1778614165.010096,0.56,-0.02,-0.14,209.29,-22.28,-68.54
745,1778614165.020015,0.56,-0.02,-0.14,209.29,-22.28,-68.54
746,1778614165.0300548,0.56,-0.02,-0.14,209.29,-22.28,-68.54
747,1778614165.039994,0.56,-0.02,-0.14,209.29,-22.28,-68.54
748,1778614165.050025,0.56,-0.02,-0.14,209.29,-22.28,-68.54
749,1778614165.0600681,0.01,-1.74,0.47,-613.1,-399.96,61.83
750,1778614165.070103,0.01,-1.74,0.47,-613.1,-399.96,61.83
751,1778614165.080002,2.13,-0.55,0.36,-613.1,-399.96,61.83
752,1778614165.0900302,2.13,-0.55,0.36,359.56,250.12,2.38
753,1778614165.100061,2.13,-0.55,0.36,359.56,250.12,2.38
754,1778614165.1099782,2.13,-0.55,0.36,359.56,250.12,2.38
755,1778614165.12002,2.17,0.6,-0.97,345.15,249.82,344.12
756,1778614165.130047,2.17,0.6,-0.97,345.15,249.82,344.12
757,1778614165.1400828,2.17,0.6,-0.97,345.15,249.82,344.12
758,1778614165.150089,2.17,0.6,-0.97,345.15,249.82,344.12
759,1778614165.1600971,3.76,1.34,-1.17,101.75,304.32,324.58
760,1778614165.170024,3.76,1.34,-1.17,101.75,304.32,324.58
761,1778614165.1800508,3.76,1.34,-1.17,101.75,304.32,324.58
762,1778614165.190083,3.76,1.34,-1.17,101.75,304.32,324.58
763,1778614165.19999,3.76,1.34,-1.17,101.75,304.32,324.58
764,1778614165.2100039,3.76,1.34,-1.17,101.75,304.32,324.58
765,1778614165.2200232,3.76,1.34,-1.17,101.75,304.32,324.58
766,1778614165.2300549,3.76,1.34,-1.17,101.75,304.32,324.58
767,1778614165.240096,3.76,1.34,-1.17,101.75,304.32,324.58
768,1778614165.249988,0.83,0.95,-0.66,-392.33,-198.24,197.75
769,1778614165.260021,0.83,0.95,-0.66,-392.33,-198.24,197.75
770,1778614165.270061,0.6,1.19,-0.08,-20.45,-449.65,60.49
771,1778614165.280106,0.6,1.19,-0.08,-20.45,-449.65,60.49
772,1778614165.2900229,0.6,1.19,-0.08,-20.45,-449.65,60.49
773,1778614165.300066,0.28,0.91,0.87,-65.25,-443.66,-107.36
774,1778614165.310101,0.28,0.91,0.87,-65.25,-443.66,-107.36
775,1778614165.320032,0.28,0.91,0.87,-65.25,-443.66,-107.36
776,1778614165.330084,0.08,-0.27,1.05,816.1,746.58,-182.31
777,1778614165.339979,0.08,-0.27,1.05,816.1,746.58,-182.31
778,1778614165.350014,0.08,-0.27,1.05,816.1,746.58,-182.31
779,1778614165.3600829,0.08,-0.27,1.05,816.1,746.58,-182.31
780,1778614165.369995,0.08,-0.27,1.05,816.1,746.58,-182.31
781,1778614165.3800378,-0.31,0.13,-0.48,456.79,321.84,-162.41
782,1778614165.39008,-0.31,0.13,-0.48,456.79,321.84,-162.41
783,1778614165.399992,-0.31,0.13,-0.48,456.79,321.84,-162.41
784,1778614165.4100869,0.92,0.1,2.01,456.79,321.84,-162.41
785,1778614165.420102,0.92,0.1,2.01,-219.42,-212.89,-4.64
786,1778614165.4300952,0.92,0.1,2.01,-219.42,-212.89,-4.64
787,1778614165.4400399,0.92,0.1,2.01,-219.42,-212.89,-4.64
788,1778614165.4500868,4.57,2.18,0.13,-496.83,-28.5,-63.78
789,1778614165.460078,4.57,2.18,0.13,-496.83,-28.5,-63.78
790,1778614165.470048,4.57,2.18,0.13,-496.83,-28.5,-63.78
791,1778614165.480087,4.57,2.18,0.13,-496.83,-28.5,-63.78
792,1778614165.490001,0.75,0.4,-0.47,-496.83,-28.5,-63.78
793,1778614165.499993,0.75,0.4,-0.47,-496.83,-28.5,-63.78
794,1778614165.510031,0.75,0.4,-0.47,-496.83,-28.5,-63.78
795,1778614165.5200949,0.75,0.4,-0.47,-496.83,-28.5,-63.78
796,1778614165.529987,0.75,0.4,-0.47,-496.83,-28.5,-63.78
797,1778614165.54,0.75,0.4,-0.47,-496.83,-28.5,-63.78
798,1778614165.5500212,0.75,0.4,-0.47,-496.83,-28.5,-63.78
799,1778614165.560027,0.75,0.4,-0.47,-496.83,-28.5,-63.78
800,1778614165.5700648,0.75,0.4,-0.47,-496.83,-28.5,-63.78
801,1778614165.5801039,1.7,0.43,-0.25,69.27,259.83,-138.31
802,1778614165.590011,1.7,0.43,-0.25,69.27,259.83,-138.31
803,1778614165.600075,1.51,0.42,-0.39,304.02,77.33,-99.61
804,1778614165.610086,1.51,0.42,-0.39,304.02,77.33,-99.61
805,1778614165.6199949,1.51,0.42,-0.39,304.02,77.33,-99.61
806,1778614165.630004,1.51,0.42,-0.39,304.02,77.33,-99.61
807,1778614165.640018,0.7,0.09,-0.12,245.12,18.07,-117.49
808,1778614165.650037,0.7,0.09,-0.12,245.12,18.07,-117.49
809,1778614165.660086,0.7,0.09,-0.12,245.12,18.07,-117.49
810,1778614165.6699991,0.59,0.16,-0.05,224.85,-27.34,-87.89
811,1778614165.680021,0.59,0.16,-0.05,224.85,-27.34,-87.89
812,1778614165.690037,0.59,0.16,-0.05,224.85,-27.34,-87.89
813,1778614165.700077,0.59,0.16,-0.05,224.85,-27.34,-87.89
814,1778614165.7100842,0.59,0.16,-0.05,224.85,-27.34,-87.89
815,1778614165.719981,0.59,0.16,-0.05,224.85,-27.34,-87.89
816,1778614165.73001,0.59,0.16,-0.05,224.85,-27.34,-87.89
817,1778614165.740027,0.59,0.16,-0.05,224.85,-27.34,-87.89
818,1778614165.7500339,0.59,0.16,-0.05,224.85,-27.34,-87.89
819,1778614165.760077,0.59,0.16,-0.05,224.85,-27.34,-87.89
820,1778614165.770099,1.7,-0.44,1.48,-1184.81,-882.81,-41.02
821,1778614165.779994,1.7,-0.44,1.48,-1184.81,-882.81,-41.02
822,1778614165.789988,0.58,-0.59,0.56,-199.16,5.31,176.39
823,1778614165.800102,0.58,-0.59,0.56,-199.16,5.31,176.39
824,1778614165.809978,0.58,-0.59,0.56,-199.16,5.31,176.39
825,1778614165.820075,0.58,-0.59,0.56,-199.16,5.31,176.39
826,1778614165.83006,0.53,-0.34,-0.39,117.74,238.4,64.76
827,1778614165.840082,0.53,-0.34,-0.39,117.74,238.4,64.76
828,1778614165.850105,0.53,-0.34,-0.39,117.74,238.4,64.76
829,1778614165.8599958,3.51,0.13,-1.29,600.46,417.54,255.62
830,1778614165.8700109,3.51,0.13,-1.29,600.46,417.54,255.62
831,1778614165.880045,3.51,0.13,-1.29,600.46,417.54,255.62
832,1778614165.8900852,3.51,0.13,-1.29,600.46,417.54,255.62
833,1778614165.899988,2.39,0.51,-0.25,573.79,276.37,181.95
834,1778614165.910021,2.39,0.51,-0.25,573.79,276.37,181.95
835,1778614165.920085,2.39,0.51,-0.25,573.79,276.37,181.95
836,1778614165.930101,2.39,0.51,-0.25,573.79,276.37,181.95
837,1778614165.93999,2.13,1.53,-1.0,-57.5,164.55,98.14
838,1778614165.9500191,2.13,1.53,-1.0,-57.5,164.55,98.14
839,1778614165.960042,2.13,1.53,-1.0,-57.5,164.55,98.14
840,1778614165.969985,2.13,1.53,-1.0,-57.5,164.55,98.14
841,1778614165.9800372,0.89,1.03,-0.85,-515.75,68.18,151.31
842,1778614165.9900732,0.89,1.03,-0.85,-515.75,68.18,151.31
843,1778614166.0000901,0.89,1.03,-0.85,-515.75,68.18,151.31
844,1778614166.00999,0.89,1.03,-0.85,-515.75,68.18,151.31
845,1778614166.020027,0.89,1.03,-0.85,-515.75,68.18,151.31
846,1778614166.0300531,0.89,1.03,-0.85,-515.75,68.18,151.31
847,1778614166.0400991,0.89,1.03,-0.85,-515.75,68.18,151.31
848,1778614166.049995,0.89,1.03,-0.85,-515.75,68.18,151.31
849,1778614166.0600262,0.89,1.03,-0.85,-515.75,68.18,151.31
850,1778614166.070056,0.89,1.03,-0.85,-515.75,68.18,151.31
851,1778614166.080085,0.89,1.03,-0.85,-515.75,68.18,151.31
852,1778614166.09009,0.89,1.03,-0.85,-515.75,68.18,151.31
853,1778614166.100013,0.3,0.47,0.21,313.78,-29.05,-13.92
854,1778614166.110067,0.3,0.47,0.21,313.78,-29.05,-13.92
855,1778614166.119998,0.3,0.47,0.21,313.78,-29.05,-13.92
856,1778614166.130038,0.42,0.51,0.08,306.09,33.39,29.3
857,1778614166.140094,0.42,0.51,0.08,306.09,33.39,29.3
858,1778614166.150013,0.42,0.51,0.08,306.09,33.39,29.3
859,1778614166.160079,0.42,0.51,0.08,306.09,33.39,29.3
860,1778614166.17001,0.23,0.35,0.04,208.98,-0.73,16.91
861,1778614166.180038,0.23,0.35,0.04,208.98,-0.73,16.91
862,1778614166.190089,0.23,0.35,0.04,208.98,-0.73,16.91
863,1778614166.2000132,0.23,0.35,0.04,208.98,-0.73,16.91
864,1778614166.210059,0.47,0.51,-0.02,110.05,-72.51,7.69
865,1778614166.220098,0.47,0.51,-0.02,110.05,-72.51,7.69
866,1778614166.2299771,0.47,0.51,-0.02,110.05,-72.51,7.69
867,1778614166.2400022,0.47,0.51,-0.02,110.05,-72.51,7.69
868,1778614166.2500522,0.47,0.51,-0.02,110.05,-72.51,7.69
869,1778614166.260087,0.47,0.51,-0.02,110.05,-72.51,7.69
870,1778614166.270022,0.47,0.51,-0.02,110.05,-72.51,7.69
871,1778614166.280069,0.47,0.51,-0.02,110.05,-72.51,7.69
872,1778614166.290015,0.47,0.51,-0.02,110.05,-72.51,7.69
873,1778614166.30009,1.61,1.35,-0.28,259.09,-48.46,-162.84
874,1778614166.3100219,1.61,1.35,-0.28,259.09,-48.46,-162.84
875,1778614166.3200572,1.61,1.35,-0.28,259.09,-48.46,-162.84
876,1778614166.3299892,1.18,0.47,-0.03,42.79,39.98,-133.61
877,1778614166.340035,1.18,0.47,-0.03,42.79,39.98,-133.61
878,1778614166.3500319,1.18,0.47,-0.03,42.79,39.98,-133.61
879,1778614166.360072,1.95,0.71,-0.61,162.11,126.16,-148.62
880,1778614166.370014,1.95,0.71,-0.61,162.11,126.16,-148.62
881,1778614166.38002,1.95,0.71,-0.61,162.11,126.16,-148.62
882,1778614166.3900301,1.95,0.71,-0.61,162.11,126.16,-148.62
883,1778614166.40008,1.95,0.71,-0.61,162.11,126.16,-148.62
884,1778614166.4100192,1.05,0.29,-0.3,190.92,23.68,-161.25
885,1778614166.420071,1.05,0.29,-0.3,190.92,23.68,-161.25
886,1778614166.4300292,1.05,0.29,-0.3,190.92,23.68,-161.25
887,1778614166.4401002,2.66,-1.15,4.89,35.03,9.83,-123.72
888,1778614166.450024,2.66,-1.15,4.89,35.03,9.83,-123.72
889,1778614166.460052,2.66,-1.15,4.89,35.03,9.83,-123.72
890,1778614166.470094,2.66,-1.15,4.89,35.03,9.83,-123.72
891,1778614166.480006,2.66,-1.15,4.89,35.03,9.83,-123.72
892,1778614166.490012,0.73,-0.15,0.04,-33.02,-7.26,-67.5
893,1778614166.5000162,0.73,-0.15,0.04,-33.02,-7.26,-67.5
894,1778614166.51006,0.73,-0.15,0.04,-33.02,-7.26,-67.5
895,1778614166.520051,0.51,0.03,-0.2,-5.43,134.09,-67.57
896,1778614166.5300128,0.51,0.03,-0.2,-5.43,134.09,-67.57
897,1778614166.5400782,0.51,0.03,-0.2,-5.43,134.09,-67.57
898,1778614166.5500002,0.51,0.03,-0.2,-5.43,134.09,-67.57
899,1778614166.5600052,0.51,0.03,-0.2,-5.43,134.09,-67.57
900,1778614166.57003,0.51,0.03,-0.2,-5.43,134.09,-67.57
901,1778614166.580076,0.51,0.03,-0.2,-5.43,134.09,-67.57
902,1778614166.590097,0.51,0.03,-0.2,-5.43,134.09,-67.57
903,1778614166.6000168,0.51,0.03,-0.2,-5.43,134.09,-67.57
904,1778614166.6100302,0.51,0.03,-0.2,-5.43,134.09,-67.57
905,1778614166.6200519,0.51,0.03,-0.2,-5.43,134.09,-67.57
906,1778614166.629983,1.55,-0.18,-0.35,165.34,173.1,49.74
907,1778614166.640022,1.55,-0.18,-0.35,165.34,173.1,49.74
908,1778614166.650041,1.55,-0.18,-0.35,165.34,173.1,49.74
909,1778614166.660053,1.55,-0.18,-0.35,165.34,173.1,49.74
910,1778614166.670083,2.29,0.45,-0.75,273.25,198.06,169.25
911,1778614166.6800158,2.29,0.45,-0.75,273.25,198.06,169.25
912,1778614166.69003,2.29,0.45,-0.75,273.25,198.06,169.25
913,1778614166.70006,2.29,0.45,-0.75,273.25,198.06,169.25
914,1778614166.7100768,1.92,0.38,-0.4,268.07,275.63,184.33
915,1778614166.720104,1.92,0.38,-0.4,268.07,275.63,184.33
916,1778614166.730011,1.92,0.38,-0.4,268.07,275.63,184.33
917,1778614166.740055,1.92,0.38,-0.4,268.07,275.63,184.33
918,1778614166.750093,1.92,0.38,-0.4,268.07,275.63,184.33
919,1778614166.759995,1.92,0.38,-0.4,268.07,275.63,184.33
920,1778614166.770009,1.92,0.38,-0.4,268.07,275.63,184.33
921,1778614166.78003,1.92,0.38,-0.4,268.07,275.63,184.33
922,1778614166.790056,1.92,0.38,-0.4,268.07,275.63,184.33
923,1778614166.799981,1.92,0.38,-0.4,268.07,275.63,184.33
924,1778614166.810015,1.92,0.38,-0.4,268.07,275.63,184.33
925,1778614166.8200388,0.93,0.99,-0.63,-341.0,13.98,109.5
926,1778614166.830071,0.56,0.5,-0.29,148.01,-76.97,3.42
927,1778614166.8401,0.56,0.5,-0.29,148.01,-76.97,3.42
928,1778614166.849994,0.56,0.5,-0.29,148.01,-76.97,3.42
929,1778614166.8600588,0.61,0.65,-0.03,148.01,-76.97,3.42
930,1778614166.870104,0.61,0.65,-0.03,301.7,3.66,-12.08
931,1778614166.880018,0.61,0.65,-0.03,301.7,3.66,-12.08
932,1778614166.890056,0.61,0.65,-0.03,301.7,3.66,-12.08
933,1778614166.9001029,0.27,0.57,-0.02,258.91,37.41,-8.3
934,1778614166.910012,0.27,0.57,-0.02,258.91,37.41,-8.3
935,1778614166.920073,0.27,0.57,-0.02,258.91,37.41,-8.3
936,1778614166.9299788,0.01,0.48,-0.04,213.38,41.2,-31.62
937,1778614166.940023,0.01,0.48,-0.04,213.38,41.2,-31.62
938,1778614166.9500842,0.01,0.48,-0.04,213.38,41.2,-31.62
939,1778614166.960002,0.01,0.48,-0.04,213.38,41.2,-31.62
940,1778614166.970029,-0.01,0.33,-0.04,89.84,-35.28,-51.09
941,1778614166.9800708,-0.01,0.33,-0.04,89.84,-35.28,-51.09
942,1778614166.990092,-0.01,0.33,-0.04,89.84,-35.28,-51.09
943,1778614167.0000079,-0.01,0.33,-0.04,89.84,-35.28,-51.09
944,1778614167.010064,0.03,0.1,-0.08,-35.22,-167.79,-14.16
945,1778614167.019993,0.03,0.1,-0.08,-35.22,-167.79,-14.16
946,1778614167.030027,0.03,0.1,-0.08,-35.22,-167.79,-14.16
947,1778614167.040016,0.03,0.1,-0.08,-35.22,-167.79,-14.16
948,1778614167.049997,1.92,0.82,-0.45,-23.74,-404.17,104.86
949,1778614167.060029,1.92,0.82,-0.45,-23.74,-404.17,104.86
950,1778614167.070015,1.92,0.82,-0.45,-23.74,-404.17,104.86
951,1778614167.080056,1.92,0.82,-0.45,-23.74,-404.17,104.86
952,1778614167.090095,1.92,0.82,-0.45,-23.74,-404.17,104.86
953,1778614167.1000059,1.92,0.82,-0.45,-23.74,-404.17,104.86
954,1778614167.1100328,1.92,0.82,-0.45,-23.74,-404.17,104.86
955,1778614167.1200771,1.92,0.82,-0.45,-23.74,-404.17,104.86
956,1778614167.130089,1.92,0.82,-0.45,-23.74,-404.17,104.86
957,1778614167.139978,1.92,0.82,-0.45,-23.74,-404.17,104.86
958,1778614167.150012,1.92,0.82,-0.45,-23.74,-404.17,104.86
959,1778614167.160018,1.8,0.74,-0.37,124.57,92.9,16.6
960,1778614167.170072,1.8,0.74,-0.37,124.57,92.9,16.6
961,1778614167.1799932,1.8,0.74,-0.37,124.57,92.9,16.6
962,1778614167.1900108,1.8,0.74,-0.37,124.57,92.9,16.6
963,1778614167.2000299,1.63,0.37,-0.57,124.57,92.9,16.6
964,1778614167.210021,1.63,0.37,-0.57,24.11,41.75,-99.98
965,1778614167.219997,1.63,0.37,-0.57,24.11,41.75,-99.98
966,1778614167.230089,1.63,0.37,-0.57,24.11,41.75,-99.98
967,1778614167.240059,0.83,0.28,-0.25,24.11,41.75,-99.98
968,1778614167.250029,0.83,0.28,-0.25,-164.43,-41.02,-31.43
969,1778614167.260017,0.83,0.28,-0.25,-164.43,-41.02,-31.43
970,1778614167.27002,0.83,0.28,-0.25,-164.43,-41.02,-31.43
971,1778614167.2800078,0.83,0.28,-0.25,-164.43,-41.02,-31.43
972,1778614167.290008,0.83,0.28,-0.25,-164.43,-41.02,-31.43
973,1778614167.3,0.83,0.28,-0.25,-164.43,-41.02,-31.43
974,1778614167.309978,0.83,0.28,-0.25,-164.43,-41.02,-31.43
975,1778614167.319985,0.83,0.28,-0.25,-164.43,-41.02,-31.43
976,1778614167.330092,0.83,0.28,-0.25,-164.43,-41.02,-31.43
977,1778614167.340075,0.64,0.13,-0.13,18.86,-1.16,-81.54
978,1778614167.350067,0.64,0.13,-0.13,18.86,-1.16,-81.54
979,1778614167.360051,0.49,0.12,-0.13,51.15,-34.85,-92.71
980,1778614167.370036,0.49,0.12,-0.13,51.15,-34.85,-92.71
981,1778614167.38001,0.49,0.12,-0.13,51.15,-34.85,-92.71
982,1778614167.389981,0.49,0.12,-0.13,51.15,-34.85,-92.71
983,1778614167.4000928,0.51,0.03,-0.14,52.92,-94.06,-90.45
984,1778614167.4100611,0.51,0.03,-0.14,52.92,-94.06,-90.45
985,1778614167.420023,0.51,0.03,-0.14,52.92,-94.06,-90.45
986,1778614167.430094,0.51,0.03,-0.14,52.92,-94.06,-90.45
987,1778614167.440064,0.61,-0.85,0.59,-454.96,-192.02,39.37
988,1778614167.450063,0.61,-0.85,0.59,-454.96,-192.02,39.37
989,1778614167.460033,0.61,-0.85,0.59,-454.96,-192.02,39.37
990,1778614167.470011,2.03,-0.06,-0.15,-454.96,-192.02,39.37
991,1778614167.47998,2.03,-0.06,-0.15,-13.85,184.75,133.48
992,1778614167.490083,2.03,-0.06,-0.15,-13.85,184.75,133.48
993,1778614167.500064,2.03,-0.06,-0.15,-13.85,184.75,133.48
994,1778614167.5100422,1.78,0.35,-0.45,361.94,94.12,202.33
995,1778614167.520044,1.78,0.35,-0.45,361.94,94.12,202.33
996,1778614167.530029,1.78,0.35,-0.45,361.94,94.12,202.33
997,1778614167.540004,1.78,0.35,-0.45,361.94,94.12,202.33
998,1778614167.549979,2.61,0.47,-0.33,242.55,185.42,245.54
999,1778614167.560086,2.61,0.47,-0.33,242.55,185.42,245.54
1000,1778614167.570015,2.61,0.47,-0.33,242.55,185.42,245.54
