id,timestamp,acc_x,acc_y,acc_z,gyro_x,gyro_y,gyro_z
1,1778614176.326275,0.66,0.53,-0.27,235.66,199.95,-92.35
2,1778614176.326288,0.66,0.53,-0.27,235.66,199.95,-92.35
3,1778614176.333872,0.66,0.53,-0.27,235.66,199.95,-92.35
4,1778614176.3438358,0.66,0.53,-0.27,235.66,199.95,-92.35
5,1778614176.353785,0.66,0.53,-0.27,235.66,199.95,-92.35
6,1778614176.363839,0.56,0.71,-0.31,177.73,114.38,-47.3
7,1778614176.3738089,0.56,0.71,-0.31,177.73,114.38,-47.3
8,1778614176.383775,0.56,0.71,-0.31,177.73,114.38,-47.3
9,1778614176.393871,0.56,0.71,-0.31,177.73,114.38,-47.3
10,1778614176.403811,0.33,0.63,-0.25,147.34,29.85,-11.35
11,1778614176.4137568,0.33,0.63,-0.25,147.34,29.85,-11.35
12,1778614176.4238489,0.33,0.63,-0.25,147.34,29.85,-11.35
13,1778614176.4337862,2.05,-0.52,4.94,147.34,29.85,-11.35
14,1778614176.443842,2.05,-0.52,4.94,-908.87,-1093.08,183.29
15,1778614176.453762,2.05,-0.52,4.94,-908.87,-1093.08,183.29
16,1778614176.46384,2.05,-0.52,4.94,-908.87,-1093.08,183.29
17,1778614176.4737978,2.05,-0.52,4.94,-908.87,-1093.08,183.29
18,1778614176.483854,0.3,0.54,-0.21,-90.33,-45.41,100.83
19,1778614176.493784,0.3,0.54,-0.21,-90.33,-45.41,100.83
20,1778614176.50384,0.3,0.54,-0.21,-90.33,-45.41,100.83
21,1778614176.513768,0.3,0.54,-0.21,-90.33,-45.41,100.83
22,1778614176.523826,0.3,0.54,-0.21,-90.33,-45.41,100.83
23,1778614176.533749,0.3,0.54,-0.21,-90.33,-45.41,100.83
24,1778614176.5438159,0.3,0.54,-0.21,-90.33,-45.41,100.83
25,1778614176.553754,0.3,0.54,-0.21,-90.33,-45.41,100.83
26,1778614176.563803,0.3,0.54,-0.21,-90.33,-45.41,100.83
27,1778614176.5738711,0.3,0.54,-0.21,-90.33,-45.41,100.83
28,1778614176.583819,0.3,0.54,-0.21,-90.33,-45.41,100.83
29,1778614176.593868,1.77,0.95,-0.35,308.11,393.13,1.89
30,1778614176.603796,1.77,0.95,-0.35,308.11,393.13,1.89
31,1778614176.613836,1.77,0.95,-0.35,308.11,393.13,1.89
32,1778614176.623761,1.77,0.95,-0.35,308.11,393.13,1.89
33,1778614176.6337972,0.92,0.72,-0.23,172.61,274.41,57.92
34,1778614176.64384,0.92,0.72,-0.23,172.61,274.41,57.92
35,1778614176.653771,0.47,1.19,-0.4,172.61,274.41,57.92
36,1778614176.66383,0.47,1.19,-0.4,31.37,202.27,60.36
37,1778614176.6738582,0.47,1.19,-0.4,31.37,202.27,60.36
38,1778614176.683794,0.47,1.19,-0.4,31.37,202.27,60.36
39,1778614176.693842,0.47,1.19,-0.4,31.37,202.27,60.36
40,1778614176.703764,0.47,1.19,-0.4,31.37,202.27,60.36
41,1778614176.713832,0.47,1.19,-0.4,31.37,202.27,60.36
42,1778614176.7237718,0.47,1.19,-0.4,31.37,202.27,60.36
43,1778614176.7338219,0.47,1.19,-0.4,31.37,202.27,60.36
44,1778614176.743865,0.47,1.19,-0.4,31.37,202.27,60.36
45,1778614176.753793,0.47,1.19,-0.4,31.37,202.27,60.36
46,1778614176.763846,0.47,1.19,-0.4,31.37,202.27,60.36
47,1778614176.7737868,0.47,1.19,-0.4,31.37,202.27,60.36
48,1778614176.783838,-0.17,0.39,-0.12,179.2,11.41,-19.17
49,1778614176.793778,-0.17,0.39,-0.12,179.2,11.41,-19.17
50,1778614176.803835,-0.1,0.27,-0.19,160.64,186.28,-29.48
51,1778614176.813747,-0.1,0.27,-0.19,160.64,186.28,-29.48
52,1778614176.823794,-0.1,0.27,-0.19,160.64,186.28,-29.48
53,1778614176.833778,-0.1,0.27,-0.19,160.64,186.28,-29.48
54,1778614176.8438148,-0.03,0.34,-0.1,121.52,100.4,20.14
55,1778614176.853842,-0.03,0.34,-0.1,121.52,100.4,20.14
56,1778614176.863874,-0.03,0.34,-0.1,121.52,100.4,20.14
57,1778614176.8737888,-0.03,0.34,-0.1,121.52,100.4,20.14
58,1778614176.8838348,2.67,5.06,-0.63,148.62,245.67,90.64
59,1778614176.8938491,2.67,5.06,-0.63,148.62,245.67,90.64
60,1778614176.903863,2.67,5.06,-0.63,148.62,245.67,90.64
61,1778614176.9137769,2.67,5.06,-0.63,148.62,245.67,90.64
62,1778614176.923792,0.09,0.42,-0.33,253.72,112.92,-82.64
63,1778614176.933818,0.09,0.42,-0.33,253.72,112.92,-82.64
64,1778614176.9438531,0.09,0.42,-0.33,253.72,112.92,-82.64
65,1778614176.9538739,0.09,0.42,-0.33,253.72,112.92,-82.64
66,1778614176.963774,-0.03,0.18,-0.05,89.42,-40.53,-122.99
67,1778614176.973823,-0.03,0.18,-0.05,89.42,-40.53,-122.99
68,1778614176.983865,-0.03,0.18,-0.05,89.42,-40.53,-122.99
69,1778614176.993789,-0.03,0.18,-0.05,89.42,-40.53,-122.99
70,1778614177.0038211,0.92,2.13,-0.32,27.53,29.91,70.8
71,1778614177.013858,0.92,2.13,-0.32,27.53,29.91,70.8
72,1778614177.023786,0.92,2.13,-0.32,27.53,29.91,70.8
73,1778614177.033834,0.92,2.13,-0.32,27.53,29.91,70.8
74,1778614177.04387,0.92,2.13,-0.32,27.53,29.91,70.8
75,1778614177.0537589,0.92,2.13,-0.32,27.53,29.91,70.8
76,1778614177.0637922,0.92,2.13,-0.32,27.53,29.91,70.8
77,1778614177.073823,0.92,2.13,-0.32,27.53,29.91,70.8
78,1778614177.0838149,0.92,2.13,-0.32,27.53,29.91,70.8
79,1778614177.0938292,0.92,2.13,-0.32,27.53,29.91,70.8
80,1778614177.103866,0.92,2.13,-0.32,27.53,29.91,70.8
81,1778614177.1137762,0.7,0.65,-0.09,119.02,70.74,-102.91
82,1778614177.1237829,0.7,0.65,-0.09,119.02,70.74,-102.91
83,1778614177.133821,0.7,0.65,-0.09,119.02,70.74,-102.91
84,1778614177.143855,0.7,0.65,-0.09,119.02,70.74,-102.91
85,1778614177.1537752,0.47,0.55,-0.16,115.17,44.62,-72.51
86,1778614177.1638029,0.47,0.55,-0.16,115.17,44.62,-72.51
87,1778614177.173816,0.47,0.55,-0.16,115.17,44.62,-72.51
88,1778614177.183858,0.47,0.55,-0.16,115.17,44.62,-72.51
89,1778614177.1938481,1.05,-0.26,1.61,-300.11,-191.47,41.99
90,1778614177.203758,1.05,-0.26,1.61,-300.11,-191.47,41.99
91,1778614177.2137768,1.05,-0.26,1.61,-300.11,-191.47,41.99
92,1778614177.2238688,1.05,-0.26,1.61,-300.11,-191.47,41.99
93,1778614177.2337458,1.05,-0.26,1.61,-300.11,-191.47,41.99
94,1778614177.2437491,1.05,-0.26,1.61,-300.11,-191.47,41.99
95,1778614177.2538729,1.05,-0.26,1.61,-300.11,-191.47,41.99
96,1778614177.263793,1.05,-0.26,1.61,-300.11,-191.47,41.99
97,1778614177.2737951,1.05,-0.26,1.61,-300.11,-191.47,41.99
98,1778614177.2838132,1.05,-0.26,1.61,-300.11,-191.47,41.99
99,1778614177.293809,1.05,-0.26,1.61,-300.11,-191.47,41.99
100,1778614177.3038359,0.6,0.24,-0.12,-41.75,133.79,58.78
101,1778614177.3138509,1.16,0.86,-0.32,2.69,217.29,109.31
102,1778614177.323858,1.16,0.86,-0.32,2.69,217.29,109.31
103,1778614177.333746,1.16,0.86,-0.32,2.69,217.29,109.31
104,1778614177.343777,1.74,2.12,-0.68,33.81,286.5,157.04
105,1778614177.3538182,1.74,2.12,-0.68,33.81,286.5,157.04
106,1778614177.36384,1.74,2.12,-0.68,33.81,286.5,157.04
107,1778614177.373872,1.74,2.12,-0.68,33.81,286.5,157.04
108,1778614177.3837829,1.02,1.86,-0.69,91.43,203.19,32.96
109,1778614177.3937962,1.02,1.86,-0.69,91.43,203.19,32.96
110,1778614177.403811,1.02,1.86,-0.69,91.43,203.19,32.96
111,1778614177.413849,1.02,1.86,-0.69,91.43,203.19,32.96
112,1778614177.4237592,0.46,1.2,-0.28,13.73,7.87,66.28
113,1778614177.4338062,0.46,1.2,-0.28,13.73,7.87,66.28
114,1778614177.4438531,0.46,1.2,-0.28,13.73,7.87,66.28
115,1778614177.4537458,0.46,1.2,-0.28,13.73,7.87,66.28
116,1778614177.4637702,0.25,0.85,-0.2,75.87,-99.73,-15.87
117,1778614177.473792,0.25,0.85,-0.2,75.87,-99.73,-15.87
118,1778614177.4838269,0.25,0.85,-0.2,75.87,-99.73,-15.87
119,1778614177.493848,0.25,0.85,-0.2,75.87,-99.73,-15.87
120,1778614177.5037591,0.19,1.0,0.02,151.06,-174.44,-7.45
121,1778614177.513793,0.19,1.0,0.02,151.06,-174.44,-7.45
122,1778614177.5238268,0.19,1.0,0.02,151.06,-174.44,-7.45
123,1778614177.533849,0.19,1.0,0.02,151.06,-174.44,-7.45
124,1778614177.543755,0.17,0.6,0.17,126.53,-21.67,-35.64
125,1778614177.5537689,0.17,0.6,0.17,126.53,-21.67,-35.64
126,1778614177.563801,0.17,0.6,0.17,126.53,-21.67,-35.64
127,1778614177.573791,0.17,0.6,0.17,126.53,-21.67,-35.64
128,1778614177.583816,0.17,0.6,0.17,126.53,-21.67,-35.64
129,1778614177.593784,0.17,0.6,0.17,126.53,-21.67,-35.64
130,1778614177.603758,0.17,0.6,0.17,126.53,-21.67,-35.64
131,1778614177.613794,0.17,0.6,0.17,126.53,-21.67,-35.64
132,1778614177.623817,0.17,0.6,0.17,126.53,-21.67,-35.64
133,1778614177.6338282,0.17,0.6,0.17,126.53,-21.67,-35.64
134,1778614177.643745,-0.08,0.09,0.05,127.32,89.48,-80.75
135,1778614177.65378,0.57,0.34,1.43,127.32,89.48,-80.75
136,1778614177.6638021,0.57,0.34,1.43,21.73,164.25,-20.51
137,1778614177.673836,0.57,0.34,1.43,21.73,164.25,-20.51
138,1778614177.683869,0.57,0.34,1.43,21.73,164.25,-20.51
139,1778614177.693774,0.37,0.7,-0.2,150.27,85.88,-8.06
140,1778614177.703794,0.37,0.7,-0.2,150.27,85.88,-8.06
141,1778614177.713832,0.37,0.7,-0.2,150.27,85.88,-8.06
142,1778614177.7238479,0.37,0.7,-0.2,150.27,85.88,-8.06
143,1778614177.733759,1.28,3.27,-0.5,99.06,213.01,-14.04
144,1778614177.743797,1.28,3.27,-0.5,99.06,213.01,-14.04
145,1778614177.753814,1.28,3.27,-0.5,99.06,213.01,-14.04
146,1778614177.763853,1.28,3.27,-0.5,99.06,213.01,-14.04
147,1778614177.773864,1.28,3.27,-0.5,99.06,213.01,-14.04
148,1778614177.783746,1.28,3.27,-0.5,99.06,213.01,-14.04
149,1778614177.7937632,1.28,3.27,-0.5,99.06,213.01,-14.04
150,1778614177.803776,1.28,3.27,-0.5,99.06,213.01,-14.04
151,1778614177.81377,1.28,3.27,-0.5,99.06,213.01,-14.04
152,1778614177.8237498,1.28,3.27,-0.5,99.06,213.01,-14.04
153,1778614177.833788,0.6,0.82,-0.55,-69.7,50.72,-54.14
154,1778614177.843837,0.6,0.82,-0.55,-69.7,50.72,-54.14
155,1778614177.853757,1.05,1.39,-0.68,-109.31,-178.89,-52.55
156,1778614177.863793,1.05,1.39,-0.68,-109.31,-178.89,-52.55
157,1778614177.873827,1.05,1.39,-0.68,-109.31,-178.89,-52.55
158,1778614177.883744,1.05,1.39,-0.68,-109.31,-178.89,-52.55
159,1778614177.8938031,0.62,0.76,-0.31,-216.61,-290.59,-15.5
160,1778614177.903847,0.62,0.76,-0.31,-216.61,-290.59,-15.5
161,1778614177.913866,0.62,0.76,-0.31,-216.61,-290.59,-15.5
162,1778614177.9237928,0.56,0.69,-0.16,-216.61,-290.59,-15.5
163,1778614177.933846,0.56,0.69,-0.16,13.31,61.4,-58.65
164,1778614177.943773,0.56,0.69,-0.16,13.31,61.4,-58.65
165,1778614177.953799,0.56,0.69,-0.16,13.31,61.4,-58.65
166,1778614177.963787,0.43,0.55,-0.16,141.54,161.13,-81.12
167,1778614177.973828,0.43,0.55,-0.16,141.54,161.13,-81.12
168,1778614177.983863,0.43,0.55,-0.16,141.54,161.13,-81.12
169,1778614177.993768,0.38,0.46,-0.11,141.54,161.13,-81.12
170,1778614178.003812,0.38,0.46,-0.11,197.57,146.36,-90.27
171,1778614178.013804,0.38,0.46,-0.11,197.57,146.36,-90.27
172,1778614178.023799,0.38,0.46,-0.11,197.57,146.36,-90.27
173,1778614178.033826,0.38,0.46,-0.11,197.57,146.36,-90.27
174,1778614178.043848,0.42,0.45,-0.11,229.37,118.96,-78.67
175,1778614178.05375,0.42,0.45,-0.11,229.37,118.96,-78.67
176,1778614178.0638149,0.42,0.45,-0.11,229.37,118.96,-78.67
177,1778614178.073869,0.42,0.45,-0.11,229.37,118.96,-78.67
178,1778614178.083779,0.42,0.45,-0.11,229.37,118.96,-78.67
179,1778614178.093809,0.42,0.45,-0.11,229.37,118.96,-78.67
180,1778614178.1038451,0.42,0.45,-0.11,229.37,118.96,-78.67
181,1778614178.113755,0.42,0.45,-0.11,229.37,118.96,-78.67
182,1778614178.123786,0.42,0.45,-0.11,229.37,118.96,-78.67
183,1778614178.133776,0.42,0.45,-0.11,229.37,118.96,-78.67
184,1778614178.143745,0.42,0.45,-0.11,229.37,118.96,-78.67
185,1778614178.1538508,0.42,0.45,-0.11,229.37,118.96,-78.67
186,1778614178.16375,1.33,1.63,-0.43,41.56,324.16,104.98
187,1778614178.173793,1.33,1.63,-0.43,41.56,324.16,104.98
188,1778614178.183854,0.98,1.5,-0.24,148.13,245.54,84.9
189,1778614178.1938188,0.98,1.5,-0.24,148.13,245.54,84.9
190,1778614178.203777,0.98,1.5,-0.24,148.13,245.54,84.9
191,1778614178.2138062,0.98,1.5,-0.24,148.13,245.54,84.9
192,1778614178.22384,1.4,2.53,-0.52,-32.41,181.64,145.69
193,1778614178.2338681,1.4,2.53,-0.52,-32.41,181.64,145.69
194,1778614178.243776,1.4,2.53,-0.52,-32.41,181.64,145.69
195,1778614178.253763,0.31,1.67,-0.83,-32.41,181.64,145.69
196,1778614178.263787,0.31,1.67,-0.83,-68.3,38.27,66.96
197,1778614178.273828,0.31,1.67,-0.83,-68.3,38.27,66.96
198,1778614178.283794,0.31,1.67,-0.83,-68.3,38.27,66.96
199,1778614178.2938612,0.31,1.67,-0.83,-68.3,38.27,66.96
200,1778614178.303763,0.31,1.67,-0.83,-68.3,38.27,66.96
201,1778614178.313786,0.31,1.67,-0.83,-68.3,38.27,66.96
202,1778614178.323829,0.31,1.67,-0.83,-68.3,38.27,66.96
203,1778614178.333853,0.31,1.67,-0.83,-68.3,38.27,66.96
204,1778614178.343801,0.31,1.67,-0.83,-68.3,38.27,66.96
205,1778614178.3538299,-0.18,0.41,-0.16,94.12,-96.62,-59.51
206,1778614178.363806,-0.18,0.41,-0.16,94.12,-96.62,-59.51
207,1778614178.3738081,-0.22,0.21,-0.09,100.46,-157.29,-14.34
208,1778614178.38383,-0.22,0.21,-0.09,100.46,-157.29,-14.34
209,1778614178.3937979,-0.22,0.21,-0.09,100.46,-157.29,-14.34
210,1778614178.403761,-0.22,0.21,-0.09,100.46,-157.29,-14.34
211,1778614178.4138482,-0.27,0.17,0.21,195.07,-136.72,-35.83
212,1778614178.42381,-0.27,0.17,0.21,195.07,-136.72,-35.83
213,1778614178.4337978,-0.27,0.17,0.21,195.07,-136.72,-35.83
214,1778614178.443819,-0.27,0.17,0.21,195.07,-136.72,-35.83
215,1778614178.4538372,-0.04,0.35,-0.61,95.95,677.67,53.28
216,1778614178.463858,-0.04,0.35,-0.61,95.95,677.67,53.28
217,1778614178.473762,-0.04,0.35,-0.61,95.95,677.67,53.28
218,1778614178.483785,-0.04,0.35,-0.61,95.95,677.67,53.28
219,1778614178.493803,-0.04,0.35,-0.61,95.95,677.67,53.28
220,1778614178.503832,0.12,0.32,-0.31,-151.12,-513.43,96.25
221,1778614178.5138628,0.12,0.32,-0.31,-151.12,-513.43,96.25
222,1778614178.523757,1.78,3.76,-0.26,-151.12,-513.43,96.25
223,1778614178.533767,1.78,3.76,-0.26,-293.27,-390.56,-13.61
224,1778614178.543863,1.78,3.76,-0.26,-293.27,-390.56,-13.61
225,1778614178.553836,1.78,3.76,-0.26,-293.27,-390.56,-13.61
226,1778614178.563853,0.21,0.84,-0.08,-293.27,-390.56,-13.61
227,1778614178.5737479,0.21,0.84,-0.08,-114.32,108.95,-31.43
228,1778614178.58377,0.21,0.84,-0.08,-114.32,108.95,-31.43
229,1778614178.593848,0.21,0.84,-0.08,-114.32,108.95,-31.43
230,1778614178.603746,0.21,0.84,-0.08,-114.32,108.95,-31.43
231,1778614178.6138408,0.21,0.84,-0.08,-114.32,108.95,-31.43
232,1778614178.623747,0.21,0.84,-0.08,-114.32,108.95,-31.43
233,1778614178.633775,0.21,0.84,-0.08,-114.32,108.95,-31.43
234,1778614178.643778,0.21,0.84,-0.08,-114.32,108.95,-31.43
235,1778614178.653801,0.21,0.84,-0.08,-114.32,108.95,-31.43
236,1778614178.6638348,0.21,0.84,-0.08,-114.32,108.95,-31.43
237,1778614178.67385,0.21,0.84,-0.08,-114.32,108.95,-31.43
238,1778614178.683746,0.21,0.84,-0.08,-114.32,108.95,-31.43
239,1778614178.6937642,0.61,0.83,-0.55,79.83,69.58,-109.68
240,1778614178.703775,0.61,0.83,-0.55,79.83,69.58,-109.68
241,1778614178.713824,0.57,0.68,-0.25,43.27,13.18,-95.89
242,1778614178.723855,0.57,0.68,-0.25,43.27,13.18,-95.89
243,1778614178.7338612,0.57,0.68,-0.25,43.27,13.18,-95.89
244,1778614178.7437608,0.57,0.68,-0.25,43.27,13.18,-95.89
245,1778614178.753788,0.45,0.53,-0.23,49.26,-1.04,-100.16
246,1778614178.763822,0.45,0.53,-0.23,49.26,-1.04,-100.16
247,1778614178.773744,0.45,0.53,-0.23,49.26,-1.04,-100.16
248,1778614178.783765,0.45,0.53,-0.23,49.26,-1.04,-100.16
249,1778614178.793777,0.48,0.54,-0.13,49.26,-1.04,-100.16
250,1778614178.803782,0.48,0.54,-0.13,49.26,-1.04,-100.16
251,1778614178.813787,0.48,0.54,-0.13,49.26,-1.04,-100.16
252,1778614178.823811,0.48,0.54,-0.13,49.26,-1.04,-100.16
253,1778614178.833827,0.48,0.54,-0.13,49.26,-1.04,-100.16
254,1778614178.843842,0.48,0.54,-0.13,49.26,-1.04,-100.16
255,1778614178.8538601,0.48,0.54,-0.13,49.26,-1.04,-100.16
256,1778614178.8637471,0.48,0.54,-0.13,49.26,-1.04,-100.16
257,1778614178.873751,0.82,-0.03,-0.86,-560.61,-1072.51,11.17
258,1778614178.883775,0.82,-0.03,-0.86,-560.61,-1072.51,11.17
259,1778614178.89378,0.82,-0.03,-0.86,-560.61,-1072.51,11.17
260,1778614178.903771,1.78,0.2,1.75,34.3,-383.36,134.83
261,1778614178.913833,1.78,0.2,1.75,34.3,-383.36,134.83
262,1778614178.923867,1.78,0.2,1.75,34.3,-383.36,134.83
263,1778614178.9337542,1.78,0.2,1.75,34.3,-383.36,134.83
264,1778614178.943776,1.94,1.91,-0.81,-52.06,717.77,220.95
265,1778614178.953812,1.94,1.91,-0.81,-52.06,717.77,220.95
266,1778614178.963851,1.94,1.91,-0.81,-52.06,717.77,220.95
267,1778614178.97377,1.94,1.91,-0.81,-52.06,717.77,220.95
268,1778614178.9837801,1.94,1.91,-0.81,-52.06,717.77,220.95
269,1778614178.9937909,1.94,1.91,-0.81,-52.06,717.77,220.95
270,1778614179.003822,1.04,1.55,-0.5,284.42,258.18,194.34
271,1778614179.013749,1.44,2.24,-0.89,284.42,258.18,194.34
272,1778614179.023803,1.44,2.24,-0.89,-153.14,240.78,205.2
273,1778614179.033831,1.44,2.24,-0.89,-153.14,240.78,205.2
274,1778614179.043859,1.44,2.24,-0.89,-153.14,240.78,205.2
275,1778614179.053777,0.4,2.09,-0.59,38.82,23.86,87.04
276,1778614179.063821,0.4,2.09,-0.59,38.82,23.86,87.04
277,1778614179.073869,0.4,2.09,-0.59,38.82,23.86,87.04
278,1778614179.083817,0.4,2.09,-0.59,38.82,23.86,87.04
279,1778614179.093745,0.03,0.9,-0.55,5.49,-219.06,46.88
280,1778614179.103806,0.03,0.9,-0.55,5.49,-219.06,46.88
281,1778614179.113749,0.03,0.9,-0.55,5.49,-219.06,46.88
282,1778614179.1237981,0.03,0.9,-0.55,5.49,-219.06,46.88
283,1778614179.133833,0.03,0.9,-0.55,5.49,-219.06,46.88
284,1778614179.143757,0.03,0.9,-0.55,5.49,-219.06,46.88
285,1778614179.1538072,0.03,0.9,-0.55,5.49,-219.06,46.88
286,1778614179.1638489,0.03,0.9,-0.55,5.49,-219.06,46.88
287,1778614179.173849,0.03,0.9,-0.55,5.49,-219.06,46.88
288,1778614179.183767,0.03,0.9,-0.55,5.49,-219.06,46.88
289,1778614179.193814,0.03,0.9,-0.55,5.49,-219.06,46.88
290,1778614179.203866,0.03,0.9,-0.55,5.49,-219.06,46.88
291,1778614179.213815,-0.07,-0.24,1.64,212.34,222.66,-122.07
292,1778614179.223758,-0.07,-0.24,1.64,212.34,222.66,-122.07
293,1778614179.23381,-0.07,-0.24,1.64,212.34,222.66,-122.07
294,1778614179.243854,0.12,0.68,-0.08,-54.26,646.91,20.69
295,1778614179.253767,0.12,0.68,-0.08,-54.26,646.91,20.69
296,1778614179.263809,0.12,0.68,-0.08,-54.26,646.91,20.69
297,1778614179.2738502,0.12,0.68,-0.08,-54.26,646.91,20.69
298,1778614179.283777,0.27,0.77,-0.41,-239.32,-540.41,-1.83
299,1778614179.293826,0.27,0.77,-0.41,-239.32,-540.41,-1.83
300,1778614179.3037481,0.27,0.77,-0.41,-239.32,-540.41,-1.83
301,1778614179.313795,0.8,2.49,0.49,-239.32,-540.41,-1.83
302,1778614179.32384,0.8,2.49,0.49,-239.32,-540.41,-1.83
303,1778614179.3337789,0.8,2.49,0.49,-239.32,-540.41,-1.83
304,1778614179.343831,0.8,2.49,0.49,-239.32,-540.41,-1.83
305,1778614179.353805,0.8,2.49,0.49,-239.32,-540.41,-1.83
306,1778614179.36375,0.8,2.49,0.49,-239.32,-540.41,-1.83
307,1778614179.3738189,0.8,2.49,0.49,-239.32,-540.41,-1.83
308,1778614179.383826,0.8,2.49,0.49,-239.32,-540.41,-1.83
309,1778614179.393868,0.8,2.49,0.49,-239.32,-540.41,-1.83
310,1778614179.403788,0.34,1.21,-0.84,-195.07,122.68,-29.42
311,1778614179.4138088,0.34,1.21,-0.84,-195.07,122.68,-29.42
312,1778614179.423836,0.34,1.21,-0.84,-195.07,122.68,-29.42
313,1778614179.433859,1.13,1.37,-0.76,-175.17,272.83,-172.24
314,1778614179.443744,1.13,1.37,-0.76,-175.17,272.83,-172.24
315,1778614179.4537652,1.13,1.37,-0.76,-175.17,272.83,-172.24
316,1778614179.4638,1.02,1.02,-0.72,105.16,300.29,-190.06
317,1778614179.473832,1.02,1.02,-0.72,105.16,300.29,-190.06
318,1778614179.483856,1.02,1.02,-0.72,105.16,300.29,-190.06
319,1778614179.493767,1.02,1.02,-0.72,105.16,300.29,-190.06
320,1778614179.503804,0.63,0.59,-0.27,222.9,156.31,-162.84
321,1778614179.513833,0.63,0.59,-0.27,222.9,156.31,-162.84
322,1778614179.523864,0.63,0.59,-0.27,222.9,156.31,-162.84
323,1778614179.533769,0.61,0.64,-0.17,241.27,98.45,-132.75
324,1778614179.54377,0.61,0.64,-0.17,241.27,98.45,-132.75
325,1778614179.553812,0.61,0.64,-0.17,241.27,98.45,-132.75
326,1778614179.563853,0.61,0.64,-0.17,241.27,98.45,-132.75
327,1778614179.57377,0.68,0.65,-0.13,260.13,18.43,-70.5
328,1778614179.583786,0.68,0.65,-0.13,260.13,18.43,-70.5
329,1778614179.593871,0.68,0.65,-0.13,260.13,18.43,-70.5
330,1778614179.603771,0.68,0.65,-0.13,260.13,18.43,-70.5
331,1778614179.6138198,2.75,-0.45,-0.31,-852.48,-1556.82,137.27
332,1778614179.623842,2.75,-0.45,-0.31,-852.48,-1556.82,137.27
333,1778614179.63384,2.75,-0.45,-0.31,-852.48,-1556.82,137.27
334,1778614179.6438138,2.75,-0.45,-0.31,-852.48,-1556.82,137.27
335,1778614179.653774,2.75,-0.45,-0.31,-852.48,-1556.82,137.27
336,1778614179.66386,2.75,-0.45,-0.31,-852.48,-1556.82,137.27
337,1778614179.673818,2.75,-0.45,-0.31,-852.48,-1556.82,137.27
338,1778614179.683774,2.75,-0.45,-0.31,-852.48,-1556.82,137.27
339,1778614179.6937442,2.75,-0.45,-0.31,-852.48,-1556.82,137.27
340,1778614179.703839,2.75,-0.45,-0.31,-852.48,-1556.82,137.27
341,1778614179.713824,2.75,-0.45,-0.31,-852.48,-1556.82,137.27
342,1778614179.72383,2.75,-0.45,-0.31,-852.48,-1556.82,137.27
343,1778614179.733836,2.32,1.68,-0.98,-18.92,515.75,258.67
344,1778614179.743795,2.32,1.68,-0.98,-18.92,515.75,258.67
345,1778614179.753769,2.32,1.68,-0.98,-18.92,515.75,258.67
346,1778614179.7638001,1.68,2.17,-0.31,66.59,394.78,148.13
347,1778614179.773816,1.68,2.17,-0.31,66.59,394.78,148.13
348,1778614179.783835,1.68,2.17,-0.31,66.59,394.78,148.13
349,1778614179.7938602,1.68,2.17,-0.31,66.59,394.78,148.13
350,1778614179.803842,1.06,2.21,-0.76,44.25,367.43,29.97
351,1778614179.813816,1.06,2.21,-0.76,44.25,367.43,29.97
352,1778614179.82377,1.06,2.21,-0.76,44.25,367.43,29.97
353,1778614179.8338041,1.06,2.21,-0.76,44.25,367.43,29.97
354,1778614179.843832,0.3,0.88,-1.38,-158.81,-201.23,-55.54
355,1778614179.853748,0.3,0.88,-1.38,-158.81,-201.23,-55.54
356,1778614179.863803,0.3,0.88,-1.38,-158.81,-201.23,-55.54
357,1778614179.873843,0.3,0.88,-1.38,-158.81,-201.23,-55.54
358,1778614179.883768,0.3,0.88,-1.38,-158.81,-201.23,-55.54
359,1778614179.893791,0.3,0.88,-1.38,-158.81,-201.23,-55.54
360,1778614179.903807,0.3,0.88,-1.38,-158.81,-201.23,-55.54
361,1778614179.9138649,0.3,0.88,-1.38,-158.81,-201.23,-55.54
362,1778614179.923767,-0.36,0.42,-0.05,155.03,-213.2,-0.67
363,1778614179.933808,-0.36,0.42,-0.05,155.03,-213.2,-0.67
364,1778614179.943839,-0.36,0.42,-0.05,155.03,-213.2,-0.67
365,1778614179.9537458,-0.36,0.42,-0.05,155.03,-213.2,-0.67
366,1778614179.963774,-0.18,0.23,0.13,116.09,-126.16,-80.93
367,1778614179.97381,-0.18,0.23,0.13,116.09,-126.16,-80.93
368,1778614179.983843,-0.18,0.23,0.13,116.09,-126.16,-80.93
369,1778614179.993857,0.09,0.36,0.44,116.09,-126.16,-80.93
370,1778614180.003753,0.09,0.36,0.44,212.52,53.28,-124.94
371,1778614180.013779,0.09,0.36,0.44,212.52,53.28,-124.94
372,1778614180.023826,0.09,0.36,0.44,212.52,53.28,-124.94
373,1778614180.033752,1.41,0.84,1.24,219.3,396.55,41.69
374,1778614180.0437691,1.41,0.84,1.24,219.3,396.55,41.69
375,1778614180.053807,1.41,0.84,1.24,219.3,396.55,41.69
376,1778614180.0638459,1.41,0.84,1.24,219.3,396.55,41.69
377,1778614180.073783,0.72,4.26,-0.36,-222.05,374.69,-54.81
378,1778614180.0838258,0.72,4.26,-0.36,-222.05,374.69,-54.81
379,1778614180.093827,0.72,4.26,-0.36,-222.05,374.69,-54.81
380,1778614180.103748,0.72,4.26,-0.36,-222.05,374.69,-54.81
381,1778614180.113801,0.12,0.83,-0.54,75.87,191.28,-30.27
382,1778614180.123851,0.12,0.83,-0.54,75.87,191.28,-30.27
383,1778614180.133761,0.12,0.83,-0.54,75.87,191.28,-30.27
384,1778614180.1438138,0.12,0.83,-0.54,75.87,191.28,-30.27
385,1778614180.153868,0.27,0.94,-0.3,-7.02,70.13,-66.71
386,1778614180.1637702,0.27,0.94,-0.3,-7.02,70.13,-66.71
387,1778614180.1737971,0.27,0.94,-0.3,-7.02,70.13,-66.71
388,1778614180.183829,0.27,0.94,-0.3,-7.02,70.13,-66.71
389,1778614180.193774,0.27,0.94,-0.3,-7.02,70.13,-66.71
390,1778614180.203796,0.27,0.94,-0.3,-7.02,70.13,-66.71
391,1778614180.21376,0.27,0.94,-0.3,-7.02,70.13,-66.71
392,1778614180.223831,0.27,0.94,-0.3,-7.02,70.13,-66.71
393,1778614180.233845,0.27,0.94,-0.3,-7.02,70.13,-66.71
394,1778614180.24386,0.27,0.94,-0.3,-7.02,70.13,-66.71
395,1778614180.2538571,0.27,0.94,-0.3,-7.02,70.13,-66.71
396,1778614180.2637491,0.64,1.1,-0.49,25.27,77.94,-79.77
397,1778614180.273807,0.46,0.55,-0.16,67.99,59.57,-129.15
398,1778614180.283798,0.46,0.55,-0.16,67.99,59.57,-129.15
399,1778614180.293783,0.46,0.55,-0.16,67.99,59.57,-129.15
400,1778614180.303808,0.52,0.84,-0.14,181.46,87.95,-123.35
401,1778614180.313823,0.52,0.84,-0.14,181.46,87.95,-123.35
402,1778614180.323839,0.52,0.84,-0.14,181.46,87.95,-123.35
403,1778614180.3338199,0.52,0.84,-0.14,181.46,87.95,-123.35
404,1778614180.343827,0.47,0.68,-0.19,198.85,100.83,-100.1
405,1778614180.353832,0.47,0.68,-0.19,198.85,100.83,-100.1
406,1778614180.363809,0.47,0.68,-0.19,198.85,100.83,-100.1
407,1778614180.3738198,0.47,0.68,-0.19,198.85,100.83,-100.1
408,1778614180.383819,0.47,0.68,-0.19,198.85,100.83,-100.1
409,1778614180.3938649,0.47,0.68,-0.19,198.85,100.83,-100.1
410,1778614180.403769,0.47,0.68,-0.19,198.85,100.83,-100.1
411,1778614180.413868,0.47,0.68,-0.19,198.85,100.83,-100.1
412,1778614180.4237912,0.47,0.68,-0.19,198.85,100.83,-100.1
413,1778614180.433769,0.47,0.68,-0.19,198.85,100.83,-100.1
414,1778614180.4438028,0.47,0.68,-0.19,198.85,100.83,-100.1
415,1778614180.4538398,0.29,0.07,-0.63,111.51,359.31,37.78
416,1778614180.463862,0.29,0.07,-0.63,111.51,359.31,37.78
417,1778614180.473758,0.29,0.07,-0.63,111.51,359.31,37.78
418,1778614180.4837902,0.29,0.07,-0.63,111.51,359.31,37.78
419,1778614180.493846,2.06,2.05,-0.4,-89.05,376.16,115.66
420,1778614180.503754,2.06,2.05,-0.4,-89.05,376.16,115.66
421,1778614180.5138,2.06,2.05,-0.4,-89.05,376.16,115.66
422,1778614180.523836,2.06,2.05,-0.4,-89.05,376.16,115.66
423,1778614180.533761,1.07,1.67,-0.67,134.03,337.22,77.64
424,1778614180.5438,1.07,1.67,-0.67,134.03,337.22,77.64
425,1778614180.553832,1.07,1.67,-0.67,134.03,337.22,77.64
426,1778614180.56386,1.01,1.82,-0.64,-4.82,388.79,74.22
427,1778614180.573762,1.01,1.82,-0.64,-4.82,388.79,74.22
428,1778614180.5837991,1.01,1.82,-0.64,-4.82,388.79,74.22
429,1778614180.593834,1.01,1.82,-0.64,-4.82,388.79,74.22
430,1778614180.60377,0.27,1.33,-0.79,-29.24,127.93,21.24
431,1778614180.613821,0.27,1.33,-0.79,-29.24,127.93,21.24
432,1778614180.623861,0.27,1.33,-0.79,-29.24,127.93,21.24
433,1778614180.63376,0.27,1.33,-0.79,-29.24,127.93,21.24
434,1778614180.6437812,-0.06,0.97,-0.48,-74.71,-167.85,61.71
435,1778614180.653829,-0.06,0.97,-0.48,-74.71,-167.85,61.71
436,1778614180.6637492,-0.06,0.97,-0.48,-74.71,-167.85,61.71
437,1778614180.6737869,-0.06,0.97,-0.48,-74.71,-167.85,61.71
438,1778614180.6838431,-0.12,0.6,-0.09,41.2,-195.01,50.35
439,1778614180.693855,-0.12,0.6,-0.09,41.2,-195.01,50.35
440,1778614180.703753,-0.12,0.6,-0.09,41.2,-195.01,50.35
441,1778614180.713802,-0.12,0.6,-0.09,41.2,-195.01,50.35
442,1778614180.723829,-0.12,0.6,-0.09,41.2,-195.01,50.35
443,1778614180.733857,-0.12,0.6,-0.09,41.2,-195.01,50.35
444,1778614180.7437701,-0.12,0.6,-0.09,41.2,-195.01,50.35
445,1778614180.753814,-0.12,0.6,-0.09,41.2,-195.01,50.35
446,1778614180.763834,-0.12,0.6,-0.09,41.2,-195.01,50.35
447,1778614180.7738502,-0.12,0.6,-0.09,41.2,-195.01,50.35
448,1778614180.7838678,-0.13,0.16,-0.06,166.99,232.73,-64.09
449,1778614180.7937531,0.01,0.28,-0.09,102.29,261.6,-3.97
450,1778614180.803781,0.01,0.28,-0.09,102.29,261.6,-3.97
451,1778614180.813834,0.01,0.28,-0.09,102.29,261.6,-3.97
452,1778614180.8238552,0.01,0.28,-0.09,102.29,261.6,-3.97
453,1778614180.833747,0.16,0.61,-0.17,102.29,261.6,-3.97
454,1778614180.843758,0.16,0.61,-0.17,127.14,218.69,21.36
455,1778614180.853821,0.16,0.61,-0.17,127.14,218.69,21.36
456,1778614180.86375,0.16,0.61,-0.17,127.14,218.69,21.36
457,1778614180.873811,1.55,4.38,-0.89,188.48,135.31,-30.27
458,1778614180.883857,1.55,4.38,-0.89,188.48,135.31,-30.27
459,1778614180.893746,1.55,4.38,-0.89,188.48,135.31,-30.27
460,1778614180.903779,1.55,4.38,-0.89,188.48,135.31,-30.27
461,1778614180.913815,1.55,4.38,-0.89,188.48,135.31,-30.27
462,1778614180.9238431,1.55,4.38,-0.89,188.48,135.31,-30.27
463,1778614180.9337459,1.55,4.38,-0.89,188.48,135.31,-30.27
464,1778614180.943771,1.55,4.38,-0.89,188.48,135.31,-30.27
465,1778614180.953789,1.55,4.38,-0.89,188.48,135.31,-30.27
466,1778614180.963823,1.55,4.38,-0.89,188.48,135.31,-30.27
467,1778614180.973852,1.55,4.38,-0.89,188.48,135.31,-30.27
468,1778614180.983746,0.13,0.42,0.16,-74.16,-82.34,25.09
469,1778614180.9937751,0.88,2.54,-0.3,50.54,128.54,13.43
470,1778614181.003801,0.88,2.54,-0.3,50.54,128.54,13.43
471,1778614181.0137868,0.88,2.54,-0.3,50.54,128.54,13.43
472,1778614181.023756,0.88,2.54,-0.3,50.54,128.54,13.43
473,1778614181.0337548,0.49,0.93,-0.44,8.3,167.54,-88.75
474,1778614181.0437918,0.49,0.93,-0.44,8.3,167.54,-88.75
475,1778614181.0537689,0.49,0.93,-0.44,8.3,167.54,-88.75
476,1778614181.06377,0.49,0.93,-0.44,8.3,167.54,-88.75
477,1778614181.073805,0.53,0.82,-0.12,47.18,107.67,-116.09
478,1778614181.083829,0.53,0.82,-0.12,47.18,107.67,-116.09
479,1778614181.093857,0.53,0.82,-0.12,47.18,107.67,-116.09
480,1778614181.103746,0.66,0.79,-0.2,89.23,208.74,-127.56
481,1778614181.113792,0.66,0.79,-0.2,89.23,208.74,-127.56
482,1778614181.1238241,0.66,0.79,-0.2,89.23,208.74,-127.56
483,1778614181.133753,0.66,0.79,-0.2,89.23,208.74,-127.56
484,1778614181.1437938,0.42,0.43,-0.31,148.93,133.24,-88.75
485,1778614181.1538298,0.42,0.43,-0.31,148.93,133.24,-88.75
486,1778614181.163744,0.42,0.43,-0.31,148.93,133.24,-88.75
487,1778614181.1737862,0.42,0.43,-0.31,148.93,133.24,-88.75
488,1778614181.1838038,-0.09,0.64,-1.17,-53.89,-293.21,11.96
489,1778614181.1938229,-0.09,0.64,-1.17,-53.89,-293.21,11.96
490,1778614181.203858,-0.09,0.64,-1.17,-53.89,-293.21,11.96
491,1778614181.2137659,-0.09,0.64,-1.17,-53.89,-293.21,11.96
492,1778614181.2238111,-0.09,0.64,-1.17,-53.89,-293.21,11.96
493,1778614181.233856,-0.09,0.64,-1.17,-53.89,-293.21,11.96
494,1778614181.2437592,-0.09,0.64,-1.17,-53.89,-293.21,11.96
495,1778614181.2538471,-0.09,0.64,-1.17,-53.89,-293.21,11.96
496,1778614181.2637792,-0.09,0.64,-1.17,-53.89,-293.21,11.96
497,1778614181.273837,-0.09,0.64,-1.17,-53.89,-293.21,11.96
498,1778614181.283747,-0.09,0.64,-1.17,-53.89,-293.21,11.96
499,1778614181.293797,-0.09,0.64,-1.17,-53.89,-293.21,11.96
500,1778614181.3038652,-0.09,0.64,-1.17,-53.89,-293.21,11.96
501,1778614181.313783,2.03,1.66,-1.05,176.57,570.13,157.29
502,1778614181.323841,2.03,1.66,-1.05,176.57,570.13,157.29
503,1778614181.333761,1.04,1.11,-0.39,159.3,438.29,150.27
504,1778614181.343804,1.04,1.11,-0.39,159.3,438.29,150.27
505,1778614181.3538098,1.04,1.11,-0.39,159.3,438.29,150.27
506,1778614181.363745,1.04,1.11,-0.39,159.3,438.29,150.27
507,1778614181.373832,1.35,2.7,-1.14,-110.96,378.11,51.21
508,1778614181.3838668,1.35,2.7,-1.14,-110.96,378.11,51.21
509,1778614181.3937879,1.35,2.7,-1.14,-110.96,378.11,51.21
510,1778614181.403832,1.35,2.7,-1.14,-110.96,378.11,51.21
511,1778614181.413745,0.11,1.55,-1.05,-147.77,-266.11,66.22
512,1778614181.4237518,0.11,1.55,-1.05,-147.77,-266.11,66.22
513,1778614181.43378,0.11,1.55,-1.05,-147.77,-266.11,66.22
514,1778614181.443771,0.11,1.55,-1.05,-147.77,-266.11,66.22
515,1778614181.453783,0.11,1.55,-1.05,-147.77,-266.11,66.22
516,1778614181.46376,0.11,1.55,-1.05,-147.77,-266.11,66.22
517,1778614181.473814,0.11,1.55,-1.05,-147.77,-266.11,66.22
518,1778614181.483742,0.11,1.55,-1.05,-147.77,-266.11,66.22
519,1778614181.493767,0.11,1.55,-1.05,-147.77,-266.11,66.22
520,1778614181.503774,-0.31,0.35,-0.09,124.57,-76.54,14.1
521,1778614181.5137951,-0.31,0.35,-0.09,124.57,-76.54,14.1
522,1778614181.523818,-0.31,0.35,-0.09,124.57,-76.54,14.1
523,1778614181.5338671,-0.43,0.38,-0.05,133.73,-20.94,-10.01
524,1778614181.5437582,-0.43,0.38,-0.05,133.73,-20.94,-10.01
525,1778614181.553801,-0.43,0.38,-0.05,133.73,-20.94,-10.01
526,1778614181.563833,-0.43,0.38,-0.05,133.73,-20.94,-10.01
527,1778614181.573746,-0.42,0.32,0.08,179.14,-39.49,-19.78
528,1778614181.583786,-0.42,0.32,0.08,179.14,-39.49,-19.78
529,1778614181.593823,-0.42,0.32,0.08,179.14,-39.49,-19.78
530,1778614181.603818,1.18,-0.29,2.0,351.87,407.41,41.75
531,1778614181.613812,1.18,-0.29,2.0,351.87,407.41,41.75
532,1778614181.6238499,1.18,-0.29,2.0,351.87,407.41,41.75
533,1778614181.633866,1.18,-0.29,2.0,351.87,407.41,41.75
534,1778614181.643767,1.18,-0.29,2.0,351.87,407.41,41.75
535,1778614181.653794,0.27,1.42,0.82,11.84,146.0,-14.71
536,1778614181.663832,0.27,1.42,0.82,11.84,146.0,-14.71
537,1778614181.673759,0.27,1.42,0.82,11.84,146.0,-14.71
538,1778614181.683786,1.16,3.19,-0.52,-1.65,-94.3,-372.5
539,1778614181.693815,1.16,3.19,-0.52,-1.65,-94.3,-372.5
540,1778614181.7038531,1.16,3.19,-0.52,-1.65,-94.3,-372.5
541,1778614181.713757,1.16,3.19,-0.52,-1.65,-94.3,-372.5
542,1778614181.723808,-0.03,0.76,-0.34,-75.32,64.33,49.01
543,1778614181.73385,-0.03,0.76,-0.34,-75.32,64.33,49.01
544,1778614181.743746,-0.03,0.76,-0.34,-75.32,64.33,49.01
545,1778614181.753779,-0.03,0.76,-0.34,-75.32,64.33,49.01
546,1778614181.763836,-0.03,0.76,-0.34,-75.32,64.33,49.01
547,1778614181.773747,-0.03,0.76,-0.34,-75.32,64.33,49.01
548,1778614181.7837791,-0.03,0.76,-0.34,-75.32,64.33,49.01
549,1778614181.793819,-0.03,0.76,-0.34,-75.32,64.33,49.01
550,1778614181.803742,-0.03,0.76,-0.34,-75.32,64.33,49.01
551,1778614181.8138602,-0.03,0.76,-0.34,-75.32,64.33,49.01
552,1778614181.823835,-0.03,0.76,-0.34,-75.32,64.33,49.01
553,1778614181.833762,0.99,1.67,-0.49,-137.02,-90.27,-132.14
554,1778614181.843799,0.54,1.02,-0.42,-76.11,-8.79,-81.91
555,1778614181.8538198,0.54,1.02,-0.42,-76.11,-8.79,-81.91
556,1778614181.8637528,0.54,1.02,-0.42,-76.11,-8.79,-81.91
557,1778614181.8738089,0.48,0.64,-0.26,-76.11,-8.79,-81.91
558,1778614181.883748,0.48,0.64,-0.26,-21.97,86.61,-130.31
559,1778614181.893776,0.48,0.64,-0.26,-21.97,86.61,-130.31
560,1778614181.903828,0.48,0.64,-0.26,-21.97,86.61,-130.31
561,1778614181.913853,0.48,0.64,-0.26,-21.97,86.61,-130.31
562,1778614181.92379,0.49,0.55,-0.1,102.78,58.17,-142.58
563,1778614181.933841,0.49,0.55,-0.1,102.78,58.17,-142.58
564,1778614181.943846,0.49,0.55,-0.1,102.78,58.17,-142.58
565,1778614181.953783,0.49,0.55,-0.1,102.78,58.17,-142.58
566,1778614181.963828,0.49,0.55,-0.1,102.78,58.17,-142.58
567,1778614181.973749,0.49,0.55,-0.1,102.78,58.17,-142.58
568,1778614181.983778,0.49,0.55,-0.1,102.78,58.17,-142.58
569,1778614181.993818,0.49,0.55,-0.1,102.78,58.17,-142.58
570,1778614182.003862,0.49,0.55,-0.1,102.78,58.17,-142.58
571,1778614182.0138052,0.49,0.55,-0.1,102.78,58.17,-142.58
572,1778614182.0238569,-0.03,1.06,-2.0,367.43,-64.21,-92.96
573,1778614182.0337741,1.62,-0.8,2.21,-59.69,-400.45,162.6
574,1778614182.043818,1.62,-0.8,2.21,-59.69,-400.45,162.6
575,1778614182.053858,1.62,-0.8,2.21,-59.69,-400.45,162.6
576,1778614182.063791,1.62,-0.8,2.21,-59.69,-400.45,162.6
577,1778614182.0738409,1.73,1.06,0.08,-34.79,736.45,112.12
578,1778614182.083758,1.73,1.06,0.08,-34.79,736.45,112.12
579,1778614182.0937731,1.73,1.06,0.08,-34.79,736.45,112.12
580,1778614182.1038349,1.73,1.06,0.08,-34.79,736.45,112.12
581,1778614182.113865,1.39,2.08,-0.86,62.44,381.71,311.28
582,1778614182.123755,1.39,2.08,-0.86,62.44,381.71,311.28
583,1778614182.133811,1.39,2.08,-0.86,62.44,381.71,311.28
584,1778614182.143837,1.65,3.15,-0.66,62.44,381.71,311.28
585,1778614182.15376,1.65,3.15,-0.66,-138.61,317.75,186.46
586,1778614182.163799,1.65,3.15,-0.66,-138.61,317.75,186.46
587,1778614182.173863,1.65,3.15,-0.66,-138.61,317.75,186.46
588,1778614182.183747,0.39,2.54,-0.8,-17.27,169.07,70.37
589,1778614182.19377,0.39,2.54,-0.8,-17.27,169.07,70.37
590,1778614182.203798,0.39,2.54,-0.8,-17.27,169.07,70.37
591,1778614182.213841,-0.14,1.12,-0.93,-137.27,-354.86,59.57
592,1778614182.2237802,-0.14,1.12,-0.93,-137.27,-354.86,59.57
593,1778614182.233834,-0.14,1.12,-0.93,-137.27,-354.86,59.57
594,1778614182.243753,-0.14,1.12,-0.93,-137.27,-354.86,59.57
595,1778614182.253825,-0.55,0.62,-0.31,171.69,-289.61,32.23
596,1778614182.263757,-0.55,0.62,-0.31,171.69,-289.61,32.23
597,1778614182.27381,-0.55,0.62,-0.31,171.69,-289.61,32.23
598,1778614182.2838552,-0.55,0.62,-0.31,171.69,-289.61,32.23
599,1778614182.2937942,-0.55,0.62,-0.31,171.69,-289.61,32.23
600,1778614182.3038568,-0.55,0.62,-0.31,171.69,-289.61,32.23
601,1778614182.313795,-0.55,0.62,-0.31,171.69,-289.61,32.23
602,1778614182.3238468,-0.55,0.62,-0.31,171.69,-289.61,32.23
603,1778614182.333766,-0.55,0.62,-0.31,171.69,-289.61,32.23
604,1778614182.3438048,-0.55,0.62,-0.31,171.69,-289.61,32.23
605,1778614182.353749,-0.55,0.62,-0.31,171.69,-289.61,32.23
606,1778614182.3637881,2.11,-0.9,2.33,126.77,-53.22,-58.47
607,1778614182.3738399,2.11,-0.9,2.33,659.24,907.04,29.79
608,1778614182.383774,2.11,-0.9,2.33,659.24,907.04,29.79
609,1778614182.393816,-0.67,1.83,-2.01,659.24,907.04,29.79
610,1778614182.40374,-0.67,1.83,-2.01,-187.87,600.83,204.96
611,1778614182.4137878,-0.67,1.83,-2.01,-187.87,600.83,204.96
612,1778614182.42384,-0.67,1.83,-2.01,-187.87,600.83,204.96
613,1778614182.433748,0.56,1.54,0.48,-67.02,-680.48,-103.76
614,1778614182.4437928,0.56,1.54,0.48,-67.02,-680.48,-103.76
615,1778614182.4538429,0.56,1.54,0.48,-67.02,-680.48,-103.76
616,1778614182.4637609,0.56,1.54,0.48,-67.02,-680.48,-103.76
617,1778614182.473823,0.56,1.54,0.48,-67.02,-680.48,-103.76
618,1778614182.4837508,0.56,1.54,0.48,-67.02,-680.48,-103.76
619,1778614182.493793,0.56,1.54,0.48,-67.02,-680.48,-103.76
620,1778614182.5038679,0.56,1.54,0.48,-67.02,-680.48,-103.76
621,1778614182.513799,0.56,1.54,0.48,-67.02,-680.48,-103.76
622,1778614182.5238242,0.56,1.54,0.48,-67.02,-680.48,-103.76
623,1778614182.533831,0.56,1.54,0.48,-67.02,-680.48,-103.76
624,1778614182.5438652,0.12,1.3,-0.3,-209.84,35.4,-39.92
625,1778614182.55376,0.12,1.3,-0.3,-209.84,35.4,-39.92
626,1778614182.563776,0.12,1.3,-0.3,-209.84,35.4,-39.92
627,1778614182.573811,0.12,1.3,-0.3,-209.84,35.4,-39.92
628,1778614182.5838132,1.07,2.07,-1.02,-200.81,401.18,-203.67
629,1778614182.5937438,1.07,2.07,-1.02,-200.81,401.18,-203.67
630,1778614182.60378,1.07,2.07,-1.02,-200.81,401.18,-203.67
631,1778614182.6138072,0.68,1.0,-0.62,89.36,244.51,-184.57
632,1778614182.6238458,0.68,1.0,-0.62,89.36,244.51,-184.57
633,1778614182.633745,0.68,1.0,-0.62,89.36,244.51,-184.57
634,1778614182.643788,0.68,1.0,-0.62,89.36,244.51,-184.57
635,1778614182.6537971,0.6,0.71,-0.05,144.41,142.15,-165.47
636,1778614182.66385,0.6,0.71,-0.05,144.41,142.15,-165.47
637,1778614182.673744,0.6,0.71,-0.05,144.41,142.15,-165.47
638,1778614182.683771,0.6,0.71,-0.05,144.41,142.15,-165.47
639,1778614182.693799,0.59,0.52,-0.12,196.96,185.73,-140.75
640,1778614182.703868,0.59,0.52,-0.12,196.96,185.73,-140.75
641,1778614182.713772,0.59,0.52,-0.12,196.96,185.73,-140.75
642,1778614182.723823,0.59,0.52,-0.12,196.96,185.73,-140.75
643,1778614182.733838,0.3,1.0,-0.56,314.33,49.5,-43.52
644,1778614182.743744,0.3,1.0,-0.56,314.33,49.5,-43.52
645,1778614182.7537768,0.3,1.0,-0.56,314.33,49.5,-43.52
646,1778614182.763807,0.3,1.0,-0.56,314.33,49.5,-43.52
647,1778614182.773848,2.77,-0.98,3.26,-61.89,-946.72,42.42
648,1778614182.783746,2.77,-0.98,3.26,-61.89,-946.72,42.42
649,1778614182.7938628,2.77,-0.98,3.26,-61.89,-946.72,42.42
650,1778614182.80385,2.77,-0.98,3.26,-61.89,-946.72,42.42
651,1778614182.8138618,2.77,-0.98,3.26,-61.89,-946.72,42.42
652,1778614182.823744,2.77,-0.98,3.26,-61.89,-946.72,42.42
653,1778614182.833753,2.77,-0.98,3.26,-61.89,-946.72,42.42
654,1778614182.84376,2.77,-0.98,3.26,-61.89,-946.72,42.42
655,1778614182.853788,2.77,-0.98,3.26,-61.89,-946.72,42.42
656,1778614182.86377,2.77,-0.98,3.26,-61.89,-946.72,42.42
657,1778614182.873805,2.77,-0.98,3.26,-61.89,-946.72,42.42
658,1778614182.883852,0.88,2.09,-0.37,104.43,209.96,246.89
659,1778614182.893745,0.88,2.09,-0.37,104.43,209.96,246.89
660,1778614182.903766,0.88,2.09,-0.37,104.43,209.96,246.89
661,1778614182.913793,0.88,2.09,-0.37,104.43,209.96,246.89
662,1778614182.923846,1.07,2.83,-0.55,-154.97,248.29,217.29
663,1778614182.933752,1.07,2.83,-0.55,-154.97,248.29,217.29
664,1778614182.943768,1.07,2.83,-0.55,-154.97,248.29,217.29
665,1778614182.953803,1.07,2.83,-0.55,-154.97,248.29,217.29
666,1778614182.963854,-0.26,2.0,-1.39,-40.47,-211.24,9.64
667,1778614182.973752,-0.26,2.0,-1.39,-40.47,-211.24,9.64
668,1778614182.9837801,-0.26,2.0,-1.39,-40.47,-211.24,9.64
669,1778614182.9938009,-0.26,2.0,-1.39,-40.47,-211.24,9.64
670,1778614183.0037389,-0.26,2.0,-1.39,-40.47,-211.24,9.64
671,1778614183.013769,-0.26,2.0,-1.39,-40.47,-211.24,9.64
672,1778614183.023804,-0.26,2.0,-1.39,-40.47,-211.24,9.64
673,1778614183.033841,-0.26,2.0,-1.39,-40.47,-211.24,9.64
674,1778614183.043859,-0.26,2.0,-1.39,-40.47,-211.24,9.64
675,1778614183.053751,-0.26,2.0,-1.39,-40.47,-211.24,9.64
676,1778614183.063797,-0.26,2.0,-1.39,-40.47,-211.24,9.64
677,1778614183.073822,-0.43,0.61,-0.03,190.67,-131.9,-32.41
678,1778614183.0838542,-0.27,0.29,0.06,127.38,-120.42,-55.85
679,1778614183.0938601,-0.27,0.29,0.06,127.38,-120.42,-55.85
680,1778614183.1037629,-0.27,0.29,0.06,127.38,-120.42,-55.85
681,1778614183.113804,-0.27,0.29,0.06,127.38,-120.42,-55.85
682,1778614183.123849,2.6,-0.76,4.73,83.86,91.8,-146.67
683,1778614183.133856,2.6,-0.76,4.73,83.86,91.8,-146.67
684,1778614183.143744,2.6,-0.76,4.73,83.86,91.8,-146.67
685,1778614183.15377,2.6,-0.76,4.73,83.86,91.8,-146.67
686,1778614183.1638038,-0.4,0.67,-0.97,36.62,638.43,-87.52
687,1778614183.1738062,-0.4,0.67,-0.97,36.62,638.43,-87.52
688,1778614183.1838431,-0.4,0.67,-0.97,36.62,638.43,-87.52
689,1778614183.193867,-0.02,0.46,-0.44,36.62,638.43,-87.52
690,1778614183.20384,-0.02,0.46,-0.44,-59.75,-123.6,-76.35
691,1778614183.213771,-0.02,0.46,-0.44,-59.75,-123.6,-76.35
692,1778614183.2238479,-0.02,0.46,-0.44,-59.75,-123.6,-76.35
693,1778614183.233768,1.44,3.97,-0.68,-344.06,158.33,-91.06
694,1778614183.243847,1.44,3.97,-0.68,-344.06,158.33,-91.06
695,1778614183.253759,1.44,3.97,-0.68,-344.06,158.33,-91.06
696,1778614183.263819,1.44,3.97,-0.68,-344.06,158.33,-91.06
697,1778614183.2737632,0.01,0.54,-0.32,-344.06,158.33,-91.06
698,1778614183.283835,0.01,0.54,-0.32,-0.24,62.13,-53.28
699,1778614183.293758,0.01,0.54,-0.32,-0.24,62.13,-53.28
700,1778614183.303812,0.01,0.54,-0.32,-0.24,62.13,-53.28
701,1778614183.3137438,0.62,1.52,-0.78,-53.1,-30.27,-127.2
702,1778614183.323791,0.62,1.52,-0.78,-53.1,-30.27,-127.2
703,1778614183.33377,0.62,1.52,-0.78,-53.1,-30.27,-127.2
704,1778614183.3437939,0.62,1.52,-0.78,-53.1,-30.27,-127.2
705,1778614183.3538308,0.62,1.52,-0.78,-53.1,-30.27,-127.2
706,1778614183.363853,0.62,1.52,-0.78,-53.1,-30.27,-127.2
707,1778614183.373853,0.62,1.52,-0.78,-53.1,-30.27,-127.2
708,1778614183.383749,0.62,1.52,-0.78,-53.1,-30.27,-127.2
709,1778614183.39379,0.62,1.52,-0.78,-53.1,-30.27,-127.2
710,1778614183.4038,0.52,0.81,-0.3,120.79,139.65,-132.26
711,1778614183.413816,0.52,0.81,-0.3,120.79,139.65,-132.26
712,1778614183.4238248,0.52,0.81,-0.3,120.79,139.65,-132.26
713,1778614183.4338639,0.36,0.57,-0.13,151.92,93.51,-107.3
714,1778614183.443769,0.36,0.57,-0.13,151.92,93.51,-107.3
715,1778614183.4538,0.36,0.57,-0.13,151.92,93.51,-107.3
716,1778614183.463839,0.36,0.57,-0.13,151.92,93.51,-107.3
717,1778614183.473863,0.43,0.87,-0.18,198.12,61.65,-63.96
718,1778614183.483777,0.43,0.87,-0.18,198.12,61.65,-63.96
719,1778614183.493812,0.43,0.87,-0.18,198.12,61.65,-63.96
720,1778614183.503832,0.43,0.87,-0.18,198.12,61.65,-63.96
721,1778614183.513865,0.8,0.39,0.93,198.12,61.65,-63.96
722,1778614183.523749,0.8,0.39,0.93,198.12,61.65,-63.96
723,1778614183.533809,0.8,0.39,0.93,198.12,61.65,-63.96
724,1778614183.543823,0.8,0.39,0.93,198.12,61.65,-63.96
725,1778614183.553836,0.8,0.39,0.93,198.12,61.65,-63.96
726,1778614183.5637681,0.8,0.39,0.93,198.12,61.65,-63.96
727,1778614183.573768,0.8,0.39,0.93,198.12,61.65,-63.96
728,1778614183.583782,0.8,0.39,0.93,198.12,61.65,-63.96
729,1778614183.593792,0.37,-0.13,-0.2,156.68,143.01,78.37
730,1778614183.603827,0.37,-0.13,-0.2,156.68,143.01,78.37
731,1778614183.613819,0.37,-0.13,-0.2,156.68,143.01,78.37
732,1778614183.623772,1.96,1.66,-0.3,-163.7,442.26,116.27
733,1778614183.633829,1.96,1.66,-0.3,-163.7,442.26,116.27
734,1778614183.643866,1.96,1.66,-0.3,-163.7,442.26,116.27
735,1778614183.6537752,1.96,1.66,-0.3,-163.7,442.26,116.27
736,1778614183.663809,1.43,2.0,-0.55,157.96,402.4,102.11
737,1778614183.6738272,1.43,2.0,-0.55,157.96,402.4,102.11
738,1778614183.683867,1.43,2.0,-0.55,157.96,402.4,102.11
739,1778614183.693772,1.43,2.0,-0.55,157.96,402.4,102.11
740,1778614183.7038138,1.15,1.68,-0.59,18.19,495.48,51.27
741,1778614183.713853,1.15,1.68,-0.59,18.19,495.48,51.27
742,1778614183.7237709,1.15,1.68,-0.59,18.19,495.48,51.27
743,1778614183.7337909,0.38,1.38,-1.16,-17.03,266.05,16.17
744,1778614183.7438238,0.38,1.38,-1.16,-17.03,266.05,16.17
745,1778614183.75374,0.38,1.38,-1.16,-17.03,266.05,16.17
746,1778614183.763777,0.38,1.38,-1.16,-17.03,266.05,16.17
747,1778614183.773823,-0.01,1.0,-0.83,-80.57,-54.81,44.19
748,1778614183.7838469,-0.01,1.0,-0.83,-80.57,-54.81,44.19
749,1778614183.7937589,-0.01,1.0,-0.83,-80.57,-54.81,44.19
750,1778614183.803821,-0.01,1.0,-0.83,-80.57,-54.81,44.19
751,1778614183.813807,-0.16,0.6,-0.53,150.88,-60.18,54.32
752,1778614183.823777,-0.16,0.6,-0.53,150.88,-60.18,54.32
753,1778614183.833785,-0.16,0.6,-0.53,150.88,-60.18,54.32
754,1778614183.843811,-0.16,0.6,-0.53,150.88,-60.18,54.32
755,1778614183.853861,-0.16,0.6,-0.53,150.88,-60.18,54.32
756,1778614183.8637419,-0.16,0.6,-0.53,150.88,-60.18,54.32
757,1778614183.8737578,-0.16,0.6,-0.53,150.88,-60.18,54.32
758,1778614183.8838131,-0.16,0.6,-0.53,150.88,-60.18,54.32
759,1778614183.893842,-0.16,0.6,-0.53,150.88,-60.18,54.32
760,1778614183.903759,-0.16,0.6,-0.53,150.88,-60.18,54.32
761,1778614183.9137962,-0.16,0.6,-0.53,150.88,-60.18,54.32
762,1778614183.923821,-0.16,0.6,-0.53,150.88,-60.18,54.32
763,1778614183.933841,-0.2,0.63,-0.32,85.69,170.72,25.45
764,1778614183.9437382,-0.2,0.63,-0.32,85.69,170.72,25.45
765,1778614183.9537652,-0.2,0.63,-0.32,85.69,170.72,25.45
766,1778614183.963787,-0.05,0.48,-0.14,127.14,-0.79,60.3
767,1778614183.973826,-0.05,0.48,-0.14,127.14,-0.79,60.3
768,1778614183.983863,-0.05,0.48,-0.14,127.14,-0.79,60.3
769,1778614183.993765,-0.05,0.48,-0.14,127.14,-0.79,60.3
770,1778614184.003793,-0.05,0.48,-0.14,127.14,-0.79,60.3
771,1778614184.013839,0.64,4.92,-1.0,175.29,8.91,73.67
772,1778614184.023774,0.64,4.92,-1.0,175.29,8.91,73.67
773,1778614184.033801,0.64,4.92,-1.0,175.29,8.91,73.67
774,1778614184.043829,0.64,4.92,-1.0,175.29,8.91,73.67
775,1778614184.053739,0.64,4.92,-1.0,175.29,8.91,73.67
776,1778614184.063762,0.64,4.92,-1.0,175.29,8.91,73.67
777,1778614184.073793,0.64,4.92,-1.0,175.29,8.91,73.67
778,1778614184.0838258,0.64,4.92,-1.0,175.29,8.91,73.67
779,1778614184.093844,0.64,4.92,-1.0,175.29,8.91,73.67
780,1778614184.1038551,0.64,4.92,-1.0,175.29,8.91,73.67
781,1778614184.113782,0.64,4.92,-1.0,175.29,8.91,73.67
782,1778614184.123866,0.69,1.98,-0.06,149.17,6.59,-75.99
783,1778614184.133784,0.69,1.98,-0.06,149.17,6.59,-75.99
784,1778614184.143834,0.69,1.98,-0.06,149.17,6.59,-75.99
785,1778614184.1537678,0.53,1.42,-0.49,-27.1,179.32,-106.75
786,1778614184.163811,0.53,1.42,-0.49,-27.1,179.32,-106.75
787,1778614184.173866,0.53,1.42,-0.49,-27.1,179.32,-106.75
788,1778614184.183768,0.53,1.42,-0.49,-27.1,179.32,-106.75
789,1778614184.193784,0.37,1.01,-0.41,37.11,99.18,-116.15
790,1778614184.203843,0.37,1.01,-0.41,37.11,99.18,-116.15
791,1778614184.2137752,0.37,1.01,-0.41,37.11,99.18,-116.15
792,1778614184.2238238,0.37,1.01,-0.41,37.11,99.18,-116.15
793,1778614184.233768,0.55,1.01,-0.16,51.94,46.94,-108.22
794,1778614184.243806,0.55,1.01,-0.16,51.94,46.94,-108.22
795,1778614184.2537541,0.55,1.01,-0.16,51.94,46.94,-108.22
796,1778614184.2638159,0.55,1.01,-0.16,51.94,46.94,-108.22
797,1778614184.2737541,0.45,0.53,-0.09,80.81,90.39,-109.07
798,1778614184.2838159,0.45,0.53,-0.09,80.81,90.39,-109.07
799,1778614184.293858,0.45,0.53,-0.09,80.81,90.39,-109.07
800,1778614184.3037891,1.38,0.15,1.6,-310.24,-518.37,14.65
801,1778614184.313849,1.38,0.15,1.6,-310.24,-518.37,14.65
802,1778614184.3237572,1.38,0.15,1.6,-310.24,-518.37,14.65
803,1778614184.3338082,0.34,0.46,-0.1,-310.24,-518.37,14.65
804,1778614184.3438232,0.34,0.46,-0.1,-89.9,-111.51,69.52
805,1778614184.353838,0.34,0.46,-0.1,-89.9,-111.51,69.52
806,1778614184.3637419,0.34,0.46,-0.1,-89.9,-111.51,69.52
807,1778614184.373773,0.34,0.46,-0.1,-89.9,-111.51,69.52
808,1778614184.383775,0.34,0.46,-0.1,-89.9,-111.51,69.52
809,1778614184.393812,0.34,0.46,-0.1,-89.9,-111.51,69.52
810,1778614184.403851,0.34,0.46,-0.1,-89.9,-111.51,69.52
811,1778614184.413743,0.34,0.46,-0.1,-89.9,-111.51,69.52
812,1778614184.42379,0.34,0.46,-0.1,-89.9,-111.51,69.52
813,1778614184.4338171,0.34,0.46,-0.1,-89.9,-111.51,69.52
814,1778614184.443833,0.34,0.46,-0.1,-89.9,-111.51,69.52
815,1778614184.453849,1.73,2.3,-0.85,-10.74,417.97,129.76
816,1778614184.463866,1.73,2.3,-0.85,-10.74,417.97,129.76
817,1778614184.4737668,1.73,2.3,-0.85,-10.74,417.97,129.76
818,1778614184.483791,0.85,1.66,-0.24,68.79,307.68,96.19
819,1778614184.493811,0.85,1.66,-0.24,68.79,307.68,96.19
820,1778614184.503832,0.85,1.66,-0.24,68.79,307.68,96.19
821,1778614184.5138571,0.85,1.66,-0.24,68.79,307.68,96.19
822,1778614184.523768,0.54,1.95,-0.64,-67.87,148.8,98.45
823,1778614184.533799,0.54,1.95,-0.64,-67.87,148.8,98.45
824,1778614184.543804,0.54,1.95,-0.64,-67.87,148.8,98.45
825,1778614184.553835,0.54,1.95,-0.64,-67.87,148.8,98.45
826,1778614184.5638,0.54,1.95,-0.64,-67.87,148.8,98.45
827,1778614184.573793,0.54,1.95,-0.64,-67.87,148.8,98.45
828,1778614184.583808,0.54,1.95,-0.64,-67.87,148.8,98.45
829,1778614184.5938208,0.54,1.95,-0.64,-67.87,148.8,98.45
830,1778614184.6038342,0.54,1.95,-0.64,-67.87,148.8,98.45
831,1778614184.613827,0.54,1.95,-0.64,-67.87,148.8,98.45
832,1778614184.623819,0.54,1.95,-0.64,-67.87,148.8,98.45
833,1778614184.63376,0.54,1.95,-0.64,-67.87,148.8,98.45
834,1778614184.643767,-0.52,0.68,-0.08,148.01,-59.57,-27.04
835,1778614184.65386,-0.52,0.68,-0.08,148.01,-59.57,-27.04
836,1778614184.663771,-0.52,0.68,-0.08,148.01,-59.57,-27.04
837,1778614184.673839,-0.52,0.68,-0.08,148.01,-59.57,-27.04
838,1778614184.683785,-0.27,0.31,0.04,74.95,-45.9,-51.94
839,1778614184.6938381,-0.27,0.31,0.04,74.95,-45.9,-51.94
840,1778614184.7038348,-0.27,0.31,0.04,74.95,-45.9,-51.94
841,1778614184.713809,-0.27,0.31,0.04,74.95,-45.9,-51.94
842,1778614184.7237551,-0.22,0.02,0.0,152.77,43.52,-70.37
843,1778614184.7337668,-0.22,0.02,0.0,152.77,43.52,-70.37
844,1778614184.743762,-0.22,0.02,0.0,152.77,43.52,-70.37
845,1778614184.753793,0.4,0.4,1.62,153.26,-0.31,-39.86
846,1778614184.763755,0.4,0.4,1.62,153.26,-0.31,-39.86
847,1778614184.773738,0.4,0.4,1.62,153.26,-0.31,-39.86
848,1778614184.783757,0.4,0.4,1.62,153.26,-0.31,-39.86
849,1778614184.793793,0.4,0.4,1.62,153.26,-0.31,-39.86
850,1778614184.803817,0.15,1.58,-0.45,-82.46,369.93,80.32
851,1778614184.813837,0.15,1.58,-0.45,-82.46,369.93,80.32
852,1778614184.823863,0.15,1.58,-0.45,-82.46,369.93,80.32
853,1778614184.8337479,0.36,2.11,-0.16,-82.46,369.93,80.32
854,1778614184.84381,0.36,2.11,-0.16,-82.46,369.93,80.32
855,1778614184.853843,0.36,2.11,-0.16,26.31,56.58,-128.78
856,1778614184.863749,0.13,0.31,-0.2,27.22,207.21,-86.61
857,1778614184.8737862,0.13,0.31,-0.2,27.22,207.21,-86.61
858,1778614184.883822,0.13,0.31,-0.2,27.22,207.21,-86.61
859,1778614184.893843,0.13,0.31,-0.2,27.22,207.21,-86.61
860,1778614184.9037702,0.13,0.31,-0.2,27.22,207.21,-86.61
861,1778614184.913812,0.13,0.31,-0.2,27.22,207.21,-86.61
862,1778614184.923861,0.13,0.31,-0.2,27.22,207.21,-86.61
863,1778614184.9337652,0.13,0.31,-0.2,27.22,207.21,-86.61
864,1778614184.943798,0.13,0.31,-0.2,27.22,207.21,-86.61
865,1778614184.953842,0.13,0.31,-0.2,27.22,207.21,-86.61
866,1778614184.963783,0.13,0.31,-0.2,27.22,207.21,-86.61
867,1778614184.973855,0.13,0.31,-0.2,27.22,207.21,-86.61
868,1778614184.983804,0.33,0.7,-0.38,-19.84,-108.7,-57.07
869,1778614184.9938612,0.33,0.7,-0.38,-19.84,-108.7,-57.07
870,1778614185.0037692,0.33,0.7,-0.38,-19.84,-108.7,-57.07
871,1778614185.013818,0.33,0.7,-0.38,-19.84,-108.7,-57.07
872,1778614185.0238478,0.3,0.52,0.0,8.3,-106.87,-33.2
873,1778614185.0337448,0.3,0.52,0.0,8.3,-106.87,-33.2
874,1778614185.043775,0.3,0.52,0.0,8.3,-106.87,-33.2
875,1778614185.053812,0.3,0.52,0.0,8.3,-106.87,-33.2
876,1778614185.063861,0.26,0.6,-0.04,80.38,-16.36,-42.18
877,1778614185.073774,0.26,0.6,-0.04,80.38,-16.36,-42.18
878,1778614185.083822,0.26,0.6,-0.04,80.38,-16.36,-42.18
879,1778614185.093838,0.26,0.6,-0.04,80.38,-16.36,-42.18
880,1778614185.103862,0.26,0.6,-0.04,80.38,-16.36,-42.18
881,1778614185.113761,0.26,0.6,-0.04,80.38,-16.36,-42.18
882,1778614185.12379,0.26,0.6,-0.04,80.38,-16.36,-42.18
883,1778614185.133816,0.26,0.6,-0.04,80.38,-16.36,-42.18
884,1778614185.143852,0.26,0.6,-0.04,80.38,-16.36,-42.18
885,1778614185.153752,0.26,0.6,-0.04,80.38,-16.36,-42.18
886,1778614185.1637938,0.26,0.6,-0.04,80.38,-16.36,-42.18
887,1778614185.1738648,0.64,0.82,0.63,-41.2,-327.7,126.95
888,1778614185.18375,0.64,0.82,0.63,-41.2,-327.7,126.95
889,1778614185.193773,0.64,0.82,0.63,-41.2,-327.7,126.95
890,1778614185.2038012,1.43,2.86,-0.35,-126.53,552.92,159.0
891,1778614185.213834,1.43,2.86,-0.35,-126.53,552.92,159.0
892,1778614185.22383,1.43,2.86,-0.35,-126.53,552.92,159.0
893,1778614185.233749,1.43,2.86,-0.35,-126.53,552.92,159.0
894,1778614185.243778,0.64,1.7,-0.47,210.21,383.24,156.98
895,1778614185.253808,0.64,1.7,-0.47,210.21,383.24,156.98
896,1778614185.263804,0.64,1.7,-0.47,210.21,383.24,156.98
897,1778614185.2737868,0.64,1.7,-0.47,210.21,383.24,156.98
898,1778614185.283815,0.69,2.71,-0.68,-157.9,193.3,167.05
899,1778614185.293835,0.69,2.71,-0.68,-157.9,193.3,167.05
900,1778614185.303744,0.69,2.71,-0.68,-157.9,193.3,167.05
901,1778614185.313767,0.69,2.71,-0.68,-157.9,193.3,167.05
902,1778614185.32378,-0.21,1.2,-1.23,-52.67,-98.57,65.49
903,1778614185.333795,-0.21,1.2,-1.23,-52.67,-98.57,65.49
904,1778614185.343828,-0.21,1.2,-1.23,-52.67,-98.57,65.49
905,1778614185.353745,-0.21,1.2,-1.23,-52.67,-98.57,65.49
906,1778614185.36382,-0.15,0.7,-0.16,95.58,-324.77,58.96
907,1778614185.373767,-0.15,0.7,-0.16,95.58,-324.77,58.96
908,1778614185.383807,-0.15,0.7,-0.16,95.58,-324.77,58.96
909,1778614185.393801,-0.48,0.46,-0.05,95.58,-324.77,58.96
910,1778614185.403855,-0.48,0.46,-0.05,207.64,-69.76,-34.79
911,1778614185.41376,-0.48,0.46,-0.05,207.64,-69.76,-34.79
912,1778614185.4237928,-0.48,0.46,-0.05,207.64,-69.76,-34.79
913,1778614185.433843,-0.48,0.46,-0.05,207.64,-69.76,-34.79
914,1778614185.4437382,-0.48,0.46,-0.05,207.64,-69.76,-34.79
915,1778614185.453773,-0.48,0.46,-0.05,207.64,-69.76,-34.79
916,1778614185.463813,-0.48,0.46,-0.05,207.64,-69.76,-34.79
917,1778614185.473845,-0.48,0.46,-0.05,207.64,-69.76,-34.79
918,1778614185.483752,-0.48,0.46,-0.05,207.64,-69.76,-34.79
919,1778614185.493794,-0.48,0.46,-0.05,207.64,-69.76,-34.79
920,1778614185.503835,-0.27,-0.11,0.22,111.15,299.01,6.71
921,1778614185.513759,0.2,1.71,0.59,78.06,350.83,149.84
922,1778614185.523813,0.2,1.71,0.59,78.06,350.83,149.84
923,1778614185.5338602,0.2,1.71,0.59,78.06,350.83,149.84
924,1778614185.54378,0.2,1.71,0.59,78.06,350.83,149.84
925,1778614185.553835,-0.24,1.59,-0.94,-142.88,-625.0,38.15
926,1778614185.563856,-0.24,1.59,-0.94,-142.88,-625.0,38.15
927,1778614185.573762,-0.24,1.59,-0.94,-142.88,-625.0,38.15
928,1778614185.5837948,-0.24,1.59,-0.94,-142.88,-625.0,38.15
929,1778614185.593838,0.04,2.66,-0.11,-237.0,-235.11,44.19
930,1778614185.603738,0.04,2.66,-0.11,-237.0,-235.11,44.19
931,1778614185.613787,0.04,2.66,-0.11,-237.0,-235.11,44.19
932,1778614185.6237671,0.04,2.66,-0.11,-237.0,-235.11,44.19
933,1778614185.633837,0.04,2.66,-0.11,-237.0,-235.11,44.19
934,1778614185.643863,0.04,2.66,-0.11,-237.0,-235.11,44.19
935,1778614185.653764,0.04,2.66,-0.11,-237.0,-235.11,44.19
936,1778614185.663785,0.04,2.66,-0.11,-237.0,-235.11,44.19
937,1778614185.673792,0.04,2.66,-0.11,-237.0,-235.11,44.19
938,1778614185.683821,0.04,2.66,-0.11,-237.0,-235.11,44.19
939,1778614185.693743,0.76,1.65,-0.62,-267.88,281.13,-109.25
940,1778614185.703858,0.76,1.65,-0.62,-267.88,281.13,-109.25
941,1778614185.713818,0.87,1.29,-0.77,60.24,517.7,-178.59
942,1778614185.7238321,0.87,1.29,-0.77,60.24,517.7,-178.59
943,1778614185.733736,0.87,1.29,-0.77,60.24,517.7,-178.59
944,1778614185.743756,0.87,1.29,-0.77,60.24,517.7,-178.59
945,1778614185.753796,0.52,0.94,-0.33,160.52,204.16,-147.71
946,1778614185.7638469,0.52,0.94,-0.33,160.52,204.16,-147.71
947,1778614185.773768,0.48,0.76,-0.14,160.52,204.16,-147.71
948,1778614185.7838159,0.48,0.76,-0.14,181.64,133.24,-119.75
949,1778614185.793848,0.48,0.76,-0.14,181.64,133.24,-119.75
950,1778614185.8037498,0.48,0.76,-0.14,181.64,133.24,-119.75
951,1778614185.813739,0.37,0.62,-0.14,181.64,133.24,-119.75
952,1778614185.82385,0.37,0.62,-0.14,198.43,34.97,-57.01
953,1778614185.8338602,0.37,0.62,-0.14,198.43,34.97,-57.01
954,1778614185.843764,0.37,0.62,-0.14,198.43,34.97,-57.01
955,1778614185.853798,-0.82,0.92,-1.68,198.0,-102.48,-21.73
956,1778614185.863816,-0.82,0.92,-1.68,198.0,-102.48,-21.73
957,1778614185.873865,-0.82,0.92,-1.68,198.0,-102.48,-21.73
958,1778614185.883788,3.69,0.01,4.83,-69.4,-1443.12,33.33
959,1778614185.893821,3.69,0.01,4.83,-69.4,-1443.12,33.33
960,1778614185.903798,3.69,0.01,4.83,-69.4,-1443.12,33.33
961,1778614185.9138188,3.69,0.01,4.83,-69.4,-1443.12,33.33
962,1778614185.923857,0.38,-0.0,-0.0,-93.44,300.05,155.03
963,1778614185.933763,0.38,-0.0,-0.0,-93.44,300.05,155.03
964,1778614185.9437718,0.38,-0.0,-0.0,-93.44,300.05,155.03
965,1778614185.9537878,0.38,-0.0,-0.0,-93.44,300.05,155.03
966,1778614185.963776,0.38,-0.0,-0.0,-93.44,300.05,155.03
967,1778614185.9738188,0.38,-0.0,-0.0,-93.44,300.05,155.03
968,1778614185.983741,0.38,-0.0,-0.0,-93.44,300.05,155.03
969,1778614185.9937742,0.38,-0.0,-0.0,-93.44,300.05,155.03
970,1778614186.0037818,0.38,-0.0,-0.0,-93.44,300.05,155.03
971,1778614186.013827,0.38,-0.0,-0.0,-93.44,300.05,155.03
972,1778614186.023752,0.38,-0.0,-0.0,-93.44,300.05,155.03
973,1778614186.033802,0.8,2.49,-0.51,141.17,374.76,245.91
974,1778614186.043843,0.8,2.49,-0.51,-67.63,314.58,142.58
975,1778614186.053864,0.8,2.49,-0.51,-67.63,314.58,142.58
976,1778614186.0637639,0.8,2.49,-0.51,-67.63,314.58,142.58
977,1778614186.0738401,0.8,2.49,-0.51,-67.63,314.58,142.58
978,1778614186.0837388,0.8,2.49,-0.51,-67.63,314.58,142.58
979,1778614186.093764,0.8,2.49,-0.51,-67.63,314.58,142.58
980,1778614186.103791,0.8,2.49,-0.51,-67.63,314.58,142.58
981,1778614186.113822,-0.44,1.01,-0.96,-40.47,-210.33,24.9
982,1778614186.1238568,-0.44,1.01,-0.96,-40.47,-210.33,24.9
983,1778614186.1337469,-0.44,1.01,-0.96,-40.47,-210.33,24.9
984,1778614186.1437628,-0.44,1.01,-0.96,-40.47,-210.33,24.9
985,1778614186.153784,-0.44,1.01,-0.96,-40.47,-210.33,24.9
986,1778614186.163805,-0.44,1.01,-0.96,-40.47,-210.33,24.9
987,1778614186.173857,-0.44,1.01,-0.96,-40.47,-210.33,24.9
988,1778614186.183761,-0.44,1.01,-0.96,-40.47,-210.33,24.9
989,1778614186.1937761,-0.44,1.01,-0.96,-40.47,-210.33,24.9
990,1778614186.2038112,-0.44,1.01,-0.96,-40.47,-210.33,24.9
991,1778614186.213763,-0.44,1.01,-0.96,-40.47,-210.33,24.9
992,1778614186.223827,-0.27,-0.03,0.12,56.95,93.63,-98.39
993,1778614186.233784,-0.27,-0.03,0.12,56.95,93.63,-98.39
994,1778614186.243797,-0.27,-0.03,0.12,56.95,93.63,-98.39
995,1778614186.253849,-0.27,-0.03,0.12,56.95,93.63,-98.39
996,1778614186.263764,-0.09,0.21,0.1,195.25,228.64,-41.69
997,1778614186.273797,-0.09,0.21,0.1,195.25,228.64,-41.69
998,1778614186.283864,-0.09,0.21,0.1,195.25,228.64,-41.69
999,1778614186.293797,1.05,1.06,1.4,106.51,544.8,71.47
1000,1778614186.303854,1.05,1.06,1.4,106.51,544.8,71.47
