id,timestamp,acc_x,acc_y,acc_z,gyro_x,gyro_y,gyro_z
1,1778614138.0477881,0.22,-0.51,-0.48,164.49,245.3,245.61
2,1778614138.047806,0.22,-0.51,-0.48,164.49,245.3,245.61
3,1778614138.055444,0.68,-0.63,0.11,163.09,-23.99,-287.05
4,1778614138.065404,0.68,-0.63,0.11,163.09,-23.99,-287.05
5,1778614138.075422,0.68,-0.63,0.11,163.09,-23.99,-287.05
6,1778614138.085419,0.68,-0.63,0.11,163.09,-23.99,-287.05
7,1778614138.095407,1.35,-0.02,0.75,706.36,175.23,-702.51
8,1778614138.105407,1.35,-0.02,0.75,706.36,175.23,-702.51
9,1778614138.1153688,1.35,-0.02,0.75,706.36,175.23,-702.51
10,1778614138.1254342,1.35,-0.02,0.75,706.36,175.23,-702.51
11,1778614138.1353831,3.51,-1.62,0.47,364.14,-236.39,-501.59
12,1778614138.145353,3.51,-1.62,0.47,364.14,-236.39,-501.59
13,1778614138.1554172,3.51,-1.62,0.47,364.14,-236.39,-501.59
14,1778614138.165374,3.51,-1.62,0.47,364.14,-236.39,-501.59
15,1778614138.1754282,1.79,-0.67,1.02,-0.61,-158.39,322.27
16,1778614138.1854389,1.79,-0.67,1.02,-0.61,-158.39,322.27
17,1778614138.195352,1.79,-0.67,1.02,-0.61,-158.39,322.27
18,1778614138.205396,1.79,-0.67,1.02,-0.61,-158.39,322.27
19,1778614138.215429,0.44,0.02,-0.18,-188.84,288.02,62.93
20,1778614138.225468,0.44,0.02,-0.18,-188.84,288.02,62.93
21,1778614138.235379,0.44,0.02,-0.18,-188.84,288.02,62.93
22,1778614138.245416,0.44,0.02,-0.18,-188.84,288.02,62.93
23,1778614138.255454,0.44,0.02,-0.18,-188.84,288.02,62.93
24,1778614138.265363,0.44,0.02,-0.18,-188.84,288.02,62.93
25,1778614138.275399,0.44,0.02,-0.18,-188.84,288.02,62.93
26,1778614138.285422,0.44,0.02,-0.18,-188.84,288.02,62.93
27,1778614138.295445,0.44,0.02,-0.18,-188.84,288.02,62.93
28,1778614138.305341,0.44,0.02,-0.18,-188.84,288.02,62.93
29,1778614138.315403,0.44,0.02,-0.18,-188.84,288.02,62.93
30,1778614138.325442,0.44,0.02,-0.18,-188.84,288.02,62.93
31,1778614138.3353631,0.04,0.53,-0.31,-270.32,-234.44,90.33
32,1778614138.345379,0.04,0.53,-0.31,-270.32,-234.44,90.33
33,1778614138.3554251,0.04,0.53,-0.31,-270.32,-234.44,90.33
34,1778614138.365356,0.92,0.04,1.54,-60.24,93.63,123.05
35,1778614138.375402,0.92,0.04,1.54,-60.24,93.63,123.05
36,1778614138.385468,0.92,0.04,1.54,-60.24,93.63,123.05
37,1778614138.3953621,0.92,0.04,1.54,-60.24,93.63,123.05
38,1778614138.40543,3.13,0.59,-0.34,-28.26,223.27,-27.65
39,1778614138.415345,3.13,0.59,-0.34,-28.26,223.27,-27.65
40,1778614138.425401,3.13,0.59,-0.34,-28.26,223.27,-27.65
41,1778614138.435429,3.13,0.59,-0.34,-28.26,223.27,-27.65
42,1778614138.4454541,3.13,0.59,-0.34,-28.26,223.27,-27.65
43,1778614138.455353,3.13,0.59,-0.34,-28.26,223.27,-27.65
44,1778614138.465377,3.13,0.59,-0.34,-28.26,223.27,-27.65
45,1778614138.475418,3.13,0.59,-0.34,-28.26,223.27,-27.65
46,1778614138.485426,3.13,0.59,-0.34,-28.26,223.27,-27.65
47,1778614138.495435,3.13,0.59,-0.34,-28.26,223.27,-27.65
48,1778614138.5053592,3.13,0.59,-0.34,-28.26,223.27,-27.65
49,1778614138.515384,1.52,0.16,-0.61,220.09,-32.41,41.38
50,1778614138.525389,1.61,-0.05,-0.73,57.01,140.14,-207.64
51,1778614138.5354218,1.61,-0.05,-0.73,57.01,140.14,-207.64
52,1778614138.5453591,1.61,-0.05,-0.73,57.01,140.14,-207.64
53,1778614138.555413,1.33,-0.11,-0.84,60.24,-6.71,-36.25
54,1778614138.565386,1.33,-0.11,-0.84,60.24,-6.71,-36.25
55,1778614138.5753632,1.33,-0.11,-0.84,60.24,-6.71,-36.25
56,1778614138.585408,1.33,-0.11,-0.84,60.24,-6.71,-36.25
57,1778614138.595387,0.75,0.02,-0.17,-35.89,-18.19,-76.97
58,1778614138.605367,0.75,0.02,-0.17,-35.89,-18.19,-76.97
59,1778614138.615388,0.75,0.02,-0.17,-35.89,-18.19,-76.97
60,1778614138.6253839,0.83,-0.17,-0.26,-35.89,-18.19,-76.97
61,1778614138.635361,0.83,-0.17,-0.26,15.93,-46.2,-99.79
62,1778614138.645382,0.83,-0.17,-0.26,15.93,-46.2,-99.79
63,1778614138.655413,0.83,-0.17,-0.26,15.93,-46.2,-99.79
64,1778614138.665441,0.89,-0.27,-0.15,86.55,-110.96,-80.44
65,1778614138.675444,0.89,-0.27,-0.15,86.55,-110.96,-80.44
66,1778614138.6853492,0.89,-0.27,-0.15,86.55,-110.96,-80.44
67,1778614138.6953971,0.89,-0.27,-0.15,86.55,-110.96,-80.44
68,1778614138.705434,0.73,-0.2,-0.24,44.31,-164.25,-67.99
69,1778614138.715431,0.73,-0.2,-0.24,44.31,-164.25,-67.99
70,1778614138.72546,0.73,-0.2,-0.24,44.31,-164.25,-67.99
71,1778614138.73537,0.19,-0.8,1.69,-1748.72,42.6,-86.18
72,1778614138.745398,0.19,-0.8,1.69,-1748.72,42.6,-86.18
73,1778614138.755434,0.19,-0.8,1.69,-1748.72,42.6,-86.18
74,1778614138.765346,0.19,-0.8,1.69,-1748.72,42.6,-86.18
75,1778614138.7753532,0.19,-0.8,1.69,-1748.72,42.6,-86.18
76,1778614138.7853749,0.19,-0.8,1.69,-1748.72,42.6,-86.18
77,1778614138.795393,0.19,-0.8,1.69,-1748.72,42.6,-86.18
78,1778614138.805377,0.19,-0.8,1.69,-1748.72,42.6,-86.18
79,1778614138.815383,0.19,-0.8,1.69,-1748.72,42.6,-86.18
80,1778614138.825396,0.19,-0.8,1.69,-1748.72,42.6,-86.18
81,1778614138.835435,0.19,-0.8,1.69,-1748.72,42.6,-86.18
82,1778614138.8454442,1.8,-1.23,-0.49,586.3,0.43,-1.4
83,1778614138.8553689,2.13,-0.35,1.03,43.52,-162.84,221.25
84,1778614138.865401,2.13,-0.35,1.03,43.52,-162.84,221.25
85,1778614138.87539,2.13,-0.35,1.03,43.52,-162.84,221.25
86,1778614138.8854349,2.13,-0.35,1.03,43.52,-162.84,221.25
87,1778614138.8953972,2.72,-0.43,-0.58,-134.7,256.71,283.33
88,1778614138.9054139,2.72,-0.43,-0.58,-134.7,256.71,283.33
89,1778614138.9154198,2.72,-0.43,-0.58,-134.7,256.71,283.33
90,1778614138.925451,2.72,-0.43,-0.58,-134.7,256.71,283.33
91,1778614138.935467,2.07,1.36,-0.34,-74.46,-230.53,36.19
92,1778614138.945375,2.07,1.36,-0.34,-74.46,-230.53,36.19
93,1778614138.955395,2.07,1.36,-0.34,-74.46,-230.53,36.19
94,1778614138.96544,2.07,1.36,-0.34,-74.46,-230.53,36.19
95,1778614138.975466,2.07,1.36,-0.34,-74.46,-230.53,36.19
96,1778614138.985384,2.07,1.36,-0.34,-74.46,-230.53,36.19
97,1778614138.9954062,2.07,1.36,-0.34,-74.46,-230.53,36.19
98,1778614139.005445,2.07,1.36,-0.34,-74.46,-230.53,36.19
99,1778614139.0154629,2.07,1.36,-0.34,-74.46,-230.53,36.19
100,1778614139.025364,2.07,1.36,-0.34,-74.46,-230.53,36.19
101,1778614139.035419,0.52,0.02,-0.06,92.04,-30.03,-118.47
102,1778614139.045425,0.15,0.12,0.23,92.04,-30.03,-118.47
103,1778614139.055465,0.15,0.12,0.23,10.99,-122.5,-151.86
104,1778614139.065356,0.15,0.12,0.23,10.99,-122.5,-151.86
105,1778614139.0753942,0.15,0.12,0.23,10.99,-122.5,-151.86
106,1778614139.08546,0.31,-0.52,1.24,37.35,117.98,-97.96
107,1778614139.0953448,0.31,-0.52,1.24,37.35,117.98,-97.96
108,1778614139.105362,0.31,-0.52,1.24,37.35,117.98,-97.96
109,1778614139.115402,0.31,-0.52,1.24,37.35,117.98,-97.96
110,1778614139.125449,0.89,-1.48,-1.1,611.08,54.5,-83.01
111,1778614139.135372,0.89,-1.48,-1.1,611.08,54.5,-83.01
112,1778614139.1453671,0.89,-1.48,-1.1,611.08,54.5,-83.01
113,1778614139.1554189,1.03,-0.52,-0.27,611.08,54.5,-83.01
114,1778614139.165453,1.03,-0.52,-0.27,433.84,112.92,-57.31
115,1778614139.175361,1.03,-0.52,-0.27,433.84,112.92,-57.31
116,1778614139.185382,1.03,-0.52,-0.27,433.84,112.92,-57.31
117,1778614139.195411,2.34,-0.28,-0.41,161.8,30.15,-47.73
118,1778614139.205438,2.34,-0.28,-0.41,161.8,30.15,-47.73
119,1778614139.215462,2.34,-0.28,-0.41,161.8,30.15,-47.73
120,1778614139.2253509,2.34,-0.28,-0.41,161.8,30.15,-47.73
121,1778614139.235383,2.34,-0.28,-0.41,161.8,30.15,-47.73
122,1778614139.245394,0.96,0.19,-0.29,266.42,54.32,23.86
123,1778614139.255417,0.96,0.19,-0.29,266.42,54.32,23.86
124,1778614139.26545,0.96,0.19,-0.29,266.42,54.32,23.86
125,1778614139.2753448,1.44,0.16,-0.47,266.3,78.8,-48.1
126,1778614139.285357,1.44,0.16,-0.47,266.3,78.8,-48.1
127,1778614139.2953632,1.44,0.16,-0.47,266.3,78.8,-48.1
128,1778614139.305394,1.44,0.16,-0.47,266.3,78.8,-48.1
129,1778614139.3153868,1.44,0.16,-0.47,266.3,78.8,-48.1
130,1778614139.325407,1.44,0.16,-0.47,266.3,78.8,-48.1
131,1778614139.335438,1.44,0.16,-0.47,266.3,78.8,-48.1
132,1778614139.3454452,1.44,0.16,-0.47,266.3,78.8,-48.1
133,1778614139.355434,1.44,0.16,-0.47,266.3,78.8,-48.1
134,1778614139.3654442,0.82,-0.03,-0.27,93.75,9.77,-16.85
135,1778614139.375464,0.82,-0.03,-0.27,93.75,9.77,-16.85
136,1778614139.3853571,0.82,-0.03,-0.27,93.75,9.77,-16.85
137,1778614139.3953679,0.65,-0.08,-0.18,52.06,29.05,-22.22
138,1778614139.40539,0.65,-0.08,-0.18,52.06,29.05,-22.22
139,1778614139.415445,0.65,-0.08,-0.18,52.06,29.05,-22.22
140,1778614139.4254599,0.98,-0.13,-0.03,63.72,-28.75,-38.57
141,1778614139.435349,0.98,-0.13,-0.03,63.72,-28.75,-38.57
142,1778614139.4453802,0.98,-0.13,-0.03,63.72,-28.75,-38.57
143,1778614139.455408,0.98,-0.13,-0.03,63.72,-28.75,-38.57
144,1778614139.465442,0.56,-0.04,0.03,84.05,7.93,-34.24
145,1778614139.475341,0.56,-0.04,0.03,84.05,7.93,-34.24
146,1778614139.4853692,0.56,-0.04,0.03,84.05,7.93,-34.24
147,1778614139.49538,0.56,-0.04,0.03,84.05,7.93,-34.24
148,1778614139.50541,0.56,-0.04,0.03,84.05,7.93,-34.24
149,1778614139.515429,0.56,-0.04,0.03,84.05,7.93,-34.24
150,1778614139.525454,0.56,-0.04,0.03,84.05,7.93,-34.24
151,1778614139.535351,0.56,-0.04,0.03,84.05,7.93,-34.24
152,1778614139.5453608,0.56,-0.04,0.03,84.05,7.93,-34.24
153,1778614139.5553439,0.29,-0.09,-0.45,-859.56,143.74,41.44
154,1778614139.565342,0.29,-0.09,-0.45,-859.56,143.74,41.44
155,1778614139.575364,1.04,-0.9,-0.28,485.9,-20.39,46.39
156,1778614139.585396,1.04,-0.9,-0.28,485.9,-20.39,46.39
157,1778614139.595413,1.04,-0.9,-0.28,485.9,-20.39,46.39
158,1778614139.6054451,1.04,-0.9,-0.28,485.9,-20.39,46.39
159,1778614139.615354,3.07,-0.93,-1.53,799.44,194.76,91.92
160,1778614139.625397,3.07,-0.93,-1.53,799.44,194.76,91.92
161,1778614139.635427,3.07,-0.93,-1.53,799.44,194.76,91.92
162,1778614139.645445,1.81,-0.74,0.23,799.44,194.76,91.92
163,1778614139.65536,1.81,-0.74,0.23,403.5,34.67,7.51
164,1778614139.6653938,1.81,-0.74,0.23,403.5,34.67,7.51
165,1778614139.675359,1.81,-0.74,0.23,403.5,34.67,7.51
166,1778614139.685424,1.58,-0.3,-0.31,240.84,71.35,53.28
167,1778614139.6954648,1.58,-0.3,-0.31,240.84,71.35,53.28
168,1778614139.7054038,1.58,-0.3,-0.31,240.84,71.35,53.28
169,1778614139.715453,1.58,-0.3,-0.31,240.84,71.35,53.28
170,1778614139.725376,1.18,0.4,-0.41,240.84,71.35,53.28
171,1778614139.735426,1.18,0.4,-0.41,-117.86,-14.83,25.7
172,1778614139.7453399,1.18,0.4,-0.41,-117.86,-14.83,25.7
173,1778614139.755386,1.18,0.4,-0.41,-117.86,-14.83,25.7
174,1778614139.765446,0.75,0.23,-0.89,6.96,-60.97,48.22
175,1778614139.775348,0.75,0.23,-0.89,6.96,-60.97,48.22
176,1778614139.785404,0.75,0.23,-0.89,6.96,-60.97,48.22
177,1778614139.795448,0.75,0.23,-0.89,6.96,-60.97,48.22
178,1778614139.805383,0.75,0.23,-0.89,6.96,-60.97,48.22
179,1778614139.815388,0.75,0.23,-0.89,6.96,-60.97,48.22
180,1778614139.825388,0.75,0.23,-0.89,6.96,-60.97,48.22
181,1778614139.835417,0.75,0.23,-0.89,6.96,-60.97,48.22
182,1778614139.845351,0.75,0.23,-0.89,6.96,-60.97,48.22
183,1778614139.855405,0.75,0.23,-0.89,6.96,-60.97,48.22
184,1778614139.865424,0.75,0.23,-0.89,6.96,-60.97,48.22
185,1778614139.8754501,0.75,0.23,-0.89,6.96,-60.97,48.22
186,1778614139.8853729,0.75,0.23,-0.89,6.96,-60.97,48.22
187,1778614139.8953972,0.32,0.36,-0.05,136.41,31.37,7.39
188,1778614139.9054441,0.32,0.36,-0.05,136.41,31.37,7.39
189,1778614139.915367,0.36,0.06,-0.15,-4.09,-54.44,127.62
190,1778614139.925344,0.36,0.06,-0.15,-4.09,-54.44,127.62
191,1778614139.935405,0.36,0.06,-0.15,-4.09,-54.44,127.62
192,1778614139.945456,0.36,0.06,-0.15,-4.09,-54.44,127.62
193,1778614139.955368,1.01,0.21,-0.42,-96.25,-271.36,265.81
194,1778614139.965395,1.01,0.21,-0.42,-96.25,-271.36,265.81
195,1778614139.975442,1.01,0.21,-0.42,-96.25,-271.36,265.81
196,1778614139.9853609,1.01,0.21,-0.42,-96.25,-271.36,265.81
197,1778614139.995393,2.54,0.27,-0.13,-96.25,-271.36,265.81
198,1778614140.005425,2.54,0.27,-0.13,-96.25,-271.36,265.81
199,1778614140.015458,2.54,0.27,-0.13,-96.25,-271.36,265.81
200,1778614140.025428,2.54,0.27,-0.13,-96.25,-271.36,265.81
201,1778614140.035411,2.54,0.27,-0.13,-96.25,-271.36,265.81
202,1778614140.045434,2.54,0.27,-0.13,-96.25,-271.36,265.81
203,1778614140.055469,2.54,0.27,-0.13,-96.25,-271.36,265.81
204,1778614140.065374,2.54,0.27,-0.13,-96.25,-271.36,265.81
205,1778614140.075426,2.54,0.27,-0.13,-96.25,-271.36,265.81
206,1778614140.0853472,1.36,0.26,-0.39,99.06,44.13,-65.12
207,1778614140.095359,1.36,0.26,-0.39,99.06,44.13,-65.12
208,1778614140.105408,1.36,0.26,-0.39,99.06,44.13,-65.12
209,1778614140.1154518,2.06,0.01,-0.51,344.42,60.36,-106.14
210,1778614140.1253529,2.06,0.01,-0.51,344.42,60.36,-106.14
211,1778614140.135373,2.06,0.01,-0.51,344.42,60.36,-106.14
212,1778614140.145389,2.06,0.01,-0.51,344.42,60.36,-106.14
213,1778614140.1554189,0.9,-0.05,-0.23,381.16,36.5,-91.37
214,1778614140.165427,0.9,-0.05,-0.23,381.16,36.5,-91.37
215,1778614140.175443,0.9,-0.05,-0.23,381.16,36.5,-91.37
216,1778614140.1854668,0.91,-0.14,-0.25,277.59,-73.0,-96.74
217,1778614140.1953652,0.91,-0.14,-0.25,277.59,-73.0,-96.74
218,1778614140.205392,0.91,-0.14,-0.25,277.59,-73.0,-96.74
219,1778614140.215412,0.91,-0.14,-0.25,277.59,-73.0,-96.74
220,1778614140.22542,0.81,-0.2,-0.04,216.61,-91.8,-93.69
221,1778614140.235444,0.81,-0.2,-0.04,216.61,-91.8,-93.69
222,1778614140.2453408,0.81,-0.2,-0.04,216.61,-91.8,-93.69
223,1778614140.255445,0.81,-0.2,-0.04,216.61,-91.8,-93.69
224,1778614140.265381,0.52,-0.13,-0.06,150.76,-119.75,-51.33
225,1778614140.2754009,0.52,-0.13,-0.06,150.76,-119.75,-51.33
226,1778614140.2854002,0.52,-0.13,-0.06,150.76,-119.75,-51.33
227,1778614140.295451,0.52,-0.13,-0.06,150.76,-119.75,-51.33
228,1778614140.305374,0.69,0.34,0.41,-1305.85,242.74,60.67
229,1778614140.315392,0.69,0.34,0.41,-1305.85,242.74,60.67
230,1778614140.3253639,0.69,0.34,0.41,-1305.85,242.74,60.67
231,1778614140.3354392,0.69,0.34,0.41,-1305.85,242.74,60.67
232,1778614140.345373,0.69,0.34,0.41,-1305.85,242.74,60.67
233,1778614140.355433,0.69,0.34,0.41,-1305.85,242.74,60.67
234,1778614140.365464,0.69,0.34,0.41,-1305.85,242.74,60.67
235,1778614140.375353,0.69,0.34,0.41,-1305.85,242.74,60.67
236,1778614140.385386,0.69,0.34,0.41,-1305.85,242.74,60.67
237,1778614140.3954098,0.69,0.34,0.41,-1305.85,242.74,60.67
238,1778614140.405445,0.69,0.34,0.41,-1305.85,242.74,60.67
239,1778614140.415369,1.98,-0.29,-0.45,279.66,-18.13,159.36
240,1778614140.425387,1.98,-0.29,-0.45,279.66,-18.13,159.36
241,1778614140.4353752,1.98,-0.29,-0.45,279.66,-18.13,159.36
242,1778614140.445407,1.98,-0.29,-0.45,279.66,-18.13,159.36
243,1778614140.4554272,2.22,-0.02,-0.15,246.15,59.08,172.06
244,1778614140.4653382,2.22,-0.02,-0.15,246.15,59.08,172.06
245,1778614140.475383,2.22,-0.02,-0.15,246.15,59.08,172.06
246,1778614140.4854138,2.22,-0.02,-0.15,246.15,59.08,172.06
247,1778614140.4954188,1.85,0.47,-0.46,119.51,39.92,80.87
248,1778614140.5054562,1.85,0.47,-0.46,119.51,39.92,80.87
249,1778614140.515363,1.85,0.47,-0.46,119.51,39.92,80.87
250,1778614140.525388,1.85,0.47,-0.46,119.51,39.92,80.87
251,1778614140.535404,1.85,0.47,-0.46,119.51,39.92,80.87
252,1778614140.545428,1.85,0.47,-0.46,119.51,39.92,80.87
253,1778614140.555438,1.85,0.47,-0.46,119.51,39.92,80.87
254,1778614140.565451,1.85,0.47,-0.46,119.51,39.92,80.87
255,1778614140.575361,1.85,0.47,-0.46,119.51,39.92,80.87
256,1778614140.58538,1.85,0.47,-0.46,119.51,39.92,80.87
257,1778614140.595403,1.85,0.47,-0.46,119.51,39.92,80.87
258,1778614140.6054342,0.52,0.4,-0.39,-170.41,-78.12,21.36
259,1778614140.615367,0.01,0.28,-0.27,104.37,-85.69,-23.38
260,1778614140.625407,0.01,0.28,-0.27,104.37,-85.69,-23.38
261,1778614140.6354282,0.01,0.28,-0.27,104.37,-85.69,-23.38
262,1778614140.6454642,0.01,0.28,-0.27,104.37,-85.69,-23.38
263,1778614140.655394,-0.03,0.44,-0.1,136.84,-80.63,-52.55
264,1778614140.6654139,-0.03,0.44,-0.1,136.84,-80.63,-52.55
265,1778614140.675391,-0.03,0.44,-0.1,136.84,-80.63,-52.55
266,1778614140.6854348,0.04,0.27,0.06,136.84,-80.63,-52.55
267,1778614140.695363,0.04,0.27,0.06,216.49,-65.06,-80.81
268,1778614140.705423,0.04,0.27,0.06,216.49,-65.06,-80.81
269,1778614140.715344,0.04,0.27,0.06,216.49,-65.06,-80.81
270,1778614140.72541,0.22,0.14,0.79,132.87,-11.66,-12.94
271,1778614140.7354538,0.22,0.14,0.79,132.87,-11.66,-12.94
272,1778614140.745356,0.22,0.14,0.79,132.87,-11.66,-12.94
273,1778614140.7554162,1.1,0.21,-0.24,-624.08,-103.09,236.02
274,1778614140.765462,1.1,0.21,-0.24,-624.08,-103.09,236.02
275,1778614140.7753658,1.1,0.21,-0.24,-624.08,-103.09,236.02
276,1778614140.7854028,1.1,0.21,-0.24,-624.08,-103.09,236.02
277,1778614140.795444,2.55,0.15,-0.29,-624.08,-103.09,236.02
278,1778614140.805388,2.55,0.15,-0.29,-141.11,72.14,-62.99
279,1778614140.815444,2.55,0.15,-0.29,-141.11,72.14,-62.99
280,1778614140.8253598,2.55,0.15,-0.29,-141.11,72.14,-62.99
281,1778614140.8354251,0.1,0.14,-0.17,-141.11,72.14,-62.99
282,1778614140.845383,0.1,0.14,-0.17,199.22,137.39,-65.19
283,1778614140.85543,0.1,0.14,-0.17,199.22,137.39,-65.19
284,1778614140.865343,0.1,0.14,-0.17,199.22,137.39,-65.19
285,1778614140.8754508,0.1,0.14,-0.17,199.22,137.39,-65.19
286,1778614140.885383,0.1,0.14,-0.17,199.22,137.39,-65.19
287,1778614140.895447,0.1,0.14,-0.17,199.22,137.39,-65.19
288,1778614140.905407,0.1,0.14,-0.17,199.22,137.39,-65.19
289,1778614140.915448,0.1,0.14,-0.17,199.22,137.39,-65.19
290,1778614140.9253619,0.1,0.14,-0.17,199.22,137.39,-65.19
291,1778614140.935383,0.1,0.14,-0.17,199.22,137.39,-65.19
292,1778614140.945396,1.96,-0.13,-0.44,212.34,-25.51,-119.69
293,1778614140.955416,0.79,-0.2,-0.29,47.61,11.54,-55.18
294,1778614140.965468,0.79,-0.2,-0.29,47.61,11.54,-55.18
295,1778614140.975457,0.79,-0.2,-0.29,47.61,11.54,-55.18
296,1778614140.98542,0.79,-0.2,-0.29,47.61,11.54,-55.18
297,1778614140.995351,0.89,-0.24,-0.28,-24.6,-15.93,-79.83
298,1778614141.005368,0.89,-0.24,-0.28,-24.6,-15.93,-79.83
299,1778614141.015399,0.89,-0.24,-0.28,-24.6,-15.93,-79.83
300,1778614141.0254238,0.89,-0.24,-0.28,-24.6,-15.93,-79.83
301,1778614141.0353642,0.7,-0.2,-0.11,-26.49,-79.71,-71.9
302,1778614141.045439,0.7,-0.2,-0.11,-26.49,-79.71,-71.9
303,1778614141.055454,0.7,-0.2,-0.11,-26.49,-79.71,-71.9
304,1778614141.0654202,0.7,-0.2,-0.11,-26.49,-79.71,-71.9
305,1778614141.0754611,0.7,-0.2,-0.11,-26.49,-79.71,-71.9
306,1778614141.085354,0.7,-0.2,-0.11,-26.49,-79.71,-71.9
307,1778614141.095357,0.7,-0.2,-0.11,-26.49,-79.71,-71.9
308,1778614141.105397,0.7,-0.2,-0.11,-26.49,-79.71,-71.9
309,1778614141.1154518,0.7,-0.2,-0.11,-26.49,-79.71,-71.9
310,1778614141.125369,0.7,-0.2,-0.11,-26.49,-79.71,-71.9
311,1778614141.1354098,0.5,0.99,4.68,-463.68,-315.67,-3.17
312,1778614141.145437,0.38,-1.41,0.14,-500.67,-75.99,143.19
313,1778614141.1553621,0.38,-1.41,0.14,-500.67,-75.99,143.19
314,1778614141.16541,0.38,-1.41,0.14,-500.67,-75.99,143.19
315,1778614141.1754391,0.38,-1.41,0.14,-500.67,-75.99,143.19
316,1778614141.185338,2.44,-0.76,-0.49,407.78,392.64,117.31
317,1778614141.19535,2.44,-0.76,-0.49,407.78,392.64,117.31
318,1778614141.205396,2.44,-0.76,-0.49,407.78,392.64,117.31
319,1778614141.215426,2.44,-0.76,-0.49,407.78,392.64,117.31
320,1778614141.225465,1.87,-0.04,-0.69,571.35,-116.76,250.49
321,1778614141.23537,1.87,-0.04,-0.69,571.35,-116.76,250.49
322,1778614141.245381,1.87,-0.04,-0.69,571.35,-116.76,250.49
323,1778614141.255415,1.87,-0.04,-0.69,571.35,-116.76,250.49
324,1778614141.26544,2.81,-0.02,-0.38,292.85,239.38,170.41
325,1778614141.275456,2.81,-0.02,-0.38,292.85,239.38,170.41
326,1778614141.2854578,2.81,-0.02,-0.38,292.85,239.38,170.41
327,1778614141.295336,2.81,-0.02,-0.38,292.85,239.38,170.41
328,1778614141.305356,1.68,0.74,-0.46,37.11,45.29,56.88
329,1778614141.315392,1.68,0.74,-0.46,37.11,45.29,56.88
330,1778614141.325408,1.68,0.74,-0.46,37.11,45.29,56.88
331,1778614141.335422,1.05,0.79,-0.51,-148.32,-24.6,35.58
332,1778614141.3454158,1.05,0.79,-0.51,-148.32,-24.6,35.58
333,1778614141.3554602,1.05,0.79,-0.51,-148.32,-24.6,35.58
334,1778614141.365367,1.05,0.79,-0.51,-148.32,-24.6,35.58
335,1778614141.375393,0.24,0.57,-0.5,-118.96,-109.01,-3.85
336,1778614141.3854358,0.24,0.57,-0.5,-118.96,-109.01,-3.85
337,1778614141.395458,0.24,0.57,-0.5,-118.96,-109.01,-3.85
338,1778614141.405372,0.24,0.57,-0.5,-118.96,-109.01,-3.85
339,1778614141.415424,0.24,0.57,-0.5,-118.96,-109.01,-3.85
340,1778614141.425421,0.24,0.57,-0.5,-118.96,-109.01,-3.85
341,1778614141.435354,0.24,0.57,-0.5,-118.96,-109.01,-3.85
342,1778614141.445376,0.24,0.57,-0.5,-118.96,-109.01,-3.85
343,1778614141.455424,0.24,0.57,-0.5,-118.96,-109.01,-3.85
344,1778614141.465452,-0.08,0.41,-0.21,184.51,41.26,-11.23
345,1778614141.475345,-0.08,0.41,-0.21,184.51,41.26,-11.23
346,1778614141.485398,0.02,0.34,-0.25,253.23,-2.81,75.2
347,1778614141.495414,0.02,0.34,-0.25,253.23,-2.81,75.2
348,1778614141.505433,0.02,0.34,-0.25,253.23,-2.81,75.2
349,1778614141.515454,0.02,0.34,-0.25,253.23,-2.81,75.2
350,1778614141.525346,0.02,0.34,-0.25,253.23,-2.81,75.2
351,1778614141.535378,0.02,0.34,-0.25,253.23,-2.81,75.2
352,1778614141.5454102,0.02,0.34,-0.25,253.23,-2.81,75.2
353,1778614141.5554419,0.02,0.34,-0.25,253.23,-2.81,75.2
354,1778614141.56545,0.02,0.34,-0.25,253.23,-2.81,75.2
355,1778614141.5753531,0.02,0.34,-0.25,253.23,-2.81,75.2
356,1778614141.585384,0.02,0.34,-0.25,253.23,-2.81,75.2
357,1778614141.595405,0.02,0.34,-0.25,253.23,-2.81,75.2
358,1778614141.605439,0.02,0.34,-0.25,253.23,-2.81,75.2
359,1778614141.61535,0.02,0.34,-0.25,253.23,-2.81,75.2
360,1778614141.625458,0.02,0.34,-0.25,253.23,-2.81,75.2
361,1778614141.635371,0.02,0.34,-0.25,253.23,-2.81,75.2
362,1778614141.645448,0.02,0.34,-0.25,253.23,-2.81,75.2
363,1778614141.655398,1.37,0.56,-0.41,-27.04,124.51,-12.45
364,1778614141.665343,1.31,0.36,-0.75,38.94,223.94,-123.29
365,1778614141.6753652,1.31,0.36,-0.75,38.94,223.94,-123.29
366,1778614141.6853929,1.31,0.36,-0.75,38.94,223.94,-123.29
367,1778614141.6954088,1.31,0.36,-0.75,38.94,223.94,-123.29
368,1778614141.705342,1.8,-0.03,-0.93,201.05,124.27,-155.88
369,1778614141.71539,1.8,-0.03,-0.93,201.05,124.27,-155.88
370,1778614141.72543,1.8,-0.03,-0.93,201.05,124.27,-155.88
371,1778614141.735373,1.12,-0.19,-0.27,133.06,4.64,-135.8
372,1778614141.74543,1.12,-0.19,-0.27,133.06,4.64,-135.8
373,1778614141.7553651,1.12,-0.19,-0.27,133.06,4.64,-135.8
374,1778614141.765388,1.12,-0.19,-0.27,133.06,4.64,-135.8
375,1778614141.775429,1.12,-0.21,-0.32,149.84,-90.27,-119.14
376,1778614141.785373,1.12,-0.21,-0.32,149.84,-90.27,-119.14
377,1778614141.795425,1.12,-0.21,-0.32,149.84,-90.27,-119.14
378,1778614141.80538,1.12,-0.21,-0.32,149.84,-90.27,-119.14
379,1778614141.815375,0.87,-0.2,-0.14,167.66,-143.19,-96.98
380,1778614141.825377,0.87,-0.2,-0.14,167.66,-143.19,-96.98
381,1778614141.835419,0.87,-0.2,-0.14,167.66,-143.19,-96.98
382,1778614141.8454232,0.87,-0.2,-0.14,167.66,-143.19,-96.98
383,1778614141.8554618,0.55,0.39,0.19,38.94,-340.52,22.95
384,1778614141.865375,0.55,0.39,0.19,38.94,-340.52,22.95
385,1778614141.875402,0.55,0.39,0.19,38.94,-340.52,22.95
386,1778614141.885447,0.55,0.39,0.19,38.94,-340.52,22.95
387,1778614141.895344,1.27,-0.62,0.73,-1232.54,-135.01,138.49
388,1778614141.905369,1.27,-0.62,0.73,-1232.54,-135.01,138.49
389,1778614141.915414,1.27,-0.62,0.73,-1232.54,-135.01,138.49
390,1778614141.9254332,1.27,-0.62,0.73,-1232.54,-135.01,138.49
391,1778614141.935456,1.27,-0.62,0.73,-1232.54,-135.01,138.49
392,1778614141.9453561,1.27,-0.62,0.73,-1232.54,-135.01,138.49
393,1778614141.95538,1.27,-0.62,0.73,-1232.54,-135.01,138.49
394,1778614141.965425,1.27,-0.62,0.73,-1232.54,-135.01,138.49
395,1778614141.975362,1.27,-0.62,0.73,-1232.54,-135.01,138.49
396,1778614141.98542,1.27,-0.62,0.73,-1232.54,-135.01,138.49
397,1778614141.995378,1.52,-0.57,0.44,538.57,230.29,57.8
398,1778614142.005413,4.11,-0.24,-1.72,411.13,681.95,392.15
399,1778614142.0153449,4.11,-0.24,-1.72,411.13,681.95,392.15
400,1778614142.025406,4.11,-0.24,-1.72,411.13,681.95,392.15
401,1778614142.035398,4.11,-0.24,-1.72,411.13,681.95,392.15
402,1778614142.045351,2.91,0.52,-0.23,155.4,156.13,168.03
403,1778614142.055407,2.91,0.52,-0.23,155.4,156.13,168.03
404,1778614142.065422,2.91,0.52,-0.23,155.4,156.13,168.03
405,1778614142.075458,2.91,0.52,-0.23,155.4,156.13,168.03
406,1778614142.08536,1.74,1.24,-0.56,-573.18,162.17,157.53
407,1778614142.09538,1.74,1.24,-0.56,-573.18,162.17,157.53
408,1778614142.105407,1.74,1.24,-0.56,-573.18,162.17,157.53
409,1778614142.1154299,1.74,1.24,-0.56,-573.18,162.17,157.53
410,1778614142.125449,1.74,1.24,-0.56,-573.18,162.17,157.53
411,1778614142.1353621,1.74,1.24,-0.56,-573.18,162.17,157.53
412,1778614142.145372,1.74,1.24,-0.56,-573.18,162.17,157.53
413,1778614142.1554,1.74,1.24,-0.56,-573.18,162.17,157.53
414,1778614142.16544,1.74,1.24,-0.56,-573.18,162.17,157.53
415,1778614142.1753469,0.3,0.66,0.0,-202.39,-363.71,-139.95
416,1778614142.18536,0.3,0.66,0.0,-202.39,-363.71,-139.95
417,1778614142.195363,0.3,0.39,0.24,-69.52,-394.59,-248.96
418,1778614142.2053928,0.3,0.39,0.24,-69.52,-394.59,-248.96
419,1778614142.215431,0.3,0.39,0.24,-69.52,-394.59,-248.96
420,1778614142.2254562,0.3,0.39,0.24,-69.52,-394.59,-248.96
421,1778614142.235368,0.6,0.05,0.39,31.74,-315.43,-312.26
422,1778614142.245396,0.6,0.05,0.39,31.74,-315.43,-312.26
423,1778614142.255417,0.6,0.05,0.39,31.74,-315.43,-312.26
424,1778614142.26544,0.6,0.05,0.39,31.74,-315.43,-312.26
425,1778614142.2753532,0.71,-0.43,0.24,237.73,-39.37,-57.92
426,1778614142.285372,0.71,-0.43,0.24,237.73,-39.37,-57.92
427,1778614142.2953799,0.71,-0.43,0.24,237.73,-39.37,-57.92
428,1778614142.305401,0.71,-0.43,0.24,237.73,-39.37,-57.92
429,1778614142.315417,0.28,0.42,0.21,-123.78,-63.66,11.17
430,1778614142.3254411,0.28,0.42,0.21,-123.78,-63.66,11.17
431,1778614142.335454,0.28,0.42,0.21,-123.78,-63.66,11.17
432,1778614142.345462,0.28,0.42,0.21,-123.78,-63.66,11.17
433,1778614142.355354,3.65,0.8,0.12,183.35,296.33,250.85
434,1778614142.365408,3.65,0.8,0.12,183.35,296.33,250.85
435,1778614142.375339,3.65,0.8,0.12,183.35,296.33,250.85
436,1778614142.3853672,3.65,0.8,0.12,183.35,296.33,250.85
437,1778614142.39539,1.14,0.4,-0.5,794.31,404.79,-161.07
438,1778614142.405408,1.14,0.4,-0.5,794.31,404.79,-161.07
439,1778614142.415437,1.14,0.4,-0.5,794.31,404.79,-161.07
440,1778614142.4254599,1.14,0.4,-0.5,794.31,404.79,-161.07
441,1778614142.435359,1.14,0.4,-0.5,794.31,404.79,-161.07
442,1778614142.4453819,1.14,0.4,-0.5,794.31,404.79,-161.07
443,1778614142.455411,1.14,0.4,-0.5,794.31,404.79,-161.07
444,1778614142.465444,1.14,0.4,-0.5,794.31,404.79,-161.07
445,1778614142.47535,1.14,0.4,-0.5,794.31,404.79,-161.07
446,1778614142.4853802,1.14,0.4,-0.5,794.31,404.79,-161.07
447,1778614142.4953868,1.14,0.4,-0.5,794.31,404.79,-161.07
448,1778614142.5054321,1.14,0.4,-0.5,794.31,404.79,-161.07
449,1778614142.5153432,1.33,-0.1,-0.32,435.73,-100.22,-177.55
450,1778614142.525358,1.33,-0.1,-0.32,435.73,-100.22,-177.55
451,1778614142.5353742,1.33,-0.1,-0.32,435.73,-100.22,-177.55
452,1778614142.5453959,1.33,-0.1,-0.32,435.73,-100.22,-177.55
453,1778614142.555427,1.16,-0.12,-0.11,262.57,-176.64,-111.63
454,1778614142.5654469,1.16,-0.12,-0.11,262.57,-176.64,-111.63
455,1778614142.5754619,1.16,-0.12,-0.11,262.57,-176.64,-111.63
456,1778614142.5853598,1.17,0.33,0.14,86.3,-208.37,24.72
457,1778614142.5953841,1.17,0.33,0.14,86.3,-208.37,24.72
458,1778614142.6054258,1.17,0.33,0.14,86.3,-208.37,24.72
459,1778614142.615349,1.17,0.33,0.14,86.3,-208.37,24.72
460,1778614142.625383,1.17,0.33,0.14,86.3,-208.37,24.72
461,1778614142.635421,1.17,0.33,0.14,86.3,-208.37,24.72
462,1778614142.6454568,1.17,0.33,0.14,86.3,-208.37,24.72
463,1778614142.65538,1.17,0.33,0.14,86.3,-208.37,24.72
464,1778614142.6654341,1.17,0.33,0.14,86.3,-208.37,24.72
465,1778614142.6754482,1.17,0.33,0.14,86.3,-208.37,24.72
466,1778614142.685364,1.17,0.33,0.14,86.3,-208.37,24.72
467,1778614142.6954072,1.17,0.33,0.14,86.3,-208.37,24.72
468,1778614142.70544,0.17,-0.26,0.59,377.44,94.97,84.11
469,1778614142.71535,0.17,-0.26,0.59,377.44,94.97,84.11
470,1778614142.7253911,0.17,-0.26,0.59,377.44,94.97,84.11
471,1778614142.7354271,0.56,-0.17,-0.07,58.11,191.89,92.22
472,1778614142.7453408,0.56,-0.17,-0.07,58.11,191.89,92.22
473,1778614142.75537,0.56,-0.17,-0.07,58.11,191.89,92.22
474,1778614142.7654002,0.56,-0.17,-0.07,58.11,191.89,92.22
475,1778614142.775451,3.71,-1.07,-0.93,153.99,350.65,97.72
476,1778614142.7853608,3.71,-1.07,-0.93,153.99,350.65,97.72
477,1778614142.795403,3.71,-1.07,-0.93,153.99,350.65,97.72
478,1778614142.805341,3.71,-1.07,-0.93,153.99,350.65,97.72
479,1778614142.815407,2.61,0.92,-0.54,364.38,67.44,135.86
480,1778614142.8254359,2.61,0.92,-0.54,364.38,67.44,135.86
481,1778614142.835364,2.61,0.92,-0.54,364.38,67.44,135.86
482,1778614142.845459,2.61,0.92,-0.54,364.38,67.44,135.86
483,1778614142.8553731,2.14,0.76,-0.46,-126.46,230.35,211.06
484,1778614142.86543,2.14,0.76,-0.46,-126.46,230.35,211.06
485,1778614142.875359,2.14,0.76,-0.46,-126.46,230.35,211.06
486,1778614142.8853812,2.14,0.76,-0.46,-126.46,230.35,211.06
487,1778614142.895403,1.07,1.21,-0.82,-185.97,69.82,61.71
488,1778614142.905432,1.07,1.21,-0.82,-185.97,69.82,61.71
489,1778614142.915335,1.07,1.21,-0.82,-185.97,69.82,61.71
490,1778614142.925366,0.49,0.6,-0.12,-98.88,-125.79,-38.82
491,1778614142.9354072,0.49,0.6,-0.12,-98.88,-125.79,-38.82
492,1778614142.945432,0.49,0.6,-0.12,-98.88,-125.79,-38.82
493,1778614142.955446,0.49,0.6,-0.12,-98.88,-125.79,-38.82
494,1778614142.9653618,0.49,0.6,-0.12,-98.88,-125.79,-38.82
495,1778614142.975405,0.49,0.6,-0.12,-98.88,-125.79,-38.82
496,1778614142.985348,0.49,0.6,-0.12,-98.88,-125.79,-38.82
497,1778614142.9953868,0.49,0.6,-0.12,-98.88,-125.79,-38.82
498,1778614143.005425,0.49,0.6,-0.12,-98.88,-125.79,-38.82
499,1778614143.0153449,0.49,0.6,-0.12,-98.88,-125.79,-38.82
500,1778614143.025388,0.49,0.6,-0.12,-98.88,-125.79,-38.82
501,1778614143.035459,0.88,0.44,0.28,316.22,-331.73,-111.63
502,1778614143.045365,0.43,-0.09,0.66,435.97,-3.85,-129.52
503,1778614143.0554082,0.43,-0.09,0.66,435.97,-3.85,-129.52
504,1778614143.065449,0.43,-0.09,0.66,435.97,-3.85,-129.52
505,1778614143.075369,0.43,-0.09,0.66,435.97,-3.85,-129.52
506,1778614143.085361,0.43,-0.09,0.66,435.97,-3.85,-129.52
507,1778614143.0953522,0.17,0.16,0.04,391.3,82.76,-67.81
508,1778614143.105397,0.17,0.16,0.04,391.3,82.76,-67.81
509,1778614143.115427,0.17,0.16,0.04,391.3,82.76,-67.81
510,1778614143.125421,0.47,0.31,0.18,280.03,12.94,40.1
511,1778614143.135427,0.47,0.31,0.18,280.03,12.94,40.1
512,1778614143.1454499,0.47,0.31,0.18,280.03,12.94,40.1
513,1778614143.155353,0.47,0.31,0.18,280.03,12.94,40.1
514,1778614143.165366,0.47,0.31,0.18,280.03,12.94,40.1
515,1778614143.175404,0.47,0.31,0.18,280.03,12.94,40.1
516,1778614143.185459,0.47,0.31,0.18,280.03,12.94,40.1
517,1778614143.195359,0.47,0.31,0.18,280.03,12.94,40.1
518,1778614143.2054012,0.47,0.31,0.18,280.03,12.94,40.1
519,1778614143.2154298,0.47,0.31,0.18,280.03,12.94,40.1
520,1778614143.2253451,0.47,0.31,0.18,280.03,12.94,40.1
521,1778614143.235358,0.82,0.38,-0.26,206.42,97.53,-82.76
522,1778614143.245385,0.82,0.38,-0.26,206.42,97.53,-82.76
523,1778614143.2554162,0.82,0.38,-0.26,144.35,69.15,-118.29
524,1778614143.265444,0.82,0.38,-0.26,144.35,69.15,-118.29
525,1778614143.2753391,2.44,0.44,-0.68,144.35,69.15,-118.29
526,1778614143.285363,2.44,0.44,-0.68,57.86,115.54,-138.43
527,1778614143.295388,2.44,0.44,-0.68,57.86,115.54,-138.43
528,1778614143.305417,2.44,0.44,-0.68,57.86,115.54,-138.43
529,1778614143.3154628,1.04,0.08,-0.4,-64.39,9.64,-58.96
530,1778614143.325363,1.04,0.08,-0.4,-64.39,9.64,-58.96
531,1778614143.335389,1.04,0.08,-0.4,-64.39,9.64,-58.96
532,1778614143.3454,1.04,0.08,-0.4,-64.39,9.64,-58.96
533,1778614143.3554292,1.04,0.08,-0.4,-64.39,9.64,-58.96
534,1778614143.365442,1.04,0.08,-0.4,-64.39,9.64,-58.96
535,1778614143.3754601,1.04,0.08,-0.4,-64.39,9.64,-58.96
536,1778614143.3853471,1.04,0.08,-0.4,-64.39,9.64,-58.96
537,1778614143.3953438,1.04,0.08,-0.4,-64.39,9.64,-58.96
538,1778614143.405369,1.04,0.08,-0.4,-64.39,9.64,-58.96
539,1778614143.415391,1.04,0.08,-0.4,-64.39,9.64,-58.96
540,1778614143.425408,1.04,0.08,-0.4,-64.39,9.64,-58.96
541,1778614143.435434,0.75,-0.13,-0.24,-1.89,-20.94,-75.56
542,1778614143.445461,0.75,-0.13,-0.24,-1.89,-20.94,-75.56
543,1778614143.455342,0.75,-0.13,-0.24,-1.89,-20.94,-75.56
544,1778614143.4653802,0.75,-0.13,-0.24,-1.89,-20.94,-75.56
545,1778614143.4754,0.75,-0.13,-0.24,-1.89,-20.94,-75.56
546,1778614143.485454,0.75,-0.13,-0.24,-1.89,-20.94,-75.56
547,1778614143.49545,0.75,-0.13,-0.24,-1.89,-20.94,-75.56
548,1778614143.5053499,0.75,-0.13,-0.24,-1.89,-20.94,-75.56
549,1778614143.515381,0.75,-0.13,-0.24,-1.89,-20.94,-75.56
550,1778614143.525397,0.75,-0.13,-0.24,-1.89,-20.94,-75.56
551,1778614143.535409,0.75,-0.13,-0.24,-1.89,-20.94,-75.56
552,1778614143.545429,0.75,-0.13,-0.24,-1.89,-20.94,-75.56
553,1778614143.555425,0.75,-0.13,-0.24,-1.89,-20.94,-75.56
554,1778614143.565438,0.26,-0.76,-0.5,420.1,25.94,167.85
555,1778614143.5753942,1.31,-0.19,-0.06,268.74,151.61,51.39
556,1778614143.585438,1.31,-0.19,-0.06,268.74,151.61,51.39
557,1778614143.5954628,1.31,-0.19,-0.06,268.74,151.61,51.39
558,1778614143.605366,4.13,-0.36,-0.89,186.1,259.77,142.09
559,1778614143.615437,4.13,-0.36,-0.89,186.1,259.77,142.09
560,1778614143.625366,4.13,-0.36,-0.89,186.1,259.77,142.09
561,1778614143.635438,4.13,-0.36,-0.89,186.1,259.77,142.09
562,1778614143.6453629,2.45,0.48,-0.37,186.1,259.77,142.09
563,1778614143.655434,2.45,0.48,-0.37,186.1,259.77,142.09
564,1778614143.6653829,2.45,0.48,-0.37,27.95,109.07,138.73
565,1778614143.675415,2.45,0.48,-0.37,27.95,109.07,138.73
566,1778614143.685451,2.45,0.48,-0.37,27.95,109.07,138.73
567,1778614143.695349,2.45,0.48,-0.37,27.95,109.07,138.73
568,1778614143.7054038,2.45,0.48,-0.37,27.95,109.07,138.73
569,1778614143.7153559,2.45,0.48,-0.37,27.95,109.07,138.73
570,1778614143.725465,2.45,0.48,-0.37,27.95,109.07,138.73
571,1778614143.735414,2.45,0.48,-0.37,27.95,109.07,138.73
572,1778614143.745365,2.45,0.48,-0.37,27.95,109.07,138.73
573,1778614143.755414,0.69,1.0,-0.59,-37.66,30.7,28.69
574,1778614143.765347,0.69,1.0,-0.59,-37.66,30.7,28.69
575,1778614143.775399,0.69,1.0,-0.59,-37.66,30.7,28.69
576,1778614143.7854662,0.69,1.0,-0.59,-37.66,30.7,28.69
577,1778614143.7953868,0.69,1.0,-0.59,-37.66,30.7,28.69
578,1778614143.805443,0.14,0.42,0.01,-16.78,-226.26,-53.28
579,1778614143.815447,0.14,0.42,0.01,-16.78,-226.26,-53.28
580,1778614143.825357,0.14,0.42,0.01,-16.78,-226.26,-53.28
581,1778614143.835389,0.19,0.4,0.12,-16.78,-226.26,-53.28
582,1778614143.845428,0.19,0.4,0.12,-16.78,-226.26,-53.28
583,1778614143.855454,0.19,0.4,0.12,-41.02,-260.62,-76.35
584,1778614143.865366,0.19,0.4,0.12,-41.02,-260.62,-76.35
585,1778614143.875413,0.16,0.01,0.3,669.25,269.65,7.81
586,1778614143.8854349,0.16,0.01,0.3,669.25,269.65,7.81
587,1778614143.895335,-0.06,0.49,0.02,669.25,269.65,7.81
588,1778614143.9053729,-0.06,0.49,0.02,442.99,129.52,-100.59
589,1778614143.9153779,-0.06,0.49,0.02,442.99,129.52,-100.59
590,1778614143.92539,-0.06,0.49,0.02,442.99,129.52,-100.59
591,1778614143.935402,-0.06,0.49,0.02,442.99,129.52,-100.59
592,1778614143.945426,-0.06,0.49,0.02,442.99,129.52,-100.59
593,1778614143.955338,-0.06,0.49,0.02,442.99,129.52,-100.59
594,1778614143.965364,-0.06,0.49,0.02,442.99,129.52,-100.59
595,1778614143.9753978,-0.06,0.49,0.02,442.99,129.52,-100.59
596,1778614143.98544,-0.06,0.49,0.02,442.99,129.52,-100.59
597,1778614143.99545,4.86,1.62,-0.79,163.21,-216.37,-25.27
598,1778614144.005356,4.86,1.62,-0.79,163.21,-216.37,-25.27
599,1778614144.0154061,4.86,1.62,-0.79,163.21,-216.37,-25.27
600,1778614144.025416,4.86,1.62,-0.79,163.21,-216.37,-25.27
601,1778614144.035404,4.86,1.62,-0.79,163.21,-216.37,-25.27
602,1778614144.045413,4.86,1.62,-0.79,163.21,-216.37,-25.27
603,1778614144.055451,4.86,1.62,-0.79,163.21,-216.37,-25.27
604,1778614144.065459,4.86,1.62,-0.79,163.21,-216.37,-25.27
605,1778614144.0753422,4.86,1.62,-0.79,163.21,-216.37,-25.27
606,1778614144.0853949,2.36,0.61,-0.66,-116.7,86.12,-127.26
607,1778614144.095395,2.36,0.61,-0.66,-116.7,86.12,-127.26
608,1778614144.105394,1.66,0.18,-0.46,-35.71,26.61,-64.7
609,1778614144.115433,1.66,0.18,-0.46,-35.71,26.61,-64.7
610,1778614144.12536,1.66,0.18,-0.46,-35.71,26.61,-64.7
611,1778614144.135347,0.59,0.04,-0.29,-35.71,26.61,-64.7
612,1778614144.145368,0.59,0.04,-0.29,-39.0,9.52,-60.0
613,1778614144.1554492,0.59,0.04,-0.29,-39.0,9.52,-60.0
614,1778614144.165343,0.59,0.04,-0.29,-39.0,9.52,-60.0
615,1778614144.175369,0.66,0.03,-0.2,-39.0,9.52,-60.0
616,1778614144.18539,0.66,0.03,-0.2,-5.68,-40.71,-81.91
617,1778614144.1954,0.66,0.03,-0.2,-5.68,-40.71,-81.91
618,1778614144.2054322,0.66,0.03,-0.2,-5.68,-40.71,-81.91
619,1778614144.215446,0.66,0.03,-0.2,-5.68,-40.71,-81.91
620,1778614144.225439,0.66,0.03,-0.2,-5.68,-40.71,-81.91
621,1778614144.2353761,0.66,0.03,-0.2,-5.68,-40.71,-81.91
622,1778614144.24535,0.66,0.03,-0.2,-5.68,-40.71,-81.91
623,1778614144.255373,0.66,0.03,-0.2,-5.68,-40.71,-81.91
624,1778614144.265426,0.66,0.03,-0.2,-5.68,-40.71,-81.91
625,1778614144.275336,0.66,0.03,-0.2,-5.68,-40.71,-81.91
626,1778614144.2853582,0.62,-0.01,-0.14,2.5,-91.55,-105.1
627,1778614144.295371,0.59,-0.3,2.29,-597.53,-217.96,-41.32
628,1778614144.305415,0.59,-0.3,2.29,-597.53,-217.96,-41.32
629,1778614144.3154612,0.59,-0.3,2.29,-597.53,-217.96,-41.32
630,1778614144.325353,0.59,-0.3,2.29,-597.53,-217.96,-41.32
631,1778614144.335401,0.72,-1.09,0.13,-356.26,-259.95,15.75
632,1778614144.345412,0.72,-1.09,0.13,-356.26,-259.95,15.75
633,1778614144.355438,0.72,-1.09,0.13,-356.26,-259.95,15.75
634,1778614144.365443,0.72,-1.09,0.13,-356.26,-259.95,15.75
635,1778614144.3754072,2.2,-0.54,-0.93,407.71,410.46,193.24
636,1778614144.385447,2.2,-0.54,-0.93,407.71,410.46,193.24
637,1778614144.3954618,2.2,-0.54,-0.93,407.71,410.46,193.24
638,1778614144.405358,2.2,-0.54,-0.93,407.71,410.46,193.24
639,1778614144.415412,1.89,0.15,-0.16,429.87,-16.11,265.69
640,1778614144.4254432,1.89,0.15,-0.16,429.87,-16.11,265.69
641,1778614144.43546,1.89,0.15,-0.16,429.87,-16.11,265.69
642,1778614144.445368,1.89,0.15,-0.16,429.87,-16.11,265.69
643,1778614144.455411,3.75,0.7,-1.25,211.06,268.98,276.0
644,1778614144.465447,3.75,0.7,-1.25,211.06,268.98,276.0
645,1778614144.475459,3.75,0.7,-1.25,211.06,268.98,276.0
646,1778614144.485363,3.75,0.7,-1.25,211.06,268.98,276.0
647,1778614144.495371,1.61,1.01,-0.69,-175.66,-115.11,119.2
648,1778614144.505408,1.61,1.01,-0.69,-175.66,-115.11,119.2
649,1778614144.51545,1.61,1.01,-0.69,-175.66,-115.11,119.2
650,1778614144.525345,1.61,1.01,-0.69,-175.66,-115.11,119.2
651,1778614144.5353642,1.61,1.01,-0.69,-175.66,-115.11,119.2
652,1778614144.5453608,1.61,1.01,-0.69,-175.66,-115.11,119.2
653,1778614144.555392,1.61,1.01,-0.69,-175.66,-115.11,119.2
654,1778614144.5654101,1.61,1.01,-0.69,-175.66,-115.11,119.2
655,1778614144.575443,1.61,1.01,-0.69,-175.66,-115.11,119.2
656,1778614144.585349,1.61,1.01,-0.69,-175.66,-115.11,119.2
657,1778614144.595339,1.61,1.01,-0.69,-175.66,-115.11,119.2
658,1778614144.605346,1.61,1.01,-0.69,-175.66,-115.11,119.2
659,1778614144.615403,0.15,0.6,0.59,36.38,-236.51,-184.69
660,1778614144.625427,0.15,0.6,0.59,36.38,-236.51,-184.69
661,1778614144.635421,0.15,0.6,0.59,36.38,-236.51,-184.69
662,1778614144.645416,-0.02,0.2,0.47,621.4,425.42,-266.78
663,1778614144.6554172,-0.02,0.2,0.47,621.4,425.42,-266.78
664,1778614144.6654122,-0.02,0.2,0.47,621.4,425.42,-266.78
665,1778614144.675406,-0.07,0.28,-0.15,621.4,425.42,-266.78
666,1778614144.685407,-0.07,0.28,-0.15,293.58,277.04,-188.23
667,1778614144.6954,-0.07,0.28,-0.15,293.58,277.04,-188.23
668,1778614144.70539,-0.07,0.28,-0.15,293.58,277.04,-188.23
669,1778614144.715384,-0.07,0.28,-0.15,293.58,277.04,-188.23
670,1778614144.725375,-0.07,0.28,-0.15,293.58,277.04,-188.23
671,1778614144.7353652,-0.07,0.28,-0.15,293.58,277.04,-188.23
672,1778614144.745368,-0.07,0.28,-0.15,293.58,277.04,-188.23
673,1778614144.755357,-0.07,0.28,-0.15,293.58,277.04,-188.23
674,1778614144.7653491,-0.07,0.28,-0.15,293.58,277.04,-188.23
675,1778614144.7753441,-0.07,0.28,-0.15,293.58,277.04,-188.23
676,1778614144.785336,-0.07,0.28,-0.15,293.58,277.04,-188.23
677,1778614144.7953448,1.03,0.84,-0.9,-210.39,116.15,27.34
678,1778614144.805335,1.03,0.84,-0.9,-210.39,116.15,27.34
679,1778614144.815454,1.03,0.84,-0.9,-210.39,116.15,27.34
680,1778614144.8254552,1.03,0.84,-0.9,-210.39,116.15,27.34
681,1778614144.835444,0.99,0.41,-0.12,-67.69,145.69,-88.68
682,1778614144.845443,0.99,0.41,-0.12,-67.69,145.69,-88.68
683,1778614144.855436,0.99,0.41,-0.12,-67.69,145.69,-88.68
684,1778614144.8654342,0.99,0.41,-0.12,-67.69,145.69,-88.68
685,1778614144.8754401,1.9,0.19,-0.87,206.12,384.58,-79.41
686,1778614144.8854551,1.9,0.19,-0.87,206.12,384.58,-79.41
687,1778614144.8953679,1.9,0.19,-0.87,206.12,384.58,-79.41
688,1778614144.905403,1.9,0.19,-0.87,206.12,384.58,-79.41
689,1778614144.915461,1.04,0.12,-0.33,222.53,24.6,-124.63
690,1778614144.925368,1.04,0.12,-0.33,222.53,24.6,-124.63
691,1778614144.935392,1.04,0.12,-0.33,222.53,24.6,-124.63
692,1778614144.945444,1.04,0.12,-0.33,222.53,24.6,-124.63
693,1778614144.955337,1.04,0.12,-0.33,222.53,24.6,-124.63
694,1778614144.965357,0.81,0.01,0.01,192.63,-59.02,-129.58
695,1778614144.975408,0.81,0.01,0.01,192.63,-59.02,-129.58
696,1778614144.985462,0.81,0.01,0.01,192.63,-59.02,-129.58
697,1778614144.995348,0.96,-0.05,-0.13,177.12,-111.45,-114.32
698,1778614145.0054002,0.96,-0.05,-0.13,177.12,-111.45,-114.32
699,1778614145.015439,0.96,-0.05,-0.13,177.12,-111.45,-114.32
700,1778614145.025347,1.83,-0.72,0.62,-813.9,-771.0,-27.53
701,1778614145.035431,1.83,-0.72,0.62,-813.9,-771.0,-27.53
702,1778614145.045464,1.83,-0.72,0.62,-813.9,-771.0,-27.53
703,1778614145.055394,1.83,-0.72,0.62,-813.9,-771.0,-27.53
704,1778614145.0654452,1.83,-0.72,0.62,-813.9,-771.0,-27.53
705,1778614145.075459,1.83,-0.72,0.62,-813.9,-771.0,-27.53
706,1778614145.0853918,1.83,-0.72,0.62,-813.9,-771.0,-27.53
707,1778614145.095413,1.83,-0.72,0.62,-813.9,-771.0,-27.53
708,1778614145.105454,1.83,-0.72,0.62,-813.9,-771.0,-27.53
709,1778614145.115364,1.83,-0.72,0.62,-813.9,-771.0,-27.53
710,1778614145.1253881,1.83,-0.72,0.62,-813.9,-771.0,-27.53
711,1778614145.135426,0.79,-1.62,0.93,240.97,163.76,59.33
712,1778614145.145341,4.12,-0.48,-1.06,443.12,1013.37,400.76
713,1778614145.155395,4.12,-0.48,-1.06,443.12,1013.37,400.76
714,1778614145.16544,4.12,-0.48,-1.06,443.12,1013.37,400.76
715,1778614145.1754398,4.12,-0.48,-1.06,443.12,1013.37,400.76
716,1778614145.1854432,3.11,0.93,-0.63,284.61,249.57,364.99
717,1778614145.1953988,3.11,0.93,-0.63,284.61,249.57,364.99
718,1778614145.205441,3.11,0.93,-0.63,284.61,249.57,364.99
719,1778614145.2154582,3.11,0.93,-0.63,284.61,249.57,364.99
720,1778614145.225402,2.55,1.6,-0.8,-417.72,-5.31,84.05
721,1778614145.235415,2.55,1.6,-0.8,-417.72,-5.31,84.05
722,1778614145.245428,2.55,1.6,-0.8,-417.72,-5.31,84.05
723,1778614145.255339,2.55,1.6,-0.8,-417.72,-5.31,84.05
724,1778614145.265368,2.55,1.6,-0.8,-417.72,-5.31,84.05
725,1778614145.2753751,2.55,1.6,-0.8,-417.72,-5.31,84.05
726,1778614145.2853918,2.55,1.6,-0.8,-417.72,-5.31,84.05
727,1778614145.295397,2.55,1.6,-0.8,-417.72,-5.31,84.05
728,1778614145.305419,2.55,1.6,-0.8,-417.72,-5.31,84.05
729,1778614145.315454,2.55,1.6,-0.8,-417.72,-5.31,84.05
730,1778614145.325357,0.12,0.96,-0.48,-47.18,-250.18,-111.21
731,1778614145.335389,0.68,1.19,0.73,165.71,-733.95,-209.78
732,1778614145.345391,0.68,1.19,0.73,165.71,-733.95,-209.78
733,1778614145.355401,0.68,1.19,0.73,165.71,-733.95,-209.78
734,1778614145.3654451,0.68,1.19,0.73,165.71,-733.95,-209.78
735,1778614145.375339,1.08,0.07,1.26,-268.68,-376.53,-204.1
736,1778614145.385383,1.08,0.07,1.26,-268.68,-376.53,-204.1
737,1778614145.395402,1.08,0.07,1.26,-268.68,-376.53,-204.1
738,1778614145.405408,1.08,0.07,1.26,-268.68,-376.53,-204.1
739,1778614145.4154382,0.62,-0.16,0.1,531.92,245.48,22.34
740,1778614145.4254458,0.62,-0.16,0.1,531.92,245.48,22.34
741,1778614145.435458,0.62,-0.16,0.1,531.92,245.48,22.34
742,1778614145.445343,0.62,-0.16,0.1,531.92,245.48,22.34
743,1778614145.45538,0.79,-0.37,0.01,5.49,-106.51,-46.26
744,1778614145.4654222,0.79,-0.37,0.01,5.49,-106.51,-46.26
745,1778614145.475443,0.79,-0.37,0.01,5.49,-106.51,-46.26
746,1778614145.4853508,0.73,1.08,0.56,-254.46,-65.19,-19.41
747,1778614145.49539,0.73,1.08,0.56,-254.46,-65.19,-19.41
748,1778614145.5054028,0.73,1.08,0.56,-254.46,-65.19,-19.41
749,1778614145.515414,0.73,1.08,0.56,-254.46,-65.19,-19.41
750,1778614145.5254312,2.09,1.69,-0.92,119.63,426.82,245.3
751,1778614145.535341,2.09,1.69,-0.92,119.63,426.82,245.3
752,1778614145.545353,2.09,1.69,-0.92,119.63,426.82,245.3
753,1778614145.555391,2.09,1.69,-0.92,119.63,426.82,245.3
754,1778614145.5654058,0.4,0.57,-0.29,119.63,426.82,245.3
755,1778614145.5754318,0.4,0.57,-0.29,119.63,426.82,245.3
756,1778614145.585336,0.4,0.57,-0.29,119.63,426.82,245.3
757,1778614145.595346,0.4,0.57,-0.29,119.63,426.82,245.3
758,1778614145.6053739,0.4,0.57,-0.29,119.63,426.82,245.3
759,1778614145.615433,0.4,0.57,-0.29,119.63,426.82,245.3
760,1778614145.6254542,0.4,0.57,-0.29,119.63,426.82,245.3
761,1778614145.6354601,0.4,0.57,-0.29,119.63,426.82,245.3
762,1778614145.645347,0.4,0.57,-0.29,119.63,426.82,245.3
763,1778614145.655425,1.62,0.14,-0.52,474.24,214.54,-195.68
764,1778614145.6654348,1.62,0.14,-0.52,474.24,214.54,-195.68
765,1778614145.675339,0.96,0.03,-0.15,474.24,214.54,-195.68
766,1778614145.685384,0.96,0.03,-0.15,507.75,17.21,-168.09
767,1778614145.69541,0.96,0.03,-0.15,507.75,17.21,-168.09
768,1778614145.705436,0.96,0.03,-0.15,507.75,17.21,-168.09
769,1778614145.715352,2.3,-0.54,4.76,506.04,-158.87,-207.82
770,1778614145.7253802,2.3,-0.54,4.76,506.04,-158.87,-207.82
771,1778614145.735415,2.3,-0.54,4.76,506.04,-158.87,-207.82
772,1778614145.745437,2.3,-0.54,4.76,506.04,-158.87,-207.82
773,1778614145.755351,2.3,-0.54,4.76,506.04,-158.87,-207.82
774,1778614145.7653928,0.89,-0.29,-0.09,6.65,124.57,12.45
775,1778614145.7754161,0.89,-0.29,-0.09,6.65,124.57,12.45
776,1778614145.785345,0.89,-0.29,-0.09,6.65,124.57,12.45
777,1778614145.7953851,0.89,-0.29,-0.09,6.65,124.57,12.45
778,1778614145.805449,0.89,-0.29,-0.09,6.65,124.57,12.45
779,1778614145.8154528,0.89,-0.29,-0.09,6.65,124.57,12.45
780,1778614145.8253398,0.89,-0.29,-0.09,6.65,124.57,12.45
781,1778614145.835389,0.89,-0.29,-0.09,6.65,124.57,12.45
782,1778614145.845402,0.25,-0.02,-0.11,117.31,148.01,62.62
783,1778614145.8554418,0.25,-0.02,-0.11,117.31,148.01,62.62
784,1778614145.865343,0.25,-0.02,-0.11,117.31,148.01,62.62
785,1778614145.875374,0.41,-0.03,-0.03,49.74,135.31,41.56
786,1778614145.885422,0.41,-0.03,-0.03,49.74,135.31,41.56
787,1778614145.895406,0.41,-0.03,-0.03,49.74,135.31,41.56
788,1778614145.905443,0.41,-0.03,-0.03,49.74,135.31,41.56
789,1778614145.915359,3.2,-0.55,-0.78,167.85,285.1,166.56
790,1778614145.9253702,3.2,-0.55,-0.78,167.85,285.1,166.56
791,1778614145.935414,3.2,-0.55,-0.78,167.85,285.1,166.56
792,1778614145.9454248,3.2,-0.55,-0.78,167.85,285.1,166.56
793,1778614145.955342,1.52,0.15,-0.31,444.21,75.87,71.23
794,1778614145.965365,1.52,0.15,-0.31,444.21,75.87,71.23
795,1778614145.9754,1.52,0.15,-0.31,444.21,75.87,71.23
796,1778614145.985451,1.52,0.15,-0.31,444.21,75.87,71.23
797,1778614145.995344,2.36,0.63,-0.88,166.56,243.16,95.34
798,1778614146.005387,2.36,0.63,-0.88,166.56,243.16,95.34
799,1778614146.015399,2.36,0.63,-0.88,166.56,243.16,95.34
800,1778614146.025408,2.36,0.63,-0.88,166.56,243.16,95.34
801,1778614146.03546,0.98,0.53,-0.24,-292.97,76.29,149.17
802,1778614146.045389,0.98,0.53,-0.24,-292.97,76.29,149.17
803,1778614146.0554209,0.98,0.53,-0.24,-292.97,76.29,149.17
804,1778614146.0654569,0.69,0.82,-0.36,-244.93,-82.82,91.43
805,1778614146.0753741,0.69,0.82,-0.36,-244.93,-82.82,91.43
806,1778614146.085431,0.69,0.82,-0.36,-244.93,-82.82,91.43
807,1778614146.095344,0.69,0.82,-0.36,-244.93,-82.82,91.43
808,1778614146.105389,0.69,0.82,-0.36,-244.93,-82.82,91.43
809,1778614146.115333,0.69,0.82,-0.36,-244.93,-82.82,91.43
810,1778614146.125385,0.69,0.82,-0.36,-244.93,-82.82,91.43
811,1778614146.1354408,0.69,0.82,-0.36,-244.93,-82.82,91.43
812,1778614146.145341,0.69,0.82,-0.36,-244.93,-82.82,91.43
813,1778614146.1553972,0.69,0.82,-0.36,-244.93,-82.82,91.43
814,1778614146.165445,0.69,0.82,-0.36,-244.93,-82.82,91.43
815,1778614146.1753569,0.69,0.82,-0.36,-244.93,-82.82,91.43
816,1778614146.1854222,0.16,0.4,0.13,210.33,-30.58,-22.09
817,1778614146.195392,0.16,0.4,0.13,210.33,-30.58,-22.09
818,1778614146.2053351,0.16,0.4,0.13,210.33,-30.58,-22.09
819,1778614146.2153442,0.16,0.4,0.13,210.33,-30.58,-22.09
820,1778614146.225407,0.29,0.33,0.02,154.3,-49.87,26.25
821,1778614146.2353349,0.29,0.33,0.02,154.3,-49.87,26.25
822,1778614146.245455,0.29,0.33,0.02,154.3,-49.87,26.25
823,1778614146.255337,0.27,0.33,0.03,66.04,-125.24,31.98
824,1778614146.265377,0.27,0.33,0.03,66.04,-125.24,31.98
825,1778614146.275382,0.27,0.33,0.03,66.04,-125.24,31.98
826,1778614146.285405,0.27,0.33,0.03,66.04,-125.24,31.98
827,1778614146.295407,0.27,0.33,0.03,66.04,-125.24,31.98
828,1778614146.305454,0.27,0.33,0.03,66.04,-125.24,31.98
829,1778614146.315368,0.27,0.33,0.03,66.04,-125.24,31.98
830,1778614146.325383,0.27,0.33,0.03,66.04,-125.24,31.98
831,1778614146.335402,0.27,0.33,0.03,66.04,-125.24,31.98
832,1778614146.34541,0.27,0.33,0.03,66.04,-125.24,31.98
833,1778614146.355435,0.27,0.33,0.03,66.04,-125.24,31.98
834,1778614146.365458,0.27,0.33,0.03,66.04,-125.24,31.98
835,1778614146.375347,0.97,0.37,-0.27,150.09,36.25,-43.15
836,1778614146.385375,0.97,0.37,-0.27,150.09,36.25,-43.15
837,1778614146.395391,0.97,0.37,-0.27,150.09,36.25,-43.15
838,1778614146.405407,2.19,0.6,-0.51,150.09,36.25,-43.15
839,1778614146.4154382,2.19,0.6,-0.51,58.23,-11.54,-111.76
840,1778614146.425338,2.19,0.6,-0.51,58.23,-11.54,-111.76
841,1778614146.4353652,2.19,0.6,-0.51,58.23,-11.54,-111.76
842,1778614146.445408,1.06,0.19,-0.31,-66.71,48.89,-61.1
843,1778614146.455455,1.06,0.19,-0.31,-66.71,48.89,-61.1
844,1778614146.465348,1.06,0.19,-0.31,-66.71,48.89,-61.1
845,1778614146.4753878,1.06,0.19,-0.31,-66.71,48.89,-61.1
846,1778614146.485439,0.93,0.02,-0.38,44.37,55.85,-75.2
847,1778614146.495456,0.93,0.02,-0.38,44.37,55.85,-75.2
848,1778614146.5054562,0.93,0.02,-0.38,44.37,55.85,-75.2
849,1778614146.515352,0.93,0.02,-0.38,44.37,55.85,-75.2
850,1778614146.5253959,0.75,0.01,-0.15,162.54,-27.65,-96.13
851,1778614146.535429,0.75,0.01,-0.15,162.54,-27.65,-96.13
852,1778614146.5454369,0.75,0.01,-0.15,162.54,-27.65,-96.13
853,1778614146.55535,0.75,0.01,-0.15,162.54,-27.65,-96.13
854,1778614146.565372,0.59,0.01,-0.1,117.07,-68.73,-78.37
855,1778614146.575393,0.59,0.01,-0.1,117.07,-68.73,-78.37
856,1778614146.585424,0.59,0.01,-0.1,117.07,-68.73,-78.37
857,1778614146.5953379,1.0,-0.5,3.62,-481.99,-179.75,-30.46
858,1778614146.6053572,1.0,-0.5,3.62,-481.99,-179.75,-30.46
859,1778614146.6154518,1.0,-0.5,3.62,-481.99,-179.75,-30.46
860,1778614146.6253939,1.0,-0.5,3.62,-481.99,-179.75,-30.46
861,1778614146.6353421,1.0,-0.5,3.62,-481.99,-179.75,-30.46
862,1778614146.645378,1.0,-0.5,3.62,-481.99,-179.75,-30.46
863,1778614146.655412,1.0,-0.5,3.62,-481.99,-179.75,-30.46
864,1778614146.6654441,1.0,-0.5,3.62,-481.99,-179.75,-30.46
865,1778614146.6753669,1.0,-0.5,3.62,-481.99,-179.75,-30.46
866,1778614146.685409,1.0,-0.5,3.62,-481.99,-179.75,-30.46
867,1778614146.695436,1.0,-0.5,3.62,-481.99,-179.75,-30.46
868,1778614146.705369,1.61,0.21,-0.79,153.08,193.66,94.6
869,1778614146.715433,2.22,0.19,-0.37,400.45,60.97,155.03
870,1778614146.725367,2.22,0.19,-0.37,400.45,60.97,155.03
871,1778614146.735431,2.22,0.19,-0.37,400.45,60.97,155.03
872,1778614146.74535,2.22,0.19,-0.37,400.45,60.97,155.03
873,1778614146.755407,2.67,0.52,-0.19,289.25,139.89,191.77
874,1778614146.765456,2.67,0.52,-0.19,289.25,139.89,191.77
875,1778614146.775357,2.67,0.52,-0.19,289.25,139.89,191.77
876,1778614146.785409,1.65,0.86,-0.38,289.25,139.89,191.77
877,1778614146.795449,1.65,0.86,-0.38,128.85,138.49,114.14
878,1778614146.8053901,1.65,0.86,-0.38,128.85,138.49,114.14
879,1778614146.815446,1.65,0.86,-0.38,128.85,138.49,114.14
880,1778614146.8253891,1.65,0.86,-0.38,128.85,138.49,114.14
881,1778614146.835453,1.65,0.86,-0.38,128.85,138.49,114.14
882,1778614146.8453948,1.65,0.86,-0.38,128.85,138.49,114.14
883,1778614146.855454,1.65,0.86,-0.38,128.85,138.49,114.14
884,1778614146.8653471,1.65,0.86,-0.38,128.85,138.49,114.14
885,1778614146.875388,1.65,0.86,-0.38,128.85,138.49,114.14
886,1778614146.885416,1.65,0.86,-0.38,128.85,138.49,114.14
887,1778614146.8954592,1.65,0.86,-0.38,128.85,138.49,114.14
888,1778614146.905358,0.01,0.56,-0.2,262.21,47.49,-36.99
889,1778614146.915411,0.01,0.56,-0.2,262.21,47.49,-36.99
890,1778614146.925343,0.01,0.56,-0.2,262.21,47.49,-36.99
891,1778614146.9354088,0.01,0.56,-0.2,262.21,47.49,-36.99
892,1778614146.9454021,-0.23,0.39,-0.17,103.33,11.05,-34.73
893,1778614146.9554272,-0.23,0.39,-0.17,103.33,11.05,-34.73
894,1778614146.9654531,-0.23,0.39,-0.17,103.33,11.05,-34.73
895,1778614146.975358,-0.23,0.39,-0.17,103.33,11.05,-34.73
896,1778614146.985405,-0.24,0.18,-0.12,98.75,-47.79,-46.33
897,1778614146.99543,-0.24,0.18,-0.12,98.75,-47.79,-46.33
898,1778614147.005454,-0.24,0.18,-0.12,98.75,-47.79,-46.33
899,1778614147.015349,-0.24,0.18,-0.12,98.75,-47.79,-46.33
900,1778614147.025385,-0.04,0.04,-0.18,48.16,-205.93,-62.74
901,1778614147.035421,-0.04,0.04,-0.18,48.16,-205.93,-62.74
902,1778614147.045418,-0.04,0.04,-0.18,48.16,-205.93,-62.74
903,1778614147.0553331,-0.04,0.04,-0.18,48.16,-205.93,-62.74
904,1778614147.065374,2.18,1.27,0.05,-153.81,-144.84,148.62
905,1778614147.075398,2.18,1.27,0.05,-153.81,-144.84,148.62
906,1778614147.085422,2.18,1.27,0.05,-153.81,-144.84,148.62
907,1778614147.095359,1.36,0.85,-0.82,-56.21,208.8,-63.23
908,1778614147.105398,1.36,0.85,-0.82,-56.21,208.8,-63.23
909,1778614147.115411,1.36,0.85,-0.82,-56.21,208.8,-63.23
910,1778614147.1254232,1.36,0.85,-0.82,-56.21,208.8,-63.23
911,1778614147.135376,0.72,0.41,-0.26,-81.12,-35.71,-48.89
912,1778614147.1454191,0.72,0.41,-0.26,-81.12,-35.71,-48.89
913,1778614147.155369,0.72,0.41,-0.26,-81.12,-35.71,-48.89
914,1778614147.1654341,0.72,0.41,-0.26,-81.12,-35.71,-48.89
915,1778614147.175337,0.72,0.41,-0.26,-81.12,-35.71,-48.89
916,1778614147.1854122,0.72,0.41,-0.26,-81.12,-35.71,-48.89
917,1778614147.195366,0.72,0.41,-0.26,-81.12,-35.71,-48.89
918,1778614147.2053812,0.72,0.41,-0.26,-81.12,-35.71,-48.89
919,1778614147.215424,0.72,0.41,-0.26,-81.12,-35.71,-48.89
920,1778614147.225452,0.72,0.41,-0.26,-81.12,-35.71,-48.89
921,1778614147.2353542,1.12,0.29,-0.5,9.22,85.33,-62.5
922,1778614147.2453902,1.12,0.29,-0.5,9.22,85.33,-62.5
923,1778614147.255432,0.82,0.12,-0.2,69.82,18.92,-79.47
924,1778614147.265346,0.82,0.12,-0.2,69.82,18.92,-79.47
925,1778614147.275348,0.82,0.12,-0.2,69.82,18.92,-79.47
926,1778614147.2854211,0.82,0.12,-0.2,69.82,18.92,-79.47
927,1778614147.295444,0.8,0.21,-0.22,152.1,-45.84,-103.76
928,1778614147.3054101,0.8,0.21,-0.22,152.1,-45.84,-103.76
929,1778614147.3153322,0.8,0.21,-0.22,152.1,-45.84,-103.76
930,1778614147.325387,0.8,0.21,-0.22,152.1,-45.84,-103.76
931,1778614147.335397,0.87,0.22,-0.07,148.01,-87.89,-109.44
932,1778614147.345397,0.87,0.22,-0.07,148.01,-87.89,-109.44
933,1778614147.355455,0.87,0.22,-0.07,148.01,-87.89,-109.44
934,1778614147.36538,0.87,0.22,-0.07,148.01,-87.89,-109.44
935,1778614147.375432,0.87,0.22,-0.07,148.01,-87.89,-109.44
936,1778614147.38546,0.87,0.22,-0.07,148.01,-87.89,-109.44
937,1778614147.395356,0.87,0.22,-0.07,148.01,-87.89,-109.44
938,1778614147.405386,0.87,0.22,-0.07,148.01,-87.89,-109.44
939,1778614147.415384,0.87,0.22,-0.07,148.01,-87.89,-109.44
940,1778614147.425397,0.66,-0.6,0.62,-388.67,-49.38,130.74
941,1778614147.435434,0.66,-0.6,0.62,-388.67,-49.38,130.74
942,1778614147.445338,0.26,-0.43,-0.7,-388.67,-49.38,130.74
943,1778614147.45535,0.26,-0.43,-0.7,112.73,236.57,105.35
944,1778614147.465379,0.26,-0.43,-0.7,112.73,236.57,105.35
945,1778614147.475403,0.26,-0.43,-0.7,112.73,236.57,105.35
946,1778614147.4854422,2.88,-0.42,-1.34,522.4,258.91,177.19
947,1778614147.4953332,2.88,-0.42,-1.34,522.4,258.91,177.19
948,1778614147.505362,2.88,-0.42,-1.34,522.4,258.91,177.19
949,1778614147.5153978,2.88,-0.42,-1.34,522.4,258.91,177.19
950,1778614147.525435,1.97,0.37,-0.04,422.91,71.53,207.52
951,1778614147.535352,1.97,0.37,-0.04,422.91,71.53,207.52
952,1778614147.54537,1.97,0.37,-0.04,422.91,71.53,207.52
953,1778614147.5553799,1.97,0.37,-0.04,422.91,71.53,207.52
954,1778614147.565404,2.72,1.25,-0.77,184.88,168.64,199.77
955,1778614147.5754392,2.72,1.25,-0.77,184.88,168.64,199.77
956,1778614147.585446,2.72,1.25,-0.77,184.88,168.64,199.77
957,1778614147.5953438,2.72,1.25,-0.77,184.88,168.64,199.77
958,1778614147.605359,1.46,1.4,-0.55,184.88,168.64,199.77
959,1778614147.615384,1.46,1.4,-0.55,-307.74,-101.14,85.75
960,1778614147.6254048,1.46,1.4,-0.55,-307.74,-101.14,85.75
961,1778614147.635444,1.46,1.4,-0.55,-307.74,-101.14,85.75
962,1778614147.645331,0.2,0.97,-0.69,-318.18,-276.92,38.57
963,1778614147.655375,0.2,0.97,-0.69,-318.18,-276.92,38.57
964,1778614147.6654022,0.2,0.97,-0.69,-318.18,-276.92,38.57
965,1778614147.6754189,0.2,0.97,-0.69,-318.18,-276.92,38.57
966,1778614147.68544,0.2,0.97,-0.69,-318.18,-276.92,38.57
967,1778614147.695338,0.2,0.97,-0.69,-318.18,-276.92,38.57
968,1778614147.7054012,0.2,0.97,-0.69,-318.18,-276.92,38.57
969,1778614147.7154508,0.2,0.97,-0.69,-318.18,-276.92,38.57
970,1778614147.725366,0.2,0.97,-0.69,-318.18,-276.92,38.57
971,1778614147.735449,0.2,0.97,-0.69,-318.18,-276.92,38.57
972,1778614147.745358,0.2,0.97,-0.69,-318.18,-276.92,38.57
973,1778614147.755407,0.02,0.74,0.75,653.08,112.73,-212.16
974,1778614147.765443,0.36,-0.04,0.9,593.26,547.79,-196.47
975,1778614147.775348,0.36,-0.04,0.9,593.26,547.79,-196.47
976,1778614147.7854002,0.36,-0.04,0.9,593.26,547.79,-196.47
977,1778614147.7954361,0.79,0.12,1.31,-36.56,-115.72,-28.87
978,1778614147.805386,0.79,0.12,1.31,-36.56,-115.72,-28.87
979,1778614147.815395,0.79,0.12,1.31,-36.56,-115.72,-28.87
980,1778614147.825423,0.79,0.12,1.31,-36.56,-115.72,-28.87
981,1778614147.835401,0.23,0.92,-0.55,-493.23,-205.2,33.45
982,1778614147.8453891,0.23,0.92,-0.55,-493.23,-205.2,33.45
983,1778614147.855361,0.23,0.92,-0.55,-493.23,-205.2,33.45
984,1778614147.865458,0.23,0.92,-0.55,-493.23,-205.2,33.45
985,1778614147.875423,0.23,0.92,-0.55,-493.23,-205.2,33.45
986,1778614147.885383,0.23,0.92,-0.55,-493.23,-205.2,33.45
987,1778614147.89535,0.23,0.92,-0.55,-493.23,-205.2,33.45
988,1778614147.9054458,0.23,0.92,-0.55,-493.23,-205.2,33.45
989,1778614147.915415,0.23,0.92,-0.55,-493.23,-205.2,33.45
990,1778614147.9253418,0.23,0.92,-0.55,-493.23,-205.2,33.45
991,1778614147.935439,0.23,0.92,-0.55,-493.23,-205.2,33.45
992,1778614147.945413,1.37,0.47,-0.63,-64.27,178.65,-55.11
993,1778614147.955383,1.37,0.47,-0.63,-64.27,178.65,-55.11
994,1778614147.96535,1.37,0.47,-0.63,-64.27,178.65,-55.11
995,1778614147.9754581,1.37,0.47,-0.63,-64.27,178.65,-55.11
996,1778614147.9854321,1.6,0.33,-0.66,267.15,305.48,-7.14
997,1778614147.995434,1.6,0.33,-0.66,267.15,305.48,-7.14
998,1778614148.005415,1.6,0.33,-0.66,267.15,305.48,-7.14
999,1778614148.015372,1.6,0.33,-0.66,267.15,305.48,-7.14
1000,1778614148.025336,1.6,0.33,-0.66,267.15,305.48,-7.14
