id,timestamp,acc_x,acc_y,acc_z,gyro_x,gyro_y,gyro_z
1,1778614214.213345,0.25,-0.29,-0.43,214.36,-14.4,37.96
2,1778614214.2133582,0.25,-0.29,-0.43,214.36,-14.4,37.96
3,1778614214.222235,0.25,-0.29,-0.43,214.36,-14.4,37.96
4,1778614214.232287,0.25,-0.29,-0.43,214.36,-14.4,37.96
5,1778614214.242193,1.67,-0.74,-0.4,266.85,243.1,30.21
6,1778614214.252251,1.67,-0.74,-0.4,266.85,243.1,30.21
7,1778614214.262244,1.67,-0.74,-0.4,266.85,243.1,30.21
8,1778614214.272203,1.67,-0.74,-0.4,266.85,243.1,30.21
9,1778614214.282281,1.67,-0.74,-0.4,266.85,243.1,30.21
10,1778614214.292226,1.67,-0.74,-0.4,266.85,243.1,30.21
11,1778614214.302177,1.67,-0.74,-0.4,266.85,243.1,30.21
12,1778614214.3122299,1.67,-0.74,-0.4,266.85,243.1,30.21
13,1778614214.322291,1.67,-0.74,-0.4,266.85,243.1,30.21
14,1778614214.332226,1.67,-0.74,-0.4,266.85,243.1,30.21
15,1778614214.342284,2.18,0.33,-0.95,366.21,175.6,47.24
16,1778614214.3522089,2.18,0.33,-0.95,18.55,113.65,56.4
17,1778614214.3622432,2.18,0.33,-0.95,18.55,113.65,56.4
18,1778614214.372299,2.18,0.33,-0.95,18.55,113.65,56.4
19,1778614214.38223,1.03,0.68,-0.99,-93.75,85.02,6.53
20,1778614214.39227,1.03,0.68,-0.99,-93.75,85.02,6.53
21,1778614214.402179,1.03,0.68,-0.99,-93.75,85.02,6.53
22,1778614214.412231,1.03,0.68,-0.99,-93.75,85.02,6.53
23,1778614214.422262,0.56,0.49,-0.62,-16.17,-147.83,15.2
24,1778614214.4321868,0.56,0.49,-0.62,-16.17,-147.83,15.2
25,1778614214.442228,0.56,0.49,-0.62,-16.17,-147.83,15.2
26,1778614214.452288,0.56,0.49,-0.62,-16.17,-147.83,15.2
27,1778614214.462225,0.56,0.49,-0.62,-16.17,-147.83,15.2
28,1778614214.4722528,0.56,0.49,-0.62,-16.17,-147.83,15.2
29,1778614214.4821792,0.56,0.49,-0.62,-16.17,-147.83,15.2
30,1778614214.492199,0.56,0.49,-0.62,-16.17,-147.83,15.2
31,1778614214.50224,0.56,0.49,-0.62,-16.17,-147.83,15.2
32,1778614214.512255,0.56,0.49,-0.62,-16.17,-147.83,15.2
33,1778614214.522184,0.56,0.49,-0.62,-16.17,-147.83,15.2
34,1778614214.532238,0.5,0.84,0.02,222.72,-135.68,-36.13
35,1778614214.542271,0.27,0.67,0.0,218.44,-57.74,-45.17
36,1778614214.552198,0.27,0.67,0.0,218.44,-57.74,-45.17
37,1778614214.5622668,0.27,0.67,0.0,218.44,-57.74,-45.17
38,1778614214.572294,0.27,0.67,0.0,218.44,-57.74,-45.17
39,1778614214.582304,0.27,0.67,0.0,218.44,-57.74,-45.17
40,1778614214.592233,0.03,-0.08,1.08,486.94,114.56,49.87
41,1778614214.602185,0.03,-0.08,1.08,486.94,114.56,49.87
42,1778614214.612213,0.86,0.96,0.61,486.94,114.56,49.87
43,1778614214.6222441,0.86,0.96,0.61,-145.94,-75.01,45.72
44,1778614214.632284,0.86,0.96,0.61,-145.94,-75.01,45.72
45,1778614214.642185,0.86,0.96,0.61,-145.94,-75.01,45.72
46,1778614214.6522088,2.37,1.31,-0.36,-145.94,-75.01,45.72
47,1778614214.662257,2.37,1.31,-0.36,-288.21,-226.44,65.8
48,1778614214.6722932,2.37,1.31,-0.36,-288.21,-226.44,65.8
49,1778614214.6821928,2.37,1.31,-0.36,-288.21,-226.44,65.8
50,1778614214.692214,2.37,1.31,-0.36,-288.21,-226.44,65.8
51,1778614214.70224,2.37,1.31,-0.36,-288.21,-226.44,65.8
52,1778614214.7122939,2.37,1.31,-0.36,-288.21,-226.44,65.8
53,1778614214.722181,2.37,1.31,-0.36,-288.21,-226.44,65.8
54,1778614214.732213,2.37,1.31,-0.36,-288.21,-226.44,65.8
55,1778614214.742232,2.37,1.31,-0.36,-288.21,-226.44,65.8
56,1778614214.752249,0.81,0.53,-0.25,-54.93,129.39,2.99
57,1778614214.762253,1.95,0.45,-0.88,-54.93,129.39,2.99
58,1778614214.772276,1.95,0.45,-0.88,50.29,297.12,-110.41
59,1778614214.782302,1.95,0.45,-0.88,50.29,297.12,-110.41
60,1778614214.7922099,1.95,0.45,-0.88,50.29,297.12,-110.41
61,1778614214.802237,1.95,0.45,-0.88,50.29,297.12,-110.41
62,1778614214.8122501,1.95,0.45,-0.88,50.29,297.12,-110.41
63,1778614214.822279,1.95,0.45,-0.88,50.29,297.12,-110.41
64,1778614214.8322968,1.95,0.45,-0.88,50.29,297.12,-110.41
65,1778614214.842187,1.95,0.45,-0.88,50.29,297.12,-110.41
66,1778614214.8522282,1.95,0.45,-0.88,50.29,297.12,-110.41
67,1778614214.862248,1.22,0.06,-0.34,166.63,15.87,-120.24
68,1778614214.872284,1.22,0.06,-0.34,166.63,15.87,-120.24
69,1778614214.882176,0.92,0.04,-0.25,208.74,-78.43,-133.85
70,1778614214.892295,0.92,0.04,-0.25,208.74,-78.43,-133.85
71,1778614214.9022698,0.92,0.04,-0.25,208.74,-78.43,-133.85
72,1778614214.912302,0.85,-0.01,-0.13,206.97,-147.71,-112.18
73,1778614214.9222012,0.85,-0.01,-0.13,206.97,-147.71,-112.18
74,1778614214.932232,0.85,-0.01,-0.13,206.97,-147.71,-112.18
75,1778614214.942246,0.85,-0.01,-0.13,206.97,-147.71,-112.18
76,1778614214.952277,0.85,-0.01,-0.13,206.97,-147.71,-112.18
77,1778614214.962284,0.63,1.03,1.39,34.85,-301.51,-49.93
78,1778614214.97218,0.63,1.03,1.39,34.85,-301.51,-49.93
79,1778614214.982191,0.63,1.03,1.39,34.85,-301.51,-49.93
80,1778614214.992213,0.63,1.03,1.39,34.85,-301.51,-49.93
81,1778614215.0022311,0.63,1.03,1.39,34.85,-301.51,-49.93
82,1778614215.012248,0.63,1.03,1.39,34.85,-301.51,-49.93
83,1778614215.0222878,0.63,1.03,1.39,34.85,-301.51,-49.93
84,1778614215.0321972,0.63,1.03,1.39,34.85,-301.51,-49.93
85,1778614215.042237,0.63,1.03,1.39,34.85,-301.51,-49.93
86,1778614215.0522292,0.22,-0.49,-0.52,386.05,201.72,75.5
87,1778614215.0622542,0.22,-0.49,-0.52,386.05,201.72,75.5
88,1778614215.072198,0.22,-0.49,-0.52,386.05,201.72,75.5
89,1778614215.0822022,0.22,-0.49,-0.52,386.05,201.72,75.5
90,1778614215.0922801,2.11,-0.29,-0.64,424.5,150.82,165.71
91,1778614215.102188,2.29,0.2,-0.46,324.89,118.16,223.33
92,1778614215.1122339,2.29,0.2,-0.46,324.89,118.16,223.33
93,1778614215.122277,2.29,0.2,-0.46,324.89,118.16,223.33
94,1778614215.1321988,2.94,0.71,-0.69,324.89,118.16,223.33
95,1778614215.1423008,2.94,0.71,-0.69,210.57,195.56,152.04
96,1778614215.152189,2.94,0.71,-0.69,210.57,195.56,152.04
97,1778614215.162247,1.93,1.08,-0.55,210.57,195.56,152.04
98,1778614215.172238,1.93,1.08,-0.55,217.65,123.9,125.06
99,1778614215.18226,1.93,1.08,-0.55,217.65,123.9,125.06
100,1778614215.1922839,1.93,1.08,-0.55,217.65,123.9,125.06
101,1778614215.202225,0.92,0.93,-0.6,-283.2,-36.13,-14.71
102,1778614215.212259,0.92,0.93,-0.6,-283.2,-36.13,-14.71
103,1778614215.222195,0.92,0.93,-0.6,-283.2,-36.13,-14.71
104,1778614215.232256,0.92,0.93,-0.6,-283.2,-36.13,-14.71
105,1778614215.242181,0.13,0.76,-0.61,-134.09,-111.76,7.81
106,1778614215.252231,0.13,0.76,-0.61,-134.09,-111.76,7.81
107,1778614215.2622561,0.13,0.76,-0.61,-134.09,-111.76,7.81
108,1778614215.272296,0.13,0.76,-0.61,-134.09,-111.76,7.81
109,1778614215.282194,-0.05,0.53,-0.14,34.48,-145.81,-24.05
110,1778614215.292257,-0.05,0.53,-0.14,34.48,-145.81,-24.05
111,1778614215.302175,-0.05,0.53,-0.14,34.48,-145.81,-24.05
112,1778614215.3122041,-0.05,0.53,-0.14,34.48,-145.81,-24.05
113,1778614215.322231,-0.05,0.53,-0.14,34.48,-145.81,-24.05
114,1778614215.332217,-0.05,0.53,-0.14,34.48,-145.81,-24.05
115,1778614215.342249,-0.05,0.53,-0.14,34.48,-145.81,-24.05
116,1778614215.352282,-0.05,0.53,-0.14,34.48,-145.81,-24.05
117,1778614215.362299,-0.05,0.53,-0.14,34.48,-145.81,-24.05
118,1778614215.372226,-0.05,0.53,-0.14,34.48,-145.81,-24.05
119,1778614215.382258,-0.05,0.53,-0.14,34.48,-145.81,-24.05
120,1778614215.3922791,0.41,-1.19,1.8,325.56,-29.85,32.78
121,1778614215.402187,1.63,0.12,2.33,186.04,87.34,154.17
122,1778614215.412218,1.63,0.12,2.33,186.04,87.34,154.17
123,1778614215.422254,1.63,0.12,2.33,186.04,87.34,154.17
124,1778614215.432269,2.08,1.93,-0.56,-649.48,-308.53,-68.54
125,1778614215.442189,2.08,1.93,-0.56,-649.48,-308.53,-68.54
126,1778614215.452223,2.08,1.93,-0.56,-649.48,-308.53,-68.54
127,1778614215.462254,2.08,1.93,-0.56,-649.48,-308.53,-68.54
128,1778614215.472297,1.09,0.83,-1.14,-649.48,-308.53,-68.54
129,1778614215.48218,1.09,0.83,-1.14,38.33,144.41,19.71
130,1778614215.492204,1.09,0.83,-1.14,38.33,144.41,19.71
131,1778614215.5022452,1.09,0.83,-1.14,38.33,144.41,19.71
132,1778614215.512236,1.09,0.83,-1.14,38.33,144.41,19.71
133,1778614215.522284,1.09,0.83,-1.14,38.33,144.41,19.71
134,1778614215.532177,1.09,0.83,-1.14,38.33,144.41,19.71
135,1778614215.5421948,1.09,0.83,-1.14,38.33,144.41,19.71
136,1778614215.552216,1.09,0.83,-1.14,38.33,144.41,19.71
137,1778614215.5622342,1.09,0.83,-1.14,38.33,144.41,19.71
138,1778614215.572246,1.09,0.83,-1.14,38.33,144.41,19.71
139,1778614215.5822861,2.0,0.18,-0.78,185.85,405.88,-146.73
140,1778614215.592183,1.29,-0.08,-0.35,303.65,40.95,-96.19
141,1778614215.602186,1.29,-0.08,-0.35,303.65,40.95,-96.19
142,1778614215.612193,1.29,-0.08,-0.35,303.65,40.95,-96.19
143,1778614215.622237,1.29,-0.08,-0.35,303.65,40.95,-96.19
144,1778614215.632245,0.69,-0.07,-0.03,254.39,-68.3,-128.54
145,1778614215.642207,0.69,-0.07,-0.03,254.39,-68.3,-128.54
146,1778614215.6522722,0.69,-0.07,-0.03,254.39,-68.3,-128.54
147,1778614215.6622,0.69,-0.07,-0.03,254.39,-68.3,-128.54
148,1778614215.67226,0.84,-0.13,-0.06,205.69,-120.24,-83.13
149,1778614215.682283,0.84,-0.13,-0.06,205.69,-120.24,-83.13
150,1778614215.692209,0.84,-0.13,-0.06,205.69,-120.24,-83.13
151,1778614215.702254,0.84,-0.13,-0.06,205.69,-120.24,-83.13
152,1778614215.7122738,0.65,0.3,0.0,70.07,-257.39,6.1
153,1778614215.722301,0.65,0.3,0.0,70.07,-257.39,6.1
154,1778614215.732193,0.65,0.3,0.0,70.07,-257.39,6.1
155,1778614215.742233,1.28,-0.68,0.78,-1367.31,-338.13,165.83
156,1778614215.7522602,1.28,-0.68,0.78,-1367.31,-338.13,165.83
157,1778614215.762283,1.28,-0.68,0.78,-1367.31,-338.13,165.83
158,1778614215.77222,1.28,-0.68,0.78,-1367.31,-338.13,165.83
159,1778614215.7822568,0.08,-1.23,0.01,236.39,-75.56,72.69
160,1778614215.7921789,0.08,-1.23,0.01,236.39,-75.56,72.69
161,1778614215.802237,0.08,-1.23,0.01,236.39,-75.56,72.69
162,1778614215.812293,0.08,-1.23,0.01,236.39,-75.56,72.69
163,1778614215.8222919,0.08,-1.23,0.01,236.39,-75.56,72.69
164,1778614215.832196,0.08,-1.23,0.01,236.39,-75.56,72.69
165,1778614215.842238,0.08,-1.23,0.01,236.39,-75.56,72.69
166,1778614215.852272,0.08,-1.23,0.01,236.39,-75.56,72.69
167,1778614215.862286,0.08,-1.23,0.01,236.39,-75.56,72.69
168,1778614215.872202,0.08,-1.23,0.01,236.39,-75.56,72.69
169,1778614215.8822348,0.08,-1.23,0.01,236.39,-75.56,72.69
170,1778614215.892263,0.08,-1.23,0.01,236.39,-75.56,72.69
171,1778614215.9022982,0.08,-1.23,0.01,236.39,-75.56,72.69
172,1778614215.9122298,3.25,1.18,-0.96,164.67,202.39,176.45
173,1778614215.922274,3.25,1.18,-0.96,164.67,202.39,176.45
174,1778614215.9323049,3.25,1.18,-0.96,164.67,202.39,176.45
175,1778614215.942199,1.16,1.24,-0.74,145.39,-63.78,47.49
176,1778614215.95222,1.16,1.24,-0.74,145.39,-63.78,47.49
177,1778614215.962234,1.16,1.24,-0.74,145.39,-63.78,47.49
178,1778614215.9722712,1.16,1.24,-0.74,145.39,-63.78,47.49
179,1778614215.982192,0.23,0.95,-0.71,-121.52,-92.77,52.61
180,1778614215.992233,0.23,0.95,-0.71,-121.52,-92.77,52.61
181,1778614216.002233,0.23,0.95,-0.71,-121.52,-92.77,52.61
182,1778614216.012296,0.23,0.95,-0.71,-121.52,-92.77,52.61
183,1778614216.022294,0.23,0.95,-0.71,-121.52,-92.77,52.61
184,1778614216.0322042,0.23,0.95,-0.71,-121.52,-92.77,52.61
185,1778614216.0422661,0.23,0.95,-0.71,-121.52,-92.77,52.61
186,1778614216.0521731,0.23,0.95,-0.71,-121.52,-92.77,52.61
187,1778614216.062211,0.23,0.95,-0.71,-121.52,-92.77,52.61
188,1778614216.072255,0.23,0.95,-0.71,-121.52,-92.77,52.61
189,1778614216.082303,0.23,0.95,-0.71,-121.52,-92.77,52.61
190,1778614216.092174,0.23,0.95,-0.71,-121.52,-92.77,52.61
191,1778614216.1022038,-0.19,0.29,-0.08,161.56,-45.78,-109.62
192,1778614216.112229,-0.19,0.29,-0.08,161.56,-45.78,-109.62
193,1778614216.12225,-0.19,0.29,-0.08,161.56,-45.78,-109.62
194,1778614216.1322901,0.58,-0.41,0.95,619.02,181.15,-43.52
195,1778614216.142209,0.58,-0.41,0.95,619.02,181.15,-43.52
196,1778614216.1522298,0.58,-0.41,0.95,619.02,181.15,-43.52
197,1778614216.162282,0.58,-0.41,0.95,619.02,181.15,-43.52
198,1778614216.1721768,-0.05,0.9,-0.74,-52.19,197.02,110.17
199,1778614216.1822011,-0.05,0.9,-0.74,-52.19,197.02,110.17
200,1778614216.1922271,-0.05,0.9,-0.74,-52.19,197.02,110.17
201,1778614216.202275,2.98,1.4,-0.1,-609.5,-376.04,-208.01
202,1778614216.212179,2.98,1.4,-0.1,-609.5,-376.04,-208.01
203,1778614216.2222028,2.98,1.4,-0.1,-609.5,-376.04,-208.01
204,1778614216.232245,2.98,1.4,-0.1,-609.5,-376.04,-208.01
205,1778614216.242269,0.8,0.87,-0.79,-124.76,3.05,81.6
206,1778614216.252291,0.8,0.87,-0.79,-124.76,3.05,81.6
207,1778614216.262202,0.8,0.87,-0.79,-124.76,3.05,81.6
208,1778614216.272212,0.8,0.87,-0.79,-124.76,3.05,81.6
209,1778614216.2822201,1.1,0.48,-0.32,-153.38,170.35,-63.11
210,1778614216.292267,1.1,0.48,-0.32,-153.38,170.35,-63.11
211,1778614216.302176,1.1,0.48,-0.32,-153.38,170.35,-63.11
212,1778614216.3122072,1.1,0.48,-0.32,-153.38,170.35,-63.11
213,1778614216.322241,1.99,0.27,-0.78,80.38,229.19,-86.91
214,1778614216.3322701,1.99,0.27,-0.78,80.38,229.19,-86.91
215,1778614216.342178,1.99,0.27,-0.78,80.38,229.19,-86.91
216,1778614216.3522098,1.99,0.27,-0.78,80.38,229.19,-86.91
217,1778614216.3622441,1.99,0.27,-0.78,80.38,229.19,-86.91
218,1778614216.372299,1.99,0.27,-0.78,80.38,229.19,-86.91
219,1778614216.382207,1.99,0.27,-0.78,80.38,229.19,-86.91
220,1778614216.3922482,1.99,0.27,-0.78,80.38,229.19,-86.91
221,1778614216.402173,1.99,0.27,-0.78,80.38,229.19,-86.91
222,1778614216.4121852,1.99,0.27,-0.78,80.38,229.19,-86.91
223,1778614216.422202,1.99,0.27,-0.78,80.38,229.19,-86.91
224,1778614216.432242,1.99,0.27,-0.78,80.38,229.19,-86.91
225,1778614216.442257,0.97,0.06,-0.06,291.87,-102.11,-83.01
226,1778614216.4522848,0.97,0.06,-0.06,291.87,-102.11,-83.01
227,1778614216.462254,0.97,0.06,-0.06,291.87,-102.11,-83.01
228,1778614216.472256,1.92,-0.74,2.32,-1596.62,-403.75,245.3
229,1778614216.482285,1.92,-0.74,2.32,-1596.62,-403.75,245.3
230,1778614216.492188,1.92,-0.74,2.32,-1596.62,-403.75,245.3
231,1778614216.502232,1.92,-0.74,2.32,-1596.62,-403.75,245.3
232,1778614216.5122812,0.48,-0.4,-0.03,48.46,180.6,92.29
233,1778614216.522201,0.48,-0.4,-0.03,48.46,180.6,92.29
234,1778614216.5322042,0.48,-0.4,-0.03,48.46,180.6,92.29
235,1778614216.542248,0.48,-0.4,-0.03,48.46,180.6,92.29
236,1778614216.5522912,0.48,-0.4,-0.03,48.46,180.6,92.29
237,1778614216.562187,0.48,-0.4,-0.03,48.46,180.6,92.29
238,1778614216.572225,0.48,-0.4,-0.03,48.46,180.6,92.29
239,1778614216.5822878,0.48,-0.4,-0.03,48.46,180.6,92.29
240,1778614216.592202,0.48,-0.4,-0.03,48.46,180.6,92.29
241,1778614216.602227,0.48,-0.4,-0.03,48.46,180.6,92.29
242,1778614216.612254,0.48,-0.4,-0.03,48.46,180.6,92.29
243,1778614216.6221929,3.35,-0.61,-0.63,488.89,341.98,215.52
244,1778614216.632236,2.1,0.25,-0.38,472.29,112.12,157.29
245,1778614216.642258,2.1,0.25,-0.38,472.29,112.12,157.29
246,1778614216.652176,2.1,0.25,-0.38,472.29,112.12,157.29
247,1778614216.6622012,2.1,0.25,-0.38,472.29,112.12,157.29
248,1778614216.672239,2.21,0.86,-0.6,297.79,263.06,58.23
249,1778614216.682188,2.21,0.86,-0.6,297.79,263.06,58.23
250,1778614216.6921768,2.21,0.86,-0.6,297.79,263.06,58.23
251,1778614216.702281,0.98,0.79,-0.54,297.79,263.06,58.23
252,1778614216.71218,0.98,0.79,-0.54,-307.62,29.66,11.29
253,1778614216.722199,0.98,0.79,-0.54,-307.62,29.66,11.29
254,1778614216.732215,0.98,0.79,-0.54,-307.62,29.66,11.29
255,1778614216.742239,0.28,0.61,-0.78,-227.29,-121.83,-1.04
256,1778614216.752275,0.28,0.61,-0.78,-227.29,-121.83,-1.04
257,1778614216.762273,0.28,0.61,-0.78,-227.29,-121.83,-1.04
258,1778614216.7722812,0.28,0.61,-0.78,-227.29,-121.83,-1.04
259,1778614216.782219,0.06,0.55,-0.35,140.26,-118.16,-1.77
260,1778614216.792178,0.06,0.55,-0.35,140.26,-118.16,-1.77
261,1778614216.802208,0.06,0.55,-0.35,140.26,-118.16,-1.77
262,1778614216.812198,0.06,0.55,-0.35,140.26,-118.16,-1.77
263,1778614216.822199,0.08,0.47,-0.07,200.62,-79.83,3.97
264,1778614216.832175,0.08,0.47,-0.07,200.62,-79.83,3.97
265,1778614216.84227,0.08,0.47,-0.07,200.62,-79.83,3.97
266,1778614216.852246,0.08,0.47,-0.07,200.62,-79.83,3.97
267,1778614216.86221,0.35,0.61,-0.12,228.09,-106.14,6.9
268,1778614216.872277,0.35,0.61,-0.12,228.09,-106.14,6.9
269,1778614216.882186,0.35,0.61,-0.12,228.09,-106.14,6.9
270,1778614216.892292,0.35,0.61,-0.12,228.09,-106.14,6.9
271,1778614216.902273,0.35,0.61,-0.12,228.09,-106.14,6.9
272,1778614216.9122891,0.35,0.61,-0.12,228.09,-106.14,6.9
273,1778614216.9221928,0.35,0.61,-0.12,228.09,-106.14,6.9
274,1778614216.9322271,0.35,0.61,-0.12,228.09,-106.14,6.9
275,1778614216.942253,0.35,0.61,-0.12,228.09,-106.14,6.9
276,1778614216.952269,0.35,0.61,-0.12,228.09,-106.14,6.9
277,1778614216.962301,3.03,1.86,0.21,118.23,632.81,-0.12
278,1778614216.97222,0.76,0.29,-0.26,94.85,99.85,21.61
279,1778614216.982249,0.76,0.29,-0.26,94.85,99.85,21.61
280,1778614216.992289,0.76,0.29,-0.26,94.85,99.85,21.61
281,1778614217.002174,0.76,0.29,-0.26,94.85,99.85,21.61
282,1778614217.012195,1.25,0.91,-0.53,-58.9,102.91,-66.96
283,1778614217.022251,1.25,0.91,-0.53,-58.9,102.91,-66.96
284,1778614217.0322912,1.25,0.91,-0.53,-58.9,102.91,-66.96
285,1778614217.042227,1.25,0.91,-0.53,-58.9,102.91,-66.96
286,1778614217.052254,1.58,0.44,-0.78,-136.05,34.18,-24.72
287,1778614217.0622919,1.58,0.44,-0.78,-136.05,34.18,-24.72
288,1778614217.072211,1.58,0.44,-0.78,-136.05,34.18,-24.72
289,1778614217.082253,1.58,0.44,-0.78,-136.05,34.18,-24.72
290,1778614217.092292,1.58,0.44,-0.78,-136.05,34.18,-24.72
291,1778614217.1021829,1.58,0.44,-0.78,-136.05,34.18,-24.72
292,1778614217.1122031,1.58,0.44,-0.78,-136.05,34.18,-24.72
293,1778614217.1222138,1.58,0.44,-0.78,-136.05,34.18,-24.72
294,1778614217.132231,1.58,0.44,-0.78,-136.05,34.18,-24.72
295,1778614217.142242,1.58,0.44,-0.78,-136.05,34.18,-24.72
296,1778614217.152273,1.03,0.15,-0.28,156.74,18.68,-94.12
297,1778614217.1623008,1.03,0.15,-0.28,156.74,18.68,-94.12
298,1778614217.172207,0.6,-0.02,-0.21,206.48,-37.11,-88.56
299,1778614217.182239,0.6,-0.02,-0.21,206.48,-37.11,-88.56
300,1778614217.192269,0.6,-0.02,-0.21,206.48,-37.11,-88.56
301,1778614217.202302,0.6,-0.02,-0.21,206.48,-37.11,-88.56
302,1778614217.212204,0.74,0.23,-0.14,262.51,-150.27,-79.96
303,1778614217.222247,0.74,0.23,-0.14,262.51,-150.27,-79.96
304,1778614217.232277,0.74,0.23,-0.14,262.51,-150.27,-79.96
305,1778614217.2421818,0.65,-0.33,0.3,262.51,-150.27,-79.96
306,1778614217.252214,0.65,-0.33,0.3,-493.29,20.26,44.31
307,1778614217.262233,0.65,-0.33,0.3,-493.29,20.26,44.31
308,1778614217.272253,0.65,-0.33,0.3,-493.29,20.26,44.31
309,1778614217.282279,0.32,0.17,-0.3,-96.19,89.9,45.65
310,1778614217.2922728,0.32,0.17,-0.3,-96.19,89.9,45.65
311,1778614217.302185,0.32,0.17,-0.3,-96.19,89.9,45.65
312,1778614217.312213,0.28,-0.14,-0.29,69.7,209.47,57.19
313,1778614217.3222039,0.28,-0.14,-0.29,69.7,209.47,57.19
314,1778614217.332205,0.28,-0.14,-0.29,69.7,209.47,57.19
315,1778614217.342279,0.28,-0.14,-0.29,69.7,209.47,57.19
316,1778614217.352288,2.12,-0.53,-0.69,294.13,280.76,129.27
317,1778614217.362196,2.12,-0.53,-0.69,294.13,280.76,129.27
318,1778614217.372229,2.12,-0.53,-0.69,294.13,280.76,129.27
319,1778614217.382284,2.12,-0.53,-0.69,294.13,280.76,129.27
320,1778614217.392298,2.26,-0.17,-0.58,594.06,101.2,143.98
321,1778614217.402177,2.26,-0.17,-0.58,594.06,101.2,143.98
322,1778614217.4122062,2.26,-0.17,-0.58,594.06,101.2,143.98
323,1778614217.422225,2.26,-0.17,-0.58,594.06,101.2,143.98
324,1778614217.4322639,2.26,-0.17,-0.58,594.06,101.2,143.98
325,1778614217.4422898,2.26,-0.17,-0.58,594.06,101.2,143.98
326,1778614217.452178,2.26,-0.17,-0.58,594.06,101.2,143.98
327,1778614217.462204,2.26,-0.17,-0.58,594.06,101.2,143.98
328,1778614217.472245,2.26,-0.17,-0.58,594.06,101.2,143.98
329,1778614217.482271,1.41,0.81,-0.39,-57.56,94.48,86.85
330,1778614217.492181,1.41,0.81,-0.39,-57.56,94.48,86.85
331,1778614217.502214,1.41,0.81,-0.39,-57.56,94.48,86.85
332,1778614217.512225,1.41,0.81,-0.39,-57.56,94.48,86.85
333,1778614217.522241,1.41,0.81,-0.39,-57.56,94.48,86.85
334,1778614217.5322728,1.41,0.81,-0.39,-57.56,94.48,86.85
335,1778614217.5422962,1.41,0.81,-0.39,-57.56,94.48,86.85
336,1778614217.552195,1.41,0.81,-0.39,-57.56,94.48,86.85
337,1778614217.562217,1.41,0.81,-0.39,-57.56,94.48,86.85
338,1778614217.572256,0.46,0.76,-0.5,-100.95,-296.63,58.17
339,1778614217.5822709,0.46,0.76,-0.5,-100.95,-296.63,58.17
340,1778614217.592175,0.13,0.65,0.0,153.5,-273.62,-79.28
341,1778614217.602201,0.13,0.65,0.0,153.5,-273.62,-79.28
342,1778614217.612174,0.13,0.65,0.0,153.5,-273.62,-79.28
343,1778614217.622205,0.13,0.65,0.0,153.5,-273.62,-79.28
344,1778614217.632231,0.13,0.65,0.0,153.5,-273.62,-79.28
345,1778614217.642245,0.13,0.65,0.0,153.5,-273.62,-79.28
346,1778614217.6521862,0.13,0.65,0.0,153.5,-273.62,-79.28
347,1778614217.662255,0.13,0.65,0.0,153.5,-273.62,-79.28
348,1778614217.6721861,0.76,-0.05,1.29,580.99,200.38,-11.35
349,1778614217.682255,0.76,-0.05,1.29,580.99,200.38,-11.35
350,1778614217.692296,0.34,0.67,0.65,-251.22,-109.19,114.38
351,1778614217.70222,0.34,0.67,0.65,-251.22,-109.19,114.38
352,1778614217.71228,0.34,0.67,0.65,-251.22,-109.19,114.38
353,1778614217.722286,1.07,1.46,-0.25,-251.22,-109.19,114.38
354,1778614217.732212,1.07,1.46,-0.25,-190.25,-108.09,-30.03
355,1778614217.742176,1.07,1.46,-0.25,-190.25,-108.09,-30.03
356,1778614217.752239,1.07,1.46,-0.25,-190.25,-108.09,-30.03
357,1778614217.762231,1.07,1.46,-0.25,-190.25,-108.09,-30.03
358,1778614217.772213,2.12,0.97,-0.97,-114.44,175.05,-76.35
359,1778614217.78228,2.12,0.97,-0.97,-114.44,175.05,-76.35
360,1778614217.7922719,2.12,0.97,-0.97,-114.44,175.05,-76.35
361,1778614217.802185,0.81,0.61,-0.4,-52.12,112.85,-4.94
362,1778614217.812203,0.81,0.61,-0.4,-52.12,112.85,-4.94
363,1778614217.822195,0.81,0.61,-0.4,-52.12,112.85,-4.94
364,1778614217.832227,0.81,0.61,-0.4,-52.12,112.85,-4.94
365,1778614217.842241,1.71,0.61,-0.87,-114.93,227.72,-49.01
366,1778614217.852232,1.71,0.61,-0.87,-114.93,227.72,-49.01
367,1778614217.8622441,1.71,0.61,-0.87,-114.93,227.72,-49.01
368,1778614217.872253,1.71,0.61,-0.87,-114.93,227.72,-49.01
369,1778614217.882266,1.45,0.33,-0.68,5.31,111.57,-76.97
370,1778614217.892271,1.45,0.33,-0.68,5.31,111.57,-76.97
371,1778614217.902269,1.45,0.33,-0.68,5.31,111.57,-76.97
372,1778614217.912259,1.45,0.33,-0.68,5.31,111.57,-76.97
373,1778614217.92226,1.45,0.33,-0.68,5.31,111.57,-76.97
374,1778614217.932276,1.45,0.33,-0.68,5.31,111.57,-76.97
375,1778614217.942297,1.45,0.33,-0.68,5.31,111.57,-76.97
376,1778614217.952181,1.45,0.33,-0.68,5.31,111.57,-76.97
377,1778614217.962244,1.45,0.33,-0.68,5.31,111.57,-76.97
378,1778614217.972244,1.45,0.33,-0.68,5.31,111.57,-76.97
379,1778614217.982241,1.45,0.33,-0.68,5.31,111.57,-76.97
380,1778614217.9922318,1.45,0.33,-0.68,5.31,111.57,-76.97
381,1778614218.002244,1.45,0.33,-0.68,5.31,111.57,-76.97
382,1778614218.0122519,0.72,0.16,-0.18,278.02,-109.07,-122.31
383,1778614218.022253,0.72,0.16,-0.18,278.02,-109.07,-122.31
384,1778614218.032299,0.72,0.16,-0.18,278.02,-109.07,-122.31
385,1778614218.042272,1.9,-1.86,3.01,-1318.79,-388.49,179.08
386,1778614218.0522618,1.9,-1.86,3.01,-1318.79,-388.49,179.08
387,1778614218.0622652,1.9,-1.86,3.01,-1318.79,-388.49,179.08
388,1778614218.0722592,0.51,-0.34,-0.33,-1318.79,-388.49,179.08
389,1778614218.082268,0.51,-0.34,-0.33,-96.56,193.18,101.62
390,1778614218.092253,0.51,-0.34,-0.33,-96.56,193.18,101.62
391,1778614218.1022341,0.51,-0.34,-0.33,-96.56,193.18,101.62
392,1778614218.1122282,0.51,-0.34,-0.33,-96.56,193.18,101.62
393,1778614218.1222248,0.51,-0.34,-0.33,-96.56,193.18,101.62
394,1778614218.132255,0.51,-0.34,-0.33,-96.56,193.18,101.62
395,1778614218.1422532,0.51,-0.34,-0.33,-96.56,193.18,101.62
396,1778614218.152289,0.51,-0.34,-0.33,-96.56,193.18,101.62
397,1778614218.1621919,0.51,-0.34,-0.33,-96.56,193.18,101.62
398,1778614218.1722088,0.51,-0.34,-0.33,-96.56,193.18,101.62
399,1778614218.182205,0.51,-0.34,-0.33,-96.56,193.18,101.62
400,1778614218.192228,0.51,-0.34,-0.33,-96.56,193.18,101.62
401,1778614218.202246,1.9,0.42,-0.44,418.4,119.63,212.04
402,1778614218.212246,1.9,0.42,-0.44,418.4,119.63,212.04
403,1778614218.2222981,1.9,0.42,-0.44,418.4,119.63,212.04
404,1778614218.2321951,1.9,0.42,-0.44,418.4,119.63,212.04
405,1778614218.242197,3.0,1.2,-0.69,198.49,160.28,77.21
406,1778614218.252222,3.0,1.2,-0.69,198.49,160.28,77.21
407,1778614218.2622058,3.0,1.2,-0.69,198.49,160.28,77.21
408,1778614218.272295,0.95,1.05,-0.61,-172.0,-61.34,35.1
409,1778614218.282182,0.95,1.05,-0.61,-172.0,-61.34,35.1
410,1778614218.292185,0.95,1.05,-0.61,-172.0,-61.34,35.1
411,1778614218.30228,0.95,1.05,-0.61,-172.0,-61.34,35.1
412,1778614218.3122702,0.31,0.67,-0.59,-184.57,-118.29,11.47
413,1778614218.322206,0.31,0.67,-0.59,-184.57,-118.29,11.47
414,1778614218.332244,0.31,0.67,-0.59,-184.57,-118.29,11.47
415,1778614218.3422809,0.03,0.41,-0.13,-184.57,-118.29,11.47
416,1778614218.352181,0.03,0.41,-0.13,181.76,-132.08,-40.34
417,1778614218.362226,0.03,0.41,-0.13,181.76,-132.08,-40.34
418,1778614218.3722801,0.03,0.41,-0.13,181.76,-132.08,-40.34
419,1778614218.382185,-0.11,0.42,-0.05,147.89,10.38,-7.08
420,1778614218.3922071,-0.11,0.42,-0.05,147.89,10.38,-7.08
421,1778614218.4022,-0.11,0.42,-0.05,147.89,10.38,-7.08
422,1778614218.412256,-0.11,0.42,-0.05,147.89,10.38,-7.08
423,1778614218.422297,-0.05,0.19,-0.13,291.99,105.9,-17.33
424,1778614218.432209,-0.05,0.19,-0.13,291.99,105.9,-17.33
425,1778614218.44223,-0.05,0.19,-0.13,291.99,105.9,-17.33
426,1778614218.4522681,-0.05,0.19,-0.13,291.99,105.9,-17.33
427,1778614218.462186,-0.05,0.19,-0.13,291.99,105.9,-17.33
428,1778614218.4722419,-0.05,0.19,-0.13,291.99,105.9,-17.33
429,1778614218.482257,-0.05,0.19,-0.13,291.99,105.9,-17.33
430,1778614218.492278,-0.05,0.19,-0.13,291.99,105.9,-17.33
431,1778614218.502172,-0.05,0.19,-0.13,291.99,105.9,-17.33
432,1778614218.512186,-0.05,0.19,-0.13,291.99,105.9,-17.33
433,1778614218.522221,-0.05,0.19,-0.13,291.99,105.9,-17.33
434,1778614218.5322611,0.44,0.79,-0.28,-318.73,-84.47,94.06
435,1778614218.5422888,3.7,1.47,-1.1,-337.95,138.49,-171.02
436,1778614218.552191,3.7,1.47,-1.1,-337.95,138.49,-171.02
437,1778614218.562206,3.7,1.47,-1.1,-337.95,138.49,-171.02
438,1778614218.572253,3.7,1.47,-1.1,-337.95,138.49,-171.02
439,1778614218.582291,0.4,0.64,-0.6,-109.31,29.85,17.52
440,1778614218.592206,0.4,0.64,-0.6,-109.31,29.85,17.52
441,1778614218.602226,0.4,0.64,-0.6,-109.31,29.85,17.52
442,1778614218.6122408,0.4,0.64,-0.6,-109.31,29.85,17.52
443,1778614218.622272,1.4,0.79,-0.53,-163.21,214.84,-40.22
444,1778614218.63218,1.4,0.79,-0.53,-163.21,214.84,-40.22
445,1778614218.6421912,1.4,0.79,-0.53,-163.21,214.84,-40.22
446,1778614218.6522088,1.4,0.79,-0.53,-163.21,214.84,-40.22
447,1778614218.6622632,1.4,0.79,-0.53,-163.21,214.84,-40.22
448,1778614218.672181,1.4,0.79,-0.53,-163.21,214.84,-40.22
449,1778614218.682227,1.4,0.79,-0.53,-163.21,214.84,-40.22
450,1778614218.692265,1.4,0.79,-0.53,-163.21,214.84,-40.22
451,1778614218.702178,1.4,0.79,-0.53,-163.21,214.84,-40.22
452,1778614218.7122188,1.4,0.79,-0.53,-163.21,214.84,-40.22
453,1778614218.72228,1.4,0.79,-0.53,-163.21,214.84,-40.22
454,1778614218.7322052,0.58,0.06,-0.28,257.45,24.66,-129.82
455,1778614218.74226,0.58,0.06,-0.28,257.45,24.66,-129.82
456,1778614218.752177,0.58,0.06,-0.28,257.45,24.66,-129.82
457,1778614218.762232,0.58,0.06,-0.28,257.45,24.66,-129.82
458,1778614218.772298,0.91,0.18,-0.26,225.59,-147.4,-114.99
459,1778614218.782187,0.91,0.18,-0.26,225.59,-147.4,-114.99
460,1778614218.7922182,0.91,0.18,-0.26,225.59,-147.4,-114.99
461,1778614218.802186,0.91,0.18,-0.26,225.59,-147.4,-114.99
462,1778614218.8121972,0.7,1.0,1.51,61.16,-272.09,-72.14
463,1778614218.822203,0.7,1.0,1.51,61.16,-272.09,-72.14
464,1778614218.8322282,0.7,1.0,1.51,61.16,-272.09,-72.14
465,1778614218.842222,0.7,1.0,1.51,61.16,-272.09,-72.14
466,1778614218.852253,0.76,-0.97,0.55,-276.12,-24.72,168.82
467,1778614218.8622642,0.76,-0.97,0.55,-276.12,-24.72,168.82
468,1778614218.872291,0.76,-0.97,0.55,-276.12,-24.72,168.82
469,1778614218.88221,0.76,-0.97,0.55,-276.12,-24.72,168.82
470,1778614218.892253,0.58,-0.29,-0.4,171.57,230.41,116.39
471,1778614218.902285,0.58,-0.29,-0.4,171.57,230.41,116.39
472,1778614218.912297,0.58,-0.29,-0.4,171.57,230.41,116.39
473,1778614218.92221,0.58,-0.29,-0.4,171.57,230.41,116.39
474,1778614218.932241,2.74,-0.23,-1.33,466.92,210.14,209.78
475,1778614218.9422688,2.74,-0.23,-1.33,466.92,210.14,209.78
476,1778614218.9522932,1.82,0.35,-0.14,466.92,210.14,209.78
477,1778614218.962191,1.82,0.35,-0.14,468.93,73.61,243.71
478,1778614218.972211,1.82,0.35,-0.14,468.93,73.61,243.71
479,1778614218.982246,1.82,0.35,-0.14,468.93,73.61,243.71
480,1778614218.992254,1.82,0.35,-0.14,468.93,73.61,243.71
481,1778614219.002274,1.82,0.35,-0.14,468.93,73.61,243.71
482,1778614219.0121741,1.82,0.35,-0.14,468.93,73.61,243.71
483,1778614219.022207,1.82,0.35,-0.14,468.93,73.61,243.71
484,1778614219.0322518,1.82,0.35,-0.14,468.93,73.61,243.71
485,1778614219.0422962,1.82,0.35,-0.14,468.93,73.61,243.71
486,1778614219.0522082,1.82,0.35,-0.14,468.93,73.61,243.71
487,1778614219.062241,1.26,1.07,-0.82,-147.95,-80.81,29.17
488,1778614219.072271,0.2,0.78,-0.52,-190.73,-164.73,59.81
489,1778614219.082299,0.2,0.78,-0.52,-190.73,-164.73,59.81
490,1778614219.092198,0.2,0.78,-0.52,-190.73,-164.73,59.81
491,1778614219.102222,0.2,0.78,-0.52,-190.73,-164.73,59.81
492,1778614219.112257,-0.09,0.61,-0.16,37.78,-200.5,-10.68
493,1778614219.122296,-0.09,0.61,-0.16,37.78,-200.5,-10.68
494,1778614219.1322,-0.09,0.61,-0.16,37.78,-200.5,-10.68
495,1778614219.142236,-0.09,0.61,-0.16,37.78,-200.5,-10.68
496,1778614219.152276,-0.21,0.48,-0.04,146.12,21.79,-34.73
497,1778614219.162185,-0.21,0.48,-0.04,146.12,21.79,-34.73
498,1778614219.172191,-0.21,0.48,-0.04,146.12,21.79,-34.73
499,1778614219.182231,-0.21,0.48,-0.04,146.12,21.79,-34.73
500,1778614219.192255,-0.21,0.48,-0.04,146.12,21.79,-34.73
501,1778614219.202255,-0.21,0.48,-0.04,146.12,21.79,-34.73
502,1778614219.212277,-0.21,0.48,-0.04,146.12,21.79,-34.73
503,1778614219.2222168,-0.21,0.48,-0.04,146.12,21.79,-34.73
504,1778614219.232262,-0.21,0.48,-0.04,146.12,21.79,-34.73
505,1778614219.242292,1.01,-0.2,2.61,740.05,-11.17,36.87
506,1778614219.2521799,1.01,-0.2,2.61,740.05,-11.17,36.87
507,1778614219.262222,0.33,1.03,-0.44,-394.47,-258.12,67.69
508,1778614219.272267,0.33,1.03,-0.44,-394.47,-258.12,67.69
509,1778614219.282188,0.33,1.03,-0.44,-394.47,-258.12,67.69
510,1778614219.2922099,0.33,1.03,-0.44,-394.47,-258.12,67.69
511,1778614219.302254,3.29,1.65,-0.55,-394.47,-258.12,67.69
512,1778614219.312274,3.29,1.65,-0.55,-460.88,-4.52,-182.92
513,1778614219.322175,3.29,1.65,-0.55,-460.88,-4.52,-182.92
514,1778614219.332202,3.29,1.65,-0.55,-460.88,-4.52,-182.92
515,1778614219.342226,0.83,0.77,-0.44,-460.88,-4.52,-182.92
516,1778614219.352257,0.83,0.77,-0.44,-44.74,94.06,51.57
517,1778614219.362286,0.83,0.77,-0.44,-44.74,94.06,51.57
518,1778614219.372223,0.83,0.77,-0.44,-44.74,94.06,51.57
519,1778614219.382245,1.13,0.45,-0.19,-79.47,279.11,-82.82
520,1778614219.3922591,1.13,0.45,-0.19,-79.47,279.11,-82.82
521,1778614219.402286,1.13,0.45,-0.19,-79.47,279.11,-82.82
522,1778614219.412195,1.13,0.45,-0.19,-79.47,279.11,-82.82
523,1778614219.422244,2.14,0.16,-1.26,138.0,232.12,-149.96
524,1778614219.432271,2.14,0.16,-1.26,138.0,232.12,-149.96
525,1778614219.4422,2.14,0.16,-1.26,138.0,232.12,-149.96
526,1778614219.452249,2.14,0.16,-1.26,138.0,232.12,-149.96
527,1778614219.462272,1.11,-0.03,-0.17,372.07,41.08,-207.34
528,1778614219.472183,1.11,-0.03,-0.17,372.07,41.08,-207.34
529,1778614219.482226,1.11,-0.03,-0.17,372.07,41.08,-207.34
530,1778614219.49226,1.11,-0.03,-0.17,372.07,41.08,-207.34
531,1778614219.50228,1.11,-0.03,-0.17,372.07,41.08,-207.34
532,1778614219.512192,1.11,-0.03,-0.17,372.07,41.08,-207.34
533,1778614219.522178,1.11,-0.03,-0.17,372.07,41.08,-207.34
534,1778614219.5322392,1.11,-0.03,-0.17,372.07,41.08,-207.34
535,1778614219.5422888,1.11,-0.03,-0.17,372.07,41.08,-207.34
536,1778614219.552202,1.11,-0.03,-0.17,372.07,41.08,-207.34
537,1778614219.562239,1.11,-0.03,-0.17,372.07,41.08,-207.34
538,1778614219.572177,1.11,-0.03,-0.17,372.07,41.08,-207.34
539,1778614219.58226,1.35,-0.84,1.57,-865.05,-374.08,101.87
540,1778614219.5921779,1.35,-0.84,1.57,-865.05,-374.08,101.87
541,1778614219.602255,1.35,-0.84,1.57,-865.05,-374.08,101.87
542,1778614219.6122859,0.17,-1.41,0.23,-865.05,-374.08,101.87
543,1778614219.622211,0.17,-1.41,0.23,-126.4,13.79,11.23
544,1778614219.632249,0.17,-1.41,0.23,-126.4,13.79,11.23
545,1778614219.6422698,0.17,-1.41,0.23,-126.4,13.79,11.23
546,1778614219.652174,2.07,-0.36,0.14,534.36,378.91,226.87
547,1778614219.662236,2.07,-0.36,0.14,534.36,378.91,226.87
548,1778614219.672298,2.07,-0.36,0.14,534.36,378.91,226.87
549,1778614219.682215,2.07,-0.36,0.14,534.36,378.91,226.87
550,1778614219.692252,2.75,0.51,-1.05,260.07,331.36,298.46
551,1778614219.702292,2.75,0.51,-1.05,260.07,331.36,298.46
552,1778614219.71221,2.75,0.51,-1.05,260.07,331.36,298.46
553,1778614219.722254,2.75,0.51,-1.05,260.07,331.36,298.46
554,1778614219.7322938,2.75,0.51,-1.05,260.07,331.36,298.46
555,1778614219.742187,2.75,0.51,-1.05,260.07,331.36,298.46
556,1778614219.752222,2.75,0.51,-1.05,260.07,331.36,298.46
557,1778614219.7622662,2.75,0.51,-1.05,260.07,331.36,298.46
558,1778614219.772204,1.53,1.22,-0.69,-253.97,-10.38,36.07
559,1778614219.7822669,1.53,1.22,-0.69,-253.97,-10.38,36.07
560,1778614219.7921999,1.53,1.22,-0.69,-253.97,-10.38,36.07
561,1778614219.802283,0.48,0.83,-0.94,-165.1,38.39,30.27
562,1778614219.812198,0.48,0.83,-0.94,-165.1,38.39,30.27
563,1778614219.822189,0.48,0.83,-0.94,-165.1,38.39,30.27
564,1778614219.8321972,-0.08,0.78,-0.64,86.0,-70.74,-81.6
565,1778614219.842249,-0.08,0.78,-0.64,86.0,-70.74,-81.6
566,1778614219.8522182,-0.08,0.78,-0.64,86.0,-70.74,-81.6
567,1778614219.8622699,-0.08,0.78,-0.64,86.0,-70.74,-81.6
568,1778614219.872216,-0.18,0.54,-0.18,207.64,-26.0,-0.55
569,1778614219.8822,-0.18,0.54,-0.18,207.64,-26.0,-0.55
570,1778614219.892277,-0.18,0.54,-0.18,207.64,-26.0,-0.55
571,1778614219.9022841,-0.18,0.54,-0.18,207.64,-26.0,-0.55
572,1778614219.9121752,-0.02,0.56,-0.11,342.47,82.46,66.53
573,1778614219.922234,-0.02,0.56,-0.11,342.47,82.46,66.53
574,1778614219.9321752,-0.02,0.56,-0.11,342.47,82.46,66.53
575,1778614219.942212,-0.02,0.56,-0.11,342.47,82.46,66.53
576,1778614219.95228,0.29,0.47,-0.24,328.31,-91.0,67.63
577,1778614219.962244,0.29,0.47,-0.24,328.31,-91.0,67.63
578,1778614219.972192,0.29,0.47,-0.24,328.31,-91.0,67.63
579,1778614219.982209,0.29,0.47,-0.24,328.31,-91.0,67.63
580,1778614219.992254,0.5,0.61,-0.13,328.31,-91.0,67.63
581,1778614220.0022871,0.5,0.61,-0.13,328.31,-91.0,67.63
582,1778614220.012199,0.5,0.61,-0.13,328.31,-91.0,67.63
583,1778614220.022217,0.5,0.61,-0.13,328.31,-91.0,67.63
584,1778614220.032246,0.5,0.61,-0.13,328.31,-91.0,67.63
585,1778614220.042248,0.5,0.61,-0.13,328.31,-91.0,67.63
586,1778614220.052187,0.5,0.61,-0.13,328.31,-91.0,67.63
587,1778614220.062204,0.5,0.61,-0.13,328.31,-91.0,67.63
588,1778614220.072237,0.5,0.61,-0.13,328.31,-91.0,67.63
589,1778614220.0822961,0.5,0.61,-0.13,328.31,-91.0,67.63
590,1778614220.09218,0.5,0.61,-0.13,328.31,-91.0,67.63
591,1778614220.102232,0.5,0.61,-0.13,328.31,-91.0,67.63
592,1778614220.112263,0.82,0.56,-0.46,-11.66,52.37,-59.33
593,1778614220.122171,0.82,0.56,-0.46,-11.66,52.37,-59.33
594,1778614220.132203,2.11,0.58,-0.7,-149.6,-24.11,-53.59
595,1778614220.1422222,2.11,0.58,-0.7,-149.6,-24.11,-53.59
596,1778614220.152245,2.11,0.58,-0.7,-149.6,-24.11,-53.59
597,1778614220.162279,2.11,0.58,-0.7,-149.6,-24.11,-53.59
598,1778614220.172179,1.06,0.25,-0.37,15.75,32.96,-84.84
599,1778614220.1821902,1.06,0.25,-0.37,15.75,32.96,-84.84
600,1778614220.192189,1.06,0.25,-0.37,15.75,32.96,-84.84
601,1778614220.2022212,1.06,0.25,-0.37,15.75,32.96,-84.84
602,1778614220.2122319,0.97,0.15,-0.28,43.76,31.98,-98.21
603,1778614220.222262,0.97,0.15,-0.28,43.76,31.98,-98.21
604,1778614220.232171,0.97,0.15,-0.28,43.76,31.98,-98.21
605,1778614220.242214,0.97,0.15,-0.28,43.76,31.98,-98.21
606,1778614220.2522318,0.97,0.15,-0.28,43.76,31.98,-98.21
607,1778614220.262271,0.97,0.15,-0.28,43.76,31.98,-98.21
608,1778614220.272295,0.97,0.15,-0.28,43.76,31.98,-98.21
609,1778614220.282172,0.97,0.15,-0.28,43.76,31.98,-98.21
610,1778614220.292201,0.69,0.19,-0.16,184.14,-86.67,-81.12
611,1778614220.3022451,0.69,0.19,-0.16,184.14,-86.67,-81.12
612,1778614220.31229,0.69,0.19,-0.16,184.14,-86.67,-81.12
613,1778614220.322179,0.9,-0.99,1.32,184.14,-86.67,-81.12
614,1778614220.332232,0.9,-0.99,1.32,-668.21,-9.7,81.36
615,1778614220.3422751,0.9,-0.99,1.32,-668.21,-9.7,81.36
616,1778614220.352174,0.9,-0.99,1.32,-668.21,-9.7,81.36
617,1778614220.362195,0.33,0.23,-0.18,-75.74,109.92,80.2
618,1778614220.372224,0.33,0.23,-0.18,-75.74,109.92,80.2
619,1778614220.3822799,0.33,0.23,-0.18,-75.74,109.92,80.2
620,1778614220.392297,0.33,0.23,-0.18,-75.74,109.92,80.2
621,1778614220.402208,0.33,-0.22,-0.36,153.87,180.73,61.89
622,1778614220.412241,0.33,-0.22,-0.36,153.87,180.73,61.89
623,1778614220.422255,0.33,-0.22,-0.36,153.87,180.73,61.89
624,1778614220.432296,0.33,-0.22,-0.36,153.87,180.73,61.89
625,1778614220.442174,3.18,-0.24,-1.12,379.09,328.86,189.03
626,1778614220.452208,3.18,-0.24,-1.12,379.09,328.86,189.03
627,1778614220.462234,3.18,-0.24,-1.12,379.09,328.86,189.03
628,1778614220.472169,3.18,-0.24,-1.12,379.09,328.86,189.03
629,1778614220.4821918,1.84,0.42,-0.22,483.7,60.12,81.6
630,1778614220.492228,1.84,0.42,-0.22,483.7,60.12,81.6
631,1778614220.5022469,1.84,0.42,-0.22,483.7,60.12,81.6
632,1778614220.512256,1.84,0.42,-0.22,483.7,60.12,81.6
633,1778614220.522294,2.1,0.55,-0.64,337.28,220.89,87.83
634,1778614220.532214,2.1,0.55,-0.64,337.28,220.89,87.83
635,1778614220.5422258,2.1,0.55,-0.64,337.28,220.89,87.83
636,1778614220.552263,2.1,0.55,-0.64,337.28,220.89,87.83
637,1778614220.562281,2.1,0.55,-0.64,337.28,220.89,87.83
638,1778614220.572196,2.1,0.55,-0.64,337.28,220.89,87.83
639,1778614220.582217,2.1,0.55,-0.64,337.28,220.89,87.83
640,1778614220.5922828,2.1,0.55,-0.64,337.28,220.89,87.83
641,1778614220.602279,2.1,0.55,-0.64,337.28,220.89,87.83
642,1778614220.612264,2.1,0.55,-0.64,337.28,220.89,87.83
643,1778614220.622258,2.1,0.55,-0.64,337.28,220.89,87.83
644,1778614220.632253,0.2,0.52,-0.53,33.69,-145.63,14.34
645,1778614220.6422641,0.2,0.52,-0.53,33.69,-145.63,14.34
646,1778614220.652282,0.2,0.52,-0.53,33.69,-145.63,14.34
647,1778614220.6621802,0.2,0.52,-0.53,33.69,-145.63,14.34
648,1778614220.6721752,0.12,0.44,-0.22,312.19,16.66,-50.96
649,1778614220.682265,0.12,0.44,-0.22,312.19,16.66,-50.96
650,1778614220.692287,0.12,0.44,-0.22,312.19,16.66,-50.96
651,1778614220.7021708,0.12,0.44,-0.22,312.19,16.66,-50.96
652,1778614220.712251,0.07,0.45,-0.23,370.12,123.9,-6.96
653,1778614220.722273,0.07,0.45,-0.23,370.12,123.9,-6.96
654,1778614220.7321768,0.07,0.45,-0.23,370.12,123.9,-6.96
655,1778614220.7421849,0.07,0.45,-0.23,370.12,123.9,-6.96
656,1778614220.752213,0.07,0.45,-0.23,370.12,123.9,-6.96
657,1778614220.762217,0.07,0.45,-0.23,370.12,123.9,-6.96
658,1778614220.772254,0.07,0.45,-0.23,370.12,123.9,-6.96
659,1778614220.782274,0.07,0.45,-0.23,370.12,123.9,-6.96
660,1778614220.79229,0.07,0.45,-0.23,370.12,123.9,-6.96
661,1778614220.802192,0.07,0.45,-0.23,370.12,123.9,-6.96
662,1778614220.812201,0.07,0.45,-0.23,370.12,123.9,-6.96
663,1778614220.8222258,1.53,0.62,-0.66,90.27,-334.59,151.49
664,1778614220.832255,1.77,0.64,-0.35,-375.55,69.7,-19.84
665,1778614220.842273,1.77,0.64,-0.35,-375.55,69.7,-19.84
666,1778614220.85218,1.77,0.64,-0.35,-375.55,69.7,-19.84
667,1778614220.8622148,0.15,0.26,-0.26,-25.33,11.66,58.72
668,1778614220.872262,0.15,0.26,-0.26,-25.33,11.66,58.72
669,1778614220.882278,0.15,0.26,-0.26,-25.33,11.66,58.72
670,1778614220.892183,0.15,0.26,-0.26,-25.33,11.66,58.72
671,1778614220.902221,1.7,0.76,-0.47,-9.34,132.45,-137.15
672,1778614220.912228,1.7,0.76,-0.47,-9.34,132.45,-137.15
673,1778614220.9222422,1.7,0.76,-0.47,-9.34,132.45,-137.15
674,1778614220.932294,1.7,0.76,-0.47,-9.34,132.45,-137.15
675,1778614220.942274,1.58,0.4,-0.76,104.68,100.34,-75.81
676,1778614220.952242,1.58,0.4,-0.76,104.68,100.34,-75.81
677,1778614220.962193,1.58,0.4,-0.76,104.68,100.34,-75.81
678,1778614220.972262,1.58,0.4,-0.76,104.68,100.34,-75.81
679,1778614220.982272,0.74,0.28,-0.32,103.7,37.84,-86.98
680,1778614220.992291,0.74,0.28,-0.32,103.7,37.84,-86.98
681,1778614221.002198,0.74,0.28,-0.32,103.7,37.84,-86.98
682,1778614221.012248,0.74,0.28,-0.32,103.7,37.84,-86.98
683,1778614221.022173,0.81,0.16,-0.35,103.7,37.84,-86.98
684,1778614221.032209,0.81,0.16,-0.35,134.28,25.76,-110.72
685,1778614221.042232,0.81,0.16,-0.35,134.28,25.76,-110.72
686,1778614221.052201,0.61,0.16,-0.21,134.28,25.76,-110.72
687,1778614221.0622652,0.61,0.16,-0.21,125.24,-38.94,-99.18
688,1778614221.072286,0.61,0.16,-0.21,125.24,-38.94,-99.18
689,1778614221.08222,0.61,0.16,-0.21,125.24,-38.94,-99.18
690,1778614221.092244,0.61,0.16,-0.21,125.24,-38.94,-99.18
691,1778614221.102287,0.61,0.16,-0.21,125.24,-38.94,-99.18
692,1778614221.112301,0.61,0.16,-0.21,125.24,-38.94,-99.18
693,1778614221.122211,0.61,0.16,-0.21,125.24,-38.94,-99.18
694,1778614221.132256,0.61,0.16,-0.21,125.24,-38.94,-99.18
695,1778614221.1422641,0.61,0.16,-0.21,125.24,-38.94,-99.18
696,1778614221.152291,1.26,-0.57,3.54,-435.67,-198.18,16.66
697,1778614221.16221,1.26,-0.57,3.54,-435.67,-198.18,16.66
698,1778614221.172229,1.35,-0.29,0.43,95.83,37.48,64.64
699,1778614221.18226,1.35,-0.29,0.43,95.83,37.48,64.64
700,1778614221.192276,1.35,-0.29,0.43,95.83,37.48,64.64
701,1778614221.202184,1.35,-0.29,0.43,95.83,37.48,64.64
702,1778614221.212202,2.3,-0.26,-0.12,285.34,121.64,45.65
703,1778614221.2222369,2.3,-0.26,-0.12,285.34,121.64,45.65
704,1778614221.232272,2.3,-0.26,-0.12,285.34,121.64,45.65
705,1778614221.242177,2.3,-0.26,-0.12,285.34,121.64,45.65
706,1778614221.252204,1.45,0.38,-0.68,18.31,10.56,120.42
707,1778614221.262227,1.45,0.38,-0.68,18.31,10.56,120.42
708,1778614221.272278,1.45,0.38,-0.68,18.31,10.56,120.42
709,1778614221.282179,1.45,0.38,-0.68,18.31,10.56,120.42
710,1778614221.292214,1.45,0.38,-0.68,18.31,10.56,120.42
711,1778614221.302218,1.45,0.38,-0.68,18.31,10.56,120.42
712,1778614221.312238,1.45,0.38,-0.68,18.31,10.56,120.42
713,1778614221.3222568,1.45,0.38,-0.68,18.31,10.56,120.42
714,1778614221.3321989,1.45,0.38,-0.68,18.31,10.56,120.42
715,1778614221.342279,1.9,1.0,-0.15,256.23,-54.14,200.13
716,1778614221.352291,1.9,1.0,-0.15,256.23,-54.14,200.13
717,1778614221.362184,1.06,1.63,-0.66,262.39,-88.2,5.25
718,1778614221.372215,1.06,1.63,-0.66,262.39,-88.2,5.25
719,1778614221.382258,1.06,1.63,-0.66,262.39,-88.2,5.25
720,1778614221.392286,1.06,1.63,-0.66,262.39,-88.2,5.25
721,1778614221.40219,0.05,0.99,-0.24,-53.89,-59.81,-88.38
722,1778614221.4122171,0.05,0.99,-0.24,-53.89,-59.81,-88.38
723,1778614221.422236,0.05,0.99,-0.24,-53.89,-59.81,-88.38
724,1778614221.4322639,0.05,0.99,-0.24,-53.89,-59.81,-88.38
725,1778614221.442168,-0.27,0.33,-0.14,1.59,41.93,-146.06
726,1778614221.452199,-0.27,0.33,-0.14,1.59,41.93,-146.06
727,1778614221.462219,-0.27,0.33,-0.14,1.59,41.93,-146.06
728,1778614221.472265,-0.27,0.33,-0.14,1.59,41.93,-146.06
729,1778614221.482177,-0.31,-0.01,-0.08,145.08,62.32,-26.92
730,1778614221.492196,-0.31,-0.01,-0.08,145.08,62.32,-26.92
731,1778614221.502201,-0.31,-0.01,-0.08,145.08,62.32,-26.92
732,1778614221.512214,-0.31,-0.01,-0.08,145.08,62.32,-26.92
733,1778614221.52224,-0.01,-0.23,0.49,400.09,136.84,70.5
734,1778614221.532286,-0.01,-0.23,0.49,400.09,136.84,70.5
735,1778614221.542281,-0.01,-0.23,0.49,400.09,136.84,70.5
736,1778614221.552202,-0.01,-0.23,0.49,400.09,136.84,70.5
737,1778614221.5622451,-0.01,-0.23,0.49,400.09,136.84,70.5
738,1778614221.572278,0.27,0.85,-0.29,400.09,136.84,70.5
739,1778614221.582198,0.27,0.85,-0.29,400.09,136.84,70.5
740,1778614221.592279,0.27,0.85,-0.29,400.09,136.84,70.5
741,1778614221.602206,0.27,0.85,-0.29,400.09,136.84,70.5
742,1778614221.6122482,0.27,0.85,-0.29,400.09,136.84,70.5
743,1778614221.622178,0.27,0.85,-0.29,400.09,136.84,70.5
744,1778614221.6322281,0.27,0.85,-0.29,400.09,136.84,70.5
745,1778614221.642266,0.27,0.85,-0.29,400.09,136.84,70.5
746,1778614221.6521978,0.27,0.85,-0.29,400.09,136.84,70.5
747,1778614221.662282,0.27,0.85,-0.29,400.09,136.84,70.5
748,1778614221.672222,0.27,0.85,-0.29,400.09,136.84,70.5
749,1778614221.6821802,1.36,0.45,-0.35,-69.64,128.72,-133.73
750,1778614221.692224,1.36,0.45,-0.35,-69.64,128.72,-133.73
751,1778614221.702276,1.36,0.45,-0.35,-69.64,128.72,-133.73
752,1778614221.712194,1.72,0.35,-0.37,3.11,128.3,-128.54
753,1778614221.722236,1.72,0.35,-0.37,3.11,128.3,-128.54
754,1778614221.732181,1.72,0.35,-0.37,3.11,128.3,-128.54
755,1778614221.742212,1.11,-0.01,-0.32,3.11,128.3,-128.54
756,1778614221.752256,1.11,-0.01,-0.32,173.03,76.35,-72.08
757,1778614221.762182,1.11,-0.01,-0.32,173.03,76.35,-72.08
758,1778614221.7722518,1.11,-0.01,-0.32,173.03,76.35,-72.08
759,1778614221.782169,0.75,0.03,-0.11,173.03,76.35,-72.08
760,1778614221.792216,0.75,0.03,-0.11,173.03,76.35,-72.08
761,1778614221.8022962,0.75,0.03,-0.11,173.03,76.35,-72.08
762,1778614221.812193,0.75,0.03,-0.11,173.03,76.35,-72.08
763,1778614221.8221939,0.75,0.03,-0.11,173.03,76.35,-72.08
764,1778614221.8321888,0.75,0.03,-0.11,173.03,76.35,-72.08
765,1778614221.842169,0.75,0.03,-0.11,173.03,76.35,-72.08
766,1778614221.852285,0.75,0.03,-0.11,173.03,76.35,-72.08
767,1778614221.862258,0.75,0.03,-0.11,173.03,76.35,-72.08
768,1778614221.872242,0.77,-0.01,-0.04,144.23,-108.83,-31.98
769,1778614221.8822348,0.77,-0.01,-0.04,144.23,-108.83,-31.98
770,1778614221.892263,0.77,-0.01,-0.04,144.23,-108.83,-31.98
771,1778614221.902273,1.42,-0.55,1.18,-1136.72,-932.43,-61.46
772,1778614221.91227,1.42,-0.55,1.18,-1136.72,-932.43,-61.46
773,1778614221.92226,1.42,-0.55,1.18,-1136.72,-932.43,-61.46
774,1778614221.93227,1.42,-0.55,1.18,-1136.72,-932.43,-61.46
775,1778614221.942173,0.49,-0.78,0.38,-234.68,-58.65,210.57
776,1778614221.9522,0.49,-0.78,0.38,-234.68,-58.65,210.57
777,1778614221.9622452,0.49,-0.78,0.38,-234.68,-58.65,210.57
778,1778614221.972262,0.49,-0.78,0.38,-234.68,-58.65,210.57
779,1778614221.9822578,2.61,-0.25,-0.51,469.12,471.56,71.35
780,1778614221.992278,2.61,-0.25,-0.51,469.12,471.56,71.35
781,1778614222.002271,2.61,-0.25,-0.51,469.12,471.56,71.35
782,1778614222.01223,2.03,0.45,-0.34,469.12,471.56,71.35
783,1778614222.0222132,2.03,0.45,-0.34,520.39,95.95,209.59
784,1778614222.03228,2.03,0.45,-0.34,520.39,95.95,209.59
785,1778614222.0421991,2.03,0.45,-0.34,520.39,95.95,209.59
786,1778614222.052223,2.67,0.52,-0.83,305.66,304.87,168.76
787,1778614222.062289,2.67,0.52,-0.83,305.66,304.87,168.76
788,1778614222.072178,2.67,0.52,-0.83,305.66,304.87,168.76
789,1778614222.082218,2.67,0.52,-0.83,305.66,304.87,168.76
790,1778614222.092243,1.46,1.03,-0.52,124.33,150.39,83.68
791,1778614222.102266,1.46,1.03,-0.52,124.33,150.39,83.68
792,1778614222.112278,1.46,1.03,-0.52,124.33,150.39,83.68
793,1778614222.1221728,1.46,1.03,-0.52,124.33,150.39,83.68
794,1778614222.132195,1.46,1.03,-0.52,124.33,150.39,83.68
795,1778614222.14222,1.46,1.03,-0.52,124.33,150.39,83.68
796,1778614222.152247,1.46,1.03,-0.52,124.33,150.39,83.68
797,1778614222.162178,1.46,1.03,-0.52,124.33,150.39,83.68
798,1778614222.172204,1.46,1.03,-0.52,124.33,150.39,83.68
799,1778614222.182254,1.46,1.03,-0.52,124.33,150.39,83.68
800,1778614222.19227,1.46,1.03,-0.52,124.33,150.39,83.68
801,1778614222.202178,-0.12,0.49,-0.22,-122.25,-134.34,13.49
802,1778614222.212227,-0.12,0.49,-0.22,6.41,-104.06,5.62
803,1778614222.222239,-0.12,0.49,-0.22,6.41,-104.06,5.62
804,1778614222.232286,-0.12,0.49,-0.22,6.41,-104.06,5.62
805,1778614222.24218,-0.2,0.28,-0.09,214.66,-13.79,16.3
806,1778614222.252196,-0.2,0.28,-0.09,214.66,-13.79,16.3
807,1778614222.2622,-0.2,0.28,-0.09,214.66,-13.79,16.3
808,1778614222.272248,-0.2,0.28,-0.09,214.66,-13.79,16.3
809,1778614222.282272,-0.02,0.29,-0.12,214.66,-13.79,16.3
810,1778614222.292288,-0.02,0.29,-0.12,325.26,-110.47,35.46
811,1778614222.302177,-0.02,0.29,-0.12,325.26,-110.47,35.46
812,1778614222.312196,-0.02,0.29,-0.12,325.26,-110.47,35.46
813,1778614222.322219,-0.02,0.29,-0.12,325.26,-110.47,35.46
814,1778614222.3322382,-0.02,0.29,-0.12,325.26,-110.47,35.46
815,1778614222.342174,-0.02,0.29,-0.12,325.26,-110.47,35.46
816,1778614222.352202,-0.02,0.29,-0.12,325.26,-110.47,35.46
817,1778614222.362248,-0.02,0.29,-0.12,325.26,-110.47,35.46
818,1778614222.372174,-0.02,0.29,-0.12,325.26,-110.47,35.46
819,1778614222.38224,-0.02,0.29,-0.12,325.26,-110.47,35.46
820,1778614222.3922539,-0.02,0.29,-0.12,325.26,-110.47,35.46
821,1778614222.402168,0.29,0.43,-0.52,-136.9,-46.26,51.27
822,1778614222.4121711,0.29,0.43,-0.52,-136.9,-46.26,51.27
823,1778614222.4221928,0.29,0.43,-0.52,-136.9,-46.26,51.27
824,1778614222.432236,0.29,0.43,-0.52,-136.9,-46.26,51.27
825,1778614222.442283,1.38,0.55,-0.44,-332.52,-49.44,22.46
826,1778614222.4521961,1.38,0.55,-0.44,-332.52,-49.44,22.46
827,1778614222.462213,1.38,0.55,-0.44,-332.52,-49.44,22.46
828,1778614222.472237,1.48,0.24,-0.72,-332.52,-49.44,22.46
829,1778614222.4822662,1.48,0.24,-0.72,-23.74,159.0,-65.8
830,1778614222.492167,1.48,0.24,-0.72,-23.74,159.0,-65.8
831,1778614222.502201,1.48,0.24,-0.72,-23.74,159.0,-65.8
832,1778614222.512212,0.81,0.2,-0.45,195.19,82.89,-123.11
833,1778614222.52225,0.81,0.2,-0.45,195.19,82.89,-123.11
834,1778614222.532279,0.81,0.2,-0.45,195.19,82.89,-123.11
835,1778614222.542284,0.81,0.2,-0.45,195.19,82.89,-123.11
836,1778614222.55218,0.81,0.2,-0.45,195.19,82.89,-123.11
837,1778614222.562195,0.94,0.1,-0.18,200.74,-26.31,-140.93
838,1778614222.572223,0.94,0.1,-0.18,200.74,-26.31,-140.93
839,1778614222.5822861,0.94,0.1,-0.18,200.74,-26.31,-140.93
840,1778614222.5922089,1.12,0.2,-0.14,241.64,-53.47,-108.89
841,1778614222.6022542,1.12,0.2,-0.14,241.64,-53.47,-108.89
842,1778614222.612266,1.12,0.2,-0.14,241.64,-53.47,-108.89
843,1778614222.622292,1.12,0.2,-0.14,241.64,-53.47,-108.89
844,1778614222.63221,1.02,0.14,-0.15,241.09,-86.3,-81.3
845,1778614222.642273,1.02,0.14,-0.15,241.09,-86.3,-81.3
846,1778614222.6521878,1.02,0.14,-0.15,241.09,-86.3,-81.3
847,1778614222.66227,1.02,0.14,-0.15,241.09,-86.3,-81.3
848,1778614222.67222,1.02,0.14,-0.15,241.09,-86.3,-81.3
849,1778614222.682272,1.02,0.14,-0.15,241.09,-86.3,-81.3
850,1778614222.6921961,1.02,0.14,-0.15,241.09,-86.3,-81.3
851,1778614222.702261,1.02,0.14,-0.15,241.09,-86.3,-81.3
852,1778614222.712179,1.02,0.14,-0.15,241.09,-86.3,-81.3
853,1778614222.7222369,1.02,0.14,-0.15,241.09,-86.3,-81.3
854,1778614222.732189,0.3,-0.2,-0.63,8.24,293.03,89.84
855,1778614222.7422311,1.72,-0.58,-0.66,8.24,293.03,89.84
856,1778614222.752269,1.72,-0.58,-0.66,473.14,176.76,126.77
857,1778614222.762183,1.72,-0.58,-0.66,473.14,176.76,126.77
858,1778614222.772223,1.72,-0.58,-0.66,473.14,176.76,126.77
859,1778614222.782293,2.89,0.1,-0.96,518.31,297.55,202.39
860,1778614222.792223,2.89,0.1,-0.96,518.31,297.55,202.39
861,1778614222.8021739,2.89,0.1,-0.96,518.31,297.55,202.39
862,1778614222.8122072,2.89,0.1,-0.96,518.31,297.55,202.39
863,1778614222.82225,2.59,0.35,-0.46,372.92,264.22,124.02
864,1778614222.832196,2.59,0.35,-0.46,372.92,264.22,124.02
865,1778614222.842231,2.59,0.35,-0.46,372.92,264.22,124.02
866,1778614222.852243,2.59,0.35,-0.46,372.92,264.22,124.02
867,1778614222.86228,2.59,0.35,-0.46,372.92,264.22,124.02
868,1778614222.872204,2.59,0.35,-0.46,372.92,264.22,124.02
869,1778614222.882255,2.59,0.35,-0.46,372.92,264.22,124.02
870,1778614222.8922648,2.59,0.35,-0.46,372.92,264.22,124.02
871,1778614222.902184,2.59,0.35,-0.46,372.92,264.22,124.02
872,1778614222.9122298,2.59,0.35,-0.46,372.92,264.22,124.02
873,1778614222.9221702,0.68,0.72,-0.87,-315.0,-58.17,61.28
874,1778614222.9322271,0.68,0.72,-0.87,-315.0,-58.17,61.28
875,1778614222.9422688,0.2,0.76,-0.69,-92.71,-96.8,40.83
876,1778614222.952178,0.2,0.76,-0.69,-92.71,-96.8,40.83
877,1778614222.962223,0.2,0.76,-0.69,-92.71,-96.8,40.83
878,1778614222.972266,0.2,0.76,-0.69,-92.71,-96.8,40.83
879,1778614222.982178,0.12,0.74,-0.24,142.76,-86.73,-0.06
880,1778614222.992222,0.12,0.74,-0.24,142.76,-86.73,-0.06
881,1778614223.002254,0.12,0.74,-0.24,142.76,-86.73,-0.06
882,1778614223.0121758,0.12,0.74,-0.24,142.76,-86.73,-0.06
883,1778614223.022235,-0.15,0.57,-0.15,197.14,14.47,-0.92
884,1778614223.032277,-0.15,0.57,-0.15,197.14,14.47,-0.92
885,1778614223.042203,-0.15,0.57,-0.15,197.14,14.47,-0.92
886,1778614223.052288,-0.02,0.34,-0.15,180.18,10.86,31.31
887,1778614223.062175,-0.02,0.34,-0.15,180.18,10.86,31.31
888,1778614223.0722618,-0.02,0.34,-0.15,180.18,10.86,31.31
889,1778614223.0822349,-0.02,0.34,-0.15,180.18,10.86,31.31
890,1778614223.092253,0.14,0.41,-0.25,180.18,10.86,31.31
891,1778614223.1022668,0.14,0.41,-0.25,195.31,-139.47,2.44
892,1778614223.112282,0.14,0.41,-0.25,195.31,-139.47,2.44
893,1778614223.122197,0.14,0.41,-0.25,195.31,-139.47,2.44
894,1778614223.132231,6.69,3.01,4.96,381.9,-327.45,-32.84
895,1778614223.142236,6.69,3.01,4.96,381.9,-327.45,-32.84
896,1778614223.1522439,6.69,3.01,4.96,381.9,-327.45,-32.84
897,1778614223.1622882,6.69,3.01,4.96,381.9,-327.45,-32.84
898,1778614223.172178,6.69,3.01,4.96,381.9,-327.45,-32.84
899,1778614223.182194,6.69,3.01,4.96,381.9,-327.45,-32.84
900,1778614223.192202,6.69,3.01,4.96,381.9,-327.45,-32.84
901,1778614223.2022212,6.69,3.01,4.96,381.9,-327.45,-32.84
902,1778614223.2122371,6.69,3.01,4.96,381.9,-327.45,-32.84
903,1778614223.2222579,6.69,3.01,4.96,381.9,-327.45,-32.84
904,1778614223.2322822,6.69,3.01,4.96,381.9,-327.45,-32.84
905,1778614223.242294,6.69,3.01,4.96,381.9,-327.45,-32.84
906,1778614223.2522151,1.88,0.57,-0.84,-278.5,33.63,-57.56
907,1778614223.262225,1.88,0.57,-0.84,-278.5,33.63,-57.56
908,1778614223.272238,1.88,0.57,-0.84,-278.5,33.63,-57.56
909,1778614223.2822552,1.08,0.31,-0.54,-278.5,33.63,-57.56
910,1778614223.292296,1.08,0.31,-0.54,-115.23,10.25,-38.27
911,1778614223.302193,1.08,0.31,-0.54,-115.23,10.25,-38.27
912,1778614223.312225,1.08,0.31,-0.54,-115.23,10.25,-38.27
913,1778614223.3222258,1.0,0.05,-0.45,126.95,72.81,-117.0
914,1778614223.332279,1.0,0.05,-0.45,126.95,72.81,-117.0
915,1778614223.3422,1.0,0.05,-0.45,126.95,72.81,-117.0
916,1778614223.352187,1.0,0.05,-0.45,126.95,72.81,-117.0
917,1778614223.3621728,1.0,0.05,-0.45,126.95,72.81,-117.0
918,1778614223.372191,1.0,0.05,-0.45,126.95,72.81,-117.0
919,1778614223.3822348,1.0,0.05,-0.45,126.95,72.81,-117.0
920,1778614223.3922439,1.0,0.05,-0.45,126.95,72.81,-117.0
921,1778614223.402167,1.0,0.05,-0.45,126.95,72.81,-117.0
922,1778614223.4121778,1.0,0.05,-0.45,126.95,72.81,-117.0
923,1778614223.422204,1.0,0.05,-0.45,126.95,72.81,-117.0
924,1778614223.432215,1.0,0.05,-0.45,126.95,72.81,-117.0
925,1778614223.4422421,0.76,0.01,-0.33,-316.04,-37.11,95.46
926,1778614223.4522712,0.76,0.01,-0.33,-316.04,-37.11,95.46
927,1778614223.4622772,0.76,0.01,-0.33,-316.04,-37.11,95.46
928,1778614223.472183,0.76,0.01,-0.33,-316.04,-37.11,95.46
929,1778614223.482212,0.22,-0.61,-0.9,-316.04,-37.11,95.46
930,1778614223.492231,0.22,-0.61,-0.9,298.4,203.67,62.07
931,1778614223.50228,0.22,-0.61,-0.9,298.4,203.67,62.07
932,1778614223.512176,0.22,-0.61,-0.9,298.4,203.67,62.07
933,1778614223.5222158,1.26,-0.35,-0.11,437.56,114.07,69.64
934,1778614223.5322618,1.26,-0.35,-0.11,437.56,114.07,69.64
935,1778614223.542274,1.26,-0.35,-0.11,437.56,114.07,69.64
936,1778614223.552186,1.26,-0.35,-0.11,437.56,114.07,69.64
937,1778614223.562216,2.92,-0.04,-0.93,375.24,299.56,181.15
938,1778614223.572242,2.92,-0.04,-0.93,375.24,299.56,181.15
939,1778614223.582217,2.92,-0.04,-0.93,375.24,299.56,181.15
940,1778614223.5922592,2.22,0.16,-0.32,375.24,299.56,181.15
941,1778614223.6021912,2.22,0.16,-0.32,272.89,239.99,78.06
942,1778614223.612227,2.22,0.16,-0.32,272.89,239.99,78.06
943,1778614223.62218,2.22,0.16,-0.32,272.89,239.99,78.06
944,1778614223.632236,1.74,0.51,-0.61,304.87,210.88,79.28
945,1778614223.6422899,1.74,0.51,-0.61,304.87,210.88,79.28
946,1778614223.652215,1.74,0.51,-0.61,304.87,210.88,79.28
947,1778614223.662267,1.74,0.51,-0.61,304.87,210.88,79.28
948,1778614223.6721961,1.04,0.83,-1.09,-172.3,-16.24,-29.3
949,1778614223.682262,1.04,0.83,-1.09,-172.3,-16.24,-29.3
950,1778614223.692193,1.04,0.83,-1.09,-172.3,-16.24,-29.3
951,1778614223.702267,1.04,0.83,-1.09,-172.3,-16.24,-29.3
952,1778614223.7121868,1.04,0.83,-1.09,-172.3,-16.24,-29.3
953,1778614223.7222521,1.04,0.83,-1.09,-172.3,-16.24,-29.3
954,1778614223.732278,1.04,0.83,-1.09,-172.3,-16.24,-29.3
955,1778614223.742281,1.04,0.83,-1.09,-172.3,-16.24,-29.3
956,1778614223.752173,1.04,0.83,-1.09,-172.3,-16.24,-29.3
957,1778614223.762219,1.04,0.83,-1.09,-172.3,-16.24,-29.3
958,1778614223.7722912,1.04,0.83,-1.09,-172.3,-16.24,-29.3
959,1778614223.782227,0.09,0.67,-0.29,104.98,-186.16,43.21
960,1778614223.792175,-0.08,0.57,-0.14,77.7,-214.72,-14.77
961,1778614223.8022652,-0.08,0.57,-0.14,77.7,-214.72,-14.77
962,1778614223.812172,-0.08,0.57,-0.14,77.7,-214.72,-14.77
963,1778614223.8221781,-0.08,0.57,-0.14,77.7,-214.72,-14.77
964,1778614223.832208,0.19,0.41,-0.06,188.29,-197.88,-6.65
965,1778614223.8422358,0.19,0.41,-0.06,188.29,-197.88,-6.65
966,1778614223.852295,0.19,0.41,-0.06,188.29,-197.88,-6.65
967,1778614223.862169,0.19,0.41,-0.06,188.29,-197.88,-6.65
968,1778614223.872239,2.01,0.52,2.45,677.43,138.98,-146.3
969,1778614223.8821802,2.01,0.52,2.45,677.43,138.98,-146.3
970,1778614223.8922188,2.01,0.52,2.45,677.43,138.98,-146.3
971,1778614223.902261,2.01,0.52,2.45,677.43,138.98,-146.3
972,1778614223.912263,2.01,0.52,2.45,677.43,138.98,-146.3
973,1778614223.9221718,2.01,0.52,2.45,677.43,138.98,-146.3
974,1778614223.9321868,2.01,0.52,2.45,677.43,138.98,-146.3
975,1778614223.9421911,2.01,0.52,2.45,677.43,138.98,-146.3
976,1778614223.9522119,2.01,0.52,2.45,677.43,138.98,-146.3
977,1778614223.962237,2.01,0.52,2.45,677.43,138.98,-146.3
978,1778614223.972264,0.81,0.86,-0.4,-165.59,-69.89,21.06
979,1778614223.982186,0.81,0.86,-0.4,-165.59,-69.89,21.06
980,1778614223.992188,0.81,0.86,-0.4,-165.59,-69.89,21.06
981,1778614224.0022101,0.81,0.86,-0.4,-165.59,-69.89,21.06
982,1778614224.0122392,1.53,1.04,-0.82,-302.49,97.96,-73.3
983,1778614224.0222888,1.53,1.04,-0.82,-302.49,97.96,-73.3
984,1778614224.032166,1.53,1.04,-0.82,-302.49,97.96,-73.3
985,1778614224.042219,1.53,1.04,-0.82,-302.49,97.96,-73.3
986,1778614224.052253,1.34,0.39,-0.72,-42.11,131.04,-11.6
987,1778614224.062273,1.34,0.39,-0.72,-42.11,131.04,-11.6
988,1778614224.072292,1.34,0.39,-0.72,-42.11,131.04,-11.6
989,1778614224.0822852,1.34,0.39,-0.72,-42.11,131.04,-11.6
990,1778614224.092177,1.08,0.21,-0.23,53.47,85.69,-73.43
991,1778614224.1022148,1.08,0.21,-0.23,53.47,85.69,-73.43
992,1778614224.112281,1.08,0.21,-0.23,53.47,85.69,-73.43
993,1778614224.1222908,1.08,0.21,-0.23,53.47,85.69,-73.43
994,1778614224.132255,1.08,0.21,-0.23,53.47,85.69,-73.43
995,1778614224.142285,0.81,0.08,-0.22,223.14,87.59,-123.47
996,1778614224.152274,0.81,0.08,-0.22,223.14,87.59,-123.47
997,1778614224.162179,0.68,0.06,-0.17,272.16,-100.59,-125.67
998,1778614224.1722372,0.68,0.06,-0.17,272.16,-100.59,-125.67
999,1778614224.182271,0.68,0.06,-0.17,272.16,-100.59,-125.67
1000,1778614224.1921751,0.68,0.06,-0.17,272.16,-100.59,-125.67
