id,timestamp,acc_x,acc_y,acc_z,gyro_x,gyro_y,gyro_z
1,1778604400.599051,2.97523450,0.32001868,0.40386504,-4.10638570,0.48013970,-5.52573000
2,1778604400.609498,2.93230500,0.23464784,0.73364040,-3.84004880,0.89430606,-6.06451270
3,1778604400.6195276,2.76010000,0.17074168,1.17025110,-3.42343900,1.25105110,-6.36261460
4,1778604400.6292906,2.63131210,0.16976601,1.43807170,-2.79058310,1.49784040,-6.53976600
5,1778604400.639305,2.53569670,0.22391550,2.19714020,-1.40880690,1.39521520,-6.59352160
6,1778604400.6491497,2.53569670,0.22391550,2.19714020,-0.29581127,0.93462310,-6.58985660
7,1778604400.6591587,2.60789600,0.12342183,2.16494350,0.99189170,0.10751220,-6.67049070
8,1778604400.6693008,2.69424270,-0.02000117,1.96932220,2.23683400,-0.86009760,-6.82198520
9,1778604400.6793237,2.80498080,-0.17122951,1.50051440,2.45308020,-0.78312860,-6.93560600
10,1778604400.6893346,2.80498080,-0.17122951,1.50051440,2.45308020,-0.78312860,-6.93560600
11,1778604400.6995454,2.89181520,-0.19220634,1.40392340,2.13665220,-0.10873393,-7.00646640
12,1778604400.709579,2.89181520,-0.19220634,1.40392340,2.13665220,-0.10873393,-7.00646640
13,1778604400.7191024,2.89181520,-0.19220634,1.40392340,2.13665220,-0.10873393,-7.00646640
14,1778604400.7291079,2.91181610,-0.35270350,1.58588520,2.10733080,0.23090689,-7.04922680
15,1778604400.7391353,2.82059120,-0.42343935,1.64198600,2.24294280,0.17348559,-7.05533550
16,1778604400.7492077,2.57423570,-0.44197700,1.71174620,2.51783180,0.11606431,-6.87818500
17,1778604400.759223,2.43276400,-0.43368387,1.74443100,2.85869460,0.09773836,-6.63017370
18,1778604400.769271,2.33129450,-0.45466065,1.72784470,3.19344830,0.03543016,-6.43958400
19,1778604400.779466,2.23275200,-0.47856450,1.69028160,3.57096270,-0.05619956,-6.26854200
20,1778604400.789205,1.98151790,-0.54295850,1.52197910,4.04010700,-0.21258095,-6.06451270
21,1778604400.7995248,1.49319680,-0.56881370,1.19122800,4.76337100,-0.72448564,-5.62346840
22,1778604400.809533,1.49319680,-0.56881370,1.19122800,4.76337100,-0.72448564,-5.62346840
23,1778604400.8192234,1.26489090,-0.62101185,0.93706685,5.09812450,-1.21684270,-5.27771900
24,1778604400.8292503,0.78681420,-0.59320533,0.36825320,4.99916460,-1.71164310,-4.75359700
25,1778604400.839347,0.64339120,-0.56100833,0.20238985,4.75848400,-1.72386040,-4.50314240
26,1778604400.849389,0.64339120,-0.56100833,0.20238985,4.75848400,-1.72386040,-4.50314240
27,1778604400.85967,0.50045604,-0.53564100,0.04530752,4.37241740,-1.55526170,-4.22703170
28,1778604400.8692613,0.39459620,-0.52637213,-0.02298915,3.97779870,-1.28525950,-4.01078560
29,1778604400.8794465,0.30776188,-0.52295730,-0.04689298,3.78476550,-1.10077830,-3.91304700
30,1778604400.889232,0.20092636,-0.54539764,-0.07957781,3.53553270,-0.77702000,-3.79453920
31,1778604400.8992958,0.07165052,-0.57857037,-0.14006914,3.39136860,-0.65118190,-3.72856600
32,1778604400.9094975,-0.07567514,-0.59222966,-0.16397297,3.24598260,-0.75014200,-3.60394950
33,1778604400.9193816,-0.17958365,-0.59174186,-0.16885132,3.12991830,-0.92973620,-3.46955920
34,1778604400.9291844,-0.25129515,-0.57320416,-0.15128931,3.01263240,-1.12765630,-3.30706930
35,1778604400.9393413,-0.32349450,-0.52100600,-0.11275049,2.86113790,-1.32557650,-3.06638840
36,1778604400.9492595,-0.30105415,-0.49661437,-0.06640632,2.69009570,-1.45019290,-2.82448600
37,1778604400.9591885,-0.23958716,-0.47954020,-0.01225681,2.55937080,-1.47707100,-2.67543500
38,1778604400.9693227,-0.11226265,-0.47807667,0.08091935,2.42864560,-1.42087150,-2.57280970
39,1778604400.9798872,0.03799002,-0.54198290,0.08433419,2.30647280,-0.79412420,-2.65955260
40,1778604400.989425,0.03799002,-0.54198290,0.08433419,2.30647280,-0.79412420,-2.65955260
41,1778604400.9996703,-0.08982231,-0.64735484,-0.01372031,2.06823540,0.07330377,-2.84036850
42,1778604401.0092542,-0.08982231,-0.64735484,-0.01372031,2.06823540,0.07330377,-2.84036850
43,1778604401.0194933,-0.22885482,-0.65711150,-0.02006215,1.94728420,0.22724170,-2.84525540
44,1778604401.0294254,-0.34642264,-0.66735600,-0.02006215,1.85443270,0.17348559,-2.73896500
45,1778604401.0395772,-0.43618400,-0.66394120,-0.03713631,1.68094720,-0.38606653,-2.31502490
46,1778604401.049311,-0.43081784,-0.66394120,-0.04347815,1.66872990,-0.64751667,-2.07556580
47,1778604401.0595133,-0.43081784,-0.66394120,-0.04347815,1.66872990,-0.64751667,-2.07556580
48,1778604401.069548,-0.39862080,-0.67516136,-0.09713981,1.68827750,-0.79901110,-1.85443270
49,1778604401.079573,-0.34056866,-0.66540470,-0.28349215,1.68461240,-0.92240584,-1.55877420
50,1778604401.089125,-0.27324766,-0.70882183,-0.42350030,1.68461240,-0.92240584,-1.55877420
51,1778604401.0994358,-0.27324766,-0.70882183,-0.42350030,1.59909130,-1.01037040,-1.46347930
52,1778604401.1095722,-0.18543765,-0.77955765,-0.52789670,1.46470100,-1.09711310,-1.44148810
53,1778604401.1194441,-0.14445965,-0.89468634,-0.65717250,1.25089840,-1.25838150,-1.51357020
54,1778604401.1296644,-0.29861498,-1.04201200,-0.88011235,1.01876970,-1.23516860,-1.60153470
55,1778604401.1391623,-0.64839150,-1.18543500,-1.16305570,0.48731738,-0.89919290,-1.55144380
56,1778604401.1493354,-1.26159800,-1.31958910,-1.26403730,-0.46929687,-0.40072730,-0.98822650
57,1778604401.1593454,-1.26159800,-1.31958910,-1.26403730,-0.46929687,-0.40072730,-0.98822650
58,1778604401.1697128,-1.48795260,-1.40300870,-1.27281820,-0.76006850,-0.26145010,-0.62048590
59,1778604401.1791055,-1.48795260,-1.40300870,-1.27281820,-0.76006850,-0.26145010,-0.62048590
60,1778604401.1891372,-1.86260870,-1.58740970,-1.26306150,-1.29640780,0.15393792,0.44364056
61,1778604401.1992478,-2.19287180,-1.64936460,-1.10988190,-1.29029920,0.13072506,1.63360510
62,1778604401.2092671,-2.19287180,-1.64936460,-1.10988190,-1.29029920,0.13072506,1.63360510
63,1778604401.2193358,-2.19335960,-1.62155810,-1.05134180,-1.18889560,-0.20769402,2.29456100
64,1778604401.2295775,-1.88700040,-1.63619300,-0.99914366,-1.07771810,-0.60353440,2.97872950
65,1778604401.2392437,-1.88700040,-1.63619300,-0.99914366,-0.98120150,-0.85521066,3.75941470
66,1778604401.2494915,-0.95328736,-1.62497290,-1.03329190,-1.12658740,-0.32253662,4.78566740
67,1778604401.2592192,-0.95328736,-1.62497290,-1.03329190,-1.12658740,-0.32253662,4.78566740
68,1778604401.2694147,-0.72449350,-1.54984650,-1.04158520,-1.42102420,0.27244568,4.96159650
69,1778604401.279586,-0.65717250,-1.51960090,-1.04695130,-1.74966940,0.80145460,5.07643900
70,1778604401.2892468,-0.46642965,-1.51228340,-1.04841480,-2.32266070,1.48928830,5.24259420
71,1778604401.2991743,-0.34105647,-1.55911530,-0.92206600,-3.08135460,2.10381840,5.42829700
72,1778604401.3095114,-0.24056281,-1.61131360,-0.67814934,-3.74353220,2.38359430,5.63110450
73,1778604401.3190782,0.00335385,-1.69961130,-0.23129399,-4.39715700,2.49477170,5.99762300
74,1778604401.329278,0.21019518,-1.74010150,0.04823452,-4.68426370,2.45934150,6.27739900
75,1778604401.3393822,0.71120000,-1.80644690,0.61753600,-4.71114200,2.47400240,6.69278700
76,1778604401.349243,0.96389776,-1.84449780,0.86828244,-4.56209100,2.38603780,6.99455450
77,1778604401.3591475,1.26196400,-1.85083970,1.09853970,-4.22978070,2.07938360,7.37084700
78,1778604401.3691666,1.50344130,-1.83132640,1.22049810,-3.86203980,1.72386040,7.66039700
79,1778604401.379681,2.06835220,-1.78595780,1.30928360,-3.46986460,1.31091580,7.91085150
80,1778604401.3891377,2.24202100,-1.75473650,1.30538110,-3.05936360,0.84665860,8.06479000
81,1778604401.3992014,2.31422040,-1.72790580,1.27806230,-2.72827480,0.60597783,8.06234600
82,1778604401.4091375,2.31422040,-1.72790580,1.27806230,-2.61465400,0.64385146,8.00248100
83,1778604401.4194992,2.31958680,-1.70595310,1.24684110,-2.59510640,0.78312860,7.91573860
84,1778604401.4293158,2.29860970,-1.68302510,1.25367070,-2.65985800,0.94684040,7.82533070
85,1778604401.4392817,2.17616370,-1.59667850,1.28781910,-2.87488250,1.05801780,7.78134800
86,1778604401.4492562,2.17128520,-1.57814090,1.34099290,-3.11189800,0.92484930,7.93406440
87,1778604401.4595294,2.33129450,-1.61082570,1.47368350,-3.24262290,0.79901110,8.06845500
88,1778604401.469589,2.55764910,-1.54594390,1.79906830,-3.26094900,0.58398670,8.05623700
89,1778604401.4792683,2.55764910,-1.54594390,1.79906830,-3.14610620,0.48502663,7.97316000
90,1778604401.48942,2.79132130,-1.28983130,2.02395940,-2.02700200,0.76235926,7.30120850
91,1778604401.4992309,2.79132130,-1.28983130,2.02395940,-2.02700200,0.76235926,7.30120850
92,1778604401.509258,2.79132130,-1.28983130,2.02395940,-2.02700200,0.76235926,7.30120850
93,1778604401.5195389,2.69960860,-0.92444420,1.72003940,-1.00563610,1.29747680,6.50464100
94,1778604401.529216,2.64448360,-0.84785430,1.52588180,-0.84192437,1.50639260,6.22730830
95,1778604401.5395525,2.39910340,-0.61369437,1.01999860,-0.93966275,1.77028610,5.95364100
96,1778604401.549357,2.34788080,-0.44734317,1.01316880,-1.75944330,1.95965420,5.60911300
97,1778604401.5592752,2.34788080,-0.44734317,1.01316880,-1.75944330,1.95965420,5.60911300
98,1778604401.5693786,2.42983680,-0.18635234,1.20781430,-1.95980690,2.00608000,5.49060540
99,1778604401.5797312,2.64594700,0.00195133,1.35514010,-1.94148100,2.03906660,5.31711960
100,1778604401.589277,3.14695200,0.20732918,1.30635680,-1.62749650,2.01707550,4.72335900
101,1778604401.5994308,3.36501360,0.34538600,0.64875740,-1.73500870,2.44834610,3.03126380
102,1778604401.609279,3.36501360,0.34538600,0.64875740,-1.73500870,2.44834610,3.03126380
103,1778604401.6193554,2.95523330,0.55856913,0.42776886,-2.38008200,2.82341700,2.12351870
104,1778604401.629484,2.74985550,0.64394003,0.41801220,-2.82479140,3.03844140,1.81197760
105,1778604401.6395557,2.36251570,0.89078367,0.64192766,-3.55294230,3.34387370,1.75577810
106,1778604401.649563,3.04987300,1.34202950,1.24488970,-3.68244550,3.17160990,1.77288230
107,1778604401.659189,3.04987300,1.34202950,1.24488970,-3.68244550,3.17160990,1.77288230
108,1778604401.6692083,3.73235180,1.44642580,1.48685510,-3.23284910,2.86739920,1.31595540
109,1778604401.6795557,3.77723260,1.66985360,1.51271020,-2.38496880,2.44468100,0.28603745
110,1778604401.689104,3.77723260,1.66985360,1.51271020,-2.38496880,2.44468100,0.28603745
111,1778604401.6992505,3.61039350,1.77278640,1.56442050,-1.91093780,2.43002000,-0.01328631
112,1778604401.709448,3.54160900,1.86840160,1.75955390,-1.35505080,2.20033500,-0.06459895
113,1778604401.7193913,3.86553050,1.77815260,2.07420640,0.24174973,1.14476060,-0.00595593
114,1778604401.7293515,4.12554550,1.66839000,2.11420870,0.24174973,1.14476060,-0.00595593
115,1778604401.739601,4.59386540,1.51911300,2.13372200,1.89352810,-0.20647229,-0.20876303
116,1778604401.7493227,4.59386540,1.51911300,2.13372200,1.89352810,-0.20647229,-0.20876303
117,1778604401.75943,4.92168950,1.38447100,2.05371740,2.61557030,-0.64018630,-0.67179850
118,1778604401.7691038,5.08072330,1.22934000,1.85809620,2.96009800,-0.68539030,-1.29610240
119,1778604401.7793896,4.29287240,0.84151256,1.39221540,2.83303800,0.39217520,-3.29851700
120,1778604401.7892916,4.29287240,0.84151256,1.39221540,2.83303800,0.39217520,-3.29851700
121,1778604401.7992985,2.95035500,0.56588670,1.49319680,2.57769660,1.16064310,-4.25757460
122,1778604401.8093336,2.95035500,0.56588670,1.49319680,2.57769660,1.16064310,-4.25757460
123,1778604401.8195632,2.51667120,0.46978348,1.61369170,2.70475650,1.17774720,-4.36020000
124,1778604401.8295195,2.23860620,0.36538717,1.74247980,2.97598050,0.97249675,-4.35042600
125,1778604401.8390872,2.07810900,0.21708584,1.91224560,3.60272770,0.62919074,-4.32110450
126,1778604401.849211,2.10103730,0.08829784,2.04883900,4.22703170,0.19914192,-4.37974800
127,1778604401.8592432,2.16640690,-0.07415067,2.06396200,4.86110930,-0.24190246,-4.53979440
128,1778604401.8691542,2.23080090,-0.21318316,2.00493400,5.29360150,-0.46914417,-4.74015800
129,1778604401.8795526,2.28104780,-0.32684833,1.94883320,5.62957700,-0.56321734,-4.98328200
130,1778604401.8892,2.29860970,-0.74687284,1.71174620,6.11949060,-0.53511757,-5.68822000
131,1778604401.899222,2.29860970,-0.74687284,1.71174620,6.11949060,-0.53511757,-5.68822000
132,1778604401.9095094,2.25226570,-0.88102704,1.59320270,6.17813350,-0.50823950,-6.01075650
133,1778604401.9195817,2.18738370,-1.00591240,1.48880640,6.14026000,-0.52534370,-6.22455930
134,1778604401.929215,1.98200600,-1.21177800,1.33269980,5.81283660,-0.63041246,-6.57641740
135,1778604401.9392157,1.98200600,-1.21177800,1.33269980,5.81283660,-0.63041246,-6.57641740
136,1778604401.949238,1.91663620,-1.28251390,1.35367660,5.69432900,-0.67439470,-6.66438200
137,1778604401.9591415,1.91663620,-1.28251390,1.35367660,5.69432900,-0.67439470,-6.66438200
138,1778604401.9691808,1.88639040,-1.42252210,1.33172400,5.58803840,-0.68539030,-6.85741500
139,1778604401.9795065,1.81223990,-1.46008530,1.27220830,5.53916930,-0.71226835,-6.93682770
140,1778604401.9892452,1.51368600,-1.40983830,1.07512370,5.24717570,-0.93828833,-6.90995000
141,1778604401.9993722,1.43465690,-1.38008050,1.01853500,5.07979870,-1.07267860,-6.81343300
142,1778604402.009458,1.43465690,-1.38008050,1.01853500,5.07979870,-1.07267860,-6.81343300
143,1778604402.0193622,1.34196850,-1.34398090,0.96926390,4.85377900,-1.25471630,-6.67782100
144,1778604402.0297105,1.17464170,-1.29227050,0.91950480,4.52146800,-1.56259210,-6.41026200
145,1778604402.0392423,0.93121284,-1.25519510,0.84925690,4.28811800,-1.78983380,-6.10727360
146,1778604402.0494132,0.93121284,-1.25519510,0.84925690,4.28811800,-1.78983380,-6.10727360
147,1778604402.0594542,0.81559634,-1.22592510,0.80193704,4.14639760,-1.91811540,-5.85681870
148,1778604402.0694418,0.67851520,-1.17811750,0.72095670,3.97902040,-1.93277620,-5.53061680
149,1778604402.0794737,0.31556720,-1.00054610,0.40727988,3.56241060,-1.79960760,-4.83178760
150,1778604402.0894709,0.31556720,-1.00054610,0.40727988,3.56241060,-1.79960760,-4.83178760
151,1778604402.099485,0.19995070,-0.93761570,0.25653934,3.22643500,-1.74218630,-4.36753030
152,1778604402.10956,0.11506769,-0.90541863,0.15458219,2.91122900,-1.65177830,-3.88494730
153,1778604402.1192589,0.07701669,-0.92346860,-0.00250015,2.69253920,-1.53082720,-3.51109810
154,1778604402.1292887,0.12628786,-0.99566780,-0.10592081,2.52882740,-1.39399340,-3.22154800
155,1778604402.1394901,-0.16104598,-1.10006420,-0.62009716,2.25149500,-0.79168075,-3.14946600
156,1778604402.1492012,-0.16104598,-1.10006420,-0.62009716,2.25149500,-0.79168075,-3.14946600
157,1778604402.1595821,-0.45374596,-1.18153240,-0.88303930,1.97171880,-0.53023064,-3.12136630
158,1778604402.1690693,-0.68010070,-1.30983260,-0.98841137,1.65529080,-0.26755878,-3.05783630
159,1778604402.1793401,-0.94596980,-1.48935520,-1.06987950,1.45248380,0.06352994,-2.94299390
160,1778604402.1895006,-1.86407220,-1.87035300,-1.50892950,1.23501590,0.88208870,-1.98271440
161,1778604402.1991541,-1.86407220,-1.87035300,-1.50892950,1.23501590,0.88208870,-1.98271440
162,1778604402.2091637,-2.08506080,-1.95523610,-1.64942550,1.08718660,0.95417076,-1.35230200
163,1778604402.219904,-2.23580120,-2.00450730,-1.77333520,0.80618880,0.96883154,-0.48243046
164,1778604402.2294478,-2.18262740,-2.05475400,-1.79382420,0.17211115,1.02625290,1.22554740
165,1778604402.2392435,-2.18262740,-2.05475400,-1.79382420,0.17211115,1.02625290,1.22554740
166,1778604402.2495606,-1.96798060,-2.02109360,-1.68942790,-0.18463388,0.94806210,2.11863180
167,1778604402.2592254,-1.74699220,-1.97816430,-1.59088550,-0.55603970,0.80145460,2.88343450
168,1778604402.2694204,-1.49283100,-1.92401460,-1.46112180,-0.91156300,0.74036810,3.41855200
169,1778604402.2795963,-1.28013560,-1.89181780,-1.32647980,-1.34649870,0.70738140,3.90846560
170,1778604402.289297,-0.96889800,-1.85620590,-1.05914710,-2.12229700,0.73548120,4.56697800
171,1778604402.2994776,-0.75473917,-1.84303440,-0.81815743,-2.65252760,0.76480270,4.96037500
172,1778604402.3094015,-0.47423500,-1.85376670,-0.49228480,-3.24384470,0.74403330,5.41485830
173,1778604402.3195076,-0.47423500,-1.85376670,-0.49228480,-3.24384470,0.74403330,5.41485830
174,1778604402.3293595,-0.03713631,-1.95865080,-0.02396481,-4.41792700,0.60597783,6.48998000
175,1778604402.3395426,0.23312336,-2.01084900,0.26629603,-4.41792700,0.60597783,6.48998000
176,1778604402.3491952,0.55460554,-2.04646090,0.60387670,-4.64639040,0.54489136,6.83450800
177,1778604402.3592918,0.89218620,-2.00889750,0.99609470,-4.71236370,0.38484480,7.06174950
178,1778604402.3692427,1.21025360,-1.93864970,1.34587120,-4.59629900,0.18814635,7.22668300
179,1778604402.3794198,1.85712050,-1.70400190,1.86687720,-3.40633460,-0.21258095,7.04464530
180,1778604402.3891947,1.85712050,-1.70400190,1.86687720,-3.40633460,-0.21258095,7.04464530
181,1778604402.399249,1.95907770,-1.57228700,1.84004640,-2.63175820,-0.25411975,6.70744800
182,1778604402.409254,1.95176020,-1.39569130,1.66540200,-2.11618830,-0.21380267,6.39835020
183,1778604402.4192996,1.83077750,-1.26397620,1.46246340,-1.71301760,-0.08674280,6.06115300
184,1778604402.4293227,1.65954800,-1.14738400,1.27855010,-1.58962290,0.04520399,5.94020180
185,1778604402.4392533,1.51319810,-1.05664700,1.14000550,-1.61039230,0.20647229,6.01228400
186,1778604402.4492183,1.55027340,-1.00981500,1.10341810,-1.69469170,0.36651886,6.16255660
187,1778604402.4595287,1.63759570,-0.95956820,1.08878300,-1.82786010,0.51801336,6.29939030
188,1778604402.4695256,2.10933040,-0.85468405,1.05853740,-2.15894900,1.10444360,6.31282950
189,1778604402.4795234,2.10933040,-0.85468405,1.05853740,-2.15894900,1.10444360,6.31282950
190,1778604402.4891443,2.17128520,-0.71174884,1.00780270,-2.83456540,2.27241700,5.95608430
191,1778604402.499161,2.14835720,-0.43173254,1.06292800,-3.07891130,2.45689820,5.89988470
192,1778604402.509194,2.14835720,-0.43173254,1.06292800,-3.07891130,2.45689820,5.89988470
193,1778604402.5192814,2.25226570,-0.39026670,1.16439720,-3.27805300,2.38970300,5.86689800
194,1778604402.529301,2.89230300,-0.27611366,1.25806130,-3.55782910,2.42635500,5.39042330
195,1778604402.5397403,2.89230300,-0.27611366,1.25806130,-3.55782910,2.42635500,5.39042330
196,1778604402.549326,3.09036330,-0.08293167,1.25025600,-3.75819280,2.83441260,4.83087160
197,1778604402.559239,3.09085100,0.09512750,1.18439840,-4.00742600,3.42939500,4.23222400
198,1778604402.5691981,2.99426000,0.20391434,1.20196040,-4.21145440,3.83623080,3.76307960
199,1778604402.5794654,2.95864820,0.30733500,1.34538340,-4.34950970,3.95840380,3.33547450
200,1778604402.5896149,2.49813340,0.80394936,1.74735800,-3.93167850,3.09464100,2.08320160
201,1778604402.5994434,2.49813340,0.80394936,1.74735800,-3.55782910,2.78920870,1.87062070
202,1778604402.6095142,2.12006260,1.09372230,1.77321310,-3.55782910,2.78920870,1.87062070
203,1778604402.6191802,2.12006260,1.09372230,1.77321310,-3.55782910,2.78920870,1.87062070
204,1778604402.6292927,1.66686560,1.40496000,1.59808100,-2.85166950,2.28341250,2.13573600
205,1778604402.639378,2.39812780,1.35959150,1.66784120,-2.46682480,1.77639470,2.65252760
206,1778604402.6494203,3.02743270,1.58643400,1.84931520,-2.08442330,1.22783820,2.94574260
207,1778604402.6592226,3.02743270,1.58643400,1.84931520,-1.56518830,0.72326390,2.96162500
208,1778604402.6695063,3.77625700,2.04792450,1.82199660,-0.43142325,0.23579380,2.32021710
209,1778604402.6796472,3.96407270,2.36062550,1.59954460,-0.09178244,0.32620180,1.78998650
210,1778604402.6895616,3.96407270,2.36062550,1.59954460,-0.09178244,0.32620180,1.78998650
211,1778604402.6991775,3.89821530,2.48843800,1.49075770,0.05360339,0.47280934,1.41369380
212,1778604402.7091458,3.73966930,2.59722470,1.41758280,0.12568542,0.63163420,1.11559180
213,1778604402.7192998,3.73966930,2.59722470,1.41758280,0.12568542,0.63163420,1.11559180
214,1778604402.7293353,3.92504600,2.69430350,1.63369290,0.30039275,0.63774280,0.81504630
215,1778604402.7395191,4.29921440,2.63478800,1.86248680,0.71700250,0.40317076,0.23350306
216,1778604402.7491262,4.47580960,2.24793600,1.78248190,1.52090060,0.19425500,-1.30831970
217,1778604402.7592776,4.05188270,2.01475170,1.53661410,1.52090060,0.19425500,-1.30831970
218,1778604402.7693202,4.05188270,2.01475170,1.53661410,1.78235070,0.29565856,-2.33823780
219,1778604402.7795076,2.98889400,1.53960200,1.31367420,1.68094720,0.74647677,-3.51354150
220,1778604402.789467,2.48545000,1.31519870,1.54880990,1.68827750,0.91751890,-3.83241300
221,1778604402.7992365,2.48545000,1.31519870,1.54880990,1.68827750,0.91751890,-3.83241300
222,1778604402.80942,2.19860390,1.09079530,1.85663270,2.03524880,0.87109315,-3.95458580
223,1778604402.81959,2.19860390,1.09079530,1.85663270,2.03524880,0.87109315,-3.95458580
224,1778604402.8294427,1.91566060,0.59857154,2.06688880,3.63693620,0.34574947,-4.15983630
225,1778604402.8391447,1.91566060,0.59857154,2.06688880,3.63693620,0.34574947,-4.15983630
226,1778604402.8493543,2.03127700,0.07756550,1.90590390,4.90997840,-0.13561198,-4.64119770
227,1778604402.8592002,2.03127700,0.07756550,1.90590390,4.90997840,-0.13561198,-4.64119770
228,1778604402.869259,2.06884030,-0.12049483,1.84346120,5.23862360,-0.28344125,-4.90386960
229,1778604402.8794122,2.08006050,-0.26733267,1.78199410,5.49274350,-0.39339690,-5.17387200
230,1778604402.8891253,1.97127350,-0.76053220,1.45807290,5.68333340,-0.38362310,-5.74441960
231,1778604402.8991203,1.90248900,-0.85712314,1.38538580,5.58559470,-0.31520623,-5.88614030
232,1778604402.9093876,1.90248900,-0.85712314,1.38538580,5.58559470,-0.31520623,-5.88614030
233,1778604402.9191487,1.82102100,-0.92541987,1.35709140,5.41455270,-0.29932374,-6.00098280
234,1778604402.9291582,1.77418880,-1.04835380,1.39367890,5.20441530,-0.41050112,-6.09994300
235,1778604402.9392183,1.77418880,-1.04835380,1.39367890,5.20441530,-0.41050112,-6.09994300
236,1778604402.9494493,1.77028620,-1.10982080,1.32635780,5.09812450,-0.63407767,-6.12926440
237,1778604402.9594467,1.77028620,-1.10982080,1.32635780,5.09812450,-0.63407767,-6.12926440
238,1778604402.969409,1.80101980,-1.14250560,1.24879230,4.94907400,-0.80511975,-6.30519340
239,1778604402.9792306,1.80101980,-1.14250560,1.24879230,4.94907400,-0.80511975,-6.30519340
240,1778604402.989547,1.73613790,-1.15518940,1.18488620,4.84767000,-0.79290247,-6.35894970
241,1778604402.9998257,1.52295470,-1.09664940,1.11073550,4.61554150,-0.79168075,-6.30030700
242,1778604403.0093377,1.52295470,-1.09664940,1.11073550,4.61554150,-0.79168075,-6.30030700
243,1778604403.0191653,1.37953170,-1.08835630,1.08829520,4.55201150,-0.89919290,-6.20501200
244,1778604403.0294583,1.37953170,-1.08835630,1.08829520,4.53857300,-1.04824400,-6.09261270
245,1778604403.0394833,1.37953170,-1.08835630,1.08829520,4.53857300,-1.04824400,-6.09261270
246,1778604403.049437,1.12829760,-1.12689510,0.78144807,4.67174100,-1.64444800,-5.71876340
247,1778604403.0593216,1.12829760,-1.12689510,0.78144807,4.67174100,-1.64444800,-5.71876340
248,1778604403.0696735,0.97316660,-1.14153000,0.62729270,4.63020230,-1.72752560,-5.62835550
249,1778604403.0792732,0.81852335,-1.12591930,0.52338420,4.50802950,-1.73729940,-5.48296980
250,1778604403.0892544,0.45655105,-1.02201080,0.29166338,4.21359250,-1.76051240,-5.12988950
251,1778604403.099616,0.21897620,-0.97030050,0.10287185,3.97046830,-1.72386040,-4.78414000
252,1778604403.1091409,0.12823918,-0.98493550,-0.05079565,3.62716250,-1.62001340,-4.26368330
253,1778604403.1193123,0.07848018,-1.03371880,-0.22104947,3.26186510,-1.48195790,-3.83852150
254,1778604403.1293898,0.00091469,-1.06445230,-0.33569032,2.99919340,-1.30358540,-3.62716250
255,1778604403.1394522,-0.29324880,-1.19860650,-0.64448890,2.64367000,-0.99448790,-3.43657260
256,1778604403.149261,-0.85620844,-1.58789750,-0.95572644,1.87642380,-0.35307986,-3.00041500
257,1778604403.159174,-0.85620844,-1.58789750,-0.95572644,1.87642380,-0.35307986,-3.00041500
258,1778604403.1693203,-1.37184830,-1.96791980,-0.99670450,1.71637730,-0.30787584,-2.51905370
259,1778604403.1794298,-1.37184830,-1.96791980,-0.99670450,1.71637730,-0.30787584,-2.51905370
260,1778604403.189184,-1.87285320,-2.13378300,-1.18549600,1.95339290,-0.31520623,-1.96927540
261,1778604403.1994958,-2.22067830,-2.21769020,-1.45087730,2.00959230,-0.38973173,-1.42071880
262,1778604403.2091455,-2.22067830,-2.21769020,-1.45087730,2.00959230,-0.38973173,-1.42071880
263,1778604403.2191734,-2.39044430,-2.29964640,-1.85090080,1.61375200,-0.31520623,0.11499529
264,1778604403.2292788,-2.15872360,-2.34501480,-1.95383350,0.37003133,0.16371176,1.70813060
265,1778604403.2393053,-2.15872360,-2.34501480,-1.95383350,0.37003133,0.16371176,1.70813060
266,1778604403.2492394,-1.95188210,-2.34062460,-1.83821700,-0.24449863,0.36651886,2.30555630
267,1778604403.2596247,-1.68454950,-2.26159520,-1.53722380,-0.92255855,0.49968740,2.98483800
268,1778604403.269626,-1.68454950,-2.26159520,-1.53722380,-0.92255855,0.49968740,2.98483800
269,1778604403.2794557,-1.29281930,-2.09378080,-1.12793170,-1.63971380,0.38117963,3.90846560
270,1778604403.289359,-1.00890040,-2.00304400,-0.85133016,-2.09297540,0.30176720,4.59263400
271,1778604403.2992575,-0.75327570,-1.94645500,-0.61814580,-2.42650770,0.30054548,5.15462970
272,1778604403.3093479,-0.52643317,-1.93084430,-0.44203800,-2.67940570,0.31764970,5.58956530
273,1778604403.3197055,-0.25617350,-1.92450250,-0.27373550,-2.98605970,0.32742350,6.07459200
274,1778604403.3293297,-0.00006098,-1.92206340,-0.12397064,-3.15588020,0.32375833,6.31893800
275,1778604403.339536,0.33849534,-1.94108880,0.10872585,-3.48330380,0.38728827,6.75265200
276,1778604403.3495789,0.62924400,-1.93816180,0.34727636,-3.70199320,0.51068294,7.10695360
277,1778604403.3591063,0.95121410,-1.90937970,0.63509804,-3.83149670,0.56932600,7.41360760
278,1778604403.3694413,1.20927790,-1.87035300,0.86828244,-3.83516170,0.48258317,7.59320200
279,1778604403.3795578,1.40489910,-1.84108300,1.03073080,-3.73497990,0.32375833,7.72148370
280,1778604403.3898144,2.07225510,-1.66790220,1.45612160,-3.04470280,-0.08185588,7.66161870
281,1778604403.3990622,2.28543830,-1.53765070,1.55856660,-2.60121500,-0.37140578,7.41482930
282,1778604403.4091847,2.28543830,-1.53765070,1.55856660,-2.60121500,-0.37140578,7.41482930
283,1778604403.4193254,2.28543830,-1.53765070,1.55856660,-2.60121500,-0.37140578,7.41482930
284,1778604403.42944,2.35422280,-1.02591350,1.53612630,-1.21577360,-0.43615746,6.50586270
285,1778604403.439414,2.28007200,-0.90590650,1.40392340,-0.95921040,-0.18203771,6.27495570
286,1778604403.4495616,2.28007200,-0.90590650,1.40392340,-0.95921040,-0.18203771,6.27495570
287,1778604403.4594,2.14591800,-0.79224133,1.23220610,-0.89323700,0.11972950,6.15644800
288,1778604403.469433,2.07274300,-0.71662720,1.11707740,-0.94454970,0.44715303,6.11979630
289,1778604403.479158,2.06835220,-0.65320885,1.01804720,-1.10337450,0.78068520,6.12223960
290,1778604403.4891956,2.08981700,-0.59369320,0.90096720,-2.03555420,1.67865650,6.02572300
291,1778604403.4994967,2.15567470,-0.53125054,0.97316660,-2.55478930,2.01585400,5.88278060
292,1778604403.5097947,2.15567470,-0.53125054,0.97316660,-2.55478930,2.01585400,5.88278060
293,1778604403.5193398,2.13420990,-0.48929682,1.08439250,-2.87610400,2.25286940,5.77404640
294,1778604403.5292656,2.09811020,-0.41953668,1.30782020,-3.03859420,2.51065420,5.73128600
295,1778604403.5392973,2.09811020,-0.41953668,1.30782020,-3.03859420,2.51065420,5.73128600
296,1778604403.5494044,2.46886350,-0.34197116,1.40392340,-3.18886690,3.33776520,5.45028830
297,1778604403.5595558,2.59472440,-0.31270117,1.32001600,-3.33791780,3.65419320,5.08010440
298,1778604403.5697808,2.31031780,-0.29513916,1.05902530,-3.69588470,4.03537270,4.50955630
299,1778604403.5794392,2.31031780,-0.29513916,1.05902530,-4.12959860,4.27483200,4.16136360
300,1778604403.589377,1.99420180,-0.16488767,1.12537050,-4.82354100,4.41288700,4.11005100
301,1778604403.5994842,2.30251240,0.16439983,1.67320740,-5.26458550,4.06102900,4.48390000
302,1778604403.6095397,2.30251240,0.16439983,1.67320740,-5.26458550,4.06102900,4.48390000
303,1778604403.619152,2.64497140,0.30245668,1.89175670,-5.06910850,3.76292700,4.43869640
304,1778604403.62927,3.04255560,0.53612880,2.17860270,-4.62684250,3.39518640,4.12471150
305,1778604403.6396174,3.33281640,1.19958210,2.48105930,-3.56882480,2.68047480,3.40389130
306,1778604403.649239,3.40062520,1.57375040,2.34446600,-2.59754970,2.09037920,2.95429470
307,1778604403.6592522,3.44599370,1.69229390,2.07469420,-2.05876700,1.64811310,2.72827480
308,1778604403.6693015,3.44599370,1.69229390,2.07469420,-2.05876700,1.64811310,2.72827480
309,1778604403.679421,3.58307500,1.86108420,1.67125620,-1.75944330,1.17530380,2.47659850
310,1778604403.689497,3.94212030,2.18500570,2.15128400,-2.17605300,1.17530380,2.33609960
311,1778604403.699539,4.21823400,2.47087600,2.73278140,-1.86329030,0.97738370,2.25668720
312,1778604403.7093475,4.21823400,2.47087600,2.73278140,-1.86329030,0.97738370,2.25668720
313,1778604403.7195456,4.59045100,2.73967220,3.23573760,-0.85291994,0.56321734,1.95492000
314,1778604403.7293828,4.80509760,2.80162700,3.32842600,0.16966769,0.20525056,1.49432800
315,1778604403.7395544,4.84266100,2.72113440,2.84254380,2.31135960,-0.23945900,-0.28451028
316,1778604403.749185,4.64264870,2.60942050,2.56155200,2.84403370,-0.11606431,-1.05419990
317,1778604403.7593715,4.64264870,2.60942050,2.56155200,2.84403370,-0.11606431,-1.05419990
318,1778604403.7690854,4.64264870,2.60942050,2.56155200,2.84403370,-0.11606431,-1.05419990
319,1778604403.7792914,3.66795800,2.05426620,1.68930590,3.18245270,0.51801336,-2.44697170
320,1778604403.789336,2.89132740,1.63033900,1.46392690,3.17756580,0.84177166,-3.15679650
321,1778604403.7995808,2.10835480,1.04689040,1.55222480,3.29240850,0.56321734,-3.79453920
322,1778604403.8091118,2.10835480,1.04689040,1.55222480,3.29240850,0.56321734,-3.79453920
323,1778604403.8192499,1.90004990,0.75028770,1.73565010,3.53431080,0.31398448,-4.02911140
324,1778604403.8294313,1.78492130,0.53027480,1.88395130,3.83485630,0.16859868,-4.20259700
325,1778604403.839338,1.66588990,0.20293866,2.06152270,4.41639950,-0.05375610,-4.39196500
326,1778604403.849442,1.64247380,-0.00536617,2.13713670,4.99061250,-0.15393792,-4.51169440
327,1778604403.8593078,1.68101270,-0.27074748,2.19860390,5.48907800,-0.21013749,-4.61309800
328,1778604403.8693066,1.69467200,-0.60198635,2.09420750,6.38949300,-0.38484480,-4.88798700
329,1778604403.8794427,1.69467200,-0.60198635,2.09420750,6.38949300,-0.38484480,-4.88798700
330,1778604403.8892815,1.66979240,-0.84980565,1.96005340,6.86596730,-0.71715530,-5.13111160
331,1778604403.899287,1.70930710,-1.07713600,1.69564760,7.26180800,-1.14109540,-5.50618200
332,1778604403.9095616,1.70930710,-1.07713600,1.69564760,7.26180800,-1.14109540,-5.50618200
333,1778604403.9195738,1.71662460,-1.12348020,1.56881100,7.23615170,-1.30725060,-5.71509840
334,1778604403.9292543,1.70540450,-1.14250560,1.45368240,7.08465700,-1.42942360,-5.92645740
335,1778604403.9391973,1.66491430,-1.14933540,1.33318760,6.68148600,-1.41231940,-6.17324700
336,1778604403.9492686,1.62052130,-1.15567720,1.28196500,6.29175470,-1.24005560,-6.29541970
337,1778604403.9595206,1.60881340,-1.16738520,1.29416080,5.98876570,-1.09100450,-6.34306700
338,1778604403.9691105,1.59369050,-1.14787190,1.33611450,5.69555040,-0.88453220,-6.39560170
339,1778604403.9794106,1.56637190,-1.14250560,1.39270320,5.55382970,-0.81489360,-6.42614460
340,1778604403.9895902,1.49709950,-1.14006650,1.42685160,5.46342200,-0.98227054,-6.45302300
341,1778604403.9994125,1.39319110,-1.10933290,1.30440530,5.44143060,-1.29258990,-6.47134900
342,1778604404.009171,1.39319110,-1.10933290,1.30440530,5.37912270,-1.53693580,-6.48845300
343,1778604404.0191638,1.36196970,-1.09177100,1.17122690,5.23984530,-1.69331720,-6.49456170
344,1778604404.0296347,1.37904390,-1.06494020,1.01951060,5.01504700,-1.67743470,-6.53121330
345,1778604404.0395298,1.09658840,-0.85761100,0.62826836,3.79209600,-0.62919074,-6.55442600
346,1778604404.049188,1.09658840,-0.85761100,0.62826836,3.79209600,-0.62919074,-6.55442600
347,1778604404.0591998,0.93560340,-0.78931430,0.64778167,3.36449050,-0.08063415,-6.42492300
348,1778604404.0691447,0.77315485,-0.75711733,0.71802974,3.09082320,0.47769627,-6.13659500
349,1778604404.079124,0.72437150,-0.76833750,0.73364040,3.08471440,0.69516414,-5.95700070
350,1778604404.0891986,0.45411184,-1.01322980,0.42581752,3.33761240,0.58154327,-5.63568600
351,1778604404.099246,0.45411184,-1.01322980,0.42581752,3.67114470,0.21135922,-5.39622700
352,1778604404.109352,0.27654052,-1.14348140,0.13409320,3.87150840,0.01221729,-5.19952800
353,1778604404.1194391,0.06677218,-1.21763200,-0.20934150,3.92526440,-0.15393792,-4.98694750
354,1778604404.1295125,-0.16299730,-1.29812460,-0.68936950,3.78354380,-0.21991132,-4.75359700
355,1778604404.1396408,-0.44789200,-1.53960200,-1.46209750,2.81593400,0.29077163,-4.23924880
356,1778604404.149183,-0.76352020,-1.82303320,-1.92066090,1.72981630,1.10077830,-3.80186960
357,1778604404.1592855,-1.42697350,-2.06743760,-1.79723900,0.52274750,2.53264550,-2.75606920
358,1778604404.1692402,-1.73528410,-2.15329650,-1.62357030,0.47021317,2.65604000,-1.78112900
359,1778604404.1794147,-1.89578140,-2.25086300,-1.48892840,0.83795375,2.04761860,-0.61559900
360,1778604404.1893213,-1.67674410,-2.34062460,-1.48844050,1.28388500,1.21562090,0.23228133
361,1778604404.1993377,-1.48697700,-2.37769960,-1.68064690,1.77013340,0.16249003,1.04473150
362,1778604404.2092755,-1.48697700,-2.37769960,-1.68064690,1.77013340,0.16249003,1.04473150
363,1778604404.219493,-1.37575100,-2.38404150,-1.89187860,1.92651470,-0.43982264,1.61161400
364,1778604404.2294786,-1.17525150,-2.21281220,-2.17140720,1.28999360,-0.93340140,2.82723500
365,1778604404.2394352,-1.17525150,-2.21281220,-2.17140720,1.28999360,-0.93340140,2.82723500
366,1778604404.2495284,-0.98938700,-1.99426280,-1.83431430,-0.01237001,-0.94317520,3.80950550
367,1778604404.2592936,-0.98938700,-1.99426280,-1.83431430,-0.01237001,-0.94317520,3.80950550
368,1778604404.2693248,-0.84206134,-1.87084080,-1.56356680,-0.74540776,-0.79290247,4.32874060
369,1778604404.2793548,-0.55180050,-1.73424740,-1.06256200,-2.16261400,-0.26145010,5.24503760
370,1778604404.2894945,-0.55180050,-1.73424740,-1.06256200,-2.16261400,-0.26145010,5.24503760
371,1778604404.2992163,-0.20104831,-1.71814910,-0.58790016,-3.52117730,0.51312643,6.17233040
372,1778604404.309354,-0.20104831,-1.71814910,-0.58790016,-3.52117730,0.51312643,6.17233040
373,1778604404.319549,0.01603752,-1.73863800,-0.37471700,-4.06240370,0.74769850,6.53884940
374,1778604404.3292205,0.26044202,-1.76254190,-0.15372847,-4.55109550,0.86742800,6.84428170
375,1778604404.339091,0.72632280,-1.78644570,0.22043969,-5.14974260,0.86987144,7.15337940
376,1778604404.349256,1.49661170,-1.75278530,0.86779450,-5.62499570,0.71471180,7.15948770
377,1778604404.3593147,1.49661170,-1.75278530,0.86779450,-5.62499570,0.71471180,7.15948770
378,1778604404.369358,1.78053070,-1.65912130,1.19171580,-5.59933950,0.65362530,6.94568540
379,1778604404.3794432,1.81028870,-1.37373880,1.60930120,-5.00557850,0.48013970,6.29694700
380,1778604404.389557,1.77906720,-1.23421840,1.73418650,-4.54865170,0.32986698,6.08803130
381,1778604404.3995955,1.73711350,-1.11665050,1.80004400,-4.12593360,0.16493349,5.94875400
382,1778604404.4092681,1.73711350,-1.11665050,1.80004400,-4.12593360,0.16493349,5.94875400
383,1778604404.4198513,1.65271830,-1.01566900,1.82199660,-3.66289780,-0.00610865,5.83024600
384,1778604404.4293964,1.38587360,-0.82395060,1.60491070,-2.53035470,-0.40805766,5.82413770
385,1778604404.4394777,1.38587360,-0.82395060,1.60491070,-2.53035470,-0.40805766,5.82413770
386,1778604404.4494328,1.46978090,-0.77711850,1.28635550,-2.03677580,-0.51556987,5.95852760
387,1778604404.4591053,1.46978090,-0.77711850,1.28635550,-2.03677580,-0.51556987,5.95852760
388,1778604404.469488,1.63759570,-0.72882300,1.18537400,-1.98912850,-0.48258317,5.93531500
389,1778604404.479178,1.75369990,-0.68833286,1.14537180,-2.00745440,-0.37751442,5.86201100
390,1778604404.489148,1.78492130,-0.45417285,1.05317120,-2.26401760,0.42149670,5.38553670
391,1778604404.499222,1.78492130,-0.45417285,1.05317120,-2.26401760,0.42149670,5.38553670
392,1778604404.5092542,1.70540450,-0.38929102,1.00243660,-2.43994670,0.88208870,5.31101130
393,1778604404.519288,1.67711000,-0.33172667,0.94536000,-2.63297990,1.26082490,5.31834130
394,1778604404.5293064,1.97420060,-0.24050182,0.92584670,-3.32692240,1.88635040,5.23037670
395,1778604404.5393422,2.18250540,-0.16830250,0.93560340,-3.66656300,1.99508440,5.07521720
396,1778604404.5494015,2.18250540,-0.16830250,0.93560340,-3.66656300,1.99508440,5.07521720
397,1778604404.5592937,2.42251920,-0.08049250,0.95365316,-4.10882900,2.19789150,4.76245450
398,1778604404.5694153,2.53569670,-0.04536850,0.98877716,-4.41303970,2.42024640,4.44113970
399,1778604404.579446,2.67180230,0.22245201,1.14634740,-4.80765870,2.81853000,3.69099760
400,1778604404.5894127,2.67033860,0.37904653,1.14000550,-4.97503570,2.78798680,3.36601760
401,1778604404.5991316,2.69668170,0.55466646,1.13073670,-4.97503570,2.78798680,3.36601760
402,1778604404.6091902,2.69668170,0.55466646,1.13073670,-5.16440340,2.82708220,3.16321060
403,1778604404.6192462,2.59716400,0.89810120,1.29513660,-5.46128370,3.00056800,2.71483600
404,1778604404.6291168,2.59716400,0.89810120,1.29513660,-5.46128370,3.00056800,2.71483600
405,1778604404.639125,2.51081730,1.10640610,1.80687370,-5.23770700,2.41413760,2.67940570
406,1778604404.6491315,3.15426950,1.42398550,2.31275700,-4.10149900,1.09955660,2.88465620
407,1778604404.659183,3.15426950,1.42398550,2.31275700,-4.10149900,1.09955660,2.88465620
408,1778604404.6694076,3.69088630,1.75376090,2.49813340,-3.12900200,0.49724394,2.69895340
409,1778604404.6795053,4.21677060,2.27818160,2.27177880,-1.53831030,0.26878050,1.83396880
410,1778604404.6892068,4.09139730,2.52063500,2.08298730,-1.53831030,0.26878050,1.83396880
411,1778604404.6992211,4.09139730,2.52063500,2.08298730,-1.04106630,0.38362310,1.31106850
412,1778604404.7095819,3.90504480,2.71918300,2.03664330,-0.64033900,0.47158760,0.95676696
413,1778604404.7192895,3.90504480,2.71918300,2.03664330,-0.64033900,0.47158760,0.95676696
414,1778604404.7292838,3.86309120,2.89821800,2.15128400,0.21487169,0.31154105,0.59269154
415,1778604404.7394965,4.30506850,2.69430350,2.17128520,1.82388950,-0.60109097,-0.64614224
416,1778604404.749387,4.20457460,2.44306920,1.89809860,2.35900710,-0.83810645,-1.45248380
417,1778604404.7593873,4.20457460,2.44306920,1.89809860,2.35900710,-0.83810645,-1.45248380
418,1778604404.7693486,3.83918740,2.19622560,1.58247040,2.66443940,-0.82588917,-2.24294280
419,1778604404.7793658,2.78156470,1.53911420,1.28050160,2.72430420,-0.49724394,-3.47688960
420,1778604404.7897005,2.48740120,1.29714880,1.28537990,2.71208700,-0.37140578,-3.80431320
421,1778604404.7992005,2.23470350,1.03079180,1.35562790,2.72796940,-0.34330600,-4.00223350
422,1778604404.8095748,2.23470350,1.03079180,1.35562790,2.72796940,-0.34330600,-4.00223350
423,1778604404.8191178,2.10933040,0.86492854,1.47661050,2.80249500,-0.35430157,-4.17083200
424,1778604404.8295846,2.02835000,0.70833400,1.62588760,2.96254160,-0.39217520,-4.32354830
425,1778604404.839555,1.97029780,0.45661200,1.78979950,3.39503380,-0.40805766,-4.57155940
426,1778604404.8494532,1.97029780,0.45661200,1.78979950,3.39503380,-0.40805766,-4.57155940
427,1778604404.8592548,1.86053530,0.03951450,1.82346000,4.33332200,-0.55955213,-4.97961700
428,1778604404.8691142,1.84297340,-0.25367334,1.69418420,4.98939100,-0.79901110,-5.29848860
429,1778604404.879158,1.84297340,-0.25367334,1.69418420,4.98939100,-0.79901110,-5.29848860
430,1778604404.8892393,1.88541480,-0.46490517,1.60930120,5.34980100,-1.01403560,-5.74441960
431,1778604404.8993785,1.90346470,-0.59027830,1.57564070,5.34980100,-1.01403560,-5.74441960
432,1778604404.9099212,1.89175670,-0.72052985,1.46929300,5.40844400,-1.08245240,-6.13170800
433,1778604404.919445,1.77809150,-0.84834220,1.28879480,5.33025300,-1.07145680,-6.30763700
434,1778604404.9294827,1.77809150,-0.84834220,1.28879480,5.33025300,-1.07145680,-6.30763700
435,1778604404.9390903,1.77809150,-0.84834220,1.28879480,5.33025300,-1.07145680,-6.30763700
436,1778604404.9492173,1.65320610,-0.90737003,1.14342030,4.63997600,-0.72082040,-6.50067040
437,1778604404.9593258,1.65320610,-0.90737003,1.14342030,4.63997600,-0.72082040,-6.50067040
438,1778604404.9690602,1.62100920,-0.91907805,1.17659310,4.51536000,-0.71349007,-6.54587400
439,1778604404.9793525,1.62100920,-0.91907805,1.17659310,4.51536000,-0.71349007,-6.54587400
440,1778604404.9893768,1.28001370,-0.93371300,0.95560455,4.26368330,-1.05435260,-6.36872340
441,1778604404.9994526,1.28001370,-0.93371300,0.95560455,4.26368330,-1.05435260,-6.36872340
442,1778604405.0092068,1.22244930,-0.91907805,0.92291970,4.18182750,-1.21928610,-6.22211600
443,1778604405.0190637,1.18878890,-0.91322400,0.92877364,4.12807130,-1.41354110,-6.08283850
444,1778604405.029131,1.17025110,-0.91810230,0.92487110,4.14761920,-1.61634810,-5.96799600
445,1778604405.03955,0.96633685,-0.91224840,0.72193235,4.25268800,-1.97309330,-5.78962370
446,1778604405.0495658,0.87999034,-0.92102930,0.60290104,4.32232670,-2.53386710,-5.45120500
447,1778604405.059186,0.87999034,-0.92102930,0.60290104,4.32232670,-2.53386710,-5.45120500
448,1778604405.0691352,0.57899720,-0.89712550,0.15604569,4.06698500,-2.34572080,-5.00893830
449,1778604405.0793154,0.57899720,-0.89712550,0.15604569,4.06698500,-2.34572080,-5.00893830
450,1778604405.0893674,0.41703650,-0.88785666,-0.04542948,3.75177880,-2.06594470,-4.74871000
451,1778604405.099426,0.15067953,-0.92298067,-0.28934616,2.90512010,-1.00181820,-3.90327300
452,1778604405.1092818,0.15067953,-0.92298067,-0.28934616,2.90512010,-1.00181820,-3.90327300
453,1778604405.119299,0.11701902,-0.94054264,-0.29032183,2.74507360,-0.65973395,-3.61494500
454,1778604405.1293397,0.12433653,-0.94883580,-0.26739365,2.80005150,-0.67072950,-3.45489840
455,1778604405.1392388,0.18385220,-1.06737940,-0.43081784,3.17145730,-1.28770290,-3.48544170
456,1778604405.149309,0.11116502,-1.13128550,-0.78742400,3.31073430,-1.78005990,-3.71879200
457,1778604405.1594331,-0.17324181,-1.21763200,-1.37136040,2.87091180,-1.88268530,-4.01933770
458,1778604405.1691985,-0.17324181,-1.21763200,-1.37136040,2.87091180,-1.88268530,-4.01933770
459,1778604405.179248,-1.31574750,-1.56350590,-1.87187760,-0.73685560,1.44164090,-3.33272550
460,1778604405.1892974,-1.52844290,-1.68643990,-1.25428040,-1.45645440,2.42024640,-2.66932630
461,1778604405.1993542,-1.68845220,-1.78351870,-0.97572770,-1.35138560,2.43612890,-2.29792050
462,1778604405.2093885,-1.68845220,-1.78351870,-0.97572770,-1.35138560,2.43612890,-2.29792050
463,1778604405.2195704,-1.88992730,-1.85766940,-0.80205900,-1.00930130,2.15268750,-1.83732860
464,1778604405.2293596,-2.04505830,-1.92499040,-0.68253980,-0.50228360,1.71286490,-1.21302470
465,1778604405.239519,-2.14994240,-1.90840410,-0.65131850,0.66691160,0.68172510,0.15409064
466,1778604405.2492943,-1.84309540,-1.88352450,-1.02938930,1.58809570,-0.61086476,1.79365170
467,1778604405.2591293,-1.84309540,-1.88352450,-1.02938930,1.58809570,-0.61086476,1.79365170
468,1778604405.2694042,-1.42648570,-1.83815610,-1.33965130,1.59420430,-1.01281380,2.57189350
469,1778604405.2793648,-1.42648570,-1.83815610,-1.33965130,1.26922430,-1.06046130,3.07402420
470,1778604405.2890854,-1.14012750,-1.75034600,-1.37721460,0.49831295,-0.85276720,3.59692450
471,1778604405.2993536,-0.90401614,-1.69278180,-1.26013460,-0.75762504,-0.31276277,4.11371600
472,1778604405.309365,-0.67619800,-1.68887900,-1.04500000,-1.67392220,0.16859868,4.42037000
473,1778604405.3194332,-0.51131034,-1.69766000,-0.80352247,-2.57922390,0.69516414,4.71602870
474,1778604405.3295498,-0.14982581,-1.73132050,-0.01323248,-3.40755650,1.14964750,5.00435700
475,1778604405.3396368,0.03408735,-1.74839470,0.39508402,-4.38127470,1.54670970,5.43929300
476,1778604405.3495226,0.14677685,-1.75229740,0.65119654,-5.05567000,1.52960540,6.07703540
477,1778604405.3593404,0.14677685,-1.75229740,0.65119654,-5.05567000,1.52960540,6.07703540
478,1778604405.3694825,0.14677685,-1.75229740,0.65119654,-5.05567000,1.52960540,6.07703540
479,1778604405.3793998,1.16293370,-1.59716630,1.67613430,-3.96222160,0.69272065,6.73310400
480,1778604405.3894238,1.16293370,-1.59716630,1.67613430,-3.96222160,0.69272065,6.73310400
481,1778604405.399569,1.44929200,-1.30885680,1.67028030,-3.24873160,0.43860090,6.61581850
482,1778604405.4092207,1.44929200,-1.30885680,1.67028030,-2.74537900,0.24556763,6.47409770
483,1778604405.4190974,1.44977970,-1.19519160,1.58442180,-2.34220840,0.06230821,6.33970740
484,1778604405.4294689,1.36392100,-0.97908145,1.26684220,-1.83152530,-0.06963859,6.19554330
485,1778604405.4395597,1.36392100,-0.97908145,1.26684220,-1.83152530,-0.06963859,6.19554330
486,1778604405.449392,1.41563140,-0.85761100,1.13317580,-1.90116390,0.05864302,6.25907330
487,1778604405.4594057,1.48100100,-0.79907100,1.09317360,-1.99768050,0.21258095,6.28472950
488,1778604405.4690588,1.64101040,-0.69760170,1.06878190,-2.22980900,0.58643020,6.27251240
489,1778604405.4794753,1.74101630,-0.62589014,1.04487800,-2.41429040,0.85765415,6.22364330
490,1778604405.4891036,1.92005100,-0.51661550,0.94828700,-2.95185140,1.62490030,6.03183170
491,1778604405.4991472,1.90297690,-0.45466065,1.13073670,-4.23100230,3.15084050,5.48816200
492,1778604405.509515,1.90297690,-0.45466065,1.13073670,-4.23100230,3.15084050,5.48816200
493,1778604405.5195427,1.76296870,-0.36880200,1.57856770,-4.59874300,3.55889820,5.39408870
494,1778604405.5295455,1.91029430,-0.24879500,1.73321090,-4.39349200,3.34876060,5.55535700
495,1778604405.539253,2.13274650,-0.15269183,1.66735340,-4.13692900,3.10930180,5.58101300
496,1778604405.549141,2.34397820,-0.06927233,1.48002540,-4.02453000,2.98590700,5.51870540
497,1778604405.5591898,2.34397820,-0.06927233,1.48002540,-4.02453000,2.98590700,5.51870540
498,1778604405.5692499,2.34397820,-0.06927233,1.48002540,-4.02453000,2.98590700,5.51870540
499,1778604405.5792313,2.72497600,0.04536850,1.00926610,-4.62439900,3.27790050,5.21938130
500,1778604405.5891097,2.90791370,0.48783335,1.43758390,-5.81802900,3.88143500,4.44602700
501,1778604405.5994442,2.88791230,0.72492033,1.67320740,-5.79115100,3.69084500,4.21145440
502,1778604405.6097062,2.88791230,0.72492033,1.67320740,-5.79115100,3.69084500,4.21145440
503,1778604405.6192691,2.88108250,0.98103285,1.83809510,-5.55291370,3.36586500,3.98054770
504,1778604405.6291282,3.02889630,1.55716410,2.04396080,-4.46068700,2.38359430,3.47230820
505,1778604405.639256,3.02889630,1.55716410,2.04396080,-4.01109080,1.91322850,3.36601760
506,1778604405.649402,3.28403300,1.76985940,2.18055400,-4.01109080,1.91322850,3.36601760
507,1778604405.659525,3.65234730,1.96743180,2.33178230,-3.34524820,1.28770290,3.19008850
508,1778604405.6696725,3.94651060,2.15183280,2.43081260,-2.74171380,0.81489360,2.93841220
509,1778604405.6793106,4.16457220,2.42404400,2.42398290,-1.95369830,0.37751442,2.46193770
510,1778604405.6894298,3.99285480,2.99968720,2.20397000,-0.84314610,0.05497783,1.36726810
511,1778604405.6991372,3.90845970,3.15725730,2.18494460,-0.54870930,0.05375610,1.04228810
512,1778604405.7093577,3.90845970,3.15725730,2.18494460,-0.54870930,0.05375610,1.04228810
513,1778604405.7195654,3.88601950,3.24701860,2.18396900,-0.27748534,0.07819069,0.71486450
514,1778604405.7290876,3.90748400,3.25775120,2.21762940,0.00473420,0.11117739,0.33735007
515,1778604405.7391024,3.94895000,3.14847640,2.37910220,0.53740830,0.06352994,-0.37980518
516,1778604405.749163,3.89967900,2.93626880,2.41471400,1.11406470,0.07941242,-1.15071650
517,1778604405.7592432,3.74698690,2.66552140,2.34739300,1.60642170,0.22846343,-1.86054130
518,1778604405.7690568,3.42794400,2.35623500,2.23421570,2.05723980,0.38851000,-2.55814890
519,1778604405.7792742,2.48642560,1.54106550,1.90151330,2.89901160,0.50335260,-3.72123550
520,1778604405.78927,2.17567560,1.17372700,1.82394780,3.12747500,0.39217520,-4.04132840
521,1778604405.7992918,2.17567560,1.17372700,1.82394780,3.12747500,0.39217520,-4.04132840
522,1778604405.8094788,2.01273940,0.90980920,1.87565820,3.31684300,0.22601996,-4.29178330
523,1778604405.8193588,1.77565240,0.44197700,2.12055060,3.47200270,0.13805544,-4.42861700
524,1778604405.8295054,1.66442640,0.10488417,2.22250770,4.35042600,0.01588248,-4.75970550
525,1778604405.8394544,1.66442640,0.10488417,2.22250770,4.35042600,0.01588248,-4.75970550
526,1778604405.8495808,1.56881100,-0.34441036,2.15811370,5.30581860,-0.09285145,-4.93319130
527,1778604405.859134,1.56881100,-0.34441036,2.15811370,5.30581860,-0.09285145,-4.93319130
528,1778604405.8695786,1.53027220,-0.55271520,2.05810790,5.76396750,-0.24556763,-5.02115600
529,1778604405.8794625,1.51612500,-0.66003850,1.98054230,6.05718230,-0.42516190,-5.10179000
530,1778604405.889514,1.51612500,-0.66003850,1.98054230,6.05718230,-0.42516190,-5.10179000
531,1778604405.899469,1.42343680,-0.96249520,1.52929650,6.35772800,-1.20096020,-5.43410000
532,1778604405.909486,1.42343680,-0.96249520,1.52929650,6.35772800,-1.20096020,-5.43410000
533,1778604405.9195487,1.44002310,-0.98054504,1.43172990,6.21234230,-1.27915080,-5.52817340
534,1778604405.929295,1.46782960,-0.98054504,1.34489560,5.67966800,-1.06046130,-5.81283660
535,1778604405.9392533,1.48587930,-1.04054860,1.33074830,5.47930430,-0.82100224,-5.94356160
536,1778604405.949301,1.48587930,-1.04054860,1.33074830,5.47930430,-0.82100224,-5.94356160
537,1778604405.9595861,1.43660820,-1.06201330,1.29025820,5.39744850,-0.65851223,-6.04374360
538,1778604405.9693844,1.32196740,-1.07372120,1.24586530,5.34002730,-0.58276500,-6.08894730
539,1778604405.9791732,1.04878070,-1.04493900,1.15805540,5.25206300,-1.11543900,-5.88858370
540,1778604405.9895525,0.96975170,-1.00883940,1.10146670,5.21907600,-1.48195790,-5.70410250
541,1778604405.99946,0.93316424,-0.99664350,1.01999860,5.21907600,-1.48195790,-5.70410250
542,1778604406.0091438,0.93316424,-0.99664350,1.01999860,5.20441530,-1.79472080,-5.50496050
543,1778604406.019282,1.03756060,-1.03469460,0.84437853,5.12378100,-2.10137490,-5.34369230
544,1778604406.0294123,1.03756060,-1.03469460,0.84437853,5.12378100,-2.10137490,-5.34369230
545,1778604406.0393748,1.09658840,-1.11030880,0.53362870,4.92830400,-2.20155670,-5.54039100
546,1778604406.049537,0.67022200,-1.11908970,-0.10494515,4.21359250,-2.06594470,-5.92401400
547,1778604406.0594375,0.67022200,-1.11908970,-0.10494515,4.21359250,-2.06594470,-5.92401400
548,1778604406.0699832,0.33020220,-1.15372590,-0.31276214,3.70290950,-1.88146350,-5.86414900
549,1778604406.0795321,0.03750219,-1.16982440,-0.46691746,3.20933080,-1.64811310,-5.59414670
550,1778604406.0892944,-0.58692450,-1.23080360,-1.03817030,2.45308020,-0.96883154,-4.73771430
551,1778604406.099465,-0.75717837,-1.26153710,-1.40160610,2.45308020,-0.96883154,-4.73771430
552,1778604406.1095936,-0.79913200,-1.28983130,-1.49478230,0.86361010,0.03909535,-3.47566800
553,1778604406.1193419,-1.04207300,-1.50691710,-1.25818310,0.30527967,0.31520623,-3.15190960
554,1778604406.1293902,-1.04207300,-1.50691710,-1.25818310,-0.06979130,0.24556763,-2.65466570
555,1778604406.1393664,-1.02353540,-1.64399840,-1.10061300,0.06215549,-0.03909535,-2.30036400
556,1778604406.1494365,-1.14061530,-1.74595560,-1.14890850,0.42134398,-0.40317076,-1.89474990
557,1778604406.1594586,-1.30355170,-1.81425230,-1.28013560,0.72311120,-0.67317300,-1.31565000
558,1778604406.1691666,-1.42209520,-1.82303320,-1.40746020,0.81718430,-0.75136370,-0.88560120
559,1778604406.1791883,-1.42599790,-1.75961480,-1.74796800,0.45433068,-0.65851223,0.81382460
560,1778604406.18932,-1.29867340,-1.77668890,-1.71479520,0.14889829,-0.43249226,1.31595540
561,1778604406.19949,-1.26842770,-1.74497990,-1.60113000,-0.11988221,-0.21991132,1.76433010
562,1778604406.2093267,-1.26842770,-1.74497990,-1.60113000,-0.11988221,-0.21991132,1.76433010
563,1778604406.2195776,-1.26842770,-1.74497990,-1.60113000,-0.11988221,-0.21991132,1.76433010
564,1778604406.2293465,-0.89182030,-1.59765410,-1.22793750,-0.88101970,-0.44959646,3.61647220
565,1778604406.2393296,-0.89182030,-1.59765410,-1.22793750,-0.88101970,-0.44959646,3.61647220
566,1778604406.2494226,-0.56545985,-1.55277350,-1.07280650,-1.26342100,-0.61330825,4.14670300
567,1778604406.259461,-0.34008083,-1.52106440,-0.91669980,-1.62138780,-0.58643020,4.51688670
568,1778604406.2694876,0.04725886,-1.46593920,-0.41959770,-2.39474270,-0.25534147,5.23404200
569,1778604406.2793717,0.04725886,-1.46593920,-0.41959770,-2.39474270,-0.25534147,5.23404200
570,1778604406.2894793,0.42923236,-1.37617780,0.17458336,-2.72094440,-0.24801110,5.93531500
571,1778604406.2992551,0.42923236,-1.37617780,0.17458336,-2.72094440,-0.24801110,5.93531500
572,1778604406.3092387,0.76974000,-1.27909900,0.60241320,-2.65497110,-0.35430157,6.16011330
573,1778604406.3193061,0.76974000,-1.27909900,0.60241320,-2.51691560,-0.39217520,6.37635950
574,1778604406.3295834,0.91023600,-1.25665870,0.71022440,-2.31288670,-0.36651886,6.65002700
575,1778604406.3392434,1.17610530,-1.17762970,0.82242600,-2.13451430,-0.33353218,6.88337700
576,1778604406.3492007,1.47563490,-1.09421010,0.91560215,-2.00623270,-0.27611090,6.99455450
577,1778604406.3594406,1.65271830,-1.01469340,0.96682465,-1.94148100,-0.23090689,6.95301600
578,1778604406.3692718,1.75077300,-0.92200500,0.99609470,-1.90482910,-0.09896009,6.84916900
579,1778604406.3795917,1.90590390,-0.65418450,1.02194990,-1.90727260,0.08552107,6.71844340
580,1778604406.3897629,1.91614840,-0.55222730,1.03804840,-2.07953640,0.40805766,6.18576960
581,1778604406.3993587,1.91614840,-0.55222730,1.03804840,-2.07953640,0.40805766,6.18576960
582,1778604406.409449,1.87321900,-0.44344050,1.10585710,-2.17727470,0.44470957,5.90843700
583,1778604406.4195302,1.83126530,-0.40002334,1.15073790,-2.20659640,0.47280934,5.73128600
584,1778604406.429371,1.67320740,-0.27904066,1.24830450,-2.15284010,0.75136370,5.55291370
585,1778604406.4394805,1.61417960,-0.22391550,1.22927900,-2.17605300,1.00670520,5.57490500
586,1778604406.4490845,1.61417960,-0.22391550,1.22927900,-2.17605300,1.00670520,5.57490500
587,1778604406.4592085,1.61417960,-0.22391550,1.22927900,-2.17605300,1.00670520,5.57490500
588,1778604406.4692636,1.63320500,-0.10439634,1.09561260,-2.37275150,1.65422180,5.68974730
589,1778604406.47926,2.00737300,-0.04634417,0.96487340,-3.26094900,2.55097130,5.63843440
590,1778604406.4895186,2.00737300,-0.04634417,0.96487340,-3.26094900,2.55097130,5.63843440
591,1778604406.4993217,2.08298730,-0.01658633,1.04439020,-3.71543240,2.92115550,5.32078500
592,1778604406.5093527,2.04054600,0.01756200,1.10634500,-4.00253870,3.10074970,5.05811300
593,1778604406.5195677,1.96737090,0.05707650,1.11805300,-4.21267600,3.23391820,4.88218400
594,1778604406.5298145,1.96932220,0.17074168,1.14000550,-4.65372040,3.18993600,4.78811070
595,1778604406.5395212,1.96932220,0.17074168,1.14000550,-4.65372040,3.18993600,4.78811070
596,1778604406.5490634,2.11908700,0.30733500,1.20927790,-4.84186700,2.85762550,4.74412870
597,1778604406.5594218,2.27714510,0.43758650,1.20391170,-4.84186700,2.85762550,4.74412870
598,1778604406.569504,2.45325280,0.56637454,1.24147490,-4.97137000,2.76233050,4.60240800
599,1778604406.5791276,2.57618700,0.66784390,1.30977150,-5.11186930,2.71712660,4.35561850
600,1778604406.5893512,2.75717300,0.99957050,1.58686090,-5.14974260,2.61327960,4.00253870
601,1778604406.599395,3.13134120,1.38934930,1.99371400,-4.66960300,2.11114860,3.68366740
602,1778604406.6094103,3.13134120,1.38934930,1.99371400,-4.66960300,2.11114860,3.68366740
603,1778604406.6190584,3.35476900,1.51716170,2.11128160,-4.30186270,1.79960760,3.47719500
604,1778604406.62918,4.21189200,2.32355020,2.50203630,-3.10701100,1.00792700,2.51325040
605,1778604406.6391833,4.22164870,2.64747140,2.52350100,-2.65130600,0.71226835,1.94148100
606,1778604406.649202,4.11091040,2.94944050,2.59130980,-2.13451430,0.50457430,1.36238120
607,1778604406.6592371,4.11091040,2.94944050,2.59130980,-2.13451430,0.50457430,1.36238120
608,1778604406.6690476,4.05090700,3.21238260,2.93181730,-1.72767830,0.46547896,1.00930130
609,1778604406.679078,4.05090700,3.21238260,2.93181730,-0.95554525,0.49846566,0.46685340
610,1778604406.6892262,4.35043670,3.06456900,3.32988950,-0.23838998,0.46914417,0.05513055
611,1778604406.6992867,4.35043670,3.06456900,3.32988950,0.87460566,0.39950556,-0.64247704
612,1778604406.7093096,4.34068000,2.79723620,3.28061820,1.86054130,0.30298892,-1.43049260
613,1778604406.7191393,4.06603000,2.45672870,3.07426480,2.85380740,0.16615522,-2.30402920
614,1778604406.7293544,3.69625200,2.18402980,2.82546970,3.70779660,-0.04031708,-3.09571000
615,1778604406.7397537,2.28787730,1.22494950,1.73565010,4.72794060,-0.44593130,-4.16838840
616,1778604406.7494435,2.10006140,0.93761570,1.57027460,4.72794060,-0.44593130,-4.16838840
617,1778604406.7593777,2.10006140,0.93761570,1.57027460,4.62653730,-0.47158760,-4.35409160
618,1778604406.7691846,2.05615660,0.71760285,1.61515520,4.50314240,-0.37384924,-4.51291600
619,1778604406.7792428,2.00103140,0.19513334,2.00883670,4.68151470,-0.17592905,-4.96373460
620,1778604406.7892892,1.96151690,-0.02975783,2.16250420,4.98328200,-0.24190246,-5.13966370
621,1778604406.7993908,1.87712170,-0.31514034,2.23811840,5.52328700,-0.42760533,-5.31803600
622,1778604406.8092885,1.87712170,-0.31514034,2.23811840,5.52328700,-0.42760533,-5.31803600
623,1778604406.819523,1.79419000,-0.71077317,2.09567120,6.36872340,-0.92729276,-5.58070800
624,1778604406.8293371,1.79419000,-0.71077317,2.09567120,6.36872340,-0.92729276,-5.58070800
625,1778604406.839349,1.68881810,-0.96883700,1.64637660,6.62895200,-1.44652780,-5.86903600
626,1778604406.8492944,1.68881810,-0.96883700,1.64637660,6.62895200,-1.44652780,-5.86903600
627,1778604406.859526,1.69662340,-0.97956930,1.51856420,6.32596300,-1.40621080,-5.97899150
628,1778604406.8692157,1.68393970,-0.95664114,1.43026640,6.01197860,-1.23394680,-6.06940000
629,1778604406.879446,1.67662220,-0.94932365,1.39514230,5.68211130,-1.00792700,-6.14514700
630,1778604406.8894749,1.66052370,-1.03030400,1.49758730,5.11034200,-0.66828610,-6.31008050
631,1778604406.8992286,1.61808230,-1.04591460,1.53222360,5.05902960,-0.72082040,-6.35772800
632,1778604406.9095993,1.61808230,-1.04591460,1.53222360,5.05902960,-0.72082040,-6.35772800
633,1778604406.91905,1.54929770,-1.05859840,1.54539500,5.07002500,-0.90041470,-6.37971930
634,1778604406.9290988,1.46831740,-1.06494020,1.52490600,5.10179000,-1.04824400,-6.35772800
635,1778604406.9395242,1.46831740,-1.06494020,1.52490600,5.10179000,-1.04824400,-6.35772800
636,1778604406.949269,1.05073200,-1.06737940,1.19903340,5.20808030,-1.87291150,-5.69555040
637,1778604406.9592931,1.05073200,-1.06737940,1.19903340,5.20808030,-1.87291150,-5.69555040
638,1778604406.9693015,0.93657900,-1.05762270,1.02292550,5.19464160,-2.05494900,-5.50618200
639,1778604406.9791875,0.81413287,-1.05664700,0.81559634,5.08590750,-2.17590050,-5.30459700
640,1778604406.989222,0.32142118,-0.96639780,0.20287769,4.26368330,-2.23087800,-4.57644600
641,1778604406.999291,0.32142118,-0.96639780,0.20287769,4.26368330,-2.23087800,-4.57644600
642,1778604407.009339,0.20092636,-0.94932365,0.03799002,3.81408700,-2.17101340,-4.18427100
643,1778604407.0194676,0.07116269,-1.08494140,-0.19177948,3.04806260,-1.93399790,-3.51109810
644,1778604407.0292008,0.07116269,-1.08494140,-0.19177948,3.04806260,-1.93399790,-3.51109810
645,1778604407.0391002,-0.16836348,-1.25226820,-0.53423850,2.70597820,-1.50394900,-3.20322230
646,1778604407.0491784,-0.45325816,-1.38739800,-0.87425830,2.34068100,-1.04213540,-2.99674990
647,1778604407.0592403,-0.67083186,-1.43666920,-1.02060830,1.95950150,-0.75014200,-2.82448600
648,1778604407.0692704,-0.98158160,-1.49911190,-1.16549490,1.47814000,-0.53145236,-2.47995830
649,1778604407.079315,-1.09866170,-1.64546180,-1.18842300,1.25578520,-0.41905323,-2.23561240
650,1778604407.0893438,-1.34892010,-1.83035080,-1.30257600,0.99555690,-0.07208204,-1.73103810
651,1778604407.099367,-1.65332820,-1.88889060,-1.38745900,0.81840610,0.27733260,-1.03220880
652,1778604407.109463,-1.74650440,-1.90742850,-1.41526540,0.75854135,0.35674503,-0.58994263
653,1778604407.1191301,-1.78553100,-1.93669840,-1.46404890,0.66813340,0.38484480,0.04169152
654,1778604407.1292794,-1.74504080,-1.95669950,-1.48600140,0.54473865,0.40805766,0.65866494
655,1778604407.139705,-1.61235020,-1.88596370,-1.41624120,0.41279188,0.45692685,2.01967170
656,1778604407.1494408,-1.56942080,-1.82937490,-1.44697460,0.32971427,0.10384701,2.64397550
657,1778604407.1594095,-1.56942080,-1.82937490,-1.44697460,0.32971427,0.10384701,2.64397550
658,1778604407.169453,-1.56942080,-1.82937490,-1.44697460,0.32971427,0.10384701,2.64397550
659,1778604407.179115,-1.31574750,-1.71912480,-1.46648800,-0.25671592,-0.42638360,3.69221950
660,1778604407.1897395,-0.63570780,-1.59277580,-1.08451450,-1.57496210,-0.26145010,4.80521500
661,1778604407.1991446,-0.63570780,-1.59277580,-1.08451450,-1.57496210,-0.26145010,4.80521500
662,1778604407.209262,-0.33032414,-1.53423580,-0.78644830,-2.23958300,0.11117739,5.19494700
663,1778604407.2192972,-0.09274931,-1.49520920,-0.50984680,-2.67574050,0.42394015,5.44295800
664,1778604407.2295542,0.40191370,-1.37520220,0.14433768,-3.00194220,0.66217744,5.62133030
665,1778604407.2393508,0.55119070,-1.32885800,0.39362052,-3.31959200,0.85887590,5.85468050
666,1778604407.2492893,0.63704940,-1.30397840,0.55314200,-3.29760070,0.81122845,5.97074500
667,1778604407.259452,0.63704940,-1.30397840,0.55314200,-3.29760070,0.81122845,5.97074500
668,1778604407.269242,1.06780620,-1.23860880,0.89852810,-3.08746340,0.61208653,6.37025070
669,1778604407.2791622,1.06780620,-1.23860880,0.89852810,-3.08746340,0.61208653,6.37025070
670,1778604407.289148,1.30391750,-1.19324040,1.01609590,-2.94574260,0.52534370,6.40568070
671,1778604407.299222,1.56978680,-1.07859950,1.14000550,-2.66107960,0.41538805,6.22975160
672,1778604407.3093097,1.62783890,-1.00591240,1.16195800,-2.51325040,0.37507100,6.08680900
673,1778604407.319744,1.66003580,-0.90493083,1.13561500,-2.33732130,0.40805766,5.89255430
674,1778604407.329265,1.57710420,-0.70101650,0.93316424,-2.27012630,0.86742800,5.41119300
675,1778604407.3392272,1.47661050,-0.64394003,0.82291390,-2.46804640,1.21806440,5.21693800
676,1778604407.3492596,1.47661050,-0.64394003,0.82291390,-2.46804640,1.21806440,5.21693800
677,1778604407.359182,1.38733710,-0.62003620,0.78437500,-2.75637460,1.56870080,5.06422200
678,1778604407.3693244,1.27415970,-0.60637680,0.91218740,-3.23651430,1.91567200,4.94082700
679,1778604407.3791416,1.27415970,-0.60637680,0.91218740,-3.23651430,1.91567200,4.94082700
680,1778604407.3891623,1.53612630,-0.47514970,1.24488970,-3.32692240,1.77150790,4.91272740
681,1778604407.3990705,1.65125480,-0.38148567,1.29562440,-3.26827930,1.76295580,4.85164070
682,1778604407.4095104,1.65125480,-0.38148567,1.29562440,-3.26827930,1.76295580,4.85164070
683,1778604407.419724,1.79760480,-0.32782400,1.30928360,-3.24751000,1.80449450,4.75634570
684,1778604407.4292102,1.85419360,-0.26245433,1.25659760,-3.31104000,2.10870530,4.48390000
685,1778604407.4393399,1.85419360,-0.26245433,1.25659760,-3.31104000,2.10870530,4.48390000
686,1778604407.4497888,1.77516460,-0.12586100,1.25610980,-3.61158540,3.00667640,4.13570740
687,1778604407.459102,1.77516460,-0.12586100,1.25610980,-3.66167620,3.11541030,4.13692900
688,1778604407.469528,1.88687850,-0.05512517,1.31611340,-3.64945900,3.01156330,4.18824150
689,1778604407.4794526,2.15225960,0.06488183,1.29269740,-3.58348560,2.70490930,4.15647650
690,1778604407.4891572,2.53569670,0.13122717,1.15171350,-3.83638360,2.21743920,3.76185800
691,1778604407.499426,2.53569670,0.13122717,1.15171350,-3.83638360,2.21743920,3.76185800
692,1778604407.509262,2.55521000,0.16879034,1.07805070,-4.22245030,2.42024640,3.44543000
693,1778604407.5192869,2.32105020,0.35806966,1.31660120,-5.04956100,2.97368980,3.20108410
694,1778604407.5293555,2.32105020,0.35806966,1.31660120,-5.04956100,2.97368980,3.20108410
695,1778604407.5395298,2.49325540,0.60491335,2.10006140,-4.71236370,2.26142140,3.41977380
696,1778604407.549567,2.49325540,0.60491335,2.10006140,-4.71236370,2.26142140,3.41977380
697,1778604407.5590699,2.82790880,0.80053450,2.31617160,-4.00620400,1.45996680,3.39778260
698,1778604407.5693686,3.12402400,0.98835040,2.30885400,-3.41122170,0.84299340,3.23162750
699,1778604407.579136,3.31818150,1.15079880,2.24689940,-2.96651220,0.39217520,2.92863850
700,1778604407.5893826,3.53916980,1.59765410,2.16445570,-2.50836350,0.15149446,2.38741230
701,1778604407.599407,3.47038560,1.90791630,2.07225510,-2.28234360,0.32620180,1.99890230
702,1778604407.6095169,3.38940500,2.09524420,2.06152270,-2.16261400,0.57787806,1.76066500
703,1778604407.6195195,3.30013130,2.65186210,2.44154500,-1.57007520,0.83077610,1.32572930
704,1778604407.6295385,3.44209100,2.87821670,2.70692600,-0.86635900,0.63896453,1.00074920
705,1778604407.6392238,3.67381200,2.98163750,2.83181170,0.05971203,0.35063640,0.48395762
706,1778604407.649274,3.81138090,2.96749020,2.80693220,0.87216216,0.15882485,-0.13301581
707,1778604407.6592789,3.81138090,2.96749020,2.80693220,0.87216216,0.15882485,-0.13301581
708,1778604407.6693923,3.46550730,2.50258500,2.18299320,2.63023110,0.20402883,-2.09022670
709,1778604407.679241,3.12548730,2.19378660,1.89126880,3.06883200,0.29932374,-2.73041300
710,1778604407.6895382,3.12548730,2.19378660,1.89126880,3.06883200,0.29932374,-2.73041300
711,1778604407.699376,2.78351600,1.88450030,1.60734990,3.35960360,0.32375833,-3.32783870
712,1778604407.709406,2.46788790,1.51277120,1.37172640,3.39747710,0.29932374,-3.74933530
713,1778604407.7195697,2.30348800,1.23519410,1.32635780,3.35349500,0.27611090,-3.95214250
714,1778604407.729607,2.19275000,0.98152070,1.42294900,3.30096050,0.24312419,-4.19893170
715,1778604407.7395215,2.07225510,0.65223320,1.66393860,3.43290730,0.12461641,-4.58988500
716,1778604407.7491,1.98639640,0.15513100,2.03420420,3.97169020,-0.04276054,-4.93685630
717,1778604407.7591472,1.98639640,0.15513100,2.03420420,3.97169020,-0.04276054,-4.93685630
718,1778604407.7690578,1.98932340,-0.02536733,2.10933040,4.27467900,-0.06475167,-5.05902960
719,1778604407.7791095,1.97615200,-0.15513100,2.12786800,4.58377650,-0.01343903,-5.17387200
720,1778604407.7892973,1.93419830,-0.65808713,2.25714370,5.43410000,-0.15638138,-5.42921350
721,1778604407.799208,1.93419830,-0.65808713,2.25714370,5.43410000,-0.15638138,-5.42921350
722,1778604407.809261,1.91566060,-0.81370600,2.23226430,5.78718040,-0.36774060,-5.54283430
723,1778604407.819482,1.81419120,-1.02249860,1.99468960,6.15492060,-0.69882930,-5.69921600
724,1778604407.8295126,1.72784470,-1.04591460,1.70491650,6.22089430,-1.03113970,-5.87025800
725,1778604407.839304,1.70198950,-1.01566900,1.54100450,6.22089430,-1.03113970,-5.87025800
726,1778604407.8493514,1.70198950,-1.01566900,1.54100450,5.90324450,-0.90896680,-5.87881000
727,1778604407.8593533,1.73125970,-0.98835040,1.49856300,5.50740430,-0.55100006,-5.87392300
728,1778604407.8692737,1.69515980,-0.98005724,1.60783780,5.09445950,0.01099557,-5.88858370
729,1778604407.879372,1.69515980,-0.98005724,1.60783780,5.09445950,0.01099557,-5.88858370
730,1778604407.8894625,1.62783890,-1.01030290,1.64149820,5.10667700,0.04153880,-5.87270100
731,1778604407.899403,1.53027220,-1.05615910,1.62979030,5.27161030,-0.17715079,-5.82016700
732,1778604407.9094603,1.41270430,-1.06396450,1.55710300,5.40233500,-0.42760533,-5.75785880
733,1778604407.9191794,1.27464750,-1.04201200,1.43465690,5.49152200,-0.71104660,-5.63690760
734,1778604407.9293337,1.12780980,-0.99127734,1.22927900,5.49152200,-0.95172733,-5.48052600
735,1778604407.9393885,0.84486634,-0.86102587,0.84486634,5.18731100,-1.32191130,-4.88065670
736,1778604407.9491825,0.84486634,-0.86102587,0.84486634,5.18731100,-1.32191130,-4.88065670
737,1778604407.959347,0.73803085,-0.84980565,0.71656620,5.05414250,-1.40498900,-4.66441060
738,1778604407.9693754,0.63021970,-0.85468405,0.57899720,4.94418670,-1.44530610,-4.45305160
739,1778604407.979402,0.54923934,-0.87175820,0.46045370,4.85988760,-1.44408430,-4.26124000
740,1778604407.9894207,0.36727753,-0.91176050,0.19604802,4.74260140,-1.50883600,-4.04255060
741,1778604407.99947,0.22483020,-0.96493435,0.00481735,4.68884500,-1.67499130,-3.92282080
742,1778604408.0092661,0.11360419,-1.04054860,-0.19714566,4.64486300,-1.91322850,-3.84951700
743,1778604408.019841,0.01457402,-1.10786950,-0.43813533,4.52391200,-2.17834380,-3.82019570
744,1778604408.0294294,-0.44447714,-1.22592510,-1.27818440,3.71024000,-1.76417740,-3.90571670
745,1778604408.0391169,-0.88060015,-1.32885800,-1.61186230,2.89168120,-0.97860540,-3.77010460
746,1778604408.0491357,-0.88060015,-1.32885800,-1.61186230,2.89168120,-0.97860540,-3.77010460
747,1778604408.0594037,-1.25428040,-1.38886150,-1.73333290,2.16353030,-0.35307986,-3.44756820
748,1778604408.0693204,-1.57917750,-1.40593560,-1.75138270,1.35108020,0.29199335,-2.75240400
749,1778604408.0793805,-1.73284510,-1.44496240,-1.68698870,0.84650590,0.57543460,-2.04990960
750,1778604408.0895462,-1.61674070,-1.52350350,-1.50405120,0.44089165,0.73425950,-1.24234630
751,1778604408.0993938,-1.31818660,-1.72205170,-1.38355640,0.31383178,0.77091134,-0.62170760
752,1778604408.1093965,-1.06890380,-1.97670080,-1.32647980,0.39324420,0.79290247,-0.25885394
753,1778604408.1195226,-1.03426770,-2.08207270,-1.32696770,0.46654797,0.77213305,-0.17455462
754,1778604408.12912,-1.35379850,-2.26452230,-1.41380200,0.71333736,0.29932374,0.24327690
755,1778604408.1391315,-1.72308840,-2.23525240,-1.45429220,0.82207125,-0.17837252,0.75640330
756,1778604408.149216,-1.87773160,-2.20842150,-1.49185530,0.80496705,-0.86742800,1.63238350
757,1778604408.159402,-1.83870480,-2.20403100,-1.49380670,0.61559900,-1.38910650,2.40573800
758,1778604408.1695328,-1.39477660,-2.21476340,-1.29623410,-0.13209951,-1.73607770,3.85593130
759,1778604408.1793938,-1.39477660,-2.21476340,-1.29623410,-0.13209951,-1.73607770,3.85593130
760,1778604408.1890702,-0.60936480,-2.09378080,-0.88011235,-1.71301760,-0.39217520,5.34888460
761,1778604408.1990836,-0.34934965,-2.05524200,-0.68546680,-2.39840800,0.22601996,5.77893350
762,1778604408.209317,-0.34934965,-2.05524200,-0.68546680,-2.39840800,0.22601996,5.77893350
763,1778604408.2194786,0.39362052,-2.00694630,-0.07323598,-3.93900870,1.25105110,6.49608900
764,1778604408.229298,0.67705170,-2.01523950,0.16336319,-4.36783600,1.48195790,6.60115770
765,1778604408.239098,0.67705170,-2.01523950,0.16336319,-4.36783600,1.48195790,6.60115770
766,1778604408.2495246,0.95023835,-2.00450730,0.46386853,-4.73191100,1.58580490,6.58649700
767,1778604408.2591178,1.09902750,-1.95230910,0.75364155,-4.83942370,1.46851900,6.50586270
768,1778604408.2694347,1.48392810,-1.78595780,1.32001600,-4.41059640,1.05801780,6.25296450
769,1778604408.2790866,1.48392810,-1.78595780,1.32001600,-4.41059640,1.05801780,6.25296450
770,1778604408.2892742,1.59076360,-1.56887210,1.50490490,-3.51140360,0.60109097,5.86934140
771,1778604408.299256,1.57612850,-1.43471790,1.41758280,-3.03492900,0.41172287,5.74350360
772,1778604408.3094988,1.58442180,-1.29568540,1.25562200,-2.67329700,0.32620180,5.67753000
773,1778604408.3194852,1.88639040,-0.98542340,0.94779920,-2.81623940,0.31520623,5.57734800
774,1778604408.329267,1.88639040,-0.98542340,0.94779920,-2.81623940,0.31520623,5.57734800
775,1778604408.3394141,2.01371500,-0.83663416,0.90340640,-3.15465860,0.40072730,5.36843250
776,1778604408.3495212,2.02688670,-0.63223200,1.01951060,-3.81927940,0.88453220,4.94082700
777,1778604408.3591938,2.02688670,-0.63223200,1.01951060,-3.81927940,0.88453220,4.94082700
778,1778604408.3692486,1.92541720,-0.62198750,1.07122100,-4.05996000,1.33535040,4.81987570
779,1778604408.379142,1.77857940,-0.62540233,1.07609940,-4.33240560,1.89856770,4.76367600
780,1778604408.389145,1.52149130,-0.48539415,1.29416080,-5.28902000,2.93825960,5.21938130
781,1778604408.3992076,1.52149130,-0.48539415,1.29416080,-5.28902000,2.93825960,5.21938130
782,1778604408.409245,1.75711480,-0.42782986,1.55807880,-5.48694040,2.70979620,5.48571830
783,1778604408.4200077,2.51959820,-0.28684600,1.97517630,-5.44417950,2.26142140,5.60178300
784,1778604408.4295597,2.51959820,-0.28684600,1.97517630,-5.16684700,1.46485380,5.53947450
785,1778604408.4392152,3.09475370,-0.11122601,2.08932920,-4.58041670,0.74892020,5.12897350
786,1778604408.449059,3.06158100,0.18391317,1.90492830,-4.23588900,0.78923730,4.62684250
787,1778604408.4591072,2.92645120,0.41368267,1.81370340,-4.22978070,1.02258770,4.42037000
788,1778604408.469131,2.75912430,0.79224133,1.86492590,-4.34095760,1.58702670,4.32141000
789,1778604408.4792302,2.97621000,1.36495770,2.13518550,-4.17480300,1.87779830,4.37638800
790,1778604408.4892552,2.97621000,1.36495770,2.13518550,-4.17480300,1.87779830,4.37638800
791,1778604408.4992783,3.35379340,1.62399710,2.25568030,-3.89013960,1.44041920,4.08683820
792,1778604408.5092974,3.67381200,1.92938090,2.38788320,-3.53950330,0.93706656,3.77285360
793,1778604408.5193162,3.88406830,2.14110060,2.37959000,-3.19375370,0.46059203,3.37945680
794,1778604408.5293546,4.15335200,2.57576010,2.27324250,-2.99705530,0.23823726,2.90664740
795,1778604408.539573,4.05090700,3.22018800,2.23519130,-3.19008850,1.05923950,1.60672710
796,1778604408.5491903,4.05090700,3.22018800,2.23519130,-3.19008850,1.05923950,1.60672710
797,1778604408.5594482,3.84894420,3.32653570,2.41178700,-3.24017950,1.56625720,1.16690440
798,1778604408.5694687,3.18110010,3.57630600,3.19036910,-3.10823270,1.87291150,0.75029470
799,1778604408.5794427,3.18110010,3.57630600,3.19036910,-2.35564730,1.84358990,0.21151192
800,1778604408.5891063,3.03816500,3.41483330,3.62551640,-1.43690670,1.50517080,-0.11346813
801,1778604408.5991583,3.03816500,3.41483330,3.62551640,0.32482734,0.89430606,-0.74143714
802,1778604408.6092758,3.03816500,3.41483330,3.62551640,0.32482734,0.89430606,-0.74143714
803,1778604408.6192863,2.87669230,3.04115320,3.33379220,2.45063690,0.33719736,-1.60275650
804,1778604408.6290853,2.67326570,2.51282950,2.81327400,3.86051270,0.09529491,-2.35167670
805,1778604408.6392539,2.51130500,2.14646670,2.43276400,4.50925100,0.03543016,-2.81959920
806,1778604408.649361,2.30104880,1.68741550,2.03517990,5.00771670,0.00244346,-3.34860800
807,1778604408.6593857,2.09811020,1.27031800,1.79858050,5.24961900,-0.04886918,-3.81164360
808,1778604408.6694093,1.84882740,0.63320770,1.74833360,5.52328700,-0.23090689,-4.46038200
809,1778604408.6794727,1.84882740,0.63320770,1.74833360,5.52328700,-0.23090689,-4.46038200
810,1778604408.6894853,1.80053200,0.32538486,1.80687370,5.72365050,-0.36896232,-4.73404930
811,1778604408.6994774,1.89858640,-0.20635350,1.83126530,6.24532900,-0.56077385,-5.20563700
812,1778604408.7095072,1.89858640,-0.20635350,1.83126530,6.24532900,-0.56077385,-5.20563700
813,1778604408.7195146,1.95615080,-0.44539183,1.74491880,6.43225340,-0.56932600,-5.45853470
814,1778604408.729439,1.90931870,-0.89614980,1.47368350,6.50922250,-0.58398670,-5.78473660
815,1778604408.739534,1.89322020,-1.03615810,1.42197320,6.27098500,-0.66339916,-6.23311140
816,1778604408.7494535,1.84736400,-1.09762500,1.41465570,6.27098500,-0.66339916,-6.23311140
817,1778604408.7591863,1.84736400,-1.09762500,1.41465570,6.04252150,-0.80756325,-6.39560170
818,1778604408.7694225,1.77955510,-1.11469920,1.38050730,5.90324450,-0.86620620,-6.46890540
819,1778604408.7794662,1.60149590,-1.05664700,1.28342850,5.31925770,-0.79656770,-6.47867900
820,1778604408.7895231,1.60149590,-1.05664700,1.28342850,5.31925770,-0.79656770,-6.47867900
821,1778604408.7991989,1.56929890,-1.02347430,1.28391650,5.00771670,-0.56077385,-6.35406260
822,1778604408.8094428,1.56393270,-1.00932720,1.33660240,4.79269200,-0.35063640,-6.23188970
823,1778604408.8191757,1.46587820,-0.99664350,1.47368350,4.73649260,-0.33231044,-6.17202500
824,1778604408.8293903,1.46587820,-0.99664350,1.47368350,4.76459260,-0.45203993,-6.07673030
825,1778604408.8393798,1.34879830,-1.01762030,1.47319570,4.98450370,-0.96394460,-5.88736200
826,1778604408.8495986,1.09366140,-1.00444880,1.24928020,5.30581860,-1.72386040,-5.54527760
827,1778604408.859513,1.09366140,-1.00444880,1.24928020,5.30581860,-1.72386040,-5.54527760
828,1778604408.8695264,0.89560103,-0.98786247,1.01170540,5.31925770,-1.96942810,-5.30826230
829,1778604408.8791554,0.73656740,-0.94981160,0.76827660,5.17265030,-2.14780040,-4.94296500
830,1778604408.8892577,0.59704703,-0.88736886,0.54533670,4.85866600,-2.18200900,-4.54101600
831,1778604408.8991392,0.46533203,-0.83078015,0.34971553,4.45793870,-2.02807120,-4.12318470
832,1778604408.9095716,0.40093803,-0.80687636,0.23507468,4.13540170,-1.82892920,-3.79453920
833,1778604408.919043,0.38337603,-0.82199920,0.14775252,3.87639520,-1.66888260,-3.53064560
834,1778604408.9291139,0.37215585,-0.87322170,0.03555085,3.60028430,-1.66155220,-3.37548610
835,1778604408.939264,0.20531686,-0.97517880,-0.18153499,3.39747710,-1.80693800,-3.36326890
836,1778604408.9492733,0.20531686,-0.97517880,-0.18153499,3.39747710,-1.80693800,-3.36326890
837,1778604408.959504,-0.01957431,-1.24934120,-0.45472166,3.02484970,-1.85702900,-3.44756820
838,1778604408.9693062,-0.14543532,-1.44642580,-0.53960466,2.87213350,-1.62490030,-3.48788520
839,1778604408.979432,-1.31818660,-1.86010850,-1.21769300,2.53371430,-0.51190466,-3.28874330
840,1778604408.9895115,-1.75138270,-1.83815610,-1.47673250,2.09144830,-0.10629047,-2.87824200
841,1778604409.0000064,-2.10115930,-1.88596370,-1.61722850,1.32175860,0.49968740,-2.09755680
842,1778604409.0094795,-2.10115930,-1.88596370,-1.61722850,1.32175860,0.49968740,-2.09755680
843,1778604409.019433,-2.19531080,-1.90840410,-1.53039420,0.91247930,0.88086700,-1.53067450
844,1778604409.0294473,-2.15872360,-1.91279450,-1.25135350,0.64247704,1.13254330,-0.75609785
845,1778604409.039139,-1.82846030,-1.99621400,-0.84401260,1.77257690,-0.09773836,1.01541000
846,1778604409.049603,-1.82846030,-1.99621400,-0.84401260,1.77257690,-0.09773836,1.01541000
847,1778604409.0595057,-1.79236070,-2.02109360,-0.97523990,2.25027320,-0.84665860,1.48699760
848,1778604409.069537,-1.79236070,-2.02109360,-0.97523990,2.25027320,-0.84665860,1.48699760
849,1778604409.0792825,-1.72455180,-1.96840760,-1.51819840,2.24538610,-1.89978950,3.11556320
850,1778604409.0894208,-1.72455180,-1.96840760,-1.51819840,2.24538610,-1.89978950,3.11556320
851,1778604409.0994315,-1.55185880,-1.90937970,-1.48746480,1.62108240,-1.65666530,3.77041000
852,1778604409.1092267,-1.38404420,-1.84010740,-1.38014150,1.09329520,-1.30358540,4.29575400
853,1778604409.119249,-0.76839850,-1.76254190,-1.10793040,-0.18585561,-0.33353218,5.39653200
854,1778604409.1294785,-0.76839850,-1.76254190,-1.10793040,-0.18585561,-0.33353218,5.39653200
855,1778604409.1395702,-0.36691165,-1.71814910,-0.92255390,-0.92011505,0.36896232,5.85468050
856,1778604409.1493783,0.15897270,-1.66887780,-0.69961400,-1.63360510,1.00059650,6.15889100
857,1778604409.159394,0.54484886,-1.59863000,-0.56253284,-2.16627930,1.47462760,6.18699100
858,1778604409.1694126,0.76632524,-1.50447810,-0.46984450,-2.70750550,1.93399790,6.04160550
859,1778604409.1795917,0.85950130,-1.45130420,-0.38740066,-3.29515740,2.36282500,5.86323300
860,1778604409.1891522,0.94194525,-1.46252430,0.10287185,-4.88340570,3.56011990,5.61888700
861,1778604409.1992278,0.94194525,-1.46252430,0.10287185,-4.88340570,3.56011990,5.61888700
862,1778604409.209324,0.94877490,-1.41130190,0.41947567,-5.25481200,4.17464970,5.49915740
863,1778604409.2193532,0.83267050,-1.31275950,0.67558820,-5.36965400,4.46297800,5.41363600
864,1778604409.2292984,0.83267050,-1.31275950,0.67558820,-5.40508400,4.47397380,5.38798000
865,1778604409.239462,0.83267050,-1.31275950,0.67558820,-5.40508400,4.47397380,5.38798000
866,1778604409.249506,1.07609940,-1.22982780,1.15122570,-5.09232140,2.00241470,5.86934140
867,1778604409.2591012,1.07609940,-1.22982780,1.15122570,-5.09232140,2.00241470,5.86934140
868,1778604409.269272,1.68686660,-1.11030880,1.44538930,-4.74779370,1.15819970,5.95852760
869,1778604409.2791753,1.68686660,-1.11030880,1.44538930,-4.31041500,0.44593130,5.85345900
870,1778604409.2891479,1.83224100,-0.93907917,1.45075540,-3.60181140,0.00855211,5.50037900
871,1778604409.2993963,1.83224100,-0.93907917,1.45075540,-3.60181140,0.00855211,5.50037900
872,1778604409.3093512,1.66198730,-0.72735950,1.16781210,-3.16198870,0.84177166,5.25725500
873,1778604409.3193784,1.60978900,-0.64003736,1.10536930,-3.33180930,1.29992020,5.31345460
874,1778604409.3294857,1.62539970,-0.59076620,1.11317470,-3.61769400,1.62734380,5.41852330
875,1778604409.3394735,1.77126180,-0.57320416,1.23366950,-4.10027700,1.85336380,5.50526600
876,1778604409.349321,2.04981470,-0.53466535,1.51953980,-4.48267840,1.99630610,5.29879400
877,1778604409.3594565,2.04981470,-0.53466535,1.51953980,-4.48267840,1.99630610,5.29879400
878,1778604409.369301,2.04981470,-0.53466535,1.51953980,-4.48267840,1.99630610,5.29879400
879,1778604409.3797166,2.21079970,-0.39416936,1.93371050,-4.24077600,1.83870300,4.61951200
880,1778604409.389285,2.17177300,-0.28099200,1.99908000,-4.08317300,1.70186920,4.56453400
881,1778604409.3994575,2.17177300,-0.28099200,1.99908000,-4.08317300,1.70186920,4.56453400
882,1778604409.409488,2.18104200,-0.13659334,2.08884140,-3.84982250,1.78616860,4.69037250
883,1778604409.4190748,2.25372900,-0.03317267,2.14835720,-3.57982040,1.85825060,4.82231950
884,1778604409.429091,2.67765620,0.20245083,2.10591550,-2.80890900,1.34390250,4.67082500
885,1778604409.439282,2.73034210,0.31562817,1.92785630,-2.55967620,0.91874063,4.37638800
886,1778604409.449315,2.73034210,0.31562817,1.92785630,-2.55967620,0.91874063,4.37638800
887,1778604409.459353,2.68643710,0.50344400,1.64101040,-2.62198420,0.76968960,4.17480300
888,1778604409.469386,2.60301760,0.65808713,1.50929550,-2.89931700,0.88453220,4.11738100
889,1778604409.479518,2.85864230,0.94493310,1.88687850,-3.73864500,1.58702670,4.25910200
890,1778604409.4890852,2.85864230,0.94493310,1.88687850,-3.73864500,1.58702670,4.25910200
891,1778604409.4994125,3.19280820,1.17958100,2.29275560,-3.64701530,1.72874740,4.10027700
892,1778604409.509423,3.46599480,1.45813380,2.48691340,-3.29027030,1.74096470,3.75086240
893,1778604409.5194387,3.40501570,2.33769730,2.53033070,-2.17238780,1.48684490,2.47659850
894,1778604409.5294666,3.40501570,2.33769730,2.53033070,-2.17238780,1.48684490,2.47659850
895,1778604409.539535,3.39184430,3.31190060,2.36105230,-1.62260960,1.29992020,1.92437670
896,1778604409.5491042,3.42355350,3.49532600,2.35666200,-0.84070265,1.03113970,0.95310175
897,1778604409.559189,3.42355350,3.49532600,2.35666200,-0.84070265,1.03113970,0.95310175
898,1778604409.569237,3.45965300,3.57533050,2.42008020,-0.41187558,1.17163860,0.45463613
899,1778604409.579439,3.09719280,3.30702230,2.42447100,1.34741500,1.76051240,-1.09696040
900,1778604409.5895052,3.09719280,3.30702230,2.42447100,1.34741500,1.76051240,-1.09696040
901,1778604409.599303,2.69668170,2.64015400,2.22689820,3.21177430,1.17896900,-2.11588290
902,1778604409.6091,2.69668170,2.64015400,2.22689820,3.21177430,1.17896900,-2.11588290
903,1778604409.6191223,2.57911400,2.25330200,1.97029780,3.91671230,0.71593350,-2.54837510
904,1778604409.6292427,2.44300840,1.79181180,1.61808230,4.43350360,0.26878050,-3.04561900
905,1778604409.639567,2.30056100,1.12982200,1.46441470,4.52513360,0.08674280,-3.89716460
906,1778604409.649281,2.30056100,1.12982200,1.46441470,4.52513360,0.08674280,-3.89716460
907,1778604409.6593137,2.23324010,0.84151256,1.68101270,4.50680800,0.12950334,-4.19282300
908,1778604409.669335,2.14591800,0.64833050,1.91175780,4.61554150,0.18448116,-4.40784740
909,1778604409.679494,2.11420870,0.48832120,2.06201050,4.85744400,0.22479823,-4.52513360
910,1778604409.6894922,2.21811720,-0.18391317,2.33275800,5.96555300,0.16859868,-4.76214930
911,1778604409.6994953,2.21811720,-0.18391317,2.33275800,5.96555300,0.16859868,-4.76214930
912,1778604409.7095203,2.24397250,-0.37319250,2.27860860,6.37727550,-0.10751220,-4.94663050
913,1778604409.7192402,2.15762600,-0.69906515,1.99956800,6.89528900,-0.69760760,-5.37667900
914,1778604409.7293077,2.15762600,-0.69906515,1.99956800,6.89528900,-0.69760760,-5.37667900
915,1778604409.7392967,2.05713220,-0.80248580,1.82589910,6.87696300,-0.87353665,-5.59781200
916,1778604409.7490506,1.92688070,-0.84492730,1.69223280,6.69614700,-0.89674950,-5.68577670
917,1778604409.7590635,1.83711950,-0.83468280,1.61417960,6.45913120,-0.82344574,-5.68088960
918,1778604409.76912,1.78540910,-0.82638970,1.60881340,6.27342840,-0.72326390,-5.65034630
919,1778604409.7791107,1.68393970,-0.83175580,1.59027560,6.00709150,-0.45081820,-5.58926000
920,1778604409.789236,1.36538450,-0.82882890,1.53368700,5.87636660,-0.46303550,-5.47319560
921,1778604409.7991734,1.36538450,-0.82882890,1.53368700,5.87636660,-0.46303550,-5.47319560
922,1778604409.8092318,1.20732650,-0.83224360,1.43514480,5.90568800,-0.60719960,-5.38278770
923,1778604409.8192647,1.04829290,-0.82297480,1.30538110,5.90324450,-0.79778940,-5.26672360
924,1778604409.8294864,0.92731017,-0.79809535,1.19952120,5.86659240,-0.92729276,-5.15798950
925,1778604409.839535,0.68827190,-0.73711616,0.93365210,5.65401170,-1.08367410,-4.80613140
926,1778604409.8491788,0.50484650,-0.69857734,0.66388017,5.21174570,-1.01525720,-4.33698700
927,1778604409.8593762,0.50484650,-0.69857734,0.66388017,5.21174570,-1.01525720,-4.33698700
928,1778604409.8691428,0.39410836,-0.68784500,0.52972600,4.99794300,-0.92484930,-4.13295840
929,1778604409.8791687,0.28776067,-0.68150320,0.41459736,4.68273700,-0.80023290,-3.84707360
930,1778604409.8894231,0.18531570,-0.67467350,0.30434700,4.49459030,-0.72448564,-3.66503600
931,1778604409.899431,0.09750569,-0.65955067,0.23263553,4.30033540,-0.72937256,-3.45367670
932,1778604409.909461,0.04481969,-0.64881830,0.18775485,4.17327550,-0.85887590,-3.25331300
933,1778604409.9194705,0.02091586,-0.63467115,0.01018352,4.02666800,-1.18629940,-2.97720220
934,1778604409.929521,0.02091586,-0.63467115,0.01018352,4.02666800,-1.18629940,-2.97720220
935,1778604409.9390566,0.02042802,-0.63467115,-0.29032183,3.69680100,-1.37444580,-2.77439520
936,1778604409.9495163,0.03116036,-0.63954950,-0.40935317,3.52820230,-1.42453670,-2.73896500
937,1778604409.9591155,0.03116036,-0.63954950,-0.40935317,3.52820230,-1.42453670,-2.73896500
938,1778604409.9691894,0.01554969,-0.63174415,-0.53179930,3.27163900,-1.43553220,-2.71941730
939,1778604409.979248,-0.22397648,-0.71760285,-0.94694550,2.38466330,-0.94806210,-2.63267450
940,1778604409.989165,-0.22397648,-0.71760285,-0.94694550,2.38466330,-0.94806210,-2.63267450
941,1778604409.9994962,-0.33959300,-0.80248580,-1.12061420,1.90818880,-0.69272065,-2.46407580
942,1778604410.0090652,-0.42203683,-0.88053924,-1.26403730,1.52578750,-0.55466520,-2.27592950
943,1778604410.019329,-0.58692450,-1.06981850,-1.51771040,0.68279410,-0.10262528,-1.72981630
944,1778604410.0291305,-0.58692450,-1.06981850,-1.51771040,0.68279410,-0.10262528,-1.72981630
945,1778604410.0392606,-0.65131850,-1.23470620,-1.47478120,-0.07834341,0.14782928,-1.14949480
946,1778604410.0492864,-0.68693030,-1.34788360,-1.43233970,-0.07834341,0.14782928,-1.14949480
947,1778604410.0593789,-0.68693030,-1.34788360,-1.43233970,-0.22372922,0.09651663,-0.98089610
948,1778604410.0691721,-0.77278900,-1.45471900,-1.42599790,-0.28603745,0.03054324,-0.77564555
949,1778604410.079215,-0.97816680,-1.51081980,-1.43282760,-0.27259842,-0.07208204,-0.29550585
950,1778604410.089435,-1.16012860,-1.47130540,-1.48453780,-0.22372922,-0.54489136,0.70386890
951,1778604410.099388,-1.13476130,-1.46301220,-1.57186010,-0.22372922,-0.54489136,0.70386890
952,1778604410.1092062,-1.13476130,-1.46301220,-1.57186010,-0.34712392,-0.78190690,1.27563830
953,1778604410.119037,-1.10354000,-1.46106090,-1.61186230,-0.57558733,-0.84910200,1.70446550
954,1778604410.129432,-1.04060950,-1.44593800,-1.61381360,-0.89690220,-0.80389804,2.10763620
955,1778604410.1393068,-0.91084580,-1.43081520,-1.52014970,-1.45523260,-0.60353440,2.65130600
956,1778604410.1498318,-0.91084580,-1.43081520,-1.52014970,-1.45523260,-0.60353440,2.65130600
957,1778604410.1594036,-0.71522460,-1.35764010,-1.19964330,-2.27623490,-0.14660755,3.30615280
958,1778604410.1690567,-0.65326980,-1.32641890,-1.04060950,-2.57555870,-0.01343903,3.59814620
959,1778604410.179353,-0.60351086,-1.30251500,-0.92450520,-2.83212180,0.03298670,3.91090900
960,1778604410.1894157,-0.43081784,-1.24885330,-0.65863600,-3.17054080,-0.00000000,4.39227060
961,1778604410.1994903,-0.30300550,-1.23080360,-0.49033347,-3.41122170,-0.09896009,4.77467200
962,1778604410.2092996,0.07604102,-1.18641070,-0.00542715,-3.64212850,-0.16126831,5.38064960
963,1778604410.2193387,0.26971084,-1.16104330,0.16775368,-3.62991120,-0.10751220,5.57368300
964,1778604410.2293797,0.49606553,-1.12396800,0.31312802,-3.55782910,0.06352994,5.69707780
965,1778604410.2393765,0.49606553,-1.12396800,0.31312802,-3.48086020,0.25778493,5.74106000
966,1778604410.2495449,0.79218036,-1.05274430,0.49996820,-3.48086020,0.25778493,5.74106000
967,1778604410.2594478,0.91121167,-1.00981500,0.59119300,-3.44543000,0.37140578,5.74961200
968,1778604410.269172,1.07561150,-0.93615216,0.72876203,-3.40389130,0.51068294,5.71906900
969,1778604410.2797377,1.16781210,-0.89761340,0.84486634,-3.30615280,0.71593350,5.63721280
970,1778604410.2892828,1.22635200,-0.83273154,1.03999970,-2.91031240,0.86498450,5.41363600
971,1778604410.2993212,1.22635200,-0.83273154,1.03999970,-2.91031240,0.86498450,5.41363600
972,1778604410.3092668,1.15756750,-0.77321590,1.03170650,-2.73316170,0.63896453,5.30856750
973,1778604410.3192043,1.15756750,-0.77321590,1.03170650,-2.73316170,0.63896453,5.30856750
974,1778604410.3294392,1.16488500,-0.70345570,1.09658840,-2.84433910,0.14049890,5.79115100
975,1778604410.3396063,1.41221650,-0.67906404,1.30050270,-2.92008640,0.29688028,6.08314400
976,1778604410.349324,1.41221650,-0.67906404,1.30050270,-2.92008640,0.29688028,6.08314400
977,1778604410.3593674,1.53807750,-0.66442900,1.40294770,-2.86877370,0.56932600,6.20776100
978,1778604410.369572,1.74345540,-0.66589254,1.53807750,-2.73682700,0.85765415,6.23830370
979,1778604410.3796132,1.74345540,-0.66589254,1.53807750,-2.73682700,0.85765415,6.23830370
980,1778604410.389109,2.08640240,-0.45514850,1.61515520,-2.05388020,1.36222850,5.88888930
981,1778604410.399539,2.20738500,-0.34880084,1.45953630,-2.08075800,1.43186700,5.74716850
982,1778604410.40952,2.20738500,-0.34880084,1.45953630,-2.08075800,1.43186700,5.74716850
983,1778604410.4191341,2.21372680,-0.24830718,1.31367420,-2.25057860,1.68354330,5.61033500
984,1778604410.429274,2.20836070,-0.16439983,1.24684110,-2.51813750,2.07938360,5.57001800
985,1778604410.4392655,2.62545800,-0.11415300,1.39758160,-2.93596890,2.82097360,5.48205330
986,1778604410.4493263,2.62545800,-0.11415300,1.39758160,-2.93596890,2.82097360,5.48205330
987,1778604410.4592786,2.83620200,-0.06634533,1.44685270,-2.95918180,2.48499800,5.15340800
988,1778604410.4692242,2.90205960,-0.03414834,1.42733940,-2.98605970,2.19544800,4.89806650
989,1778604410.4794934,2.93328070,0.10585984,1.26342740,-3.12045000,1.94865870,4.56086900
990,1778604410.489506,2.81473760,0.23269650,0.97658140,-3.70443680,2.13558320,4.23711060
991,1778604410.4995055,2.68546150,0.21513450,0.79852223,-4.55964760,2.68536160,4.08317300
992,1778604410.5095391,2.51081730,0.18927933,0.89608890,-5.53703100,3.36097810,3.95489120
993,1778604410.5193846,2.38251700,0.34294683,1.78345780,-5.98174050,3.66152360,3.92679140
994,1778604410.5294318,2.38251700,0.34294683,1.78345780,-6.25174300,3.56011990,3.88769630
995,1778604410.539304,2.49764560,0.52003030,2.23372800,-5.79359440,2.88694700,3.70810200
996,1778604410.5492125,2.65814300,0.65076970,2.39422510,-4.92005800,2.08915760,3.31348320
997,1778604410.5592208,2.57667470,0.73272570,2.26494900,-4.25910200,1.53449240,2.85777800
998,1778604410.5692315,2.03420420,1.22494950,2.11762360,-3.79728820,1.07267860,2.50836350
999,1778604410.5790675,2.03420420,1.22494950,2.11762360,-3.40877820,0.72692907,2.40818170
1000,1778604410.5894463,2.01176380,1.74985810,2.27958420,-2.69284460,0.47403106,2.58044550
