id,timestamp,acc_x,acc_y,acc_z,gyro_x,gyro_y,gyro_z
1,1778602392.4838815,1.04097530,-0.08927350,0.08872469,-0.62415110,0.88590664,2.47644600
2,1778602392.4944227,1.24879230,0.10683551,0.18824269,-0.61193377,0.86635900,2.32495140
3,1778602392.504407,1.44441350,0.24538018,0.18092519,-0.57894707,0.81993324,2.28707770
4,1778602392.514004,1.44441350,0.24538018,0.18092519,-0.57894707,0.81993324,2.28707770
5,1778602392.5241787,1.74052850,0.40441385,0.07311402,-0.80863225,0.81993324,2.28463440
6,1778602392.5341122,2.01761770,0.58442430,0.10823802,-1.53800480,1.13391770,2.33472510
7,1778602392.544142,2.13128300,0.70443135,0.41167036,-2.01203580,1.48699760,2.32250790
8,1778602392.5542252,2.21519020,0.78053340,0.72681070,-2.13298700,1.76921710,2.25775620
9,1778602392.5641813,2.21519020,0.78053340,0.72681070,-2.13298700,1.76921710,2.25775620
10,1778602392.5741713,2.21519020,0.78053340,0.72681070,-2.13298700,1.76921710,2.25775620
11,1778602392.5841987,2.19177440,0.90980920,1.19610630,-1.04686950,1.62016610,1.55404000
12,1778602392.5942025,2.03127700,0.92590770,1.14098120,-0.59238610,1.31229030,1.29869850
13,1778602392.6042175,1.79321440,0.92981035,1.01170540,0.06001746,0.87491107,0.95661426
14,1778602392.614042,1.59710540,0.91127270,0.87803906,0.33735007,0.70264720,0.81978050
15,1778602392.6242445,1.37270200,0.88444180,0.72339590,0.70631240,0.48640108,0.65729050
16,1778602392.634354,1.21074140,0.85761100,0.56192300,0.93355410,0.32757625,0.57054770
17,1778602392.6439097,1.11756520,0.83175580,0.40630420,1.02396210,0.25671592,0.50701780
18,1778602392.6540332,1.11756520,0.83175580,0.40630420,1.02396210,0.25671592,0.50701780
19,1778602392.6642072,1.02341330,0.77906984,0.19848719,0.91278470,0.45097092,0.27488914
20,1778602392.6742058,0.98194754,0.76541054,0.16580236,0.83581570,0.59024810,0.16737695
21,1778602392.6842356,0.90096720,0.75858086,0.14775252,0.67699087,0.88224150,-0.03665189
22,1778602392.6942368,0.81023020,0.75858086,0.18726702,0.57436560,1.03495760,-0.24068072
23,1778602392.704247,0.75900770,0.76150787,0.20775603,0.55359620,1.03984450,-0.37995788
24,1778602392.7142808,0.67558820,0.75370250,0.24678269,0.57436560,1.01541000,-0.50090910
25,1778602392.7240818,0.63704940,0.74345803,0.27068650,0.63056517,0.98120150,-0.59986920
26,1778602392.734284,0.57460670,0.70248000,0.31215236,0.75273810,0.92378026,-0.71226835
27,1778602392.743987,0.58192420,0.67418570,0.33995885,0.87857630,0.88957185,-0.77824175
28,1778602392.7540417,0.58192420,0.67418570,0.33995885,0.98731020,0.88957185,-0.82466745
29,1778602392.7643974,0.62485350,0.65906286,0.35556954,0.98731020,0.88957185,-0.82466745
30,1778602392.7744825,0.79169255,0.61027950,0.40776768,1.20966500,1.03251420,-1.00059650
31,1778602392.7839792,0.88047814,0.57027720,0.41557303,1.38070710,1.24020830,-1.22417310
32,1778602392.794359,0.90486985,0.54588550,0.43654984,1.50043670,1.39170270,-1.39765860
33,1778602392.80437,0.94340870,0.51563984,0.47801572,1.58840120,1.46500650,-1.50272740
34,1778602392.8141925,0.96780044,0.48783335,0.54338540,1.71546100,1.48455420,-1.59680060
35,1778602392.8240466,1.00780270,0.45417285,0.61314553,1.81197760,1.46989330,-1.62856550
36,1778602392.8345275,1.08829520,0.39612067,0.67802740,2.04166270,1.45767600,-1.61879170
37,1778602392.84404,1.22391300,0.32099435,0.73998220,2.24447000,1.42224600,-1.55892690
38,1778602392.8541343,1.35416440,0.27269882,0.74339700,2.43872500,1.40025480,-1.51127950
39,1778602392.8641531,1.42929070,0.25367334,0.73559170,2.56578470,1.33672490,-1.48806660
40,1778602392.874146,1.51905200,0.23562351,0.74047005,2.66963170,1.03862290,-1.48073630
41,1778602392.88417,1.58051910,0.21854934,0.74047005,2.71850100,0.42897978,-1.48440150
42,1778602392.8941853,1.64198600,0.19074284,0.70680950,2.71727920,-0.15256348,-1.51372290
43,1778602392.904185,1.67857350,0.15122834,0.63997630,2.63786670,-0.77564555,-1.56870080
44,1778602392.9142876,1.67857350,0.15122834,0.63997630,2.63786670,-0.77564555,-1.56870080
45,1778602392.9241755,1.63174150,0.10829899,0.52192070,2.49125930,-1.08107790,-1.62856550
46,1778602392.9341993,1.54490720,0.06780884,0.42776886,1.82297330,-0.87704910,-1.62490030
47,1778602392.9442236,1.42831500,0.01073233,0.38483953,1.40269830,-0.38469210,-1.56992240
48,1778602392.9542208,1.31025950,-0.02292817,0.37654635,1.10337450,0.04902190,-1.52716200
49,1778602392.9645271,1.31025950,-0.02292817,0.37654635,1.10337450,0.04902190,-1.52716200
50,1778602392.974039,0.98536240,-0.06732100,0.39849886,0.70020380,0.72463834,-1.36345020
51,1778602392.984204,0.71607840,-0.09171267,0.42776886,0.63545210,0.75884676,-1.20340360
52,1778602392.9942193,0.51850590,-0.10195717,0.42825672,0.67088220,0.57558733,-0.99082270
53,1778602393.0041175,0.38044903,-0.10732334,0.40679200,0.74662950,0.32879797,-0.79290247
54,1778602393.0143802,0.38044903,-0.10732334,0.40679200,0.74662950,0.32879797,-0.79290247
55,1778602393.0243683,0.15360652,-0.10293283,0.28922418,0.94699310,-0.35048366,-0.24556763
56,1778602393.0344002,0.07555319,-0.10585984,0.21604920,0.97264946,-0.55695593,-0.02687805
57,1778602393.0438993,0.02433069,-0.12000700,0.16677801,0.96043220,-0.72433290,0.22724170
58,1778602393.0540352,-0.00201231,-0.13269067,0.13116619,0.92622370,-0.80252360,0.47647452
59,1778602393.0640285,0.01408619,-0.16635117,0.09311519,0.88590664,-0.80008010,0.66095567
60,1778602393.0742986,0.05994253,-0.20440216,0.06189385,0.82726365,-0.78053250,0.80634150
61,1778602393.084319,0.05994253,-0.20440216,0.06189385,0.82726365,-0.78053250,0.80634150
62,1778602393.0946913,0.14482552,-0.30245668,-0.00737848,0.61956960,-0.72188944,0.97494020
63,1778602393.1041858,0.15067953,-0.32440916,-0.01664731,0.52305300,-0.69256794,1.02869630
64,1778602393.1142366,0.15067953,-0.32440916,-0.01664731,0.52305300,-0.69256794,1.02869630
65,1778602393.1243184,0.15067953,-0.32440916,-0.01664731,0.52305300,-0.69256794,1.02869630
66,1778602393.1343288,0.19312102,-0.37904653,-0.00298798,0.10033454,-0.64736396,1.23394680
67,1778602393.144345,0.18190086,-0.39124236,0.01408619,-0.02306015,-0.66568990,1.34023740
68,1778602393.1544437,0.18726702,-0.40099900,0.03067252,-0.10613775,-0.67057680,1.47218410
69,1778602393.164373,0.24531919,-0.41758534,0.05896685,-0.19898920,-0.68035066,1.66888260
70,1778602393.1743848,0.30190787,-0.42831767,0.08530986,-0.24908010,-0.70600694,1.78005990
71,1778602393.183937,0.44874570,-0.44539183,0.09896919,-0.31505352,-0.72677636,1.95843240
72,1778602393.1940317,0.61021850,-0.45368502,0.08628552,-0.36147922,-0.67546374,2.04395370
73,1778602393.2040875,0.78437500,-0.44441620,0.06482086,-0.42623090,-0.59482956,2.05372740
74,1778602393.2141404,1.03902400,-0.40490165,0.03799002,-0.53007793,-0.52396930,1.98653220
75,1778602393.223999,1.18634970,-0.35953320,0.01945235,-0.61682070,-0.51297370,1.88512870
76,1778602393.2345023,1.35611570,-0.19952384,-0.05762531,-0.76465000,-0.57039500,1.80327280
77,1778602393.2440975,1.42929070,-0.04341717,-0.13762999,-1.00166550,-0.71089387,1.91689370
78,1778602393.2541134,1.56051790,0.08146816,-0.13958131,-1.35474540,-0.88437950,2.30051680
79,1778602393.2642815,1.56051790,0.08146816,-0.13958131,-1.71882080,-0.97356576,2.68902680
80,1778602393.274287,2.20397000,0.34294683,0.01603752,-2.11954800,-0.92591830,2.95902900
81,1778602393.2843037,2.20397000,0.34294683,0.01603752,-2.11954800,-0.92591830,2.95902900
82,1778602393.294316,3.10255900,0.68930850,0.40142587,-2.88923760,0.19440772,2.38603780
83,1778602393.304325,3.10987660,0.78980220,0.55850820,-2.96131970,0.74907290,1.86558100
84,1778602393.3143792,2.92157300,0.83858550,0.61558470,-2.96009800,1.19500420,1.34390250
85,1778602393.323913,2.63131210,0.85907453,0.63558584,-2.91245060,1.40514170,0.88208870
86,1778602393.3340137,2.03030130,0.87078250,0.67802740,-2.71941730,1.15590880,0.33841908
87,1778602393.343982,1.72686910,0.88639320,0.69022320,-2.51050160,0.79916380,0.20158538
88,1778602393.3542266,1.48441590,0.90444300,0.67461250,-2.25149500,0.41065386,0.14905101
89,1778602393.364404,1.25562200,0.92298067,0.60875505,-1.92407130,0.00626136,0.12828161
90,1778602393.374262,1.14683520,0.92981035,0.54728806,-1.75425090,-0.15500695,0.11850777
91,1778602393.3842945,0.98536240,0.93420080,0.43752554,-1.49035740,-0.32604910,0.09285145
92,1778602393.3942997,0.90828470,0.92834690,0.40142587,-1.40361450,-0.34437500,0.06475167
93,1778602393.4040446,0.80632750,0.90980920,0.37898555,-1.31076310,-0.32360563,0.01221729
94,1778602393.4140742,0.74095786,0.90102816,0.38971785,-1.22646380,-0.26007570,-0.05131264
95,1778602393.424165,0.69315020,0.89761340,0.40045020,-1.11895160,-0.15745040,-0.11728604
96,1778602393.434181,0.59119300,0.89858900,0.43215933,-0.91370100,0.01114828,-0.21135922
97,1778602393.4441957,0.55167854,0.90737003,0.45313620,-0.75487614,0.07223476,-0.27977607
98,1778602393.453965,0.50484650,0.92981035,0.48874804,-0.52519100,0.08445205,-0.38728827
99,1778602393.4642434,0.47411305,0.94639670,0.50972486,-0.30772313,0.06001746,-0.48869184
100,1778602393.474257,0.43020800,0.95566550,0.51753020,-0.07070760,0.02336558,-0.58887360
101,1778602393.4842784,0.39459620,0.95810470,0.49704117,0.27626360,0.01114828,-0.74525505
102,1778602393.4943027,0.40971902,0.93907917,0.49996820,0.54504410,0.06123919,-0.91018850
103,1778602393.5043697,0.43313503,0.93078600,0.50533440,0.76006850,0.10888664,-1.07145680
104,1778602393.5143585,0.43313503,0.93078600,0.50533440,0.76006850,0.10888664,-1.07145680
105,1778602393.5241976,0.44874570,0.94542104,0.52923816,1.18767380,0.16508621,-1.37322400
106,1778602393.534253,0.51118840,0.94200623,0.54631233,1.48211060,0.19562945,-1.52471850
107,1778602393.5442657,0.62485350,0.92151720,0.55558115,1.69835670,0.30558512,-1.62367860
108,1778602393.5540867,0.75656850,0.89127153,0.57607020,1.82908190,0.42531460,-1.70919970
109,1778602393.5641568,0.75656850,0.89127153,0.57607020,1.82908190,0.42531460,-1.70919970
110,1778602393.5739388,1.01316880,0.72052985,0.62241435,2.02089330,0.75395983,-2.05250570
111,1778602393.5842876,1.05853740,0.60930383,0.68729620,2.10641460,1.00807960,-2.20644350
112,1778602393.5942998,1.07219670,0.64491564,0.78339940,2.18216180,1.14980020,-2.17834380
113,1778602393.6043272,1.18830100,0.68540585,0.91413870,2.27623490,1.09726580,-1.99141920
114,1778602393.6141205,1.38636140,0.64247650,1.02243770,2.39474270,0.93477580,-1.79349900
115,1778602393.6240087,1.62296060,0.52003030,1.07902630,2.54623720,0.72586006,-1.60290920
116,1778602393.6341677,1.90346470,0.30294450,1.03609700,2.74660090,0.47540550,-1.44897130
117,1778602393.6441805,1.96395600,0.19610901,0.96487340,2.81623940,0.38621926,-1.44164090
118,1778602393.6546824,1.90931870,0.14098383,0.86291620,2.82234790,0.35201082,-1.49784040
119,1778602393.6642182,1.90931870,0.14098383,0.86291620,2.82234790,0.35201082,-1.49784040
120,1778602393.6744027,1.66442640,0.07512634,0.71802974,2.65252760,0.30436337,-1.53815750
121,1778602393.6842399,1.44295000,-0.02292817,0.62241435,2.48881580,0.34590217,-1.45874510
122,1778602393.694259,1.23269390,-0.11756783,0.54777586,2.38374700,0.54504410,-1.29381160
123,1778602393.7040336,1.23269390,-0.11756783,0.54777586,2.38374700,0.54504410,-1.29381160
124,1778602393.7141593,1.06634270,-0.17464434,0.49021152,2.31044340,0.79672040,-1.04457880
125,1778602393.7242808,0.75559290,-0.23562351,0.39557186,2.29333900,0.85780686,-0.61208653
126,1778602393.7342892,0.62631700,-0.25855166,0.32483602,2.33487800,0.51938780,-0.30909760
127,1778602393.744313,0.51557887,-0.26830834,0.22385453,2.34465170,0.20173809,-0.12705988
128,1778602393.7544305,0.42337835,-0.26635700,0.10726235,2.30066940,-0.16966769,0.06108648
129,1778602393.7643507,0.36142352,-0.26879618,0.02384285,2.20293120,-0.38347036,0.17348559
130,1778602393.774069,0.33117786,-0.26830834,-0.01469598,2.05388020,-0.51908237,0.25045455
131,1778602393.7843509,0.22531801,-0.28538250,-0.09470064,1.82786010,-0.56062114,0.32131487
132,1778602393.7943583,0.16189969,-0.30196884,-0.10738432,1.60061850,-0.50319990,0.38240135
133,1778602393.8039103,0.12531220,-0.31953084,-0.09909115,1.39903310,-0.40301803,0.46181378
134,1778602393.8139987,0.09848136,-0.33611718,-0.11421398,1.26586450,-0.31261006,0.51801336
135,1778602393.8241818,0.03603869,-0.34148335,-0.17080265,1.12903080,-0.20876303,0.55955213
136,1778602393.834193,-0.00445148,-0.32977533,-0.20885365,0.85536340,-0.10980295,0.59864750
137,1778602393.8442063,-0.00445148,-0.32977533,-0.20885365,0.85536340,-0.10980295,0.59864750
138,1778602393.8543983,-0.10982348,-0.36002100,-0.21714681,0.36667160,-0.26862780,0.92118406
139,1778602393.863931,-0.10982348,-0.36002100,-0.21714681,0.36667160,-0.26862780,0.92118406
140,1778602393.874107,0.04677102,-0.38490050,-0.12299499,-0.05971203,-0.54718214,1.27426400
141,1778602393.8842232,0.17214419,-0.38977882,-0.04640514,-0.24297146,-0.72921985,1.41354110
142,1778602393.8943248,0.24531919,-0.39807200,0.00432952,-0.30894485,-0.78297590,1.47707100
143,1778602393.9042368,0.29166338,-0.40929216,0.03799002,-0.33948810,-0.77931076,1.52594020
144,1778602393.9143682,0.38386387,-0.40002334,0.05360069,-0.37614000,-0.69256794,1.56747900
145,1778602393.924048,0.43557420,-0.38051000,0.05067369,-0.41890052,-0.51419544,1.59435710
146,1778602393.934106,0.51509106,-0.33660500,0.02872119,-0.47876528,-0.25518876,1.60779610
147,1778602393.944309,0.61704820,-0.30587152,-0.03713631,-0.65591604,0.08323032,1.55404000
148,1778602393.9540954,0.67022200,-0.30196884,-0.09616415,-0.83306680,0.21395539,1.46118860
149,1778602393.9641664,0.67022200,-0.30196884,-0.09616415,-0.83306680,0.21395539,1.46118860
150,1778602393.9740703,0.71559054,-0.24391668,-0.12104365,-1.22402020,0.39354962,1.34145900
151,1778602393.9846175,0.83120704,-0.16391200,-0.09323715,-1.40117110,0.24327690,1.44652780
152,1778602393.9940875,1.00975410,-0.03073350,-0.04933215,-1.55633080,-0.03283398,1.67987810
153,1778602394.003903,1.27025700,0.14342300,-0.04640514,-1.71759900,-0.21487169,2.02807120
154,1778602394.01453,1.27025700,0.14342300,-0.04640514,-1.71759900,-0.21487169,2.02807120
155,1778602394.0242534,1.84346120,0.34197116,-0.02981881,-2.31869000,-0.25641048,2.49599340
156,1778602394.0342596,2.31031780,0.46246600,0.08774903,-2.87824200,0.21884231,2.58151460
157,1778602394.0446293,2.53228190,0.54686120,0.26092985,-3.18611800,0.80771595,2.42391130
158,1778602394.0541146,2.56252770,0.59125400,0.54045830,-3.30706930,1.17301310,2.23698690
159,1778602394.0643218,2.56252770,0.59125400,0.54045830,-3.30706930,1.17301310,2.23698690
160,1778602394.0743277,2.56252770,0.59125400,0.54045830,-3.30706930,1.17301310,2.23698690
161,1778602394.084335,2.40105460,0.66198987,1.38880050,-2.08045270,1.01785340,1.77517310
162,1778602394.0943434,2.08249950,0.72150550,1.51466160,-0.78908455,0.38377580,1.48684490
163,1778602394.10436,1.84882740,0.74004316,1.36343320,0.05879574,-0.05360339,1.32802000
164,1778602394.1147182,1.56051790,0.76736190,1.07853850,0.88835010,-0.53985170,1.22417310
165,1778602394.1242096,1.37465350,0.78638740,0.83754885,1.31839900,-0.81474090,1.20096020
166,1778602394.1342204,1.28342850,0.79614400,0.67266124,1.56396650,-0.92225310,1.20340360
167,1778602394.1442459,1.15025010,0.79663180,0.34093451,1.63971380,-0.78908455,1.15209100
168,1778602394.1539428,1.07853850,0.79077786,0.23019636,1.48821930,-0.50197816,1.04213540
169,1778602394.1640062,1.07853850,0.79077786,0.23019636,1.48821930,-0.50197816,1.04213540
170,1778602394.1739147,0.98243540,0.78541166,0.18775485,1.30129470,-0.24297146,0.93951005
171,1778602394.1843786,0.84535420,0.79468050,0.28580934,0.97020596,0.14553854,0.63896453
172,1778602394.1943285,0.74729970,0.81907210,0.33166570,0.94454970,0.34834564,0.39217520
173,1778602394.2043788,0.63900070,0.84785430,0.35117903,0.96776253,0.44730574,0.23090689
174,1778602394.2142093,0.63900070,0.84785430,0.35117903,0.96776253,0.44730574,0.23090689
175,1778602394.2239447,0.54875153,0.88590540,0.34239805,0.97997980,0.50106186,0.07696896
176,1778602394.2340665,0.42972020,0.93224955,0.40581635,0.96898425,0.58902640,-0.19181155
177,1778602394.243952,0.41215820,0.91566320,0.54484886,1.05572700,0.68065610,-0.39339690
178,1778602394.2545938,0.40532854,0.87566080,0.70241904,1.27197310,0.78450310,-0.56566080
179,1778602394.264149,0.42142700,0.81516950,0.83510970,1.60917060,0.89934570,-0.70860314
180,1778602394.2743266,0.42825672,0.78102120,0.87999034,1.84618600,0.97753640,-0.77824175
181,1778602394.284349,0.45752668,0.72638386,0.92389536,2.34343000,1.13513950,-0.88941914
182,1778602394.2943265,0.51460320,0.67028300,0.93657900,2.70261860,1.16690440,-0.93217963
183,1778602394.3043358,0.61509687,0.61564570,0.95609240,2.92008640,1.12170040,-0.91263200
184,1778602394.3142183,0.61509687,0.61564570,0.95609240,2.92008640,1.12170040,-0.91263200
185,1778602394.3242471,0.85608655,0.55173950,1.02780380,3.14121940,1.03617940,-0.85643244
186,1778602394.3342595,1.36684810,0.51856685,1.22342500,3.49918630,0.80527250,-0.74281156
187,1778602394.3439562,1.72882030,0.47612533,1.33611450,3.71909740,0.81138116,-0.63652110
188,1778602394.354314,2.04493640,0.38197350,1.37758040,3.91335250,0.70753413,-0.63407767
189,1778602394.3643825,2.04493640,0.38197350,1.37758040,3.91335250,0.70753413,-0.63407767
190,1778602394.3741384,2.47032710,0.15415533,1.29464860,4.10149900,0.30436337,-0.97005326
191,1778602394.3841598,2.47276620,0.05317384,1.12585840,4.04774300,0.10644319,-1.35123290
192,1778602394.3945634,2.38105370,-0.02634300,1.00926610,3.89502640,0.13576470,-1.55648350
193,1778602394.404074,2.22592260,-0.14976484,0.87511206,3.62258080,0.34834564,-1.71164310
194,1778602394.4142869,2.22592260,-0.14976484,0.87511206,3.62258080,0.34834564,-1.71164310
195,1778602394.424111,1.88443920,-0.29513916,0.73217684,3.15588020,0.88346320,-1.79349900
196,1778602394.434159,1.51466160,-0.38294917,0.67363685,2.87243900,1.19133900,-1.69087370
197,1778602394.4443583,1.29806350,-0.42490283,0.67997870,2.71972270,1.25975580,-1.52716200
198,1778602394.454374,1.14293250,-0.45124584,0.69997984,2.67940570,1.21088670,-1.39032830
199,1778602394.4643917,0.96487340,-0.48246717,0.71510270,2.75881810,1.03617940,-1.21562090
200,1778602394.4739003,0.86828244,-0.50051700,0.69900423,2.85289120,0.87124590,-1.11299560
201,1778602394.4839365,0.86828244,-0.50051700,0.69900423,2.85289120,0.87124590,-1.11299560
202,1778602394.4939775,0.67510040,-0.52490866,0.60143757,3.09723700,0.39232790,-0.88331050
203,1778602394.5039902,0.41606086,-0.53515315,0.37166804,3.28782700,-0.13545926,-0.63285590
204,1778602394.5139184,0.28141886,-0.54539764,0.23507468,3.28538350,-0.24297146,-0.49357873
205,1778602394.524193,0.28141886,-0.54539764,0.23507468,3.28538350,-0.24297146,-0.49357873
206,1778602394.5342069,0.12384869,-0.54295850,0.07604102,3.10334590,-0.28451028,-0.19914192
207,1778602394.5440245,-0.00298798,-0.52588433,-0.01615948,2.88343450,-0.24785839,0.04031708
208,1778602394.5542405,0.05847902,-0.49319950,-0.09860332,2.68307100,-0.24419320,0.24678937
209,1778602394.5640702,-0.05567398,-0.51368850,-0.03177015,2.53157640,-0.17333288,0.37262753
210,1778602394.5743349,-0.05567398,-0.51368850,-0.03177015,2.53157640,-0.17333288,0.37262753
211,1778602394.5843728,-0.00689065,-0.52198166,-0.15763116,2.08564500,-0.19288056,0.73548120
212,1778602394.5939364,-0.00689065,-0.52198166,-0.15763116,2.08564500,-0.19288056,0.73548120
213,1778602394.60405,0.09604219,-0.43222034,-0.07323598,1.64704420,-0.34070984,0.88819736
214,1778602394.6142178,0.16921718,-0.42929336,-0.01030548,1.64704420,-0.34070984,0.88819736
215,1778602394.6241012,0.18482786,-0.42392716,0.01018352,1.46378470,-0.36758790,0.89064085
216,1778602394.634348,0.22043969,-0.39563283,-0.00298798,1.39781130,-0.25396705,0.91507540
217,1778602394.6443222,0.25458800,-0.40978000,-0.02250131,1.28907740,0.00870482,1.00181820
218,1778602394.6543267,0.30190787,-0.40978000,-0.04445382,1.17423490,0.26526803,1.09833490
219,1778602394.6643484,0.36825320,-0.37514386,-0.06591848,1.01174470,0.59391326,1.23028170
220,1778602394.6743813,0.44777006,-0.35026434,-0.03469715,0.90301085,0.77595097,1.34756770
221,1778602394.6839008,0.44777006,-0.35026434,-0.03469715,0.90301085,0.77595097,1.34756770
222,1778602394.6939318,0.74486053,-0.22733033,0.07750452,0.89812390,0.59391326,1.57969630
223,1778602394.7040493,0.89218620,-0.14683785,0.06482086,0.98120150,0.39232790,1.66766080
224,1778602394.714446,1.12732180,-0.04390500,-0.01128115,1.02518380,0.18463388,1.80815970
225,1778602394.7239356,1.31806480,0.06780884,-0.13909347,0.92378026,0.17974696,1.95110210
226,1778602394.734267,1.53612630,0.23464784,-0.29666364,0.52305300,0.44852746,2.14047030
227,1778602394.7442784,1.76150520,0.39758417,-0.30739596,-0.15134175,0.99219710,2.30296020
228,1778602394.7543585,1.76150520,0.39758417,-0.30739596,-0.15134175,0.99219710,2.30296020
229,1778602394.764332,2.16933400,0.58344870,0.38874220,-0.98578304,2.00378920,2.32495140
230,1778602394.7743242,2.16933400,0.58344870,0.38874220,-0.98578304,2.00378920,2.32495140
231,1778602394.7843566,2.29470700,0.66394120,1.02634040,-0.29428410,1.93659400,2.12092260
232,1778602394.7939095,2.29470700,0.66394120,1.02634040,-0.29428410,1.93659400,2.12092260
233,1778602394.8040955,2.14299080,0.68979630,1.08390460,1.32695100,0.67699087,1.83015080
234,1778602394.8140135,1.98981120,0.70540700,0.81218153,1.98424150,0.05390882,1.66521740
235,1778602394.8240669,1.98981120,0.70540700,0.81218153,1.98424150,0.05390882,1.66521740
236,1778602394.8341548,1.76394430,0.69906515,0.42532970,2.40085120,-0.40423977,1.39277170
237,1778602394.8441749,1.58247040,0.70491916,0.16921718,2.38008200,-0.37491825,1.16553000
238,1778602394.8542626,1.46441470,0.71077317,0.07018703,2.27501320,-0.23197590,1.00670520
239,1778602394.8643212,1.32391870,0.71321240,0.01896452,2.08320160,-0.01939496,0.81733710
240,1778602394.8743315,1.21757100,0.71174884,0.02335502,1.92437670,0.13820815,0.68539030
241,1778602394.884306,1.08927100,0.69955300,0.05750336,1.77288230,0.31413722,0.53756100
242,1778602394.8943188,0.97463006,0.67808837,0.10921369,1.69102640,0.44852746,0.41050112
243,1778602394.904097,0.86730665,0.67223436,0.13897152,1.67636560,0.55970484,0.27366742
244,1778602394.9142838,0.76388603,0.65808713,0.16043620,1.69957850,0.62934345,0.17470732
245,1778602394.9243083,0.73900650,0.65516020,0.16141187,1.73989560,0.65133460,0.09285145
246,1778602394.934322,0.58046070,0.63467115,0.16385102,1.78387780,0.65255630,0.02443459
247,1778602394.9443457,0.48045490,0.63906170,0.22775720,1.87062070,0.57680905,-0.01710421
248,1778602394.9543655,0.44289170,0.62930500,0.28922418,1.99401530,0.46318823,-0.05375610
249,1778602394.9641376,0.43411067,0.61857265,0.36288702,2.18216180,0.34712392,-0.10629047
250,1778602394.9741807,0.46581987,0.59320533,0.42776886,2.43261620,0.22128576,-0.17715079
251,1778602394.9842043,0.51216400,0.54832470,0.43996470,2.70017500,0.14187334,-0.27000225
252,1778602394.9942818,0.55899600,0.51027370,0.42289050,3.11189800,0.17730351,-0.46547896
253,1778602395.0042994,0.60192540,0.50588316,0.36044785,3.27316620,0.28603745,-0.57176940
254,1778602395.0143385,0.64583033,0.48880902,0.28190670,3.34402660,0.51205740,-0.70493793
255,1778602395.0243847,0.64583033,0.48880902,0.28190670,3.34402660,0.51205740,-0.70493793
256,1778602395.0343475,0.67412466,0.48783335,0.30971318,3.29393550,0.87613280,-0.87353665
257,1778602395.0443606,0.82291390,0.46588080,0.42581752,3.29027030,0.99341890,-0.97616190
258,1778602395.0546222,0.99121636,0.43270817,0.52631120,3.34769180,1.05450530,-1.13620850
259,1778602395.0641441,1.12537050,0.40051118,0.61314553,3.41610860,1.11803530,-1.25593790
260,1778602395.0743375,1.19561850,0.40685300,0.66583150,3.46253420,1.18645220,-1.33168520
261,1778602395.0844033,1.26098820,0.45417285,0.68241787,3.44176480,1.27563830,-1.35367630
262,1778602395.094114,1.32879710,0.49271170,0.72778636,3.37212630,1.29518600,-1.29625510
263,1778602395.1039593,1.47319570,0.48295498,0.83023137,3.26705770,1.14491330,-1.14109540
264,1778602395.114208,1.63222930,0.44002566,0.92535890,3.17176270,0.78816830,-0.98715746
265,1778602395.1242678,1.85419360,0.36733850,1.04341460,3.12533700,0.42653632,-0.93706656
266,1778602395.1341152,1.96200470,0.31562817,1.08634390,3.10578920,0.12354740,-1.00304000
267,1778602395.144277,1.99810430,0.20635350,1.05365900,3.08379820,-0.05971203,-1.25471630
268,1778602395.1543243,1.90785530,0.14000817,0.98877716,2.99461200,-0.04505128,-1.41598450
269,1778602395.164335,1.74979720,0.05171033,0.92877364,2.84800430,0.08689552,-1.52227500
270,1778602395.1743207,1.60149590,-0.01853767,0.87706340,2.74171380,0.24205516,-1.53327060
271,1778602395.184329,1.45319460,-0.08293167,0.81949900,2.65130600,0.42164943,-1.47462760
272,1778602395.194513,1.22001030,-0.15464316,0.73120123,2.58166720,0.47418380,-1.35978500
273,1778602395.204353,1.07707500,-0.18391317,0.67022200,2.54257200,0.41554075,-1.22905990
274,1778602395.2143953,0.92438316,-0.20684133,0.57070400,2.49736790,0.26282457,-1.06168290
275,1778602395.2241595,0.81023020,-0.21854934,0.48630884,2.43750300,0.13454297,-0.93828833
276,1778602395.2341883,0.70485820,-0.22440335,0.40825552,2.34587340,0.02703077,-0.82833266
277,1778602395.244274,0.55997170,-0.23757485,0.29263905,2.15772700,-0.05115993,-0.68050337
278,1778602395.2543075,0.46045370,-0.26343000,0.21946402,1.96469390,-0.01572977,-0.56688250
279,1778602395.264032,0.39508402,-0.28587034,0.17653470,1.79731690,0.05879574,-0.48502663
280,1778602395.274126,0.39508402,-0.28587034,0.17653470,1.79731690,0.05879574,-0.48502663
281,1778602395.2843914,0.32190904,-0.31367683,0.15019170,1.62993990,0.14920372,-0.41172287
282,1778602395.294157,0.32190904,-0.31367683,0.15019170,1.62993990,0.14920372,-0.41172287
283,1778602395.3040907,0.11457986,-0.39758417,0.09604219,1.15713060,0.58658290,-0.04520399
284,1778602395.3142836,0.05262502,-0.40831652,0.09994486,1.03984450,0.71730800,0.11606431
285,1778602395.3243296,0.05262502,-0.40831652,0.09994486,1.03984450,0.71730800,0.11606431
286,1778602395.3343375,0.00823219,-0.42051232,0.11018936,0.94699310,0.69287336,0.31520623
287,1778602395.3443594,-0.03128231,-0.40685300,0.08238286,0.92500200,0.52549640,0.47525280
288,1778602395.354245,-0.04445382,-0.40441385,0.05945469,0.90545434,0.36178467,0.65729050
289,1778602395.3639913,-0.00786631,-0.41270700,0.05311285,0.86880240,0.15653410,0.86620620
290,1778602395.3739436,0.05116152,-0.41563400,0.04189269,0.83459400,0.00992655,1.03602670
291,1778602395.3843124,0.10921369,-0.41904885,0.03018469,0.79549867,-0.07681625,1.20951220
292,1778602395.3948245,0.29263905,-0.43417168,-0.01420815,0.67210400,-0.02061669,1.45630170
293,1778602395.4042666,0.40874338,-0.41660970,-0.03908765,0.47540550,0.17974696,1.63467420
294,1778602395.4143324,0.59119300,-0.37026548,-0.00493931,0.28359398,0.36056295,1.75684710
295,1778602395.423968,0.73315257,-0.31123766,0.05652769,0.11743876,0.46563166,1.83503780
296,1778602395.4342494,0.84193933,-0.24294100,0.11653119,0.01847866,0.53038335,1.88268530
297,1778602395.444264,0.97560567,-0.14098383,0.15604569,0.00992655,0.52305300,1.97187150
298,1778602395.4540133,1.10000320,-0.08585867,0.15360652,0.00503963,0.48640108,2.06838820
299,1778602395.4644005,1.35953060,-0.02585517,0.16775368,-0.04749474,0.37033677,2.27608230
300,1778602395.4738894,1.35953060,-0.02585517,0.16775368,-0.04749474,0.37033677,2.27608230
301,1778602395.484065,1.57368950,0.05268600,0.16141187,-0.11346813,0.28237224,2.40558550
302,1778602395.494069,1.94395480,0.36002100,0.16677801,-0.41034842,0.50472700,2.56929730
303,1778602395.504381,2.11811140,0.48588200,0.25653934,-0.57650363,0.67699087,2.57662770
304,1778602395.5139098,2.21958070,0.56978930,0.38532734,-0.68035066,0.83337230,2.51065420
305,1778602395.524376,2.21958070,0.56978930,0.38532734,-0.68035066,0.83337230,2.51065420
306,1778602395.5341413,2.31373260,0.64150090,0.62778056,-0.46532625,0.92744550,2.16123960
307,1778602395.5441792,2.31373260,0.64150090,0.62778056,-0.46532625,0.92744550,2.16123960
308,1778602395.55435,2.31373260,0.64150090,0.62778056,-0.46532625,0.92744550,2.16123960
309,1778602395.5644467,1.82687500,0.67760050,0.59363220,0.79305520,0.19318599,1.37200220
310,1778602395.5739625,1.82687500,0.67760050,0.59363220,0.79305520,0.19318599,1.37200220
311,1778602395.5841088,1.52636960,0.67857620,0.40435287,1.34161170,-0.44822204,1.18629940
312,1778602395.5941331,1.37172640,0.67857620,0.22531801,1.52120600,-0.64858570,1.05923950
313,1778602395.6039279,1.28635550,0.67808837,0.14043503,1.55785790,-0.64369875,0.94317520
314,1778602395.6139772,1.16781210,0.68345450,0.07165052,1.52853640,-0.54107350,0.79045904
315,1778602395.6239996,1.08439250,0.68589365,0.02433069,1.46256300,-0.40057456,0.68050337
316,1778602395.6341858,1.00633920,0.68491805,0.00189035,1.34649870,-0.18188499,0.54489136
317,1778602395.6442008,1.00633920,0.68491805,0.00189035,1.34649870,-0.18188499,0.54489136
318,1778602395.6542168,0.84681773,0.67711270,0.04677102,1.16079580,0.17241658,0.26389357
319,1778602395.6642551,0.80925450,0.68686940,0.09653002,1.15957400,0.22372922,0.12461641
320,1778602395.6742508,0.80925450,0.68686940,0.09653002,1.15957400,0.22372922,0.12461641
321,1778602395.6842647,0.68729620,0.72345686,0.13360536,1.29274260,0.15531237,-0.19181155
322,1778602395.6942759,0.59607136,0.73809180,0.12043386,1.40758510,0.10644319,-0.39461866
323,1778602395.704346,0.55314200,0.73662835,0.11067719,1.47233690,0.09911281,-0.54733485
324,1778602395.7143514,0.54972720,0.73760400,0.12823918,1.52609290,0.10155627,-0.67439470
325,1778602395.7240653,0.58972955,0.72589600,0.17994952,1.62016610,0.08078687,-0.84299340
326,1778602395.7338984,0.65753840,0.71223664,0.22629368,1.73378700,0.07834341,-0.99693130
327,1778602395.743926,0.72242020,0.66735600,0.24678269,1.93781580,0.18096869,-1.25349450
328,1778602395.754264,0.73510385,0.64881830,0.23458686,2.04899300,0.32757625,-1.39277170
329,1778602395.7643108,0.77266705,0.64881830,0.22336671,2.10519270,0.54748756,-1.50761430
330,1778602395.77431,0.77266705,0.64881830,0.22336671,2.10519270,0.54748756,-1.50761430
331,1778602395.784324,1.04780510,0.66150200,0.27995536,1.89261190,0.77106404,-1.73241250
332,1778602395.7940097,1.19415510,0.65076970,0.35410600,1.71912620,0.72830355,-1.85580720
333,1778602395.8041058,1.36001840,0.62491450,0.46484417,1.56518830,0.72586006,-1.95354560
334,1778602395.8142517,1.57320150,0.54881250,0.59363220,1.41125040,0.91034126,-1.96454110
335,1778602395.8243048,1.57320150,0.54881250,0.59363220,1.41125040,0.91034126,-1.96454110
336,1778602395.8343053,1.72296640,0.46490517,0.68339354,1.32206400,1.27930360,-1.92178060
337,1778602395.8443718,1.94834540,0.25952733,0.80827886,1.18156520,2.37397310,-1.90467640
338,1778602395.8538885,1.93956450,0.17269300,0.90730906,1.16934790,2.56334140,-1.90345470
339,1778602395.863936,1.90785530,0.09171267,0.97706926,1.22799090,2.46682480,-1.88268530
340,1778602395.874292,1.90785530,0.09171267,0.97706926,1.22799090,2.46682480,-1.88268530
341,1778602395.884081,1.76687150,-0.13220283,1.00682710,1.54808400,1.94270280,-1.86558100
342,1778602395.894123,1.51368600,-0.28294334,0.91365090,1.99768050,1.49799310,-1.72019520
343,1778602395.9046137,1.40831390,-0.32684833,0.84486634,2.26523920,1.23409960,-1.54793130
344,1778602395.9141479,1.26440300,-0.37416816,0.70680950,2.49981140,0.91767160,-1.33779380
345,1778602395.9240813,1.26440300,-0.37416816,0.70680950,2.71850100,0.43631017,-1.08733930
346,1778602395.9341204,1.13122450,-0.40929216,0.43459850,2.80035690,0.15409064,-0.96394460
347,1778602395.9442093,1.03024300,-0.39709634,0.22043969,2.81990460,-0.26740605,-0.78312860
348,1778602395.9539368,0.93121284,-0.35953320,0.06530869,2.66963170,-0.42745262,-0.68539030
349,1778602395.9640696,0.80730320,-0.31074983,-0.06055231,2.38374700,-0.40179630,-0.62430380
350,1778602395.973968,0.80730320,-0.31074983,-0.06055231,2.38374700,-0.40179630,-0.62430380
351,1778602395.9840715,0.60534020,-0.25172200,-0.16885132,1.78998650,-0.03283398,-0.54489136
352,1778602395.994233,0.41410953,-0.23464784,-0.21080498,1.32450760,0.34101525,-0.40317076
353,1778602396.0039873,0.41410953,-0.23464784,-0.21080498,1.32450760,0.34101525,-0.40317076
354,1778602396.0143416,0.41410953,-0.23464784,-0.21080498,1.32450760,0.34101525,-0.40317076
355,1778602396.024345,0.17799819,-0.23074517,-0.11762882,0.53160506,0.83092880,0.08796453
356,1778602396.034852,0.16482669,-0.25172200,-0.07811432,0.40698865,0.80771595,0.21868959
357,1778602396.0443168,0.18238870,-0.29270002,-0.02737965,0.30680683,0.55359620,0.39828384
358,1778602396.054331,0.19751152,-0.30245668,-0.02006215,0.28725916,0.40698865,0.46181378
359,1778602396.064395,0.22239104,-0.31270117,-0.00981765,0.27504188,0.18341215,0.59376055
360,1778602396.0743423,0.25751500,-0.32782400,0.00481735,0.27748534,0.02580904,0.66584260
361,1778602396.084416,0.28873634,-0.33904418,0.00140252,0.28115052,-0.08781181,0.75625060
362,1778602396.0940843,0.30532268,-0.34782517,0.00140252,0.27626360,-0.15989386,0.89674950
363,1778602396.1039047,0.31068885,-0.35465485,0.00335385,0.25793764,-0.16966769,1.05435260
364,1778602396.1140254,0.35313037,-0.35563052,0.00823219,0.21151192,-0.18921536,1.19729500
365,1778602396.12421,0.35313037,-0.35563052,0.00823219,0.21151192,-0.18921536,1.19729500
366,1778602396.1341963,0.45264837,-0.37270468,0.00774435,0.13209951,-0.36880960,1.29503330
367,1778602396.1440828,0.56436217,-0.40490165,0.03262385,0.09178244,-0.59727305,1.30847240
368,1778602396.1543465,0.62729270,-0.41465837,0.04189269,0.08445205,-0.74876750,1.31091580
369,1778602396.163904,0.62729270,-0.41465837,0.04189269,0.08445205,-0.74876750,1.31091580
370,1778602396.1741877,0.73022550,-0.44783100,0.05506419,0.10766492,-0.84406240,1.31580270
371,1778602396.1842282,0.84242725,-0.45514850,0.01994019,0.07589995,-0.72555465,1.32802000
372,1778602396.1942463,0.97365440,-0.35611832,-0.09811548,-0.14156792,-0.37369654,1.37322400
373,1778602396.2039757,0.99414340,-0.24879500,-0.15860681,-0.41401360,-0.22464553,1.39155000
374,1778602396.2140982,1.05951310,-0.07951684,-0.11323831,-0.80985400,-0.06459895,1.56137040
375,1778602396.2240932,1.23123040,0.04097800,0.01213485,-1.11284290,-0.18310672,1.83503780
376,1778602396.2341342,1.23123040,0.04097800,0.01213485,-1.11284290,-0.18310672,1.83503780
377,1778602396.2442348,1.98444510,0.31367683,0.27995536,-1.56610450,-0.75731960,2.60106230
378,1778602396.2542503,1.98444510,0.31367683,0.27995536,-1.56610450,-0.75731960,2.60106230
379,1778602396.2640462,2.93962260,0.53368970,0.53070170,-1.59298260,-0.43966994,2.32128620
380,1778602396.2740376,3.03718920,0.57954603,0.53314084,-1.49402250,-0.16966769,1.73852120
381,1778602396.284184,2.91035270,0.65808713,0.48582100,-1.37918000,0.05390882,1.07756540
382,1778602396.2942026,2.35666200,0.74004316,0.34581286,-1.29488060,0.13332124,0.38362310
383,1778602396.3042111,1.88053660,0.73760400,0.23361120,-1.29488060,0.03558287,0.17715079
384,1778602396.3142416,1.57954340,0.72101766,0.15848486,-1.30465450,-0.07437278,0.10751220
385,1778602396.3244276,1.57954340,0.72101766,0.15848486,-1.31809340,-0.19654575,0.12339468
386,1778602396.333984,1.15707970,0.68394230,0.09067602,-1.32053700,-0.29794928,0.17104214
387,1778602396.3443532,1.02634040,0.66101420,0.07701669,-1.31931520,-0.37614000,0.26145010
388,1778602396.3541465,0.97267870,0.65564800,0.07896802,-1.30343270,-0.37247480,0.29932374
389,1778602396.3642266,0.94340870,0.64052516,0.07604102,-1.25945040,-0.27962336,0.29321510
390,1778602396.3742309,0.94340870,0.64052516,0.07604102,-1.25945040,-0.27962336,0.29321510
391,1778602396.384234,0.99853390,0.65516020,0.10043269,-1.12139500,-0.15867212,0.14294235
392,1778602396.3942957,0.93462770,0.69711380,0.08970036,-0.95890500,-0.19165882,-0.11484258
393,1778602396.4041574,0.83071923,0.71711504,0.05262502,-0.85261450,-0.21853687,-0.26389357
394,1778602396.4143732,0.73071337,0.74931200,0.00481735,-0.76709340,-0.20509785,-0.39950556
395,1778602396.4243777,0.73071337,0.74931200,0.00481735,-0.76709340,-0.20509785,-0.39950556
396,1778602396.4339652,0.73071337,0.74931200,0.00481735,-0.76709340,-0.20509785,-0.39950556
397,1778602396.4442008,0.66875860,0.79760754,0.02579419,-0.59482956,-0.10369430,-0.70615970
398,1778602396.454219,0.68680835,0.79907100,0.03847786,-0.48365217,-0.06337722,-0.86987144
399,1778602396.4644034,0.71461487,0.78638740,0.03408735,-0.37247480,0.00992655,-1.06901340
400,1778602396.4742548,0.72193235,0.78443605,0.01896452,-0.30772313,0.05879574,-1.23150340
401,1778602396.4839876,0.73168904,0.79711970,0.02335502,-0.27962336,0.09178244,-1.34390250
402,1778602396.4940841,0.79218036,0.81712085,0.06921136,-0.22708899,0.18341215,-1.56503560
403,1778602396.5039852,0.87511206,0.81077904,0.14092286,-0.15622866,0.27382013,-1.69942580
404,1778602396.5142305,0.94536000,0.78882650,0.21604920,0.00748309,0.36422813,-1.87535490
405,1778602396.5243518,1.02097430,0.76492270,0.26678386,0.17974696,0.41554075,-2.02196240
406,1778602396.5339031,1.02097430,0.76492270,0.26678386,0.17974696,0.41554075,-2.02196240
407,1778602396.5439918,1.23074250,0.65320885,0.31312802,0.58902640,0.50839220,-2.34938600
408,1778602396.5542655,1.23074250,0.65320885,0.31312802,0.58902640,0.50839220,-2.34938600
409,1778602396.564309,1.32684580,0.56198400,0.37020450,0.76862060,0.69287336,-2.40558550
410,1778602396.5742958,1.41368010,0.51954250,0.44484302,0.83581570,0.80160730,-2.30051680
411,1778602396.5843067,1.52880870,0.47173482,0.52045720,0.94210620,0.88224150,-2.16490480
412,1778602396.5943294,1.79858050,0.32928753,0.65168434,1.20599970,0.84681130,-2.05006220
413,1778602396.6043983,1.86346240,0.23708700,0.65070870,1.47478030,0.66843880,-2.07083150
414,1778602396.6139357,1.82638720,0.17659567,0.60094970,1.66414830,0.46929687,-2.09893130
415,1778602396.6239972,1.82638720,0.17659567,0.60094970,1.66414830,0.46929687,-2.09893130
416,1778602396.633945,1.61857010,0.11122601,0.41362170,1.87550760,0.09422589,-1.98286710
417,1778602396.6439562,1.48685510,0.04975900,0.29849303,1.84618600,-0.07315106,-1.79716420
418,1778602396.6539917,1.36879930,-0.01707417,0.20970736,1.79120830,-0.12202024,-1.67865650
419,1778602396.6641483,1.22635200,-0.07268717,0.14433768,1.70324370,-0.10247257,-1.51983150
420,1778602396.6741986,1.12488270,-0.10049367,0.11214069,1.70324370,-0.10247257,-1.51983150
421,1778602396.6842108,0.98292320,-0.12927583,0.06530869,1.52731470,0.00381790,-1.18507770
422,1778602396.694226,0.74144566,-0.13659334,-0.02006215,1.36115940,0.09544762,-0.88086700
423,1778602396.7042336,0.74144566,-0.13659334,-0.02006215,1.36115940,0.09544762,-0.88086700
424,1778602396.7141795,0.74144566,-0.13659334,-0.02006215,1.36115940,0.09544762,-0.88086700
425,1778602396.72438,0.38630300,-0.07073583,-0.09128582,0.89812390,0.16752967,-0.19914192
426,1778602396.7338943,0.29654170,-0.04634417,-0.09372498,0.75884676,0.19685118,-0.01099557
427,1778602396.74398,0.17409553,-0.02195250,-0.08933448,0.58291770,0.25915940,0.26145010
428,1778602396.7543547,0.13604453,-0.03366050,-0.07274815,0.49006626,0.27626360,0.42516190
429,1778602396.7640977,0.12482436,-0.07805333,-0.05274698,0.41065386,0.24205516,0.57665634
430,1778602396.7742472,0.10579886,-0.10732334,-0.05225914,0.38866273,0.19196425,0.64751667
431,1778602396.784266,0.06335735,-0.12390967,-0.06396715,0.38499752,0.14187334,0.70493793
432,1778602396.7942762,-0.00250015,-0.13756900,-0.07957781,0.36667160,-0.00351247,0.81855880
433,1778602396.804288,-0.04201465,-0.14635001,-0.10738432,0.33001968,-0.15745040,0.95539254
434,1778602396.8143086,-0.03177015,-0.16196068,-0.12055582,0.27992877,-0.26862780,1.08245240
435,1778602396.8239067,-0.03177015,-0.16196068,-0.12055582,0.27992877,-0.26862780,1.08245240
436,1778602396.8341074,-0.03177015,-0.16196068,-0.12055582,0.27992877,-0.26862780,1.08245240
437,1778602396.8439863,0.18336436,-0.18781583,-0.07762648,0.03313941,-0.48120874,1.43797560
438,1778602396.8542714,0.23068418,-0.19318200,-0.07567514,-0.02428187,-0.42012227,1.49295350
439,1778602396.864301,0.31117670,-0.19903600,-0.07274815,-0.12202024,-0.31871870,1.56625720
440,1778602396.8743112,0.38435167,-0.20537783,-0.06445498,-0.23930627,-0.24419320,1.60657440
441,1778602396.884139,0.44923353,-0.20537783,-0.06299148,-0.37491825,-0.17333288,1.60168740
442,1778602396.89418,0.62143870,-0.18927933,-0.02298915,-0.53863000,-0.04260782,1.53815750
443,1778602396.904023,0.78681420,-0.16927817,0.03896569,-0.67302024,0.10399973,1.41964970
444,1778602396.9142919,0.91804135,-0.15708233,0.06969919,-0.75976306,0.25793764,1.24982930
445,1778602396.9245043,0.91804135,-0.15708233,0.06969919,-0.75976306,0.25793764,1.24982930
446,1778602396.9340267,1.07219670,-0.11951917,0.04872235,-0.88437950,0.66477360,1.05557430
447,1778602396.944247,1.17415380,-0.00731750,0.06384519,-1.01388290,0.92500200,1.05435260
448,1778602396.9542747,1.24488970,0.09951800,0.11262852,-1.07741270,0.94332796,1.08367410
449,1778602396.964279,1.24488970,0.09951800,0.11262852,-1.07741270,0.94332796,1.08367410
450,1778602396.9742892,1.52393030,0.34343470,0.34288585,-0.98456130,0.17730351,1.27548560
451,1778602396.9843078,1.52393030,0.34343470,0.34288585,-0.98456130,0.17730351,1.27548560
452,1778602396.9943092,2.17372440,0.56491100,0.53021390,-0.79885840,-0.71944600,1.61756990
453,1778602397.00432,2.43130040,0.61027950,0.53558004,-0.76831520,-0.75976306,1.61146130
454,1778602397.0143611,2.61960400,0.67077080,0.54923934,-0.75365440,-0.46654797,1.35367630
455,1778602397.0239341,2.60399340,0.71321240,0.54289750,-0.70356350,-0.11346813,1.00426170
456,1778602397.03395,2.42886110,0.72979870,0.50631005,-0.62415110,0.25671592,0.61575170
457,1778602397.044309,2.06005930,0.71565150,0.44484302,-0.50564330,0.62567824,0.19181155
458,1778602397.0545015,1.67564650,0.69174767,0.39801103,-0.43844820,0.68554300,0.07086031
459,1778602397.0640225,1.35562790,0.65418450,0.37361938,-0.32238388,0.62201303,0.06963859
460,1778602397.074215,1.35562790,0.65418450,0.37361938,-0.32238388,0.62201303,0.06963859
461,1778602397.0842292,1.15610410,0.61808485,0.35654520,-0.04749474,0.36911505,0.26022840
462,1778602397.0942385,0.88194174,0.57027720,0.31751853,0.17241658,0.13332124,0.43127054
463,1778602397.104249,0.86145270,0.56930150,0.32337250,0.31535894,-0.02306015,0.52778715
464,1778602397.1141734,0.86145270,0.56930150,0.32337250,0.31535894,-0.02306015,0.52778715
465,1778602397.1241505,0.86145270,0.56930150,0.32337250,0.31535894,-0.02306015,0.52778715
466,1778602397.1341732,0.89706450,0.60588900,0.32044550,0.80282900,-0.28328854,0.57543460
467,1778602397.1443439,0.89706450,0.60588900,0.32044550,0.80282900,-0.28328854,0.57543460
468,1778602397.1544666,0.89901590,0.63369550,0.29702953,1.14124810,-0.29672757,0.33964083
469,1778602397.1638856,0.84047586,0.63369550,0.25946635,1.29640780,-0.21731515,0.16737695
470,1778602397.1739013,0.75071454,0.64052516,0.21312219,1.29640780,-0.21731515,0.16737695
471,1778602397.1842985,0.64485470,0.65613580,0.15946053,1.43812840,-0.00717766,-0.09896009
472,1778602397.1943092,0.51655453,0.66491680,0.11945819,1.44423710,0.17486005,-0.19058982
473,1778602397.204323,0.40288937,0.68003964,0.14482552,1.44790220,0.33246315,-0.23579380
474,1778602397.2144005,0.40288937,0.68003964,0.14482552,1.44790220,0.33246315,-0.23579380
475,1778602397.2243252,0.45118487,0.64784270,0.35069120,1.64093550,0.44730574,-0.26022840
476,1778602397.2342212,0.50923705,0.62149966,0.40240154,1.84740780,0.44608400,-0.33108872
477,1778602397.24431,0.55021500,0.56442320,0.42532970,2.20781800,0.49984010,-0.50335260
478,1778602397.2542143,0.56241090,0.55222730,0.42923236,2.42162060,0.57314390,-0.60719960
479,1778602397.2642038,0.60192540,0.53808016,0.44972134,2.64886240,0.61346096,-0.70371620
480,1778602397.274249,0.60192540,0.53808016,0.44972134,2.64886240,0.61346096,-0.70371620
481,1778602397.2842479,0.67949086,0.49759000,0.48289403,2.93474720,0.64156073,-0.79045904
482,1778602397.2943056,0.75949556,0.47710103,0.53606784,3.04225920,0.74174255,-0.75869405
483,1778602397.3042793,0.86340400,0.47807667,0.56826484,3.05447650,0.85658514,-0.70249450
484,1778602397.3140335,0.98292320,0.49027252,0.61899954,3.01904650,1.14857850,-0.59009540
485,1778602397.3242564,0.98292320,0.49027252,0.61899954,3.01904650,1.14857850,-0.59009540
486,1778602397.334463,1.29513660,0.48441850,0.84145150,3.04714630,1.64826580,-0.30787584
487,1778602397.3439856,1.29513660,0.48441850,0.84145150,3.04714630,1.64826580,-0.30787584
488,1778602397.3539455,1.73418650,0.37124115,1.04829290,3.36235240,1.20477810,-0.20647229
489,1778602397.3642743,1.85321800,0.34587383,1.04341460,3.51506880,0.65744320,-0.32375833
490,1778602397.3740842,1.85760830,0.35124000,0.96145850,3.61891560,0.21884231,-0.55344350
491,1778602397.3840837,1.80492230,0.34197116,0.87755126,3.62258080,0.06979130,-0.73914640
492,1778602397.393932,1.65808450,0.29465136,0.71266353,3.47963860,0.11255184,-0.86987144
493,1778602397.4040444,1.46782960,0.24538018,0.59070520,3.21574500,0.29703300,-0.85765415
494,1778602397.4142547,1.46782960,0.24538018,0.59070520,3.21574500,0.29703300,-0.85765415
495,1778602397.424301,1.30196620,0.17220518,0.60046184,2.78813960,0.60368710,-0.66950780
496,1778602397.434004,1.27611100,0.14439867,0.62826836,2.70017500,0.61956960,-0.64140800
497,1778602397.4440603,1.14342030,0.09561533,0.64583033,2.69406630,0.57314390,-0.69272065
498,1778602397.4541063,1.00780270,0.07512634,0.59899837,2.74049200,0.55237450,-0.73792464
499,1778602397.4642136,0.82486516,0.03707533,0.50094384,2.79913520,0.57314390,-0.76235926
500,1778602397.4739819,0.67802740,-0.00341483,0.41410953,2.80402200,0.60124370,-0.74158984
501,1778602397.483998,0.53655570,-0.04683200,0.33264136,2.79791330,0.64766940,-0.68661200
502,1778602397.4941006,0.30824968,-0.10732334,0.23702602,2.77103540,0.67699087,-0.51801336
503,1778602397.5040956,0.17068069,-0.12439750,0.21068303,2.76126150,0.60979575,-0.32620180
504,1778602397.5141664,0.05652769,-0.13122717,0.18336436,2.77470060,0.45219266,-0.01710421
505,1778602397.5244794,0.01554969,-0.14683785,0.15604569,2.80524370,0.28725916,0.30298892
506,1778602397.5339944,0.01408619,-0.16830250,0.12677568,2.82234790,0.20784675,0.47769627
507,1778602397.544179,0.09213952,-0.25708818,0.06238169,2.83578700,0.03802633,0.74525505
508,1778602397.5543523,0.19556019,-0.31270117,0.00579302,2.78813960,-0.07315106,0.83321960
509,1778602397.5638893,0.25361237,-0.33709285,-0.02445265,2.71605750,-0.16355905,0.81122845
510,1778602397.5739787,0.27068650,-0.33367800,-0.04591731,2.60732360,-0.24419320,0.73425950
511,1778602397.583956,0.26288120,-0.31270117,-0.06982114,2.51447220,-0.28817546,0.67561644
512,1778602397.5941904,0.24336785,-0.28196767,-0.09909115,2.34465170,-0.32116216,0.64018630
513,1778602397.6043475,0.24336785,-0.28196767,-0.09909115,2.34465170,-0.32116216,0.64018630
514,1778602397.614357,0.24727054,-0.26586917,-0.15714332,1.98057630,-0.17821980,0.70493793
515,1778602397.623887,0.29898086,-0.27367450,-0.16641214,1.78754300,0.00503963,0.78557210
516,1778602397.6340852,0.36678970,-0.27221102,-0.15031365,1.59695330,0.23838998,0.88331050
517,1778602397.644256,0.36678970,-0.27221102,-0.15031365,1.59695330,0.23838998,0.88331050
518,1778602397.6542947,0.70388250,-0.25269768,-0.08201698,1.19256080,0.82726365,1.01403560
519,1778602397.6642447,0.86291620,-0.24391668,-0.01908648,1.10948310,0.83825920,0.95294905
520,1778602397.674237,0.95755583,-0.21269535,0.04238052,1.09604420,0.67210400,0.86620620
521,1778602397.6842463,0.95755583,-0.21269535,0.04238052,1.14369150,0.41065386,0.79290247
522,1778602397.6942601,0.94340870,-0.14147167,0.00237819,1.18767380,0.19074252,0.81367190
523,1778602397.704264,0.94340870,0.01804983,-0.15421632,1.05328360,-0.05238165,1.23639040
524,1778602397.7143843,1.09414920,0.10390850,-0.21275632,0.79916380,-0.08048143,1.62490030
525,1778602397.7239437,1.33611450,0.16147284,-0.23763582,0.33857182,0.06490438,2.04884050
526,1778602397.734113,1.33611450,0.16147284,-0.23763582,0.33857182,0.06490438,2.04884050
527,1778602397.7441535,2.11469650,0.22635466,0.11018936,-0.35659233,0.80527250,2.11603570
528,1778602397.7543888,2.23616720,0.27757720,0.38630300,-0.41890052,1.18400870,1.83381600
529,1778602397.7641578,2.16933400,0.32928753,0.53655570,-0.29306240,1.30007290,1.58824840
530,1778602397.7738872,2.01469060,0.38294917,0.60436450,0.01114828,1.24387340,1.37566750
531,1778602397.7840674,1.79028740,0.42392716,0.61314553,0.30680683,1.05084010,1.30847240
532,1778602397.7939036,1.59320270,0.45319718,0.56972840,0.67821264,0.71119934,1.34390250
533,1778602397.8039987,1.47026870,0.46978348,0.47216170,1.01418830,0.39354962,1.44286260
534,1778602397.8142767,1.38099520,0.46002686,0.34581286,1.26586450,0.17852524,1.52471850
535,1778602397.8243105,1.29269740,0.45856333,0.25019753,1.41369380,0.04291325,1.58091810
536,1778602397.8347924,1.26537870,0.46149033,0.21995185,1.47233690,-0.00595593,1.59557880
537,1778602397.8442988,1.30196620,0.46929568,0.22873287,1.56885350,-0.01450804,1.54915310
538,1778602397.854311,1.33123620,0.49368733,0.24385570,1.66781350,0.07589995,1.40498900
539,1778602397.8643727,1.33904150,0.52246950,0.25068536,1.75699990,0.22250749,1.23883380
540,1778602397.8741899,1.33904150,0.52246950,0.25068536,1.75699990,0.22250749,1.23883380
541,1778602397.8843446,1.26733000,0.58881485,0.23361120,1.90238560,0.50472700,0.82100224
542,1778602397.894351,1.13707850,0.65711150,0.18970619,1.93903760,0.65499973,0.52778715
543,1778602397.9045684,1.05170770,0.68296670,0.17604686,1.94514620,0.71486450,0.34697118
544,1778602397.914107,0.93462770,0.68686940,0.18043736,1.95247650,0.77228580,0.14782928
545,1778602397.9240797,0.93462770,0.68686940,0.18043736,1.98790670,0.80160730,-0.00977384
546,1778602397.9341881,0.79315600,0.66686815,0.24092870,2.04777150,0.78939000,-0.10751220
547,1778602397.9441695,0.75754420,0.63662250,0.34971553,2.19926600,0.73074700,-0.23579380
548,1778602397.9543593,0.81364506,0.61174303,0.41898784,2.41917730,0.68065610,-0.35552330
549,1778602397.9642277,0.86145270,0.59613234,0.42581752,2.65008400,0.65255630,-0.48991355
550,1778602397.9739678,0.90047940,0.60784036,0.42386620,2.79791330,0.66110843,-0.62308210
551,1778602397.9841118,0.94145733,0.61906050,0.42289050,2.91275600,0.70386890,-0.75380710
552,1778602397.9941638,1.00731490,0.62296320,0.45655105,3.01538130,0.73441220,-0.91018850
553,1778602398.0039256,1.09707620,0.62442666,0.51118840,3.11922840,0.70875585,-1.05801780
554,1778602398.0139637,1.20049680,0.58100950,0.56777704,3.24751000,0.62934345,-1.20096020
555,1778602398.0239542,1.25659760,0.53320190,0.58094853,3.34769180,0.53527030,-1.32557650
556,1778602398.0344653,1.25659760,0.53320190,0.58094853,3.34769180,0.53527030,-1.32557650
557,1778602398.04397,1.41075300,0.41758534,0.61119420,3.49307750,0.62079130,-1.53082720
558,1778602398.0541995,1.50880750,0.39026670,0.63802505,3.50040800,0.69898200,-1.53815750
559,1778602398.0639644,1.64003470,0.34050770,0.65705050,3.48086020,0.72952527,-1.59313540
560,1778602398.0739717,1.64003470,0.34050770,0.65705050,3.48086020,0.72952527,-1.59313540
561,1778602398.0839949,1.72540560,0.25025850,0.65412354,3.41733030,0.49128800,-1.83503780
562,1778602398.0941877,1.66296290,0.15805800,0.60192540,3.30859640,0.18952079,-1.97431490
563,1778602398.1046598,1.60100800,0.08781000,0.54289750,3.17054080,0.02947422,-2.01463200
564,1778602398.1141787,1.50734400,0.02439167,0.47704002,2.94085570,-0.04993819,-2.03051450
565,1778602398.1241338,1.41709480,-0.01122017,0.45118487,2.67207530,0.00015272,-2.00608000
566,1778602398.134183,1.32391870,-0.05024683,0.44191605,2.47293330,0.08933897,-1.94988040
567,1778602398.1442566,1.21122920,-0.12830016,0.45557535,2.26523920,0.20418155,-1.83503780
568,1778602398.154277,1.10878420,-0.17903483,0.46923468,2.11496660,0.31169376,-1.69209540
569,1778602398.1643903,1.01609590,-0.21025616,0.46142936,2.04288460,0.39232790,-1.55648350
570,1778602398.174471,0.90682120,-0.23464784,0.44435520,1.98057630,0.42531460,-1.37078060
571,1778602398.1839783,0.84047586,-0.24147749,0.41996354,1.92193330,0.38133234,-1.22783820
572,1778602398.194324,0.68485700,-0.23855051,0.35508168,1.81442100,0.27992877,-1.01892240
573,1778602398.204239,0.55850820,-0.22830600,0.30337137,1.72401310,0.22983788,-0.87598010
574,1778602398.21411,0.48143053,-0.22196417,0.26775953,1.58229240,0.20906848,-0.69394237
575,1778602398.2240067,0.48143053,-0.22196417,0.26775953,1.58229240,0.20906848,-0.69394237
576,1778602398.2342072,0.38483953,-0.23220867,0.23702602,1.32328580,0.21762058,-0.41905323
577,1778602398.2443335,0.32629952,-0.25806385,0.23848954,1.24387340,0.23350306,-0.32253662
578,1778602398.254359,0.27702835,-0.28391900,0.22531801,1.17667830,0.23716825,-0.19181155
579,1778602398.2642617,0.23946518,-0.30245668,0.19995070,1.12047870,0.23594652,-0.05986475
580,1778602398.2741535,0.18726702,-0.31318900,0.15897270,1.05939220,0.24449863,0.05864302
581,1778602398.2841983,0.14921603,-0.31514034,0.13702019,0.98731020,0.23472479,0.16371176
582,1778602398.2940395,0.14921603,-0.31514034,0.13702019,0.98731020,0.23472479,0.16371176
583,1778602398.3042967,0.10092052,-0.28684600,0.12336086,0.71608620,0.16142102,0.54733485
584,1778602398.3141236,0.17165637,-0.27757720,0.15409435,0.57803080,0.11010838,0.75258540
585,1778602398.3240795,0.24141651,-0.26538134,0.18677919,0.49617493,0.06490438,0.88331050
586,1778602398.3342557,0.30142003,-0.24928285,0.21165870,0.45463613,0.04535671,0.98837924
587,1778602398.3442223,0.37166804,-0.22928166,0.24434352,0.44486228,0.05635228,1.10200010
588,1778602398.3543406,0.44337955,-0.21708584,0.24336785,0.46563166,0.12232567,1.20829060
589,1778602398.3643544,0.54923934,-0.21464668,0.24092870,0.47784898,0.21395539,1.30969400
590,1778602398.373865,0.65070870,-0.21562232,0.23263553,0.47051860,0.27259842,1.38421960
591,1778602398.3842113,0.74388486,-0.20098734,0.20970736,0.44241880,0.31047200,1.44530610
592,1778602398.3939133,0.74388486,-0.20098734,0.20970736,0.44241880,0.31047200,1.44530610
593,1778602398.4039505,0.84486634,-0.08732217,0.02335502,0.15164718,0.73563390,1.49661870
594,1778602398.414229,0.84242725,-0.04780767,-0.05860098,-0.08292489,1.00197100,1.50517080
595,1778602398.4239156,0.82437736,-0.02829433,-0.08738314,-0.43966994,1.29518600,1.51494470
596,1778602398.434075,0.85315955,-0.00536617,-0.04299031,-0.70600694,1.44179360,1.54548790
597,1778602398.4439728,0.93609120,0.00682967,0.03311169,-0.88560120,1.47233690,1.60046580
598,1778602398.454325,1.18781320,0.03414834,0.23117203,-0.91003580,1.27075150,1.67499130
599,1778602398.464285,1.37904390,0.06146700,0.36142352,-0.70112010,0.96898425,1.66521740
600,1778602398.4740043,1.49417260,0.08634650,0.36288702,-0.47998700,0.78939000,1.59924400
601,1778602398.48427,1.55271260,0.11903133,0.25117320,-0.33215773,0.71364280,1.52471850
602,1778602398.4942946,1.54149230,0.15757017,0.10726235,-0.37369654,0.76129025,1.50639260
603,1778602398.5042975,1.55076120,0.20001167,0.01213485,-0.63148147,0.92255855,1.59191360
604,1778602398.5143356,1.60149590,0.22537899,0.03067252,-0.96501360,1.14002650,1.70797790
605,1778602398.5241876,1.70686790,0.22001283,0.24044085,-1.15682520,1.21455190,1.76173400
606,1778602398.5339055,1.70686790,0.22001283,0.24044085,-1.15682520,1.21455190,1.76173400
607,1778602398.5440185,1.84492480,0.24538018,0.63119537,-0.90881410,0.84436786,1.71530830
608,1778602398.5541837,1.91419710,0.27757720,0.88389300,-0.42012227,0.46074477,1.61268300
609,1778602398.5640965,1.90541610,0.30392018,0.87852687,0.16264275,0.05390882,1.48073630
610,1778602398.573994,1.90541610,0.30392018,0.87852687,0.16264275,0.05390882,1.48073630
611,1778602398.5842402,1.82199660,0.34636167,0.63607370,0.91034126,-0.36636615,1.19118630
612,1778602398.5940967,1.66101150,0.39709634,0.37508285,1.02884900,-0.39446592,1.04946570
613,1778602398.6041472,1.53368700,0.43758650,0.26336902,0.98486674,-0.33826637,0.94561870
614,1778602398.6142993,1.44490130,0.45953903,0.21165870,0.88224150,-0.20631959,0.86376280
615,1778602398.6238666,1.37172640,0.47027132,0.18677919,0.80160730,-0.06826414,0.80145460
616,1778602398.6340306,1.28928260,0.48197934,0.18921836,0.74418604,0.06612612,0.73548120
617,1778602398.6441636,1.20830210,0.50149270,0.21995185,0.73196870,0.17486005,0.64751667
618,1778602398.6541843,1.13707850,0.52588433,0.23556253,0.79183346,0.18707734,0.55344350
619,1778602398.6643288,1.08683170,0.54003155,0.23263553,0.87857630,0.14187334,0.46059203
620,1778602398.6743145,1.01609590,0.55613000,0.20629252,0.99586230,0.03924806,0.32498005
621,1778602398.6843305,0.96487340,0.58344870,0.17702252,1.07771810,-0.04993819,0.19547673
622,1778602398.693884,0.93560340,0.60296200,0.15507002,1.13636120,-0.13301581,0.05864302
623,1778602398.7042186,0.87169720,0.63418335,0.09896919,1.17912170,-0.24663666,-0.18203771
624,1778602398.7139482,0.81413287,0.63515900,0.06189385,1.17667830,-0.28695372,-0.40561423
625,1778602398.7243922,0.81413287,0.63515900,0.06189385,1.17667830,-0.28695372,-0.40561423
626,1778602398.7339222,0.65705050,0.62686586,-0.00006098,1.08382680,-0.14523310,-0.73425950
627,1778602398.744137,0.59948623,0.61906050,0.00432952,1.03617940,-0.02306015,-0.84177166
628,1778602398.7543828,0.54728806,0.59710800,0.08433419,1.03495760,0.10399973,-0.92973620
629,1778602398.7642705,0.57021620,0.56247187,0.18677919,1.14246990,0.14065161,-0.99204440
630,1778602398.7743037,0.61704820,0.53856800,0.25068536,1.36115940,0.14676027,-1.05435260
631,1778602398.7843182,0.61704820,0.53856800,0.25068536,1.36115940,0.14676027,-1.05435260
632,1778602398.794187,0.78730210,0.50100490,0.32044550,1.82419490,0.12232567,-1.18629940
633,1778602398.8041852,0.96292200,0.49612650,0.30971318,2.06365400,0.14309508,-1.31946790
634,1778602398.8142943,1.10049100,0.49368733,0.29068770,2.21514840,0.23472479,-1.47340580
635,1778602398.824137,1.19854560,0.47856450,0.28678500,2.26401760,0.41431904,-1.59557880
636,1778602398.8342378,1.28440430,0.46051466,0.32727520,2.26157400,0.59757847,-1.65666530
637,1778602398.8440533,1.34977390,0.43368387,0.41898784,2.26157400,0.59757847,-1.65666530
638,1778602398.8540869,1.41563140,0.39709634,0.51557887,2.39107750,0.80160730,-1.70186920
639,1778602398.8643591,1.51319810,0.34392250,0.57753370,2.56456300,0.65377800,-1.64689150
640,1778602398.8740351,1.63564410,0.29709050,0.57363105,2.69284460,0.40576693,-1.56747900
641,1778602398.8841426,1.79175100,0.24830718,0.50582220,2.74415730,0.10766492,-1.51860990
642,1778602398.8939142,1.95615080,0.16879034,0.37703420,2.63175820,-0.22586726,-1.56014860
643,1778602398.904164,2.03322840,0.10244500,0.26288120,2.31288670,-0.44700030,-1.74462990
644,1778602398.9140298,1.98200600,0.07902900,0.21263437,1.90238560,-0.42500916,-1.97064970
645,1778602398.9242673,1.87907310,0.05658867,0.21214652,1.57496210,-0.23808455,-2.09160100
646,1778602398.9342873,1.87907310,0.05658867,0.21214652,1.57496210,-0.23808455,-2.09160100
647,1778602398.9442997,1.65710890,-0.03805100,0.23800169,0.96409730,0.32635450,-2.15390920
648,1778602398.9544036,1.39709380,-0.14293517,0.28873634,0.59146980,0.83825920,-2.05006220
649,1778602398.9639323,1.19708200,-0.18976717,0.33605620,0.48273590,1.04595330,-1.93521960
650,1778602398.9739182,0.99902170,-0.21171968,0.37459502,0.44119710,1.14980020,-1.75440360
651,1778602398.9842658,0.88828355,-0.21171968,0.38776654,0.47784898,1.11925700,-1.57603110
652,1778602398.9941363,0.70485820,-0.20879267,0.39215705,0.57558733,0.95065830,-1.32068970
653,1778602399.0041869,0.62387790,-0.20293866,0.37947336,0.70509064,0.69165164,-1.04946570
654,1778602399.0144072,0.54143405,-0.20001167,0.34873986,0.83948094,0.38377580,-0.77824175
655,1778602399.0242314,0.51362750,-0.19415767,0.31898203,0.93721926,0.15409064,-0.58765190
656,1778602399.0343106,0.45118487,-0.17610784,0.24922185,1.01296650,-0.01450804,-0.42027497
657,1778602399.044253,0.39410836,-0.16537550,0.18531570,1.06305740,-0.13912445,-0.22724170
658,1778602399.0541856,0.36093570,-0.16147284,0.14384985,1.06794440,-0.19898920,-0.04520399
659,1778602399.0640128,0.35020337,-0.16879034,0.11750685,1.05572700,-0.20876303,0.07819069
660,1778602399.073903,0.33556834,-0.18732800,0.09750569,1.05206190,-0.18799363,0.18448116
661,1778602399.0842788,0.30337137,-0.19025500,0.06677218,1.06305740,-0.16844596,0.23212862
662,1778602399.0942888,0.23800169,-0.17269300,0.03555085,1.07283130,-0.16966769,0.27122396
663,1778602399.1038728,0.14775252,-0.14830133,-0.03079448,1.03251420,-0.23319763,0.37384924
664,1778602399.1141849,0.11750685,-0.14537434,-0.06835765,0.92133680,-0.30527967,0.50213087
665,1778602399.1239753,0.12580003,-0.15317966,-0.10787215,0.78450310,-0.35903576,0.61819520
666,1778602399.1340988,0.15799703,-0.16342416,-0.11909231,0.61834790,-0.39324420,0.71471180
667,1778602399.1444354,0.24824621,-0.18488884,-0.10250599,0.40210176,-0.41034842,0.80023290
668,1778602399.1539464,0.37215585,-0.19025500,-0.06152798,0.16386448,-0.34681848,0.81122845
669,1778602399.1641405,0.42337835,-0.18732800,-0.02933098,0.00626136,-0.23564109,0.78923730
670,1778602399.174138,0.45459970,-0.19366984,0.01213485,-0.09269873,-0.13179408,0.76358100
671,1778602399.1841946,0.45459970,-0.19366984,0.01213485,-0.09269873,-0.13179408,0.76358100
672,1778602399.1940925,0.48289403,-0.21367101,0.05164935,-0.26374087,0.05146536,0.70493793
673,1778602399.2046363,0.49265070,-0.22684251,0.06482086,-0.33460120,0.12476913,0.69882930
674,1778602399.214157,0.53460440,-0.24391668,0.07945585,-0.42012227,0.22128576,0.73059430
675,1778602399.2242706,0.62095090,-0.26294217,0.09018819,-0.50686500,0.34712392,0.82100224
676,1778602399.2343,0.71412706,-0.28196767,0.09604219,-0.58261230,0.45952302,0.89186260
677,1778602399.2441015,0.79413170,-0.28391900,0.09653002,-0.66080296,0.55970484,0.90041470
678,1778602399.2543044,1.04536580,-0.25562465,0.13604453,-0.73044160,0.58902640,0.74525505
679,1778602399.2641962,1.08683170,-0.20489000,0.19409668,-0.65713780,0.43020153,0.51434815
680,1778602399.2743866,1.04975630,-0.15269183,0.21068303,-0.54962560,0.27992877,0.45326167
681,1778602399.2839012,0.98097193,-0.03317267,0.19165753,-0.32727080,-0.06459895,0.65362530
682,1778602399.293954,1.01170540,0.08195600,0.09848136,-0.21609342,-0.42256570,1.09222630
683,1778602399.3040414,1.48441590,0.20586567,-0.09909115,-0.38835728,-0.82329303,1.91567200
684,1778602399.313859,2.02152040,0.25318550,-0.10933565,-0.75365440,-0.93935734,2.26264300
685,1778602399.3241882,2.60350560,0.32977533,-0.03859982,-1.28144160,-0.93569213,2.15268750
686,1778602399.3342283,2.78351600,0.38977882,0.04091702,-1.66139950,-0.64614224,1.56381380
687,1778602399.3443098,2.73961110,0.55759350,0.18043736,-1.88131080,-0.18066326,0.88331050
688,1778602399.35441,2.50008490,0.61613350,0.21507353,-2.01692270,0.20173809,0.46792242
689,1778602399.3639483,2.14201520,0.62442666,0.25653934,-2.13054370,0.53649200,0.18081598
690,1778602399.3740075,1.87517040,0.62101185,0.31946984,-2.11221770,0.62079130,0.10751220
691,1778602399.3843284,1.69662340,0.62589014,0.36435053,-1.98515780,0.51083565,0.14172062
692,1778602399.3942513,1.38880050,0.65613580,0.45752668,-1.70660350,0.19318599,0.25411975
693,1778602399.4045417,1.25220720,0.66345334,0.46679550,-1.35963230,-0.20631959,0.39217520
694,1778602399.414068,1.16537280,0.66003850,0.43703770,-1.07130410,-0.48365217,0.48136145
695,1778602399.4242606,1.06731840,0.65857506,0.38581520,-0.73044160,-0.74754580,0.55955213
696,1778602399.434357,1.00243660,0.66296554,0.32825086,-0.49464774,-0.89048815,0.59253883
697,1778602399.4441974,0.96438557,0.66150200,0.28727287,-0.28573200,-0.94302250,0.61208653
698,1778602399.4543643,0.91511434,0.63467115,0.22141537,-0.02061669,-0.95035290,0.59986920
699,1778602399.4641964,0.90291860,0.62637800,0.19556019,0.16630794,-0.91614443,0.53511757
700,1778602399.4743943,0.86828244,0.61710920,0.15750920,0.29336780,-0.88193600,0.45448340
701,1778602399.4839025,0.83559750,0.61857265,0.12970269,0.39965830,-0.85627973,0.36407542
702,1778602399.494142,0.75754420,0.62491450,0.07750452,0.49250972,-0.83184510,0.23579380
703,1778602399.5039341,0.64387900,0.64150090,-0.01372031,0.53160506,-0.76831520,0.13194679
704,1778602399.5143676,0.57363105,0.64979400,-0.10396948,0.48151416,-0.62781626,0.06108648
705,1778602399.524148,0.52631120,0.65272105,-0.16787565,0.37400195,-0.46654797,0.01221729
706,1778602399.534126,0.48679670,0.65076970,-0.20836583,0.21517712,-0.27840160,-0.04642572
707,1778602399.544571,0.46581987,0.64247650,-0.20982932,-0.01206458,-0.02550360,-0.15515965
708,1778602399.5540671,0.47899136,0.64735484,-0.09762765,-0.18066326,0.19807291,-0.29932374
709,1778602399.5642655,0.52679900,0.65223320,0.03457519,-0.21731515,0.34223700,-0.47403106
710,1778602399.57427,0.52679900,0.65223320,0.03457519,-0.21731515,0.34223700,-0.47403106
711,1778602399.5842788,0.54094620,0.63271990,0.19116970,-0.14034618,0.39965830,-0.64996010
712,1778602399.5942955,0.49118720,0.64686700,0.23702602,0.31780240,0.41309732,-1.09344790
713,1778602399.6043003,0.47704002,0.65125750,0.21507353,0.51816607,0.41431904,-1.20584700
714,1778602399.6143358,0.50094384,0.64101297,0.16824152,0.70875585,0.46318823,-1.30114200
715,1778602399.6243427,0.56143516,0.62589014,0.15507002,0.82237670,0.54993100,-1.39277170
716,1778602399.6340969,0.56143516,0.62589014,0.15507002,0.82237670,0.54993100,-1.39277170
717,1778602399.6441824,0.76876440,0.55466646,0.20141420,0.96898425,0.77839446,-1.57847460
718,1778602399.6538985,0.94828700,0.48734550,0.30239570,1.12536560,0.97387120,-1.73607770
719,1778602399.664011,1.03463350,0.43417168,0.36776537,1.27808190,1.23165610,-1.80938150
720,1778602399.674313,1.05658600,0.41075566,0.43508637,1.41369380,1.43201970,-1.76173400
721,1778602399.6843882,1.12341920,0.42831767,0.55167854,1.63482690,1.40636350,-1.61390470
722,1778602399.6939492,1.21952240,0.52003030,0.62778056,1.80098210,1.24631690,-1.51127950
723,1778602399.7042408,1.21952240,0.52003030,0.62778056,1.80098210,1.24631690,-1.51127950
724,1778602399.7143257,1.66540200,0.70784616,0.59119300,2.33732130,0.10888664,-1.21439920
725,1778602399.724605,1.93127130,0.64345220,0.50289520,2.28600880,-0.41767880,-1.24005560
726,1778602399.7341268,2.12591670,0.51271284,0.37849770,2.28600880,-0.41767880,-1.24005560
727,1778602399.7441897,2.16152860,0.44490403,0.31507936,1.90482910,-0.51297370,-1.52471850
728,1778602399.7543766,2.02347160,0.36782634,0.25361237,1.46378470,0.00381790,-1.84114650
729,1778602399.7639039,1.79370220,0.30587152,0.24239218,1.09604420,0.51450086,-1.95476730
730,1778602399.7742715,1.79370220,0.30587152,0.24239218,1.09604420,0.51450086,-1.95476730
731,1778602399.7842805,1.43416900,0.12537317,0.24239218,0.59880020,1.17790000,-1.81304670
732,1778602399.7943437,1.19317940,0.03707533,0.25556368,0.44119710,1.28052530,-1.62123510
733,1778602399.8039098,1.19317940,0.03707533,0.25556368,0.44119710,1.28052530,-1.62123510
734,1778602399.8141465,0.77754540,0.02244033,0.28044320,0.35078910,1.02396210,-1.12276950
735,1778602399.824268,0.65412354,0.06000350,0.30239570,0.38499752,0.69776030,-0.79778940
736,1778602399.8342905,0.59216870,0.08390734,0.30629835,0.44241880,0.42164943,-0.54733485
737,1778602399.84433,0.59216870,0.08390734,0.30629835,0.44241880,0.42164943,-0.54733485
738,1778602399.85433,0.52338420,0.03512400,0.27800402,0.66599530,-0.06215549,-0.01832594
739,1778602399.8643665,0.50874920,-0.04000233,0.26385686,0.79794210,-0.22464553,0.16493349
740,1778602399.8743608,0.49069935,-0.09366400,0.23458686,0.92378026,-0.33826637,0.25900668
741,1778602399.8842509,0.49069935,-0.09366400,0.23458686,0.92378026,-0.33826637,0.25900668
742,1778602399.8940892,0.37020450,-0.11122601,0.08921252,1.17667830,-0.51541716,0.37018406
743,1778602399.904223,0.37020450,-0.11122601,0.08921252,1.17667830,-0.51541716,0.37018406
744,1778602399.9139917,0.24483135,-0.08488300,-0.18104716,1.02274040,-0.61559900,0.64629495
745,1778602399.924517,0.26190552,-0.10000584,-0.27080846,0.78816830,-0.62537280,0.75014200
746,1778602399.9340334,0.26190552,-0.10000584,-0.27080846,0.78816830,-0.62537280,0.75014200
747,1778602399.9440942,0.26190552,-0.10000584,-0.27080846,0.78816830,-0.62537280,0.75014200
748,1778602399.9539526,0.36093570,-0.16293633,-0.24641682,-0.13790272,-0.23319763,0.95661426
749,1778602399.9640682,0.41410953,-0.17854700,-0.12738548,-0.40546150,-0.06337722,0.99204440
750,1778602399.9739058,0.42630538,-0.18293750,-0.08591965,-0.49709120,-0.01328631,1.01281380
751,1778602399.98428,0.42630538,-0.20391434,0.00969569,-0.52519100,-0.03161225,1.02991810
752,1778602399.9942958,0.42874455,-0.20781700,0.02969686,-0.51419544,-0.09392046,1.05190920
753,1778602400.004345,0.43752554,-0.18293750,-0.00493931,-0.51908237,-0.15867212,1.12276950
754,1778602400.0141158,0.47655220,-0.16000934,-0.07030898,-0.60216000,-0.13057235,1.17896900
755,1778602400.02416,0.53558004,-0.16976601,-0.11470181,-0.81229746,-0.00229074,1.23394680
756,1778602400.0339994,0.53558004,-0.16976601,-0.11470181,-0.81229746,-0.00229074,1.23394680
757,1778602400.0444546,0.68534490,-0.19464551,0.00237819,-1.12383840,0.22739442,1.23394680
758,1778602400.0545716,0.81364506,-0.20001167,0.08433419,-1.16171200,0.41554075,1.11543900
759,1778602400.064098,0.81559634,-0.17122951,0.10140836,-1.09329520,0.59024810,0.98349230
760,1778602400.0742471,0.80144920,-0.12586100,0.09311519,-1.05053470,0.59024810,0.89919290
761,1778602400.0838723,0.80144920,-0.12586100,0.09311519,-1.05053470,0.59024810,0.89919290
762,1778602400.094056,0.86194050,0.09317617,0.08872469,-1.09207360,0.23716825,0.95417076
763,1778602400.103898,1.12341920,0.29562700,0.12092169,-1.23623760,-0.42500916,1.24005560
764,1778602400.1141534,1.42685160,0.40929216,0.21165870,-1.33275430,-0.87827086,1.39277170
765,1778602400.1239743,1.69369640,0.45514850,0.30776188,-1.40605800,-1.28877200,1.50883600
766,1778602400.134147,1.69369640,0.45514850,0.30776188,-1.40605800,-1.28877200,1.50883600
767,1778602400.1442044,2.17616370,0.53612880,0.55850820,-1.36451920,-1.49280080,1.59435710
768,1778602400.1543682,2.42300720,0.65662370,0.72973770,-1.12261680,-1.10551250,1.40132380
769,1778602400.163903,2.44642330,0.70930970,0.74047005,-0.90637064,-0.75854135,1.15331270
770,1778602400.17433,2.29519490,0.73565270,0.66192890,-0.90637064,-0.75854135,1.15331270
771,1778602400.1843464,2.08981700,0.73370135,0.58436340,-0.53007793,-0.00106901,0.62430380
772,1778602400.1943498,2.08981700,0.73370135,0.58436340,-0.53007793,-0.00106901,0.62430380
773,1778602400.2038622,1.57417730,0.70833400,0.47021037,-0.35537058,0.30558512,0.47036588
774,1778602400.2141953,1.42197320,0.68491805,0.46045370,-0.26496258,0.31535894,0.46792242
775,1778602400.2240677,1.25952470,0.66589254,0.45606318,-0.11835505,0.25060728,0.47525280
776,1778602400.2342443,1.25952470,0.66589254,0.45606318,-0.11835505,0.25060728,0.47525280
777,1778602400.2442555,1.15073790,0.65418450,0.44289170,0.01603520,0.17363831,0.49113527
778,1778602400.2540042,0.91316307,0.62198750,0.37410718,0.35934120,0.06001746,0.52045680
779,1778602400.2642415,0.80974240,0.60344980,0.35069120,0.51938780,0.05268709,0.52167850
780,1778602400.2740695,0.73071337,0.58881485,0.33410487,0.64522594,0.06001746,0.52045680
781,1778602400.2842488,0.64778167,0.56832590,0.31995770,0.80649424,0.08567379,0.52167850
782,1778602400.2943091,0.61656040,0.55466646,0.32093337,0.94454970,0.10766492,0.52656543
783,1778602400.3043153,0.57997286,0.52588433,0.33020220,1.12536560,0.12110394,0.50457430
784,1778602400.3143609,0.55704470,0.51417637,0.33166570,1.33428140,0.13942988,0.43737918
785,1778602400.3245904,0.54045830,0.51076150,0.33703187,1.51876260,0.14065161,0.36041020
786,1778602400.3341107,0.50972486,0.50393180,0.32922652,1.51876260,0.14065161,0.36041020
787,1778602400.3442807,0.46825904,0.50637100,0.30190787,1.93170710,0.07467822,0.13683371
788,1778602400.3544543,0.37996120,0.50929800,0.20580468,2.14673160,0.08445205,-0.00610865
789,1778602400.3643222,0.34825203,0.51759120,0.16726585,2.22858740,0.10888664,-0.08063415
790,1778602400.3743331,0.34142238,0.52246950,0.12580003,2.27012630,0.13454297,-0.17592905
791,1778602400.3838906,0.34873986,0.51563984,0.10140836,2.26768280,0.16630794,-0.25167630
792,1778602400.3942003,0.34873986,0.51563984,0.10140836,2.26768280,0.16630794,-0.25167630
793,1778602400.404111,0.50191957,0.46978348,0.15653352,2.16750100,0.42897978,-0.43982264
794,1778602400.4141655,0.59655917,0.44246486,0.23848954,2.14917500,0.56459177,-0.56321734
795,1778602400.4239893,0.74876320,0.41465837,0.38825434,2.20537450,0.60857403,-0.69394237
796,1778602400.4338698,0.88925916,0.41368267,0.51606670,2.38130350,0.61101750,-0.88819736
797,1778602400.4439838,0.95950720,0.41417053,0.57070400,2.52180240,0.62323480,-0.99204440
798,1778602400.454063,1.04536580,0.42441500,0.60582805,2.79058310,0.65622150,-1.12521290
799,1778602400.4641387,1.07073320,0.42587852,0.53021390,2.92253000,0.77106404,-1.13865200
800,1778602400.4743204,1.10927200,0.44441620,0.47557652,2.91642120,0.87979800,-1.05313090
801,1778602400.4841962,1.20927790,0.45173368,0.46533203,2.82845660,0.86880240,-0.90896680
802,1778602400.4943938,1.20927790,0.45173368,0.46533203,2.82845660,0.86880240,-0.90896680
803,1778602400.5039032,1.56295700,0.36782634,0.58338770,2.56700660,0.35811950,-0.57299120
804,1778602400.5140328,1.80589810,0.32782400,0.65753840,2.43139460,0.00992655,-0.54244790
805,1778602400.5240583,1.80589810,0.32782400,0.65753840,2.43139460,0.00992655,-0.54244790
806,1778602400.5341513,1.98883550,0.26489350,0.71217570,2.21759180,-0.18188499,-0.91507540
807,1778602400.5442908,1.98883550,0.26489350,0.71217570,2.21759180,-0.18188499,-0.91507540
808,1778602400.5540743,1.76979840,0.13366634,0.63119537,1.97080250,0.23105960,-1.22050790
809,1778602400.5643446,1.64149820,0.08000467,0.59021735,1.84252080,0.46074477,-1.16430830
810,1778602400.574354,1.52734520,0.04731983,0.57460670,1.69591330,0.71364280,-0.99326610
811,1778602400.5842006,1.38977620,0.05658867,0.59119300,1.63727030,0.80649424,-0.85154550
812,1778602400.594506,1.29074600,0.08195600,0.60143757,1.64948760,0.79916380,-0.73548120
813,1778602400.6040561,1.17512950,0.08829784,0.58046070,1.74722600,0.62689996,-0.59009540
814,1778602400.6141987,1.14244470,0.05610084,0.53265303,1.82297330,0.38744098,-0.51190466
815,1778602400.624026,1.12829760,0.02878217,0.47655220,1.85229470,0.18585561,-0.50579600
816,1778602400.6339555,1.06292800,0.00780533,0.40435287,1.86573370,0.03680460,-0.55100006
817,1778602400.6442678,0.98731370,-0.00097567,0.35020337,1.85840330,0.01114828,-0.58276500
818,1778602400.6543179,0.98731370,-0.00097567,0.35020337,1.85840330,0.01114828,-0.58276500
819,1778602400.6643581,0.75412935,-0.00439050,0.21556135,1.70080030,0.11133011,-0.59009540
820,1778602400.6743555,0.67119770,-0.00780533,0.17458336,1.58351420,0.21395539,-0.55588690
821,1778602400.683881,0.58192420,-0.01463500,0.14628904,1.49310620,0.29703300,-0.51923510
822,1778602400.6941159,0.52289635,-0.02585517,0.13214186,1.41735900,0.35323256,-0.47403106
823,1778602400.7039936,0.43264723,-0.05561300,0.13555670,1.33916830,0.35934120,-0.39095345
824,1778602400.714012,0.38337603,-0.07854117,0.12726352,1.31229030,0.29581127,-0.31764970
825,1778602400.7241197,0.34386152,-0.10829899,0.11214069,1.29518600,0.16752967,-0.21624613
826,1778602400.7341807,0.33508053,-0.13903250,0.08677336,1.29396430,0.06368265,-0.14416409
827,1778602400.7439587,0.35069120,-0.16488767,0.06482086,1.28052530,-0.05604684,-0.08307761
828,1778602400.754285,0.37166804,-0.18196183,0.04335619,1.26219940,-0.15256348,-0.05009091
829,1778602400.7642908,0.38581520,-0.19025500,0.02676985,1.25120380,-0.19654575,-0.03420843
830,1778602400.774318,0.39898670,-0.20293866,0.00140252,1.23409960,-0.20509785,-0.01710421
831,1778602400.7843282,0.39898670,-0.20293866,0.00140252,1.23409960,-0.20509785,-0.01710421
832,1778602400.7943406,0.37849770,-0.21269535,-0.07421165,1.14857850,-0.09514219,0.05619956
833,1778602400.8039134,0.38776654,-0.22733033,-0.11372615,1.01174470,-0.03405571,0.15515965
834,1778602400.8141394,0.41801220,-0.23806266,-0.11958014,0.89079356,-0.01328631,0.24434592
835,1778602400.8241427,0.42972020,-0.23367217,-0.11518965,0.81993324,-0.04382955,0.34330600
836,1778602400.8338616,0.43167153,-0.20049950,-0.11518965,0.80893767,-0.13545926,0.43371400
837,1778602400.844099,0.44825786,-0.17171735,-0.13177599,0.81382460,-0.23564109,0.52412200
838,1778602400.8539927,0.52240855,-0.12390967,-0.20202398,0.78205960,-0.40546150,0.80634150
839,1778602400.8642619,0.70924866,-0.08146816,-0.30495682,0.59146980,-0.39080074,1.19240810
840,1778602400.874327,0.81998680,-0.05610084,-0.35764283,0.40576693,-0.27840160,1.38299790
841,1778602400.8843493,0.99560690,-0.00829317,-0.40398700,-0.02428187,0.04291325,1.62123510
842,1778602400.8939044,0.99560690,-0.00829317,-0.40398700,-0.02428187,0.04291325,1.62123510
843,1778602400.9038978,1.38099520,0.09122483,-0.24495333,-0.88071430,0.56092656,1.66888260
844,1778602400.913967,1.51027110,0.13122717,-0.07372381,-1.16049040,0.63300860,1.50028400
845,1778602400.9241004,1.54051670,0.14244732,0.02091586,-1.23257240,0.59146980,1.33535040
846,1778602400.9338775,1.45075540,0.16586334,0.04921019,-1.21546820,0.54504410,1.17041700
847,1778602400.9443583,1.33855370,0.21074401,0.01408619,-1.21058130,0.50594880,1.13620850
848,1778602400.9538648,1.21903460,0.24050182,-0.03664848,-1.33275430,0.44241880,1.25593790
849,1778602400.9640872,1.15903100,0.23757485,-0.03323365,-1.45859240,0.42042768,1.38544130
850,1778602400.9741423,1.12390710,0.23513566,0.05896685,-1.55633080,0.45463613,1.57358770
851,1778602400.9839385,1.12390710,0.23513566,0.05896685,-1.55633080,0.45463613,1.57358770
852,1778602400.9941616,1.19074020,0.26538134,0.24288003,-1.44881860,0.47662723,1.85458550
853,1778602401.0041807,1.30928360,0.32001868,0.41264603,-1.25578520,0.36789330,1.92911100
854,1778602401.0142086,1.38197090,0.37758300,0.48386967,-0.94790940,0.17852524,1.88757220
855,1778602401.0242167,1.40099640,0.43270817,0.47850356,-0.59360784,0.02458731,1.75562540
856,1778602401.0340846,1.36245750,0.50344400,0.37410718,-0.35781404,-0.07559452,1.62856550
857,1778602401.0438952,1.36245750,0.50344400,0.37410718,-0.35781404,-0.07559452,1.62856550
858,1778602401.0539212,1.30294190,0.57320416,0.14726469,-0.26740605,-0.16600250,1.33168520
859,1778602401.0640047,1.23708440,0.61418220,0.01408619,-0.41034842,-0.10613775,1.14353880
860,1778602401.074309,1.18049570,0.62589014,-0.02591615,-0.55695593,0.00626136,0.97738370
861,1778602401.0843165,1.12049220,0.63467115,-0.04738082,-0.75365440,0.19685118,0.76724620
862,1778602401.0943596,1.09268570,0.63759816,-0.02201348,-0.89904020,0.35567603,0.61208653
863,1778602401.104007,1.09317360,0.63320770,0.05652769,-1.01021770,0.54504410,0.36651886
864,1778602401.1143737,1.07170890,0.64979400,0.08482202,-0.99433510,0.62201303,0.18203771
865,1778602401.1242936,1.01902280,0.68101540,0.07555319,-0.91370100,0.65988666,-0.04642572
866,1778602401.1342497,1.01902280,0.68101540,0.07555319,-0.91370100,0.65988666,-0.04642572
867,1778602401.144135,0.96877605,0.68003964,0.03799002,-0.82207125,0.56825700,-0.35430157
868,1778602401.1541843,0.97560567,0.64394003,-0.00152448,-0.80008010,0.49250972,-0.55466520
869,1778602401.1641104,0.99267983,0.60588900,-0.03323365,-0.81718430,0.50350530,-0.72937256
870,1778602401.174131,1.00877830,0.56247187,-0.03616065,-0.84650590,0.55970484,-0.88941914
871,1778602401.183953,1.01365670,0.52149385,-0.00445148,-0.86483180,0.66843880,-1.09100450
872,1778602401.1940434,1.01902280,0.47710103,0.06043036,-0.84284070,0.75029470,-1.19240810
873,1778602401.2040007,1.04097530,0.41758534,0.11555553,-0.73044160,0.91767160,-1.30358540
874,1778602401.2143095,1.16293370,0.34050770,0.16043620,-0.55695593,1.12780900,-1.35123290
875,1778602401.2240286,1.25415860,0.29123650,0.18336436,-0.45921760,1.22676920,-1.39399340
876,1778602401.234215,1.25415860,0.29123650,0.18336436,-0.45921760,1.22676920,-1.39399340
877,1778602401.244307,1.43953530,0.22245201,0.18287653,-0.20998476,1.22066060,-1.61268300
878,1778602401.2540412,1.47514700,0.18537667,0.18238870,-0.09758565,1.09360060,-1.68476510
879,1778602401.2642956,1.56637190,0.07902900,0.19165753,-0.03772090,0.75029470,-1.64689150
880,1778602401.2743137,1.56637190,0.07902900,0.19165753,-0.03772090,0.75029470,-1.64689150
881,1778602401.2845623,1.65174270,0.02292817,0.21214652,-0.00717766,0.22861615,-1.53937920
882,1778602401.2940795,1.80004400,-0.03512400,0.24044085,0.02336558,-0.33948810,-1.44897130
883,1778602401.3042912,1.95615080,-0.12683667,0.15409435,-0.04016436,-0.97478750,-1.51983150
884,1778602401.314162,1.96737090,-0.16537550,0.08921252,-0.19776747,-0.97112226,-1.62367860
885,1778602401.3241348,1.92346600,-0.19464551,0.03555085,-0.49220430,-0.76587170,-1.74585150
886,1778602401.334244,1.80931290,-0.21659799,0.01164702,-0.77320210,-0.51786060,-1.81304670
887,1778602401.3440416,1.67711000,-0.21562232,0.02384285,-1.05908680,-0.27229297,-1.85092030
888,1778602401.3543012,1.47709830,-0.22196417,0.08287069,-1.40239290,-0.02916879,-1.81060330
889,1778602401.3643582,1.35514010,-0.23123300,0.12921485,-1.56243940,0.02458731,-1.73607770
890,1778602401.373857,1.23220610,-0.23757485,0.19068186,-1.68339060,-0.02428187,-1.61268300
891,1778602401.3841798,1.11707740,-0.23172083,0.24727054,-1.68339060,-0.02428187,-1.61268300
892,1778602401.3942714,1.04829290,-0.21952501,0.26971084,-1.68705580,-0.31016660,-1.38421960
893,1778602401.4041054,0.91462654,-0.18879150,0.27849188,-1.61741720,-0.49464774,-1.24982930
894,1778602401.414043,0.81852335,-0.18196183,0.26434470,-1.53189610,-0.66935510,-1.11788250
895,1778602401.4241922,0.74632406,-0.17415650,0.25458800,-1.46103580,-0.79641500,-1.01403560
896,1778602401.4341059,0.66339236,-0.15757017,0.23019636,-1.36574090,-0.92958350,-0.89186260
897,1778602401.4441993,0.59460783,-0.16000934,0.22092752,-1.28021990,-1.03343050,-0.79168075
898,1778602401.4541655,0.52826256,-0.15952150,0.19165753,-1.18736840,-1.18614670,-0.65606880
899,1778602401.4641848,0.46679550,-0.15659450,0.14677685,-1.11895160,-1.32175860,-0.50579600
900,1778602401.47399,0.46679550,-0.15659450,0.14677685,-1.11895160,-1.32175860,-0.50579600
901,1778602401.4841967,0.44289170,-0.15464316,0.12336086,-1.09451700,-1.37429310,-0.42760533
902,1778602401.494269,0.37849770,-0.15025267,0.08530986,-1.08352140,-1.44026650,-0.32009315
903,1778602401.5041077,0.34093451,-0.15903367,0.05994253,-1.10795600,-1.50013110,-0.26267186
904,1778602401.5142052,0.31703070,-0.17025384,0.03603869,-1.14094270,-1.54044830,-0.22724170
905,1778602401.5240688,0.28824854,-0.18635234,0.01408619,-1.20935950,-1.57710020,-0.18081598
906,1778602401.5341709,0.26532036,-0.20879267,-0.01469598,-1.30098930,-1.58320880,-0.13316852
907,1778602401.5438817,0.25751500,-0.22537899,-0.03225798,-1.39506240,-1.56121770,-0.09773836
908,1778602401.5543847,0.25751500,-0.22537899,-0.03225798,-1.39506240,-1.56121770,-0.09773836
909,1778602401.5639102,0.26385686,-0.28440684,-0.02298915,-1.65406910,-1.53067450,-0.01954767
910,1778602401.5739968,0.27166218,-0.29611483,-0.00250015,-1.80922880,-1.50501810,0.03665189
911,1778602401.5842059,0.28337020,-0.29806617,0.01994019,-1.93873210,-1.44393160,0.11606431
912,1778602401.594031,0.29263905,-0.29611483,0.03701435,-2.02914000,-1.37062790,0.19425500
913,1778602401.6042898,0.31751853,-0.30196884,0.04628318,-2.12810020,-1.26067220,0.31398448
914,1778602401.614455,0.36678970,-0.31270117,0.06286953,-2.22461680,-1.17759450,0.43860090
915,1778602401.6243231,0.39410836,-0.30782285,0.07994369,-2.30891600,-1.11650810,0.61086476
916,1778602401.6343303,0.44435520,-0.27123535,0.11897036,-2.36145040,-1.09207360,0.79656770
917,1778602401.6440263,0.46972254,-0.24489233,0.13799585,-2.40665460,-1.10062560,1.03113970
918,1778602401.6540694,0.70290690,-0.16635117,0.17214419,-2.49339720,-1.08840840,1.39643690
919,1778602401.6640518,1.00048520,-0.16391200,0.17409553,-2.67176990,-0.96745710,1.71530830
920,1778602401.6739948,1.30928360,-0.13171500,0.17507120,-2.94299390,-0.67424200,1.87535490
921,1778602401.6843572,1.51856420,-0.08537084,0.22678153,-3.18245270,-0.30527967,1.89001560
922,1778602401.693869,1.66881680,-0.02878217,0.30727400,-3.39381200,0.07956514,1.79716420
923,1778602401.70405,1.74345540,0.08585867,0.41264603,-3.58073660,0.60368710,1.51005770
924,1778602401.714102,1.70198950,0.13952033,0.47021037,-3.60517120,0.87491107,1.30236380
925,1778602401.7241063,1.54295590,0.18586451,0.47704002,-3.54408480,1.08504860,1.10688700
926,1778602401.733979,1.54295590,0.18586451,0.47704002,-3.54408480,1.08504860,1.10688700
927,1778602401.7439506,1.31172290,0.32050648,0.45899022,-3.42069000,1.01052310,1.26937700
928,1778602401.7544405,1.33123620,0.35563052,0.50338304,-3.36449050,0.78328140,1.47829280
929,1778602401.7641473,1.44099870,0.34880084,0.53899485,-3.22154800,0.59635675,1.55770520
930,1778602401.7741487,1.57320150,0.35953320,0.57997286,-3.05172780,0.49984010,1.49784040
931,1778602401.7839375,1.63076590,0.42100018,0.61851174,-2.82326440,0.34223700,1.31335930
932,1778602401.7940352,1.60149590,0.46246600,0.60777940,-2.62900920,0.20173809,1.11910430
933,1778602401.8043234,1.52636960,0.48734550,0.55899600,-2.38710700,0.07589995,0.88453220
934,1778602401.8138533,1.38099520,0.50295620,0.47606438,-2.19896050,-0.04505128,0.70982486
935,1778602401.8240733,1.28879480,0.50881016,0.43654984,-2.08411800,-0.15012002,0.62674725
936,1778602401.834472,1.21415620,0.52442086,0.37361938,-1.96194490,-0.25152358,0.57909983
937,1778602401.84398,1.19122800,0.52539650,0.30629835,-1.89474990,-0.29917103,0.56199560
938,1778602401.8540344,1.18147130,0.49856570,0.20629252,-1.89963670,-0.28695372,0.47158760
939,1778602401.8642197,1.16781210,0.48295498,0.16580236,-1.95217110,-0.22953244,0.37140578
940,1778602401.8739808,1.16195800,0.45807552,0.14726469,-2.04257920,-0.11957678,0.23579380
941,1778602401.8840837,1.16195800,0.45807552,0.14726469,-2.04257920,-0.11957678,0.23579380
942,1778602401.8943756,1.14342030,0.41075566,0.17360769,-2.14642620,0.11133011,-0.02809978
943,1778602401.90389,1.15659190,0.37855867,0.21946402,-2.12443500,0.25793764,-0.16859868
944,1778602401.9140592,1.19561850,0.37660733,0.28971204,-2.02914000,0.30680683,-0.33231044
945,1778602401.924123,1.20439950,0.39173016,0.32288470,-1.89841500,0.22372922,-0.49846566
946,1778602401.9338834,1.16732420,0.41856104,0.30288354,-1.70904700,0.04657844,-0.73425950
947,1778602401.9439466,1.11805300,0.43124464,0.26190552,-1.58443060,-0.07925971,-0.90652335
948,1778602401.9539535,1.02536480,0.43075684,0.17409553,-1.51601360,-0.15989386,-1.07512200
949,1778602401.9639764,0.95609240,0.40343818,0.13116619,-1.52090060,-0.15012002,-1.19240810
950,1778602401.9739895,0.90535770,0.38246134,0.12580003,-1.53067450,-0.08659008,-1.25838150
951,1778602401.9841945,0.84389070,0.38441268,0.14482552,-1.50746150,0.01359174,-1.29747680
952,1778602401.994175,0.83023137,0.40148684,0.17751035,-1.45370540,0.06979130,-1.27426400
953,1778602402.0043373,0.90438205,0.42880550,0.22531801,-1.36696270,0.06001746,-1.20340360
954,1778602402.013866,1.02194990,0.44636750,0.24629487,-1.26555910,0.04169152,-1.17041700
955,1778602402.024191,1.14537180,0.44978234,0.28044320,-1.15682520,0.04046979,-1.23028170
956,1778602402.0345378,1.18927670,0.46197820,0.31410370,-1.03831740,0.02580904,-1.36467200
957,1778602402.044059,1.19366730,0.48588200,0.33459267,-0.93080520,-0.02550360,-1.46974060
958,1778602402.0538445,1.17708090,0.51076150,0.35020337,-0.84772760,-0.09758565,-1.52227500
959,1778602402.064275,1.14976230,0.55369085,0.38630300,-0.69012450,-0.40301803,-1.51616630
960,1778602402.0743258,1.18195920,0.54393420,0.39605970,-0.62170760,-0.61682070,-1.47096240
961,1778602402.0838947,1.18195920,0.54393420,0.39605970,-0.62170760,-0.61682070,-1.47096240
962,1778602402.094338,1.26733000,0.46441734,0.38337603,-0.53985170,-0.95035290,-1.40498900
963,1778602402.103865,1.29611220,0.41465837,0.37898555,-0.53374310,-1.04564770,-1.40010200
964,1778602402.1140435,1.28391650,0.38929102,0.35361820,-0.55817770,-1.04564770,-1.42698010
965,1778602402.1243052,1.25415860,0.38929102,0.32971436,-0.61315554,-0.97600920,-1.46241030
966,1778602402.1338527,1.18586180,0.39514500,0.31946984,-0.68401580,-0.91858790,-1.48684490
967,1778602402.1439126,1.10829640,0.39660850,0.30873755,-0.76831520,-0.87094045,-1.49417520
968,1778602402.153933,0.99707040,0.38733968,0.29507820,-0.89293160,-0.78419770,-1.44652780
969,1778602402.1642945,0.93170070,0.37124115,0.29263905,-0.99433510,-0.70356350,-1.36100670
970,1778602402.173882,0.84974470,0.34197116,0.29849303,-1.08229970,-0.62659454,-1.25471630
971,1778602402.1840746,0.80730320,0.32636052,0.30678620,-1.11895160,-0.58383400,-1.18507770
972,1778602402.1941688,0.80730320,0.32636052,0.30678620,-1.11895160,-0.58383400,-1.18507770
973,1778602402.20389,0.70827305,0.30050534,0.31898203,-1.15438180,-0.47632182,-0.98471403
974,1778602402.213973,0.60534020,0.27611366,0.31946984,-1.13239060,-0.43722647,-0.82955440
975,1778602402.2245135,0.54338540,0.24928285,0.31507936,-1.08596490,-0.42012227,-0.69394237
976,1778602402.23427,0.49899250,0.22001283,0.30629835,-1.01754800,-0.39690940,-0.56566080
977,1778602402.2439358,0.47655220,0.20147517,0.30044436,-0.94424420,-0.38102690,-0.47891800
978,1778602402.2539458,0.44484302,0.17903483,0.30093220,-0.88071430,-0.37736170,-0.42149670
979,1778602402.2642689,0.40142587,0.14391084,0.30434700,-0.71578080,-0.41645706,-0.31031930
980,1778602402.2740235,0.36922884,0.10488417,0.29995653,-0.54596040,-0.50319990,-0.22357652
981,1778602402.2841258,0.36922884,0.10488417,0.29995653,-0.54596040,-0.50319990,-0.22357652
982,1778602402.2939405,0.32581168,0.02585517,0.25751500,-0.18432845,-0.78297590,-0.12217296
983,1778602402.3042634,0.25653934,-0.02829433,0.17507120,0.00992655,-0.96012670,-0.06475167
984,1778602402.314204,0.21995185,-0.06000350,0.09653002,0.12721258,-1.16537730,0.04520399
985,1778602402.3242972,0.21653701,-0.07463850,0.03799002,0.13942988,-1.36451920,0.17592905
986,1778602402.333951,0.24775836,-0.08829784,-0.03372148,0.05146536,-1.58443060,0.37262753
987,1778602402.3439918,0.30093220,-0.10146933,-0.08982231,-0.08414663,-1.66995160,0.53511757
988,1778602402.3538647,0.41606086,-0.13122717,-0.14006914,-0.37736170,-1.59176090,0.74281156
989,1778602402.3645055,0.50045604,-0.14586218,-0.13031249,-0.61926420,-1.44148810,0.84788030
990,1778602402.3740106,0.57314324,-0.13952033,-0.07421165,-0.91614443,-1.21180300,0.92973620
991,1778602402.38417,0.62826836,-0.12098267,-0.00250015,-1.15682520,-1.00166550,0.97127500
992,1778602402.394174,0.62826836,-0.12098267,-0.00250015,-1.15682520,-1.00166550,0.97127500
993,1778602402.4038994,0.79364390,-0.03756317,0.13360536,-1.36085400,-0.73899364,0.93584484
994,1778602402.4140508,0.87511206,0.00146350,0.15750920,-1.38528860,-0.63392490,0.94806210
995,1778602402.424025,1.01219320,0.04195367,0.13799585,-1.42560570,-0.50075640,0.99570960
996,1778602402.4342902,1.14634740,0.09317617,0.08726119,-1.54411340,-0.38224864,1.00792700
997,1778602402.444118,1.19513070,0.13269067,0.05652769,-1.70660350,-0.32604910,0.97494020
998,1778602402.4541066,1.22293720,0.18001050,0.03799002,-1.85931970,-0.29917103,0.95417076
999,1778602402.4641242,1.30489310,0.32636052,0.11067719,-2.23561240,-0.24419320,1.01159200
1000,1778602402.473883,1.44002310,0.41417053,0.24141651,-2.44086300,-0.24541493,1.10810880
