id,timestamp,acc_x,acc_y,acc_z,gyro_x,gyro_y,gyro_z
1,1778603171.917298,0.19360885,-0.76687400,-0.36154547,-1.64689150,-3.06027980,-1.12139500
2,1778603171.9275994,0.17263202,-0.87127030,-0.07957781,-1.77150790,-2.34678980,-1.07863450
3,1778603171.93763,0.18336436,-0.98444770,0.17360769,-1.65666530,-2.13787410,-1.05175640
4,1778603171.9476016,0.22434235,-1.14055440,0.38191253,-1.43919740,-2.20995620,-1.04931300
5,1778603171.9577181,0.22434235,-1.14055440,0.38191253,-1.43919740,-2.20995620,-1.04931300
6,1778603171.9673665,0.37020450,-1.48301340,0.53899485,-0.79412420,-3.19222660,-1.25212010
7,1778603171.97764,0.38142470,-1.60448380,0.51070050,-0.59498227,-3.64915350,-1.37429310
8,1778603171.987774,0.35800868,-1.74156500,0.43508637,-0.43615746,-4.04132840,-1.49035740
9,1778603171.997679,0.32776302,-1.81815480,0.37410718,-0.39217520,-4.10974550,-1.49035740
10,1778603172.0076907,0.32288470,-1.85913290,0.33703187,-0.40072730,-3.88739090,-1.37307130
11,1778603172.0175674,0.31020102,-1.80986170,0.29263905,-0.45448340,-3.44390300,-1.13239060
12,1778603172.0276084,0.31020102,-1.80986170,0.29263905,-0.45448340,-3.44390300,-1.13239060
13,1778603172.0376086,0.41459736,-1.61570400,0.40240154,-0.43004880,-2.58624890,-0.61315554
14,1778603172.0476494,0.41459736,-1.61570400,0.40240154,-0.43004880,-2.58624890,-0.61315554
15,1778603172.0576613,0.68339354,-1.32397970,0.28922418,0.18448116,-1.61863900,-0.77808900
16,1778603172.0678158,0.75022670,-1.19324040,0.03847786,0.61941690,-0.34559676,-1.02487840
17,1778603172.0776584,0.80242490,-1.15079880,0.01359835,0.89430606,0.79672040,-1.16904250
18,1778603172.0873706,0.79608303,-1.10640610,0.03896569,1.03969180,1.55297100,-1.30709790
19,1778603172.0978537,0.68436920,-1.06152530,-0.01713515,0.99693130,1.93048540,-1.41461010
20,1778603172.107449,0.54484886,-1.00591240,-0.07030898,0.81245020,1.91582470,-1.36940610
21,1778603172.1174474,0.40093803,-0.93956697,-0.06250364,0.43493572,1.39048100,-1.16171200
22,1778603172.1274912,0.33410487,-0.92541987,-0.00689065,0.28221953,0.83459400,-1.04198270
23,1778603172.1376534,0.27117437,-0.90932130,0.09506652,0.31642795,-0.01206458,-0.93935734
24,1778603172.147785,0.27117437,-0.90932130,0.09506652,0.31642795,-0.01206458,-0.93935734
25,1778603172.1575198,0.10775018,-0.83760990,0.12677568,0.91263200,-1.58565220,-0.74876750
26,1778603172.167593,0.02872119,-0.79321700,0.08238286,1.23150340,-2.18429970,-0.58994263
27,1778603172.177727,-0.01469598,-0.72833520,0.03652652,1.47096240,-2.57158800,-0.37247480
28,1778603172.1875722,-0.02152565,-0.65223320,0.06677218,1.61512650,-2.85747270,-0.19898920
29,1778603172.1976457,-0.05469831,-0.58686350,0.07506536,1.77517310,-3.23620900,0.01603520
30,1778603172.2074888,-0.08787098,-0.51027370,0.07262619,1.92055880,-3.45856360,0.20295982
31,1778603172.2177536,-0.07274815,-0.40051118,0.01994019,2.11481380,-3.59539750,0.46685340
32,1778603172.227656,0.04042919,-0.31904300,-0.08445615,2.13069630,-3.54530640,0.57925254
33,1778603172.237512,0.15458219,-0.28099200,-0.23666015,1.99386260,-3.32295180,0.59880020
34,1778603172.2473135,0.28971204,-0.25903952,-0.46691746,1.57603110,-2.71575210,0.49495320
35,1778603172.2575858,0.37264370,-0.25464900,-0.66985613,1.03602670,-2.00226200,0.31535894
36,1778603172.2676096,0.54875153,-0.26782050,-1.14500580,-0.22846343,-0.76342830,-0.14034618
37,1778603172.277851,0.58192420,-0.28587034,-0.96304400,-1.04824400,0.04291325,-0.52519100
38,1778603172.287421,0.51509106,-0.28245550,-0.30105415,-1.43064530,1.07038780,-0.90637064
39,1778603172.2974446,0.42240270,-0.29367570,0.30190787,-1.19362970,1.55297100,-1.07374750
40,1778603172.3076284,0.18824269,-0.35416700,0.78876555,-0.60597783,1.14002650,-1.05786500
41,1778603172.3176315,0.01018352,-0.35270350,0.70485820,-0.06475167,0.10155627,-0.78908455
42,1778603172.327652,-0.05128348,-0.35904533,0.51167620,0.19792019,-0.55695593,-0.48243046
43,1778603172.337332,-0.03079448,-0.46685650,0.34191018,0.36896232,-1.07863450,-0.11591160
44,1778603172.3473506,0.03799002,-0.63467115,0.29019985,0.44837475,-1.34863670,0.06246093
45,1778603172.357786,0.16385102,-0.93176160,0.32142118,0.52045680,-1.65529080,0.16264275
46,1778603172.3673294,0.18921836,-1.06933070,0.35849655,0.60353440,-2.11099600,0.17608178
47,1778603172.377514,0.34776420,-1.73668670,0.24483135,0.57176940,-2.44086300,0.14920372
48,1778603172.387371,0.34776420,-1.73668670,0.24483135,0.57176940,-2.44086300,0.14920372
49,1778603172.3978121,0.42289050,-2.39770080,0.15067953,0.22479823,-2.49339720,0.11133011
50,1778603172.4074485,0.42289050,-2.39770080,0.15067953,0.22479823,-2.49339720,0.11133011
51,1778603172.4176023,0.25214887,-2.17963930,0.14482552,0.20280711,-1.60764340,0.17363831
52,1778603172.427637,0.08384635,-1.66985360,0.18580353,0.91018850,-0.27351472,0.30436337
53,1778603172.4378288,0.02774552,-1.38886150,0.22726935,1.28159430,0.26404630,0.53649200
54,1778603172.447339,0.02774552,-1.38886150,0.22726935,1.28159430,0.26404630,0.53649200
55,1778603172.457353,0.09848136,-1.17275130,0.31117670,1.55037490,0.16142102,1.01907520
56,1778603172.467815,0.23019636,-1.22251030,0.34971553,1.59191360,-0.50564330,1.12780900
57,1778603172.4773257,0.30385920,-1.29812460,0.37654635,1.64811310,-1.04442610,1.02518380
58,1778603172.487528,0.32190904,-1.33471200,0.32629952,1.75318190,-1.64796040,0.79305520
59,1778603172.4977138,0.28776067,-1.32105270,0.21946402,1.81549010,-1.96561010,0.62934345
60,1778603172.5077758,0.28776067,-1.32105270,0.21946402,1.81549010,-1.96561010,0.62934345
61,1778603172.517474,0.24239218,-1.18689850,-0.15763116,1.93888490,-1.33397590,0.64644766
62,1778603172.5277514,0.30239570,-1.14299350,-0.27666250,1.95354560,-0.48976085,0.74174255
63,1778603172.5375037,0.35605735,-1.11616270,-0.31959182,1.81549010,0.51205740,0.81015940
64,1778603172.547395,0.36727753,-1.08250210,-0.30788383,1.56014860,1.02029690,0.82482016
65,1778603172.5574312,0.35069120,-1.04786600,-0.21470766,1.13743020,1.20111290,0.82482016
66,1778603172.5678692,0.33947104,-1.00152200,-0.05908882,0.80389804,1.00685790,0.81871150
67,1778603172.5779557,0.33947104,-1.00152200,-0.05908882,0.80389804,1.00685790,0.81871150
68,1778603172.5874643,0.36727753,-0.92298067,-0.00493931,0.84543690,0.62445650,0.80405074
69,1778603172.597444,0.39459620,-0.86492854,-0.12397064,1.00914860,0.69776030,0.81993324
70,1778603172.607477,0.46338070,-0.81760865,-0.29324880,1.11055220,0.79305520,0.82482016
71,1778603172.617346,0.46338070,-0.81760865,-0.29324880,1.11055220,0.79305520,0.82482016
72,1778603172.6273916,0.59607136,-0.73516480,-0.37276566,0.68905544,0.52060950,0.64278245
73,1778603172.637588,0.64436686,-0.70589480,-0.24788031,0.55833040,0.22006404,0.48640108
74,1778603172.647617,0.64436686,-0.70589480,-0.24788031,0.55833040,0.22006404,0.48640108
75,1778603172.6576216,0.68827190,-0.65320885,-0.21080498,0.53023064,-0.24174973,0.12721258
76,1778603172.667446,0.68534490,-0.56149620,-0.38008317,0.42027497,-0.37858346,-0.14523310
77,1778603172.677539,0.63021970,-0.46880785,-0.38154665,0.27733260,-0.32482734,-0.31627524
78,1778603172.687678,0.58924170,-0.41856104,-0.32788497,0.22846343,-0.24541493,-0.41523534
79,1778603172.697631,0.55558115,-0.38002217,-0.28349215,0.22846343,-0.24541493,-0.41523534
80,1778603172.707888,0.51704240,-0.32489700,-0.28495565,0.16371176,-0.22464553,-0.59605134
81,1778603172.7176683,0.46874684,-0.26294217,-0.27032065,0.02321286,-0.42012227,-0.76098480
82,1778603172.727708,0.39801103,-0.22976951,-0.24446549,-0.13439025,-0.68523760,-0.91370100
83,1778603172.7373796,0.26873520,-0.21415883,-0.17860797,-0.26267186,-0.88437950,-1.00777410
84,1778603172.7475605,0.26873520,-0.21415883,-0.17860797,-0.26267186,-0.88437950,-1.00777410
85,1778603172.7578008,0.05994253,-0.38246134,-0.18836464,-0.57787806,-1.03343050,-1.09085180
86,1778603172.7674925,0.12775135,-0.58491220,-0.17616881,-0.76724620,-0.98578304,-1.09818220
87,1778603172.7774985,0.21702486,-0.85565970,-0.14494748,-1.01159200,-1.00655250,-1.15193820
88,1778603172.787523,0.36142352,-1.19909430,-0.12397064,-1.22661650,-1.10795600,-1.27533290
89,1778603172.7974439,0.44533083,-1.48886730,-0.12445848,-1.26449010,-1.08718660,-1.45737060
90,1778603172.8076947,0.48240623,-1.71668540,-0.18934031,-1.23150340,-0.83184510,-1.69438610
91,1778603172.8176358,0.53021390,-2.18256640,-0.32349450,-1.31458100,-0.19410229,-2.05723980
92,1778603172.827755,0.48923588,-2.54600210,-0.32349450,-1.44286260,0.18952079,-2.23072550
93,1778603172.837936,0.37508285,-2.84162930,-0.26397880,-1.63100900,0.51327914,-2.25638180
94,1778603172.8475952,0.25849068,-2.92700000,-0.16543648,-1.77028610,0.59269154,-2.09144830
95,1778603172.8577669,0.05750336,-2.75040440,0.00676869,-1.83748130,0.52427470,-1.68461240
96,1778603172.867531,-0.03128231,-2.21720240,0.14287418,-1.70675620,0.47174034,-1.12872540
97,1778603172.8776433,0.00530519,-1.82205760,0.20629252,-1.48317970,0.45341438,-0.75731960
98,1778603172.8876595,0.09750569,-1.55033430,0.23800169,-1.18019080,0.38621926,-0.44455683
99,1778603172.8973546,0.09750569,-1.55033430,0.23800169,-1.18019080,0.38621926,-0.44455683
100,1778603172.9074717,0.23800169,-1.34690790,0.28776067,-0.94195350,0.24816382,-0.33948810
101,1778603172.917477,0.36971670,-1.14250560,0.17751035,-0.62674725,0.30436337,-0.33215773
102,1778603172.9277148,0.44142820,-1.05567130,0.17214419,-0.55344350,0.26893320,-0.39935285
103,1778603172.9376473,0.45947802,-0.94639670,0.21019518,-0.46792242,0.12476913,-0.46899143
104,1778603172.9476612,0.48679670,-0.85273266,0.20531686,-0.33719736,-0.11591160,-0.48609564
105,1778603172.95748,0.50143170,-0.75370250,0.15897270,-0.25289800,-0.23197590,-0.47387835
106,1778603172.9673455,0.44142820,-0.62247530,0.09799352,-0.08429934,-0.31871870,-0.37125307
107,1778603172.9773736,0.35605735,-0.54100716,0.08335852,0.08185588,-0.21120650,-0.14401138
108,1778603172.9878395,0.29263905,-0.49368733,0.08823685,0.20402883,-0.08048143,0.02580904
109,1778603172.9975538,0.20824386,-0.46002686,0.11701902,0.35185810,0.05635228,0.18829907
110,1778603173.0076714,0.16629020,-0.43661085,0.13262970,0.51801336,0.18463388,0.33979353
111,1778603173.017645,0.12238518,-0.38294917,0.13555670,0.76235926,0.34345870,0.50961393
112,1778603173.0278268,0.09555435,-0.32977533,0.14775252,0.88697565,0.37033677,0.59391326
113,1778603173.0375547,0.09555435,-0.32977533,0.14775252,0.88697565,0.37033677,0.59391326
114,1778603173.0474358,0.01506185,-0.25074634,0.20238985,1.00670520,0.26282457,0.70631240
115,1778603173.0577946,-0.14982581,-0.11171384,0.18482786,1.25715970,-0.06704241,1.00319270
116,1778603173.0678067,-0.09957898,-0.00926883,-0.16641214,1.16919520,0.00503963,1.23898650
117,1778603173.0773387,0.14531335,0.00536617,-0.43325698,0.78923730,0.18952079,1.24753860
118,1778603173.0877216,0.55265420,-0.05463734,-0.87035560,-0.14905101,0.56337005,0.83459400
119,1778603173.0976253,0.98097193,-0.15708233,-1.12549250,-1.21562090,0.99830574,0.10399973
120,1778603173.107473,1.05609820,-0.25123417,-0.85376936,-1.98042360,1.68003080,-0.74998920
121,1778603173.1175034,0.75266590,-0.34880084,-0.43472052,-2.19911310,3.19375370,-1.77013340
122,1778603173.1277668,0.28483367,-0.37465600,0.44679436,-1.57480940,3.84371400,-1.95217110
123,1778603173.1375387,0.05408852,-0.41563400,0.61558470,-1.01647900,3.22551870,-1.73225980
124,1778603173.1476548,0.05408852,-0.41563400,0.61558470,-1.01647900,3.22551870,-1.73225980
125,1778603173.1577182,-0.04884431,-0.55759350,0.50191957,-0.21991132,1.58840120,-0.69501140
126,1778603173.167378,0.09311519,-0.98591120,0.32093337,0.26145010,0.41309732,-0.02061669
127,1778603173.177788,0.24824621,-1.28788010,0.27166218,0.50579600,-0.44700030,0.23350306
128,1778603173.1875057,0.39264485,-1.52935760,0.33117786,0.39584038,-1.24234630,0.27748534
129,1778603173.1977766,0.51996934,-1.87328020,0.34386152,0.12095123,-2.27959470,0.20662501
130,1778603173.2077098,0.55216634,-2.30598830,0.27410138,-0.14294235,-2.91733740,0.12599087
131,1778603173.2178211,0.55216634,-2.30598830,0.27410138,-0.14294235,-2.91733740,0.12599087
132,1778603173.2273624,0.23800169,-2.21427560,0.19019403,-0.57054770,-2.93932870,0.31413722
133,1778603173.237312,0.10482319,-1.84693720,0.27361350,-0.36163196,-2.31991170,0.68065610
134,1778603173.2477138,0.10482319,-1.84693720,0.27361350,0.01954767,-1.76891170,0.98608845
135,1778603173.2573967,0.07652886,-1.32007700,0.40630420,0.44715303,-1.39139720,1.28663400
136,1778603173.2673507,0.24483135,-1.18055670,0.50972486,1.06168290,-1.24112450,1.58229240
137,1778603173.2777197,0.36435053,-1.16689740,0.55460554,1.56381380,-1.39628420,1.57007520
138,1778603173.2877576,0.47264950,-1.19275260,0.53070170,1.95965420,-1.56243940,1.42713280
139,1778603173.2974198,0.47264950,-1.19275260,0.53070170,2.35182930,-1.64063010,1.16934790
140,1778603173.3074498,0.49606553,-1.20543620,0.41362170,2.35182930,-1.64063010,1.16934790
141,1778603173.3176348,0.43459850,-1.11567490,0.05652769,2.65848350,-0.97112226,0.92133680
142,1778603173.3275185,0.42679320,-1.08347790,-0.03713631,2.69757900,-0.32604910,0.88590664
143,1778603173.3376062,0.43313503,-1.07079420,-0.29276100,2.72445700,1.07771810,0.84070265
144,1778603173.3476279,0.43313503,-1.07079420,-0.29276100,2.72445700,1.07771810,0.84070265
145,1778603173.3573258,0.39362052,-1.06640370,-1.45185300,1.85336380,4.18579800,0.78083790
146,1778603173.367337,0.35703300,-1.05176870,-0.74742170,0.00366519,5.23892930,0.73319050
147,1778603173.377527,0.37996120,-1.04249990,-0.01811081,-0.95050560,4.38860500,0.65744320
148,1778603173.387486,0.41752437,-0.96493435,0.11555553,-0.78312860,3.75452760,0.58169600
149,1778603173.398042,0.41752437,-0.96493435,0.11555553,-0.78312860,3.75452760,0.58169600
150,1778603173.407436,0.45264837,-0.80931550,0.16580236,0.16126831,3.77529720,0.66599530
151,1778603173.4175513,0.66875860,-0.76248354,-0.05079565,0.77702000,1.30495990,0.64644766
152,1778603173.4276433,0.68436920,-0.73418920,0.03018469,0.56810427,-0.40546150,0.44608400
153,1778603173.437658,0.68436920,-0.73418920,0.03018469,0.56810427,-0.40546150,0.44608400
154,1778603173.4477222,0.64631820,-0.62881720,-0.23031832,0.56443906,-1.58931740,0.11621703
155,1778603173.457601,0.64631820,-0.62881720,-0.23031832,0.56443906,-1.58931740,0.11621703
156,1778603173.467781,0.63558584,-0.44685537,-0.53423850,0.39584038,-0.34559676,-0.15989386
157,1778603173.4777462,0.60924286,-0.36636284,-0.51472515,0.20647229,0.23961172,-0.28206682
158,1778603173.4877527,0.60729150,-0.25367334,-0.52155480,-0.07086031,0.66110843,-0.49953467
159,1778603173.4978611,0.60729150,-0.25367334,-0.52155480,-0.07086031,0.66110843,-0.49953467
160,1778603173.5077946,0.53997050,-0.13220283,-0.12884897,-0.64140800,-0.32482734,-1.11528640
161,1778603173.5174737,0.31898203,-0.14439867,0.11116502,-0.70127280,-1.20325090,-1.39384070
162,1778603173.5275333,0.11506769,-0.16488767,-0.06982114,-0.73914640,-1.58076540,-1.51479200
163,1778603173.5373943,-0.00591498,-0.25660032,-0.33325115,-1.01281380,-1.40605800,-1.46103580
164,1778603173.5474203,-0.00591498,-0.25660032,-0.33325115,-1.01281380,-1.40605800,-1.46103580
165,1778603173.557337,0.18970619,-0.74833630,-0.39666948,-1.84481170,-0.54229520,-1.47203140
166,1778603173.5673542,0.18970619,-0.74833630,-0.39666948,-1.84481170,-0.54229520,-1.47203140
167,1778603173.5777242,0.42728102,-1.35910370,0.18385220,-1.99508440,-0.54351693,-1.72370770
168,1778603173.587809,0.54826367,-1.79132400,0.08823685,-1.70919970,-0.64980740,-1.95461450
169,1778603173.5977588,0.61607254,-2.21281220,-0.13714215,-1.53449240,-0.41279188,-2.18552140
170,1778603173.6077816,0.64875740,-2.65722820,-0.29666364,-1.47340580,0.16875139,-2.39321540
171,1778603173.617658,0.64241550,-3.13969540,-0.18104716,-1.58458330,0.88590664,-2.48240180
172,1778603173.6278093,0.45508754,-3.21043100,0.11457986,-1.78494690,0.79305520,-2.25027320
173,1778603173.637603,0.20287769,-2.71869520,0.21653701,-1.88268530,0.48884454,-1.65284740
174,1778603173.6474864,0.13555670,-2.14597900,0.29849303,-1.76173400,0.41309732,-1.15438180
175,1778603173.657669,0.13555670,-2.14597900,0.29849303,-1.76173400,0.41309732,-1.15438180
176,1778603173.6674428,0.09701785,-1.19372820,0.33215353,-1.09466970,0.31047200,-0.39446592
177,1778603173.6775978,0.17604686,-0.99371654,0.31946984,-0.71593350,0.13942988,-0.17821980
178,1778603173.6873982,0.26434470,-0.89956470,0.25897855,-0.41783150,-0.10613775,-0.14645483
179,1778603173.6974177,0.26434470,-0.89956470,0.25897855,-0.41783150,-0.10613775,-0.14645483
180,1778603173.7073176,0.31166452,-0.87127030,0.15799703,-0.16371176,-0.23197590,-0.30039275
181,1778603173.7173815,0.26532036,-0.83663416,0.08823685,-0.14049890,-0.19898920,-0.37736170
182,1778603173.7276666,0.21946402,-0.77565503,0.11457986,-0.16004658,-0.11102467,-0.37614000
183,1778603173.7373998,0.19604802,-0.72052985,0.13506886,-0.16126831,-0.00962112,-0.32971427
184,1778603173.747433,0.19604802,-0.72052985,0.13506886,-0.16126831,-0.00962112,-0.32971427
185,1778603173.757441,0.15165520,-0.64003736,0.16921718,-0.11606431,0.07589995,-0.26984950
186,1778603173.7674682,0.11848252,-0.57027720,0.17116854,-0.02809978,0.19685118,-0.16355905
187,1778603173.7776113,0.02189152,-0.32977533,0.18726702,0.31764970,0.76617720,0.26160285
188,1778603173.787348,0.03457519,-0.20879267,0.19068186,0.52534370,1.00563610,0.45097092
189,1778603173.7977517,0.03457519,-0.20879267,0.19068186,0.52534370,1.00563610,0.45097092
190,1778603173.8077452,0.01457402,-0.12488534,0.11360419,0.63774280,1.11925700,0.55115277
191,1778603173.8174286,0.06238169,0.01463500,-0.07957781,0.50946120,1.38192880,0.68676470
192,1778603173.8277636,0.12726352,0.02585517,-0.16202165,0.22724170,1.34283350,0.60368710
193,1778603173.8375406,0.16287535,0.01463500,-0.36691165,-0.12705988,1.25364720,0.46196648
194,1778603173.8473732,0.22531801,-0.03268483,-0.61765796,-0.78801554,1.15957400,0.19196425
195,1778603173.8577123,0.22531801,-0.03268483,-0.61765796,-1.38666310,1.38803740,-0.15012002
196,1778603173.8677304,0.67656386,-0.34343470,-0.99768020,-1.86924620,2.41306850,-0.68401580
197,1778603173.8774178,0.81169370,-0.50637100,-0.81815743,-2.21133040,3.84860090,-1.21791160
198,1778603173.887442,0.73754305,-0.64637920,-0.38593715,-2.49965860,4.56209100,-1.68827750
199,1778603173.8973558,0.73754305,-0.64637920,-0.38593715,-2.49965860,4.56209100,-1.68827750
200,1778603173.9073722,0.14970386,-0.82590187,0.57850940,-1.89856770,3.96344350,-1.81411560
201,1778603173.9176226,0.16385102,-1.01859600,0.32678735,-1.20096020,3.16687580,-1.33397590
202,1778603173.9273334,0.16385102,-1.01859600,0.32678735,-1.20096020,3.16687580,-1.33397590
203,1778603173.9373894,0.20482900,-1.32641890,0.07360186,-0.62063860,3.09845880,-0.96745710
204,1778603173.9475603,0.39362052,-1.79425100,-0.06347931,-0.35918850,1.95858510,-0.34559676
205,1778603173.957647,0.52484770,-2.12207500,-0.30251765,-0.60353440,1.19133900,-0.23930627
206,1778603173.9674084,0.72632280,-2.45965550,-0.21275632,-0.73670290,0.48029244,-0.32116216
207,1778603173.9777029,0.57753370,-2.13622210,0.37069237,-0.70249450,-0.44089165,-0.49098256
208,1778603173.987958,0.32532385,-1.72790580,0.42093918,-0.65851223,-1.41338840,-0.40179630
209,1778603173.997747,0.18336436,-1.44447460,0.29995653,-0.69149894,-1.70660350,-0.22220206
210,1778603174.0078216,0.13702019,-1.25324390,0.20336552,-0.75747234,-1.79945490,0.07101303
211,1778603174.0176687,0.13702019,-1.25324390,0.20336552,-0.75747234,-1.79945490,0.07101303
212,1778603174.027716,0.27312570,-1.09372230,0.18238870,-0.79656770,-1.34008460,0.76006850
213,1778603174.0373724,0.34971553,-1.13957860,0.22141537,-0.69272065,-1.12994710,0.91400640
214,1778603174.047607,0.34971553,-1.13957860,0.22141537,-0.69272065,-1.12994710,0.91400640
215,1778603174.057461,0.48191833,-1.29910020,0.32581168,-0.24678937,-0.81107570,1.00197100
216,1778603174.0674877,0.50679785,-1.37178730,0.32434818,0.03787361,-0.64125530,0.92133680
217,1778603174.0775588,0.46972254,-1.35032270,0.32532385,0.30543238,-0.41890052,0.78450310
218,1778603174.0877376,0.41459736,-1.30007590,0.27897970,0.53023064,-0.07192933,0.69898200
219,1778603174.097803,0.36630186,-1.25861000,0.16385102,0.64751667,0.30314165,0.67699087
220,1778603174.1077497,0.35020337,-1.23616970,0.02286719,0.66706437,0.81382460,0.66233015
221,1778603174.1174119,0.35361820,-1.20104580,-0.25129515,0.52534370,1.99157190,0.61834790
222,1778603174.1276252,0.41508517,-1.17421480,-0.87669750,0.25289800,3.47475150,0.54748756
223,1778603174.137565,0.43606200,-1.14299350,-0.99182620,-0.54977830,5.80825500,0.37400195
224,1778603174.1477742,0.43606200,-1.14299350,-0.99182620,-0.54977830,5.80825500,0.37400195
225,1778603174.157359,0.36239920,-1.08494140,-0.30983517,-2.12214420,6.26029500,0.09789108
226,1778603174.1675713,0.31020102,-0.91419965,-0.30056632,-2.92848590,5.19616840,-0.04627301
227,1778603174.177443,0.26678386,-0.76784970,-0.26202747,-2.77210430,5.03245700,-0.05726858
228,1778603174.1875412,0.26678386,-0.76784970,-0.26202747,-2.77210430,5.03245700,-0.05726858
229,1778603174.1977189,0.25458800,-0.63515900,0.06726002,-2.22721300,4.33973600,0.00870482
230,1778603174.2076685,0.25166103,-0.56393534,0.23848954,-1.78372510,1.97446760,0.11255184
231,1778603174.2175083,0.26824737,-0.58003384,0.30581054,-1.74707330,0.34956738,0.10033454
232,1778603174.2275403,0.25263670,-0.55661780,0.25458800,-1.73729940,-0.46166107,0.05268709
233,1778603174.237727,0.22092752,-0.48636985,0.14726469,-1.75440360,-0.74998920,0.02947422
234,1778603174.247724,0.22092752,-0.48636985,0.14726469,-1.75440360,-0.74998920,0.02947422
235,1778603174.2577586,0.20092636,-0.33806852,-0.11128698,-1.94743690,-0.49098256,0.04169152
236,1778603174.2678125,0.18921836,-0.22537899,-0.10006681,-2.17956540,0.44364056,0.04902190
237,1778603174.2776945,0.13116619,-0.20489000,0.04042919,-2.23332170,1.09726580,0.04657844
238,1778603174.287657,0.13116619,-0.20489000,0.04042919,-2.23332170,1.09726580,0.04657844
239,1778603174.2973697,0.06238169,-0.34733734,-0.12738548,-2.26630830,2.28845210,0.11133011
240,1778603174.3082309,0.06238169,-0.34733734,-0.12738548,-2.26630830,2.28845210,0.11133011
241,1778603174.3177385,0.09457869,-0.68101540,-0.04689298,-2.61816640,3.92312620,-0.07315106
242,1778603174.3275766,0.10433535,-0.77663070,0.09018819,-2.67192240,4.20656800,-0.20021093
243,1778603174.337398,0.10433535,-0.77663070,0.09018819,-2.67192240,4.20656800,-0.20021093
244,1778603174.3475182,0.19507235,-0.97030050,0.16385102,-2.72079180,4.14059400,-0.36392270
245,1778603174.3573587,0.29263905,-1.12543150,0.15311868,-2.74278280,3.97077370,-0.46532625
246,1778603174.3692405,0.40971902,-1.33861470,0.10287185,-2.81730840,3.78507100,-0.63514670
247,1778603174.3775072,0.50826140,-1.50496590,0.04628318,-2.85640380,3.82172270,-0.79030630
248,1778603174.3874228,0.63851285,-1.73668670,-0.09079798,-2.73300900,4.31285800,-0.89415330
249,1778603174.397664,0.72778636,-1.93962530,-0.06104015,-2.24553900,5.52359200,-0.93935734
250,1778603174.4077637,0.72827417,-1.98548170,-0.02542831,-2.24553900,5.52359200,-0.93935734
251,1778603174.4174173,0.72827417,-1.98548170,-0.02542831,-1.90101120,6.11979630,-0.88071430
252,1778603174.4275625,0.46386853,-1.64887680,-0.70010180,-2.52775840,5.35255000,-0.09758565
253,1778603174.4376173,0.56192300,-1.46154870,-0.06396715,-2.90893820,3.09723700,0.17608178
254,1778603174.4473786,0.56192300,-1.46154870,-0.06396715,-2.90893820,3.09723700,0.17608178
255,1778603174.4576538,0.52679900,-1.21421720,0.20873170,-1.86802450,-0.94424420,0.45830130
256,1778603174.4678075,0.51996934,-1.15470150,-0.23470882,-1.37444580,-1.22890720,0.60857403
257,1778603174.4778378,0.50338304,-1.13616380,-0.37081432,-1.22661650,-0.67668545,0.72219490
258,1778603174.487677,0.48679670,-1.12591930,-0.35764283,-1.30602880,0.23838998,0.81748980
259,1778603174.4976463,0.48679670,-1.12591930,-0.35764283,-1.30602880,0.23838998,0.81748980
260,1778603174.5077524,0.48094270,-1.13860300,-0.26202747,-1.61390470,1.41735900,0.89445880
261,1778603174.5174954,0.44142820,-1.10543040,-0.12543415,-1.79960760,1.93781580,0.89690220
262,1778603174.5277145,0.44484302,-1.01908390,-0.03030665,-1.90589810,2.33487800,0.87491107
263,1778603174.5376375,0.44386740,-0.91517540,0.01213485,-1.89856770,2.63664500,0.84681130
264,1778603174.5476375,0.44386740,-0.91517540,0.01213485,-1.89856770,2.63664500,0.84681130
265,1778603174.5575154,0.45655105,-0.83565850,0.02872119,-1.70675620,3.14977150,0.83581570
266,1778603174.5675876,0.50631005,-0.74736070,0.05701552,-1.55159650,3.31714840,0.86147210
267,1778603174.5774062,0.53753140,-0.73272570,0.04140485,-1.44897130,3.31348320,0.88957185
268,1778603174.587352,0.56387436,-0.71370020,0.02091586,-1.40010200,3.16931920,0.89323700
269,1778603174.5973618,0.57509450,-0.70052870,0.00872002,-1.37566750,2.96406870,0.87246764
270,1778603174.607705,0.56777704,-0.67223436,0.00774435,-1.35978500,2.83700870,0.84681130
271,1778603174.6175094,0.55411774,-0.64784270,0.00481735,-1.31702450,2.62564950,0.82237670
272,1778603174.6277661,0.53216520,-0.60881600,0.01554969,-1.21806440,2.40085120,0.80893767
273,1778603174.6373699,0.51753020,-0.58296084,-0.00640281,-1.11543900,2.32632600,0.81748980
274,1778603174.6475918,0.51753020,-0.58296084,-0.00640281,-1.11543900,2.32632600,0.81748980
275,1778603174.6577308,0.51753020,-0.58296084,-0.00640281,-1.11543900,2.32632600,0.81748980
276,1778603174.6676877,0.54289750,-0.56539880,0.28873634,-0.55833040,1.73012170,0.78694654
277,1778603174.6773233,0.54289750,-0.56539880,0.28873634,-0.55833040,1.73012170,0.78694654
278,1778603174.687317,0.43947688,-0.58540004,0.30581054,-0.32131487,0.60857403,0.69042990
279,1778603174.6973445,0.43947688,-0.58540004,0.30581054,-0.32131487,0.60857403,0.69042990
280,1778603174.7076218,0.23653820,-0.49807784,0.14628904,-0.22968516,0.26648977,0.64644766
281,1778603174.717595,0.08872469,-0.42539070,0.05750336,-0.17592905,0.56214833,0.76006850
282,1778603174.7275827,-0.03664848,-0.35514265,0.06140602,-0.14416409,0.90423256,0.92255855
283,1778603174.7376137,-0.05323482,-0.31611600,0.12628786,-0.05375610,1.37337670,1.15590880
284,1778603174.7476783,0.02774552,-0.33416584,0.21507353,0.08307761,1.76433010,1.28907740
285,1778603174.7576935,0.13994719,-0.40929216,0.33117786,0.18570289,1.86206850,1.26952970
286,1778603174.7676275,0.29263905,-0.55905706,0.42484185,0.34086254,1.71912620,1.10337450
287,1778603174.7774355,0.43508637,-0.71126103,0.48777235,0.41783150,1.18156520,0.82848537
288,1778603174.787694,0.57167970,-0.87127030,0.48094270,0.40072730,0.43997535,0.51205740
289,1778603174.7977617,0.64241550,-0.97810584,0.41654870,0.27733260,-0.21364996,0.20662501
290,1778603174.807557,0.64241550,-0.97810584,0.41654870,0.27733260,-0.21364996,0.20662501
291,1778603174.8173947,0.81559634,-1.12055310,-0.05469831,-0.13927718,-0.31749696,-0.16478078
292,1778603174.8274822,0.95804370,-1.24446280,-0.44398934,-0.99448790,1.83519050,-0.71822430
293,1778603174.8374434,0.77413050,-1.22787650,-0.04542948,-1.23883380,2.78936120,-0.90026200
294,1778603174.847682,0.66875860,-1.27178160,0.17311986,-1.23883380,3.26461400,-0.89904020
295,1778603174.8577533,0.65461135,-1.31373520,0.21995185,-1.16186480,3.39045210,-0.84039724
296,1778603174.8677843,0.67070990,-1.39617910,0.28580934,-0.88453220,3.52117730,-0.65835950
297,1778603174.8773043,0.69363800,-1.41618010,0.33995885,-0.56199560,3.52362080,-0.45921760
298,1778603174.887544,0.71217570,-1.35861590,0.34483720,-0.20769402,3.42221710,-0.24541493
299,1778603174.8977256,0.71217570,-1.35861590,0.34483720,-0.20769402,3.42221710,-0.24541493
300,1778603174.9077454,0.74290920,-1.23324260,0.18677919,0.04398226,3.31348320,-0.09269873
301,1778603174.9177697,0.79022900,-1.14982320,-0.04445382,0.26511532,3.51018170,0.12354740
302,1778603174.9273221,0.86047710,-1.12104100,-0.05372265,0.10995566,3.74108860,0.11255184
303,1778603174.9374564,0.89950370,-1.10494240,0.09213952,-0.12461641,3.53461620,-0.02428187
304,1778603174.947681,0.88974696,-1.05567130,0.18336436,-0.26755878,2.95429470,-0.22342380
305,1778603174.9578001,0.86340400,-1.02542570,0.16921718,-0.28099780,2.61954100,-0.33337945
306,1778603174.9676723,0.86340400,-1.02542570,0.16921718,-0.28099780,2.61954100,-0.33337945
307,1778603174.977676,0.76827660,-0.89517420,0.01847669,-0.03298670,2.36664300,-0.49342602
308,1778603174.987709,0.76534950,-0.88492970,-0.00250015,0.07696896,2.31777360,-0.51419544
309,1778603174.9976425,0.76534950,-0.88492970,-0.00250015,0.07696896,2.31777360,-0.51419544
310,1778603175.0073395,0.74290920,-0.85761100,-0.09226148,0.01466075,2.02944540,-0.53985170
311,1778603175.0175407,0.71607840,-0.82297480,-0.10299382,-0.17348559,1.70324370,-0.56428635
312,1778603175.0277994,0.69315020,-0.78199685,-0.13177599,-0.31398448,1.51143220,-0.57039500
313,1778603175.0377686,0.69315020,-0.78199685,-0.13177599,-0.31398448,1.51143220,-0.57039500
314,1778603175.0476925,0.67022200,-0.74492150,-0.18104716,-0.41294459,1.54319720,-0.54962560
315,1778603175.0573444,0.65997756,-0.69906515,-0.18787682,-0.52900890,1.88894670,-0.50319990
316,1778603175.0676196,0.67753950,-0.66150200,-0.19177948,-0.65362530,2.07098440,-0.49831295
317,1778603175.077625,0.67412466,-0.59954715,-0.20836583,-0.84299340,2.13940120,-0.56062114
318,1778603175.087639,0.65168434,-0.52100600,-0.30983517,-1.10200010,2.22492220,-0.65958124
319,1778603175.0974011,0.65168434,-0.52100600,-0.30983517,-1.10200010,2.22492220,-0.65958124
320,1778603175.1074317,0.60534020,-0.38099784,-0.47569847,-1.63589580,2.60732360,-0.86116660
321,1778603175.1176996,0.59802270,-0.29221216,-0.55326396,-2.13924840,2.69650980,-1.09573860
322,1778603175.1274598,0.52777470,-0.21318316,-0.51131034,-2.51798460,2.45705080,-1.27044610
323,1778603175.1374922,0.52777470,-0.21318316,-0.51131034,-2.81730840,1.88039450,-1.40727970
324,1778603175.147652,0.27654052,-0.11317733,-0.08738314,-2.75988700,1.30618170,-1.42438400
325,1778603175.1574414,0.27654052,-0.11317733,-0.08738314,-2.75988700,1.30618170,-1.42438400
326,1778603175.167472,0.16921718,-0.30587152,0.07018703,-2.21133040,0.70020380,-1.34985840
327,1778603175.1777093,0.22092752,-0.45612420,-0.01811081,-2.00852350,0.58169600,-1.39139720
328,1778603175.1873157,0.29215118,-0.56295970,-0.12445848,-1.98286710,0.53527030,-1.45981410
329,1778603175.197389,0.47996700,-0.77467936,-0.23763582,-2.11603570,0.53404856,-1.63207790
330,1778603175.2073634,0.67363685,-0.99322873,-0.27715030,-2.28829960,0.59269154,-1.85809790
331,1778603175.217507,0.88730790,-1.24543860,-0.26397880,-2.44834610,0.72219490,-2.17574760
332,1778603175.2276511,1.18683760,-1.62643640,-0.05469831,-2.52898030,0.93233240,-2.69131760
333,1778603175.237486,1.23562090,-1.82986300,-0.05908882,-2.54119750,0.94332796,-3.17634420
334,1778603175.2477038,1.23562090,-1.82986300,-0.05908882,-2.54119750,0.94332796,-3.17634420
335,1778603175.2576158,1.27318410,-2.17280960,-0.14006914,-2.77088260,1.12047870,-3.38159470
336,1778603175.267817,0.93316424,-2.19671340,-0.14494748,-3.01034160,1.53220150,-2.75973440
337,1778603175.277379,0.59509570,-1.93572270,-0.06299148,-3.10685830,1.85595990,-1.91551920
338,1778603175.2873604,0.43947688,-1.68546430,0.07555319,-2.98224190,2.06976270,-0.94302250
339,1778603175.2974906,0.43947688,-1.68546430,0.07555319,-2.98224190,2.06976270,-0.94302250
340,1778603175.3076541,0.44337955,-1.32983360,0.41020685,-2.31884260,1.53097990,-0.11102467
341,1778603175.3174837,0.44825786,-1.12884640,0.42581752,-1.74951670,0.96043220,0.04291325
342,1778603175.3276846,0.44825786,-1.12884640,0.42581752,-1.74951670,0.96043220,0.04291325
343,1778603175.3376203,0.44777006,-0.84736650,0.20580468,-0.93951005,0.67821264,0.14553854
344,1778603175.3473053,0.44777006,-0.84736650,0.20580468,-0.93951005,0.67821264,0.14553854
345,1778603175.357524,0.48826018,-0.70589480,0.19507235,-0.68416860,0.65499973,0.37278023
346,1778603175.367546,0.48826018,-0.70589480,0.19507235,-0.68416860,0.65499973,0.37278023
347,1778603175.3775523,0.57948500,-0.52490866,0.21312219,-0.43127054,0.42042768,0.79549867
348,1778603175.3876183,0.62631700,-0.46197820,0.19653587,-0.26389357,0.37644540,0.95065830
349,1778603175.3975215,0.62631700,-0.46197820,0.19653587,-0.26389357,0.37644540,0.95065830
350,1778603175.4074717,0.69754070,-0.37172902,0.16824152,0.05986475,0.57680905,1.05450530
351,1778603175.4175234,0.70729740,-0.33270234,0.14921603,0.22235478,0.73196870,1.06183560
352,1778603175.42773,0.72778636,-0.30782285,0.10628670,0.33597562,0.82237670,1.04595330
353,1778603175.4376898,0.71412706,-0.27611366,0.01847669,0.36041020,0.84803300,1.02640560
354,1778603175.4475887,0.68436920,-0.21318316,-0.10201815,0.29688028,0.91644990,0.98608845
355,1778603175.4575953,0.66388017,-0.14586218,-0.16592431,0.18325943,1.02640560,0.92622370
356,1778603175.4676256,0.63948850,-0.08195600,-0.09860332,0.00488692,1.21210850,0.80893767
357,1778603175.4776294,0.66144100,-0.04731983,0.12287302,-0.05497783,1.19011740,0.61834790
358,1778603175.4876552,0.65656270,-0.04731983,0.29507820,0.02565632,0.88468490,0.33490660
359,1778603175.4977455,0.65656270,-0.04731983,0.29507820,0.02565632,0.88468490,0.33490660
360,1778603175.507377,0.60290104,-0.05414950,0.45313620,0.18448116,0.50594880,0.07223476
361,1778603175.517949,0.44240385,-0.16196068,0.37313150,0.71593350,-0.38347036,-0.44455683
362,1778603175.5274467,0.25068536,-0.13854466,0.03994136,0.70005100,-0.52885616,-0.51663890
363,1778603175.5374806,0.25068536,-0.13854466,0.03994136,0.70005100,-0.52885616,-0.51663890
364,1778603175.5474887,-0.33178765,-0.08341950,-1.35526200,-0.74525505,1.89261190,0.19685118
365,1778603175.5575993,-0.12201932,-0.37953433,-0.66205084,-1.62978720,2.91519950,0.57192210
366,1778603175.567638,-0.12201932,-0.37953433,-0.66205084,-1.62978720,2.91519950,0.57192210
367,1778603175.5777404,0.34044670,-0.68199100,0.45216054,-1.94988040,1.85473820,0.55237450
368,1778603175.5876813,0.56192300,-0.83468280,0.55021500,-1.77028610,1.06305740,0.35934120
369,1778603175.5974395,0.56192300,-0.83468280,0.55021500,-1.77028610,1.06305740,0.35934120
370,1778603175.6075368,0.69802850,-0.92590770,0.66192890,-1.43431060,-0.07437278,0.00503963
371,1778603175.617732,0.91169960,-1.22494950,0.50582220,-0.64262974,-2.06212690,-0.56795150
372,1778603175.6272917,1.01170540,-1.35129830,0.42728102,-0.43127054,-2.38099810,-0.63392490
373,1778603175.6373196,1.06146430,-1.45813380,0.29751736,-0.04153880,-2.50683640,-0.57283840
374,1778603175.6480553,1.09902750,-1.55521270,0.13214186,0.18570289,-2.14764790,-0.33460120
375,1778603175.6575615,1.12976110,-1.61033790,0.03457519,0.39217520,-1.42560570,0.05146536
376,1778603175.6676903,1.27659890,-1.66107250,-0.06689414,0.65362530,0.21273366,0.75029470
377,1778603175.6773658,1.33172400,-1.60350820,-0.05225914,0.84543690,1.18156520,0.97387120
378,1778603175.6873817,1.22537640,-1.44788930,-0.10153031,1.00181820,2.08686690,0.91522810
379,1778603175.6974072,1.22537640,-1.44788930,-0.10153031,1.00181820,2.08686690,0.91522810
380,1778603175.70743,1.03999970,-1.26446400,-0.10738432,0.91263200,2.84556080,0.71486450
381,1778603175.7174537,0.73949430,-1.05567130,-0.15958248,0.56810427,2.80646560,0.71852970
382,1778603175.7277071,0.73949430,-1.05567130,-0.15958248,0.56810427,2.80646560,0.71852970
383,1778603175.7375536,0.56289870,-0.94590890,0.00432952,-0.32375833,1.95492000,0.89934570
384,1778603175.7475636,0.56485003,-0.88590540,0.14580119,-0.56077385,1.18645220,0.89934570
385,1778603175.7575967,0.57265530,-0.82395060,0.17068069,-0.58154327,0.64644766,0.89201530
386,1778603175.7675202,0.60826720,-0.76736190,0.16629020,-0.44715303,0.22250749,0.89201530
387,1778603175.7778955,0.66778284,-0.73175000,0.16775368,-0.17959425,0.04902190,0.89201530
388,1778603175.7876449,0.74193350,-0.72296900,0.18141302,0.16982041,0.03313941,0.87613280
389,1778603175.7976758,0.74193350,-0.72296900,0.18141302,0.16982041,0.03313941,0.87613280
390,1778603175.8074172,0.81949900,-0.70833400,0.13019052,0.69882930,0.08200860,0.80160730
391,1778603175.8174202,0.82681656,-0.69223550,0.01994019,0.87231493,0.20173809,0.75395983
392,1778603175.8276358,0.80486405,-0.63808600,-0.19665782,0.94439700,0.65988666,0.71608620
393,1778603175.8375783,0.78096020,-0.58735140,-0.38496150,0.73425950,1.16323920,0.70631240
394,1778603175.8476357,0.76730084,-0.55027600,-0.37813184,0.35674503,1.41369380,0.69898200
395,1778603175.857644,0.76730084,-0.55027600,-0.37813184,0.35674503,1.41369380,0.69898200
396,1778603175.8675075,0.74973890,-0.47124702,-0.12640981,-0.53023064,0.91522810,0.53038335
397,1778603175.8774602,0.74193350,-0.42100018,-0.18299848,-0.73914640,0.76984230,0.39477137
398,1778603175.8873901,0.75900770,-0.36441150,-0.27763817,-0.88575390,0.98975366,0.17974696
399,1778603175.897415,0.72681070,-0.30733500,-0.34300780,-0.91507540,1.38925920,-0.02794706
400,1778603175.907692,0.70241904,-0.23611133,-0.46545400,-0.96516633,1.82663850,-0.21487169
401,1778603175.9177072,0.70241904,-0.23611133,-0.46545400,-0.96516633,1.82663850,-0.21487169
402,1778603175.92732,0.61265770,-0.07610200,-0.36496034,-1.45141470,1.68491780,-0.58749920
403,1778603175.9376059,0.47557652,-0.02927000,0.19019403,-1.50761430,0.28359398,-0.82207125
404,1778603175.947726,0.34581286,-0.02536733,0.27751620,-1.12399130,-0.55939940,-0.85139280
405,1778603175.9574447,0.34581286,-0.02536733,0.27751620,-1.12399130,-0.55939940,-0.85139280
406,1778603175.967409,0.27556485,-0.05219817,0.21458568,-0.76602440,-0.96134850,-0.82695820
407,1778603175.9780424,0.18726702,-0.16537550,-0.06884548,-0.21502440,-1.25334180,-0.87460566
408,1778603175.9874983,0.24580702,-0.33416584,-0.18836464,-0.20525056,-1.26189390,-1.00777410
409,1778603175.997767,0.41313390,-0.51807904,-0.23666015,-0.31520623,-1.28877200,-1.18736840
410,1778603176.007678,0.56485003,-0.66345334,-0.24641682,-0.49235702,-1.33764110,-1.43782290
411,1778603176.0174484,0.56485003,-0.66345334,-0.24641682,-0.49235702,-1.33764110,-1.43782290
412,1778603176.0277712,1.08975880,-1.18299590,-0.23763582,-0.97371846,-1.28021990,-2.32113340
413,1778603176.0376365,1.17464170,-1.41422890,-0.42398816,-1.48073630,-1.00899590,-2.73285630
414,1778603176.047658,1.22976680,-1.62302150,-0.52740880,-1.98042360,-0.63392490,-2.82692960
415,1778603176.057768,1.29318520,-1.83718030,-0.43520832,-2.34694240,-0.31749696,-2.77317330
416,1778603176.0675154,1.37611690,-2.21622680,-0.26349100,-2.87228600,0.27137667,-2.33335070
417,1778603176.0776877,1.39611800,-2.41672640,-0.18641332,-3.05432400,0.77106404,-1.89719330
418,1778603176.0877948,1.33221190,-2.53283070,-0.05713748,-3.04821520,1.49188450,-1.34985840
419,1778603176.0978858,1.08048990,-2.29623150,0.12238518,-2.75255680,2.07342770,-0.94180080
420,1778603176.1078215,1.08048990,-2.29623150,0.12238518,-2.75255680,2.07342770,-0.94180080
421,1778603176.1173267,0.67802740,-1.53765070,0.35069120,-1.96331940,1.88405970,-0.61071205
422,1778603176.1273289,0.58094853,-1.14348140,0.45216054,-1.38299790,1.26342100,-0.53007793
423,1778603176.1377604,0.56045955,-0.93761570,0.35800868,-0.77946347,0.70875585,-0.45188722
424,1778603176.147309,0.56045955,-0.93761570,0.35800868,-0.77946347,0.70875585,-0.45188722
425,1778603176.1577744,0.65607490,-0.73906750,0.15263085,0.01221729,0.45707956,-0.30039275
426,1778603176.1677125,0.68485700,-0.66198987,0.09896919,0.20891576,0.38011062,-0.25763223
427,1778603176.1777523,0.65948970,-0.53954360,0.05945469,0.34208430,0.26282457,-0.17455462
428,1778603176.1876612,0.61509687,-0.46344167,0.05994253,0.36163196,0.16752967,-0.00595593
429,1778603176.1976786,0.57216750,-0.40295035,0.06726002,0.37751442,0.07101303,0.18585561
430,1778603176.2077975,0.53704350,-0.36002100,0.08482202,0.37751442,0.07101303,0.18585561
431,1778603176.2174942,0.50972486,-0.31611600,0.10238402,0.62674725,0.03313941,0.66599530
432,1778603176.227611,0.49216285,-0.28879735,0.11165286,0.79534596,0.12843432,0.78083790
433,1778603176.2377362,0.42874455,-0.22635466,0.12482436,1.01525720,0.31535894,0.90178910
434,1778603176.2473419,0.37557068,-0.17513217,0.11750685,1.21684270,0.47296205,1.06183560
435,1778603176.2573524,0.31020102,-0.11610434,0.14043503,1.32557650,0.49984010,1.17912170
436,1778603176.2677138,0.22434235,-0.03902667,0.19116970,1.56992240,0.14431680,1.44545880
437,1778603176.277627,0.27849188,0.06780884,-0.01225681,1.68232150,-0.52885616,1.63238350
438,1778603176.2873168,0.40045020,0.11659218,-0.17860797,1.60046580,-1.21791160,1.63238350
439,1778603176.2973335,0.54582450,0.19464551,-0.42203683,1.32191130,-2.25271650,1.43690670
440,1778603176.307822,0.77217925,0.22830600,-0.58497316,0.96150120,-3.08960130,1.09970930
441,1778603176.3173254,0.94779920,0.25708818,-0.66302650,0.73059430,-3.28507800,0.58902640
442,1778603176.3274255,1.17415380,0.21806150,-0.70156530,0.60109097,-1.94117560,-0.20265439
443,1778603176.3376765,1.22244930,0.02390383,-0.53131145,0.48991355,-0.80863225,-0.59605134
444,1778603176.347684,1.10975980,-0.10585984,-0.13275166,0.22479823,-0.17699806,-0.86971873
445,1778603176.3576908,0.80144920,-0.24538018,0.72876203,0.20158538,-0.60826860,-0.84039724
446,1778603176.3677206,0.55948380,-0.38246134,0.79266820,0.44348782,-1.93873210,-0.67912894
447,1778603176.377612,0.25410020,-0.48490632,0.39849886,0.63407767,-2.61312680,-0.50808680
448,1778603176.3877306,0.22190319,-0.60052290,0.11945819,0.63407767,-2.61312680,-0.50808680
449,1778603176.3978138,0.22580586,-1.10152770,-2.49435280,0.52534370,-1.75180750,-0.20754130
450,1778603176.407779,0.22580586,-1.10152770,-2.49435280,-1.24738590,1.08627030,0.05146536
451,1778603176.4174216,-0.06591848,-1.39276420,-2.21189740,-1.24738590,1.08627030,0.05146536
452,1778603176.4274292,0.84925690,-1.48691610,0.79510736,-1.64200450,-0.45921760,0.14187334
453,1778603176.4376512,0.83218270,-1.59131240,0.78583854,-1.26571180,-1.75180750,-0.10858121
454,1778603176.447682,0.66875860,-1.58350710,0.75900770,-0.85765415,-2.65100050,-0.19532402
455,1778603176.457604,0.47021037,-1.51569820,0.75510510,-0.47280934,-3.11770100,-0.07925971
456,1778603176.467523,0.29898086,-1.41569230,0.81169370,0.01099557,-3.34738640,0.21884231
457,1778603176.4775703,0.33605620,-1.35081050,0.93706685,0.80878496,-3.24231740,0.70020380
458,1778603176.4875224,0.56094736,-1.38593450,1.03756060,1.79105560,-2.89778970,1.01785340
459,1778603176.497544,0.88486870,-1.48545250,1.10293020,2.82586050,-2.59480100,1.01174470
460,1778603176.5074635,0.88486870,-1.48545250,1.10293020,2.82586050,-2.59480100,1.01174470
461,1778603176.5175555,0.97267870,-1.57570170,1.06536700,3.60288050,-2.51661010,0.89568050
462,1778603176.527836,1.04731730,-1.54935870,0.61656040,4.67555900,-2.35045500,0.86513720
463,1778603176.5373561,1.03609700,-1.43910840,0.33361703,4.73542360,-2.38099810,0.89445880
464,1778603176.547454,1.00097300,-1.34446870,0.17751035,4.66212000,-2.31258130,0.91889334
465,1778603176.5577555,0.95462880,-1.26397620,0.03018469,4.54605600,-2.11588290,0.92255855
466,1778603176.5678287,0.91267520,-1.19324040,-0.21958598,4.35302260,-1.57954360,0.84681130
467,1778603176.577608,0.38630300,-0.92785907,-4.47007800,2.34938600,4.02208660,0.85047650
468,1778603176.5875144,0.51996934,-0.99371654,-1.05329320,-0.25411975,7.73736600,1.04106630
469,1778603176.5974271,0.54777586,-0.95810470,0.16238752,-1.48928830,6.19432160,0.93721926
470,1778603176.607511,0.54777586,-0.95810470,0.16238752,-1.48928830,6.19432160,0.93721926
471,1778603176.6174903,0.51216400,-0.81419384,0.51265186,-1.95598900,2.81135250,0.75518160
472,1778603176.62763,0.56924057,-0.58247300,-0.58546096,-1.62856550,0.88957185,0.65866494
473,1778603176.637727,0.64485470,-0.47856450,-0.66205084,-0.61819520,3.14488460,0.78694654
474,1778603176.6475062,0.64485470,-0.47856450,-0.66205084,-0.61819520,3.14488460,0.78694654
475,1778603176.658154,0.87413640,-0.52198166,0.21604920,0.51190466,1.48821930,0.81138116
476,1778603176.667659,0.87364860,-0.45319718,0.36922884,0.71715530,-0.64858570,0.74662950
477,1778603176.6776772,0.88194174,-0.37611952,0.19360885,1.32313310,-2.29181200,0.65499973
478,1778603176.6874275,0.87267290,-0.32928753,0.07360186,1.86313760,-2.43719770,0.59880020
479,1778603176.6974413,0.84340290,-0.24098967,-0.27715030,2.09648800,-2.24049930,0.54870930
480,1778603176.7075093,0.84340290,-0.24098967,-0.27715030,2.09648800,-2.24049930,0.54870930
481,1778603176.7174833,0.70241904,-0.03853883,-0.71424900,1.61146130,-1.90941060,0.50961393
482,1778603176.727637,0.62826836,-0.03609967,-0.43715966,1.07756540,-1.85198930,0.40332347
483,1778603176.7375052,0.55606910,-0.02487950,-0.34203213,0.85765415,-1.89108470,0.24449863
484,1778603176.747628,0.48289403,-0.01073233,-0.22787915,0.74281156,-2.04746600,0.06123919
485,1778603176.7577338,0.48289403,-0.01073233,-0.22787915,0.70249450,-2.33823780,-0.13545926
486,1778603176.7675216,0.26971084,0.01365933,0.15116736,0.82466745,-2.84159020,-0.37980518
487,1778603176.7773743,0.19848719,0.01122017,0.19946286,0.97249675,-3.08349280,-0.50564330
488,1778603176.7874207,0.19848719,0.01122017,0.19946286,0.97249675,-3.08349280,-0.50564330
489,1778603176.7972987,0.12677568,0.01609850,-0.17275399,0.96883154,-2.94665900,-0.78419770
490,1778603176.807372,0.12677568,0.01609850,-0.17275399,0.96883154,-2.94665900,-0.78419770
491,1778603176.8174603,0.38971785,-0.20489000,-0.22104947,0.73303770,-2.65222220,-0.97356576
492,1778603176.8274913,0.71412706,-0.69418687,0.08482202,-0.04031708,-2.91611580,-2.00592730
493,1778603176.8375232,0.71412706,-0.69418687,0.08482202,-0.04031708,-2.91611580,-2.00592730
494,1778603176.8477576,1.08048990,-1.11518700,0.19995070,-0.83077610,-4.26612700,-2.69131760
495,1778603176.8579535,1.42490020,-1.47276890,0.17555903,-1.24372070,-4.70961480,-2.86602470
496,1778603176.867292,1.42490020,-1.47276890,0.17555903,-1.24372070,-4.70961480,-2.86602470
497,1778603176.8773103,2.25811960,-2.49917030,-0.06201581,-2.71712660,-4.51536000,-2.59113570
498,1778603176.8875146,2.66887520,-3.01822500,-0.22251299,-3.54545930,-3.00041500,-2.09511350
499,1778603176.8975902,2.56496670,-3.11725500,-0.14202048,-3.86799570,-1.29976750,-1.83732860
500,1778603176.9074707,2.56496670,-3.11725500,-0.14202048,-3.86799570,-1.29976750,-1.83732860
501,1778603176.9176617,1.09317360,-1.88547590,0.09360302,-3.06409760,3.31348320,-1.45248380
502,1778603176.9277463,0.66534370,-1.36983610,0.60241320,-2.04273180,4.59996460,-1.35596700
503,1778603176.9374661,0.42093918,-1.00493670,0.79608303,-0.86864970,4.51444340,-1.18859020
504,1778603176.9472926,0.29849303,-0.83712210,0.56045955,-0.05009091,4.04163400,-1.00044380
505,1778603176.9577723,0.29849303,-0.83712210,0.56045955,-0.05009091,4.04163400,-1.00044380
506,1778603176.9673803,0.48630884,-0.83517070,0.21897620,0.38606653,2.19315720,-0.79152805
507,1778603176.9775944,0.60777940,-0.71418800,0.41654870,0.33964083,-0.50564330,-0.97845270
508,1778603176.9875584,0.57607020,-0.62784150,0.39020570,0.52412200,-1.49402250,-0.94180080
509,1778603176.997574,0.53948270,-0.55417866,0.36093570,0.94561870,-1.98271440,-0.69256794
510,1778603177.0075898,0.53021390,-0.51320064,0.34678853,1.39155000,-1.99859680,-0.40790495
511,1778603177.0177162,0.53509220,-0.45905116,0.33361703,1.74218630,-1.93262340,-0.20021093
512,1778603177.027356,0.49508983,-0.40538952,0.27361350,2.46422860,-1.77746380,0.16386448
513,1778603177.0373824,0.38142470,-0.35075217,0.22239104,2.73423080,-1.74936400,0.33490660
514,1778603177.0477633,0.19897503,-0.32294568,0.33264136,3.00423300,-1.93140170,0.59391326
515,1778603177.0577815,0.19897503,-0.32294568,0.33264136,3.00423300,-1.93140170,0.59391326
516,1778603177.0677693,0.02725769,-0.36880200,0.41167036,3.52224640,-2.71208700,1.09848760
517,1778603177.0776443,-0.05469831,-0.33806852,0.30873755,3.77514430,-3.14213560,1.37826370
518,1778603177.0874934,-0.14348398,-0.25025850,0.15604569,3.94985180,-3.44512460,1.69346990
519,1778603177.0973911,-0.23080614,-0.13805683,-0.13470298,3.91930840,-3.41213800,1.91704640
520,1778603177.107471,-0.23080614,-0.13805683,-0.13470298,3.91930840,-3.41213800,1.91704640
521,1778603177.1179824,-0.25275865,0.06829667,-0.92206600,2.92359880,-2.74263020,2.34831700
522,1778603177.127529,0.34532502,0.18001050,-1.94114980,0.67439470,-2.32968540,2.16505740
523,1778603177.1375477,0.83901240,0.11415300,-1.88602470,-1.33535040,-1.23257240,1.30618170
524,1778603177.1476736,1.11902870,-0.09415183,-0.29568797,-2.21988270,0.05268709,0.11499529
525,1778603177.1577232,1.11805300,-0.17269300,0.72924990,-2.00730160,0.30436337,-0.64980740
526,1778603177.1674597,0.98194754,-0.22293983,1.26586650,-1.06901340,-0.27229297,-1.57465670
527,1778603177.177613,0.33556834,-0.33026317,0.66144100,0.04886918,-1.34619330,-2.12443500
528,1778603177.1879883,0.15165520,-0.41660970,0.29556602,0.54122620,-1.58565220,-1.89474990
529,1778603177.197498,0.18092519,-0.51076150,0.20970736,0.69149894,-1.50379630,-1.66995160
530,1778603177.2076788,0.18092519,-0.51076150,0.20970736,0.91874063,-1.17270770,-1.26189390
531,1778603177.2175117,0.37703420,-0.82492620,0.20970736,1.04213540,-1.01143930,-0.90759236
532,1778603177.2275078,0.60729150,-1.08640480,0.26483253,1.11543900,-1.10917770,-0.50808680
533,1778603177.2374194,0.81462070,-1.34983480,0.32873870,1.14231720,-1.43171430,-0.23075417
534,1778603177.248053,0.97511786,-1.57911650,0.33069003,1.12521290,-1.80922880,-0.04505128
535,1778603177.2576344,0.97511786,-1.57911650,0.33069003,1.12521290,-1.80922880,-0.04505128
536,1778603177.2676797,1.08585610,-2.11378170,0.27946752,0.94195350,-2.02058800,0.27626360
537,1778603177.2775037,1.24635330,-2.31769630,0.34288585,0.80267630,-1.86542830,0.66599530
538,1778603177.2875414,1.29757570,-2.10451300,0.43947688,0.89674950,-1.59542610,0.75395983
539,1778603177.2974086,1.09805190,-1.72839360,0.45752668,1.15086930,-1.43171430,0.69165164
540,1778603177.3074422,1.09805190,-1.72839360,0.45752668,1.15086930,-1.43171430,0.69165164
541,1778603177.3178134,0.86437976,-1.25373170,0.52875036,1.94499350,-1.06763890,0.69287336
542,1778603177.327611,0.72632280,-0.99518000,0.57753370,2.65970520,-1.10795600,0.76006850
543,1778603177.3376544,0.62729270,-0.88736886,0.51070050,3.12396240,-1.20691610,0.81748980
544,1778603177.3475184,0.57216750,-0.83663416,0.42874455,3.61998460,-1.18614670,0.90056740
545,1778603177.3576076,0.57216750,-0.83663416,0.42874455,3.61998460,-1.18614670,0.90056740
546,1778603177.3673944,0.52533550,-0.79711970,0.35361820,4.01949020,-0.91736620,0.98120150
547,1778603177.3775043,0.53606784,-0.83517070,0.22385453,4.51306900,0.20540328,1.19622600
548,1778603177.3873365,0.60485240,-0.89322287,0.19019403,4.54116870,0.45097092,1.20477810
549,1778603177.397952,0.60485240,-0.89322287,0.19019403,4.54116870,0.45097092,1.20477810
550,1778603177.4073339,0.66436803,-0.89663770,0.04286835,4.16854140,0.40943210,1.08749200
551,1778603177.4173253,0.60875505,-0.81760865,-1.60552050,3.28767420,0.81626810,1.07649650
552,1778603177.4274368,0.68339354,-0.70199220,-1.29379500,0.08185588,1.81686460,1.06305740
553,1778603177.4374626,0.73120123,-0.72199330,-0.24251415,-1.10322180,1.22432580,0.88712835
554,1778603177.4476397,0.91365090,-0.77906984,-0.01615948,-1.22661650,0.78572480,0.62323480
555,1778603177.457651,0.91365090,-0.77906984,-0.01615948,-1.14720400,0.92622370,0.28970262
556,1778603177.4674785,1.08390460,-0.63906170,-1.30989350,-0.80511975,3.13144560,0.03680460
557,1778603177.4775763,1.35465220,-0.56539880,-1.57868970,-1.00304000,4.56697800,-0.31383178
558,1778603177.4877372,1.10244240,-0.34636167,-0.50009020,-1.81182490,1.32206400,-0.57039500
559,1778603177.4976048,0.90974820,-0.22830600,0.03603869,-1.29869850,-0.50808680,-0.41767880
560,1778603177.5078611,0.96340990,-0.20732918,0.19848719,-0.35796675,-2.01570100,-0.37491825
561,1778603177.517749,0.96536124,-0.20489000,0.08970036,0.28221953,-3.22887850,-0.63636840
562,1778603177.5274832,0.82779217,-0.16293633,-0.23909931,0.48380490,-3.95092060,-0.89415330
563,1778603177.5376866,0.62973190,-0.19903600,-0.21519548,0.49602220,-4.45671650,-1.09940390
564,1778603177.5473912,0.48191833,-0.26147866,-0.33422682,0.22235478,-4.73649260,-1.12506020
565,1778603177.5574255,0.48191833,-0.26147866,-0.33422682,0.22235478,-4.73649260,-1.12506020
566,1778603177.5678012,0.36483836,-0.26782050,-0.65424550,-1.00792700,-4.37974800,-0.92958350
567,1778603177.5777931,0.44728217,-0.40197468,-0.12055582,-1.56381380,-3.17390060,-0.78297590
568,1778603177.5874915,0.44728217,-0.40197468,-0.12055582,-1.56381380,-3.17390060,-0.78297590
569,1778603177.5975854,0.67656386,-0.61759704,0.49996820,-1.20218190,-2.54104470,-1.09818220
570,1778603177.6077435,0.85169610,-0.74979985,0.60241320,-0.75991577,-2.76828650,-1.46714450
571,1778603177.6177561,0.95218970,-0.82151130,0.68290570,-0.40317076,-3.15557480,-1.78479420
572,1778603177.6276047,0.95218970,-0.82151130,0.68290570,-0.40317076,-3.15557480,-1.78479420
573,1778603177.6376083,1.14049330,-1.06737940,0.60485240,0.30543238,-4.23436200,-2.21117780
574,1778603177.6472986,1.27611100,-1.26787890,0.43459850,0.42271844,-4.29422660,-2.11099600
575,1778603177.6573381,1.27611100,-1.26787890,0.43459850,0.42271844,-4.29422660,-2.11099600
576,1778603177.66745,1.53173580,-1.61960660,0.25605154,0.22357652,-3.28629970,-1.48302700
577,1778603177.6775024,1.79565360,-1.84157090,0.26629603,0.03665189,-1.85321100,-0.91370100
578,1778603177.6875496,1.94346700,-1.79571460,0.45801452,0.06597339,-0.62170760,-0.84406240
579,1778603177.697537,1.87517040,-1.64497400,0.53801920,0.32620180,0.13454297,-1.28510680
580,1778603177.7076771,1.87517040,-1.64497400,0.53801920,0.32620180,0.13454297,-1.28510680
581,1778603177.7173655,1.45807290,-1.15128670,0.64046420,1.02747450,0.73196870,-2.07434420
582,1778603177.7274773,1.02682820,-0.74394584,-0.99085045,0.94928384,1.88772490,-2.09755680
583,1778603177.7374926,1.02682820,-0.74394584,-0.99085045,0.94928384,1.88772490,-2.09755680
584,1778603177.7476466,1.01999860,-0.64686700,0.01847669,0.05497783,3.45031700,-1.59664790
585,1778603177.757471,1.03219440,-0.72784734,0.18336436,0.05497783,3.45031700,-1.59664790
586,1778603177.7677312,0.97414220,-0.76882535,0.23507468,-0.07819069,1.90116390,-1.59909130
587,1778603177.7773547,0.81705990,-0.82199920,0.24239218,0.29443680,0.91400640,-1.50623980
588,1778603177.787455,0.71266353,-0.85907453,0.28141886,0.75991577,0.47540550,-1.29976750
589,1778603177.797711,0.58924170,-0.88541750,0.32239684,1.46241030,-0.04871647,-0.94057906
590,1778603177.8077228,0.58924170,-0.88541750,0.32239684,1.46241030,-0.04871647,-0.94057906
591,1778603177.8177276,0.44240385,-0.89614980,0.28580934,2.45201100,-0.85750145,-0.35659233
592,1778603177.8275073,0.30239570,-0.86883120,0.09262736,2.85396030,-1.21424650,-0.07070760
593,1778603177.8374538,0.15750920,-0.76687400,0.03506302,2.99690270,-1.38651040,0.15409064
594,1778603177.8474336,0.05603985,-0.70199220,0.09165169,3.04332830,-1.53922650,0.41676250
595,1778603177.8574529,-0.02933098,-0.63320770,0.21312219,3.12884950,-1.79334630,0.72219490
596,1778603177.8676062,-0.11470181,-0.55710570,0.23605035,3.28523090,-2.25149500,1.13636120
597,1778603177.877877,-0.20495099,-0.44978234,0.13750802,3.39274290,-2.68520880,1.51876260
598,1778603177.887454,-0.23958716,-0.34441036,-0.00054881,3.40007330,-2.99430630,1.88039450
599,1778603177.8974183,-0.19275515,-0.26782050,-0.10201815,3.31699590,-3.18123100,2.10274930
600,1778603177.907548,-0.08152915,-0.17513217,-0.29812714,3.09219740,-3.34616450,2.24324820
601,1778603177.9174647,0.01896452,-0.11464083,-0.49862665,2.74889160,-3.43046380,2.22370050
602,1778603177.9275503,0.37800986,0.02634300,-1.02548660,1.61146130,-3.71879200,1.80953420
603,1778603177.9377887,0.66973420,0.09415183,-1.20110670,0.82344574,-3.28141280,1.29152080
604,1778603177.947414,0.89852810,0.08341950,-0.91572416,0.01832594,-1.81167220,0.48029244
605,1778603177.9573624,1.01170540,0.00341483,-0.04494165,0.01832594,-1.81167220,0.48029244
606,1778603177.9674294,0.92974937,-0.08390734,0.92682236,0.26267186,-1.00533070,-1.17637290
607,1778603177.9775662,0.92974937,-0.08390734,0.92682236,0.26267186,-1.00533070,-1.17637290
608,1778603177.9877377,0.23165986,-0.27269882,0.35947220,1.02625290,-2.80371670,-1.50623980
609,1778603177.9977083,0.23165986,-0.27269882,0.35947220,1.02625290,-2.80371670,-1.50623980
610,1778603178.007447,0.14677685,-0.38246134,0.09848136,0.99204440,-2.86724660,-1.23623760
611,1778603178.0173113,0.25263670,-0.62540233,-0.79571710,0.86864970,-2.51538850,-0.95401806
612,1778603178.0276947,0.60924286,-0.99908270,0.41020685,-0.93217963,-0.44089165,-0.24174973
613,1778603178.0375285,0.98438670,-1.25861000,0.48972370,-0.69272065,-1.11895160,-0.30283620
614,1778603178.0475492,1.14098120,-1.53862640,0.52728680,-0.49724394,-1.64796040,-0.41157013
615,1778603178.0574117,1.14098120,-1.53862640,0.52728680,-0.49724394,-1.64796040,-0.41157013
616,1778603178.0674524,1.14098120,-1.53862640,0.52728680,-0.49724394,-1.64796040,-0.41157013
617,1778603178.0776565,1.03658490,-1.97913990,0.57411885,-0.05742129,-2.42742400,-0.41157013
618,1778603178.0876741,1.12829760,-1.95230910,0.78144807,0.83566300,-2.30280760,0.36300638
619,1778603178.0974495,1.22147370,-1.82644800,0.85218390,1.70797790,-2.21239950,0.61956960
620,1778603178.1074314,1.12634620,-1.64741310,0.75803200,2.24676060,-2.19285180,0.62201303
621,1778603178.1174433,0.97853273,-1.35032270,0.59558356,2.99201560,-2.10977440,0.56337005
622,1778603178.1276553,0.89413750,-1.16933640,0.50631005,3.58455440,-2.04624440,0.49495320
623,1778603178.1377232,0.84535420,-1.05615910,0.44094035,4.05492000,-2.04624440,0.46074477
624,1778603178.1473231,0.84535420,-1.05615910,0.44094035,4.05492000,-2.04624440,0.46074477
625,1778603178.1573558,0.69900423,-0.90541863,0.28337020,4.58270740,-1.88497600,0.60857403
626,1778603178.1675906,0.66973420,-0.84102464,0.16775368,4.67189360,-1.67361680,0.70753413
627,1778603178.1777265,0.67314905,-0.82590187,0.08872469,4.66945030,-1.40850150,0.78572480
628,1778603178.1877549,0.68924755,-0.82785314,-0.31129867,4.46175600,-0.88193600,0.78083790
629,1778603178.1976893,0.75461715,-0.73223790,-2.33336780,3.26079630,1.46744990,0.76495540
630,1778603178.2077048,0.75461715,-0.73223790,-2.33336780,1.47096240,2.76492670,0.73074700
631,1778603178.2177334,0.81169370,-0.70833400,-0.31325000,0.13805544,2.00745440,0.63911730
632,1778603178.2277544,0.87999034,-0.72492033,0.45411184,-0.43004880,-0.02550360,0.35445428
633,1778603178.2375572,0.87364860,-0.68540585,0.44240385,-0.21868959,-1.20202920,0.05146536
634,1778603178.2475328,0.86437976,-0.64150090,0.26239336,0.11728604,-1.78357240,-0.23197590
635,1778603178.2576203,0.86437976,-0.64150090,0.26239336,0.11728604,-1.78357240,-0.23197590
636,1778603178.2676542,0.76827660,-0.32001868,-0.98548430,0.18448116,-1.03831740,-0.52396930
637,1778603178.2777762,0.76827660,-0.32001868,-0.98548430,0.18448116,-1.03831740,-0.52396930
638,1778603178.2877684,0.90145504,0.00731750,-1.20354590,-0.05253437,2.73560520,-0.44577858
639,1778603178.297294,0.86340400,0.01853767,-0.44057447,-0.55710870,0.91400640,-0.56672980
640,1778603178.3073719,0.74486053,-0.01853767,0.22092752,-0.08063415,-1.33397590,-0.64125530
641,1778603178.3173401,0.56924057,-0.11025034,0.54631233,-0.08063415,-1.33397590,-0.64125530
642,1778603178.3276649,0.46435636,-0.23611133,0.52826256,1.44774950,-3.92648600,-0.68279410
643,1778603178.337695,0.36922884,-0.26001516,0.22287886,1.93888490,-4.64119770,-0.79152805
644,1778603178.3476644,0.26580820,-0.15317966,-0.64058620,1.67987810,-4.76337100,-0.92469656
645,1778603178.3577075,0.12775135,-0.08781000,-0.53131145,0.98715746,-4.34187400,-0.92591830
646,1778603178.3673122,0.15994836,-0.16293633,-0.09128582,0.62308210,-3.99245950,-0.86727530
647,1778603178.3773973,0.38971785,-0.38392484,0.27702835,0.66339916,-3.82141730,-1.01388290
648,1778603178.3873475,0.52192070,-0.52539650,0.36922884,0.83444130,-3.92892960,-1.24112450
649,1778603178.397694,0.68534490,-0.67613703,0.40435287,1.01770070,-4.34676100,-1.57221320
650,1778603178.4079926,0.80583970,-0.79029000,0.41752437,1.04580040,-4.54712500,-1.69927310
651,1778603178.4174607,0.80583970,-0.79029000,0.41752437,1.04580040,-4.54712500,-1.69927310
652,1778603178.4276948,0.80583970,-0.79029000,0.41752437,1.04580040,-4.54712500,-1.69927310
653,1778603178.437705,1.31464990,-1.27812340,0.38337603,0.65240360,-3.82752600,-1.69194270
654,1778603178.4477262,1.31464990,-1.27812340,0.38337603,0.65240360,-3.82752600,-1.69194270
655,1778603178.4575295,1.59954460,-1.55228570,0.52192070,0.49968740,-3.31317780,-1.42804910
656,1778603178.4679425,2.09957360,-1.87620700,0.76486170,0.68539030,-2.44452800,-0.98333960
657,1778603178.477443,2.28299900,-1.78449430,0.96584904,1.19362970,-1.88131080,-1.18248150
658,1778603178.487461,2.07908490,-1.45569470,0.91852920,1.93277620,-1.24845490,-1.69805130
659,1778603178.4976575,1.67271960,-1.15518940,0.64290340,2.55463650,-0.64858570,-2.14886950
660,1778603178.5077376,1.67271960,-1.15518940,0.64290340,2.55463650,-0.64858570,-2.14886950
661,1778603178.5177479,0.92535890,-0.67955184,-1.73138150,2.73789600,-0.06582068,-2.30402920
662,1778603178.5274053,0.85072035,-0.72443250,-0.80644950,0.45448340,5.28291130,-1.70538180
663,1778603178.5377975,0.85072035,-0.72443250,-0.80644950,0.45448340,5.28291130,-1.70538180
664,1778603178.5475628,0.83608540,-0.96883700,-0.12933682,-0.54366964,4.86508000,-1.76891170
665,1778603178.5575676,0.83608540,-0.96883700,-0.12933682,-0.54366964,4.86508000,-1.76891170
666,1778603178.5677302,0.58436340,-0.94542104,0.24970970,-0.39339690,1.71668280,-1.49280080
667,1778603178.577743,0.44484302,-0.91859010,0.31264020,0.84177166,-0.08414663,-0.77564555
668,1778603178.5877635,0.32971436,-1.01664470,0.11604336,2.04151000,-1.11039950,-0.14401138
669,1778603178.597745,0.23848954,-1.04298770,-0.02250131,2.70490930,-1.77502040,0.23350306
670,1778603178.6074579,0.16531453,-1.01810810,-0.12201932,3.11907550,-2.29425550,0.52427470
671,1778603178.6177056,0.07848018,-0.95908040,-0.19860914,3.31210880,-2.56914450,0.78328140
672,1778603178.6277654,-0.02006215,-0.88200270,-0.22251299,3.29622630,-2.92955470,1.12780900
673,1778603178.6373858,-0.02006215,-0.88200270,-0.22251299,3.29622630,-2.92955470,1.12780900
674,1778603178.6477349,-0.08787098,-0.73028654,-0.11909231,2.93703800,-3.63693620,1.65681800
675,1778603178.6577532,-0.08787098,-0.73028654,-0.11909231,2.93703800,-3.63693620,1.65681800
676,1778603178.6677754,-0.15031365,-0.54734900,-0.11177482,2.58151460,-3.48177650,2.02578040
677,1778603178.677569,-0.10592081,-0.37270468,-0.20153615,2.30906900,-2.87213350,2.20415280
678,1778603178.687701,0.04091702,-0.29611483,-0.27715030,1.93644130,-2.03524880,2.23591780
679,1778603178.6974018,0.20970736,-0.21757366,-0.34056866,1.43553220,-0.99555690,2.06121040
680,1778603178.7078001,0.48923588,-0.10244500,-0.39764515,1.43553220,-0.99555690,2.06121040
681,1778603178.717372,0.65168434,-0.02878217,-0.42106113,0.36041020,0.63056517,1.12903080
682,1778603178.7275383,0.83901240,0.07512634,-0.25324650,-0.37995788,1.93903760,-0.01939496
683,1778603178.737563,0.78096020,0.08878566,0.05164935,-0.70005100,2.59021950,-0.74265885
684,1778603178.7475684,0.47508870,0.04878334,0.56875270,-0.76968960,2.43383800,-1.27166770
685,1778603178.757663,0.47508870,0.04878334,0.56875270,-0.76968960,2.43383800,-1.27166770
686,1778603178.7676103,0.13555670,-0.05512517,0.59704703,-0.59376055,0.76129025,-0.99311340
687,1778603178.777726,0.13555670,-0.05512517,0.59704703,-0.59376055,0.76129025,-0.99311340
688,1778603178.7873569,0.26336902,-0.45563635,0.30629835,-0.59253883,-1.16049040,0.23838998
689,1778603178.7977378,0.42289050,-0.62930500,0.20629252,-0.55466520,-1.56243940,0.44730574
690,1778603178.8074508,0.42289050,-0.62930500,0.20629252,-0.55466520,-1.56243940,0.44730574
691,1778603178.8173501,0.87072150,-1.06542800,0.11653119,-0.30054548,-1.69927310,0.36056295
692,1778603178.827337,1.28977040,-1.61863100,-0.33032414,0.15271619,-0.35048366,-0.04505128
693,1778603178.8373642,1.28977040,-1.61863100,-0.33032414,0.15271619,-0.35048366,-0.04505128
694,1778603178.8477414,1.44880400,-1.99036000,0.26873520,0.92973620,1.86206850,-0.53374310
695,1778603178.8573742,1.44880400,-1.99036000,0.26873520,0.92973620,1.86206850,-0.53374310
696,1778603178.867387,0.99902170,-1.64692530,0.43850118,1.04824400,0.41676250,0.18341215
697,1778603178.8775828,0.68339354,-1.29324620,0.40484068,1.09711310,-0.53618660,0.72341660
698,1778603178.8876414,0.58241206,-1.17811750,0.34630070,1.26571180,-1.26189390,1.06794440
699,1778603178.897713,0.54533670,-1.13030980,0.27556485,1.53571400,-1.73348150,1.22554740
700,1778603178.907476,0.54533670,-1.13030980,0.27556485,1.53571400,-1.73348150,1.22554740
701,1778603178.917671,0.58777820,-1.15421370,0.21848835,2.08060550,-1.98882300,1.07527470
702,1778603178.9276397,0.65851400,-1.20007000,0.22141537,2.39825500,-2.05357460,0.81504630
703,1778603178.937653,0.65851400,-1.20007000,0.22141537,2.39825500,-2.05357460,0.81504630
704,1778603178.9475374,0.57997286,-1.11811410,0.19068186,2.72690030,-2.02547480,0.75151640
705,1778603178.9575613,0.57997286,-1.11811410,0.19068186,2.72690030,-2.02547480,0.75151640
706,1778603178.9674149,0.59655917,-1.03323100,0.12238518,2.77210430,-1.89719330,0.87735456
707,1778603178.9775178,0.63558584,-0.94395750,-0.05664965,2.67803120,-1.24845490,1.03617940
708,1778603178.9878194,0.62192655,-0.86200150,-0.42886650,2.32861660,-0.61682070,1.05084010
709,1778603178.9977012,0.62192655,-0.86200150,-0.42886650,2.32861660,-0.61682070,1.05084010
710,1778603179.0075297,0.75510510,-0.83078015,-0.28495565,1.80205110,-0.01695150,1.06305740
711,1778603179.017504,0.75510510,-0.83078015,-0.28495565,0.83444130,0.31291547,0.89690220
712,1778603179.027548,0.88389300,-0.77175236,0.11262852,0.51556987,-0.01817323,0.62323480
713,1778603179.03764,0.91706574,-0.69516250,-0.02884315,0.34819293,-0.27229297,0.37033677
714,1778603179.0479054,0.92633456,-0.60784036,-0.25471000,0.15882485,-0.17577635,0.20173809
715,1778603179.0577176,0.91413870,-0.49563867,-0.39959648,0.15882485,-0.17577635,0.20173809
716,1778603179.067725,0.90194285,-0.43856218,-0.36983865,-0.38606653,0.83581570,0.03680460
717,1778603179.07733,0.84584200,-0.33319017,-0.23714797,-0.54489136,1.29640780,0.04902190
718,1778603179.087352,0.79803437,-0.23123300,-0.21275632,-0.54611313,1.66048320,0.10522146
719,1778603179.0975661,0.74827540,-0.12976366,-0.22202514,-0.32253662,2.28234360,0.18707734
720,1778603179.1078432,0.74827540,-0.12976366,-0.22202514,-0.32253662,2.28234360,0.18707734
721,1778603179.1174273,0.74876320,0.01073233,-0.14592315,0.29688028,2.84433910,0.20173809
722,1778603179.1274533,0.87559986,0.24098967,-0.51521300,0.15271619,1.53464510,-0.02306015
723,1778603179.1379192,0.68095434,0.26928400,-0.13177599,-0.13683371,-0.89781850,-0.44333512
724,1778603179.1477618,0.45362400,0.17903483,0.18043736,0.32742350,-2.02547480,-0.67302024
725,1778603179.1575894,0.38142470,0.05122250,0.24873403,0.91018850,-2.33090730,-0.81229746
726,1778603179.167708,0.34093451,-0.06146700,0.24580702,1.40376720,-2.52149700,-0.97600920
727,1778603179.1782234,0.27849188,-0.19562118,0.16141187,1.84969850,-2.78294730,-1.26678090
728,1778603179.1877277,0.28678500,-0.32879966,0.00676869,1.93033270,-2.92100260,-1.47691830
729,1778603179.1977444,0.42289050,-0.51807904,-0.31617698,1.74096470,-2.94543720,-1.64551700
730,1778603179.2075803,0.73315257,-0.83273154,-0.83376810,0.87720180,-2.63267450,-2.00348380
731,1778603179.2175953,0.73315257,-0.83273154,-0.83376810,0.87720180,-2.63267450,-2.00348380
732,1778603179.2276826,0.88974696,-1.11957750,-0.21909817,-0.85398895,-2.20873430,-2.52882740
733,1778603179.2376602,0.88974696,-1.11957750,-0.21909817,-0.85398895,-2.20873430,-2.52882740
734,1778603179.2477045,1.26050030,-1.57765300,0.07604102,-1.84358990,-2.73163460,-2.40665460
735,1778603179.2573586,1.26050030,-1.57765300,0.07604102,-1.84358990,-2.73163460,-2.40665460
736,1778603179.2676046,1.64735220,-2.37867550,-0.33520250,-2.48255440,-2.36633750,-1.76402470
737,1778603179.2776453,1.67467090,-2.85138600,-0.78547270,-2.95414200,-0.46532625,-1.28510680
738,1778603179.28766,1.48490370,-2.87772900,-0.28593132,-3.06165430,1.97568940,-1.00533070
739,1778603179.2977085,1.06292800,-2.38111450,0.24044085,-2.70490930,3.04958960,-0.95646155
740,1778603179.3076096,0.71851754,-1.91474580,0.39459620,-2.27852560,2.91519950,-0.96867883
741,1778603179.3177023,0.53801920,-1.63033900,0.42191488,-1.84969850,2.25546550,-0.95279634
742,1778603179.327598,0.44923353,-1.22446170,0.36922884,-1.28892470,0.92500200,-0.90759236
743,1778603179.3377135,0.50484650,-1.11469920,0.32288470,-0.98471403,0.22861615,-0.87582740
744,1778603179.3473973,0.59021735,-1.03518240,0.23946518,-0.65118190,-0.22220206,-0.80863225
745,1778603179.3574126,0.65753840,-0.96590996,0.15067953,-0.38240135,-0.28573200,-0.70356350
746,1778603179.3674333,0.68729620,-0.91761450,0.10287185,-0.26389357,-0.19898920,-0.63025975
747,1778603179.3775098,0.70632170,-0.77663070,0.18385220,-0.05864302,-0.05726858,-0.46410450
748,1778603179.3877587,0.70193120,-0.66979520,0.21604920,0.16004658,-0.20631959,-0.31261006
749,1778603179.3973453,0.70193120,-0.66979520,0.21604920,0.16004658,-0.20631959,-0.31261006
750,1778603179.4075308,0.67217330,-0.43758650,0.13897152,0.51679160,-0.52519100,-0.05360339
751,1778603179.4177659,0.63509804,-0.38392484,0.12043386,0.63529940,-0.55939940,0.05146536
752,1778603179.4275002,0.51509106,-0.28928518,0.08189502,0.74892020,-0.50930850,0.21395539
753,1778603179.4374511,0.36776537,-0.25220984,0.08579769,0.78557210,-0.45188722,0.35201082
754,1778603179.4472897,0.25849068,-0.25513685,0.11457986,0.81733710,-0.39324420,0.56337005
755,1778603179.4573302,0.25849068,-0.25513685,0.11457986,0.81733710,-0.39324420,0.56337005
756,1778603179.4678082,0.13311753,-0.23757485,0.15263085,0.85032380,-0.33337945,0.75273810
757,1778603179.4775105,-0.05128348,-0.16342416,0.37020450,1.07267860,-0.06582068,1.30129470
758,1778603179.487448,-0.12836114,-0.11512867,0.42923236,1.28525950,0.03802633,1.52975810
759,1778603179.497466,-0.23763582,-0.00975667,0.27605268,1.53204880,0.29458955,1.82663850
760,1778603179.5074372,-0.23763582,-0.00975667,0.27605268,1.53204880,0.29458955,1.82663850
761,1778603179.517734,-0.11421398,0.12000700,-0.51033460,1.22050790,1.08871380,2.15039680
762,1778603179.527519,-0.11421398,0.12000700,-0.51033460,1.22050790,1.08871380,2.15039680
763,1778603179.5375755,0.82388950,-0.01512283,-0.91767544,-1.67743470,1.17301310,0.95554525
764,1778603179.547566,0.96487340,-0.10342067,-0.22934265,-2.09404440,1.69957850,0.07956514
765,1778603179.5575907,0.91072387,-0.19562118,0.56680137,-2.09404440,1.69957850,0.07956514
766,1778603179.5677648,0.91072387,-0.19562118,0.56680137,-1.58947010,2.04410620,-1.01999150
767,1778603179.577661,0.49313855,-0.23855051,0.35556954,-0.39828384,2.08320160,-1.93506690
768,1778603179.5877347,0.20970736,-0.35172784,-0.01713515,0.06108648,1.94758960,-1.88375430
769,1778603179.5972986,0.18238870,-0.56735015,-0.04542948,0.09040799,1.87917280,-1.57099150
770,1778603179.6073163,0.25166103,-0.80102235,-0.25373432,0.00855211,1.69469170,-1.24723320
771,1778603179.6173553,0.25166103,-0.80102235,-0.25373432,0.00855211,1.69469170,-1.24723320
772,1778603179.627338,0.36239920,-0.99274087,-0.05323482,-0.23701553,1.38925920,-0.87216216
773,1778603179.6376898,1.06244000,-1.53082110,0.60729150,-0.30176720,-1.08596490,-0.13912445
774,1778603179.647699,1.32343090,-1.95230910,0.48484537,-0.15515965,-2.18307800,0.02947422
775,1778603179.6577284,1.40002070,-2.19427440,0.32873870,0.00733038,-2.47507140,0.15409064
776,1778603179.667723,1.30733240,-2.27671810,0.16629020,0.20158538,-2.23561240,0.29703300
777,1778603179.677745,0.94975050,-1.88401250,0.13604453,0.50946120,-1.23012900,0.57070040
778,1778603179.6877673,0.94975050,-1.88401250,0.13604453,0.50946120,-1.23012900,0.57070040
779,1778603179.6974485,0.94975050,-1.88401250,0.13604453,0.50946120,-1.23012900,0.57070040
780,1778603179.707532,0.54436100,-1.14250560,0.39166918,1.21439920,-0.48731738,1.23287790
781,1778603179.7175236,0.55167854,-1.07811160,0.40679200,1.42575840,-0.65958124,1.39170270
782,1778603179.728031,0.69168670,-1.05762270,0.36532620,1.67254780,-0.89659680,1.44179360
783,1778603179.7374985,0.78339940,-1.07372120,0.39215705,1.83870300,-0.93080520,1.27441670
784,1778603179.7476656,0.79608303,-1.06201330,0.36435053,1.99141920,-0.91247930,1.08504860
785,1778603179.7576973,0.79608303,-1.06201330,0.36435053,1.99141920,-0.91247930,1.08504860
786,1778603179.76774,0.74778754,-0.98298420,0.23702602,2.06838820,-0.71822430,0.91156300
787,1778603179.7777433,0.71412706,-0.92785907,0.15848486,2.03540130,-0.53496486,0.89079356
788,1778603179.787772,0.71120000,-0.85419625,0.07116269,1.87535490,-0.04749474,0.85902860
789,1778603179.7974527,0.71120000,-0.85419625,0.07116269,1.87535490,-0.04749474,0.85902860
790,1778603179.807731,0.71120000,-0.85419625,0.07116269,1.87535490,-0.04749474,0.85902860
791,1778603179.8177507,0.71120000,-0.85419625,0.07116269,1.87535490,-0.04749474,0.85902860
792,1778603179.8273122,0.83510970,-0.64491564,-0.28056514,-0.28588470,3.29027030,0.60613060
793,1778603179.8373363,0.86779450,-0.67564917,0.10482319,-0.74892020,2.95185140,0.51938780
794,1778603179.8473592,0.89706450,-0.66491680,0.14775252,-0.96638810,2.27134800,0.43508843
795,1778603179.8573997,0.89706450,-0.66491680,0.14775252,-0.96638810,2.27134800,0.43508843
796,1778603179.8675673,0.87413640,-0.48539415,-0.52545744,-1.34756770,2.21637000,0.39110620
797,1778603179.8775878,0.85657440,-0.40148684,-0.32056746,-1.53449240,3.62013750,0.43386670
798,1778603179.8876133,0.85657440,-0.40148684,-0.32056746,-1.53449240,3.62013750,0.43386670
799,1778603179.8976278,0.84291506,-0.27806500,-0.22104947,-1.12399130,4.52177400,0.42164943
800,1778603179.9073105,0.84291506,-0.27806500,-0.22104947,-1.12399130,4.52177400,0.42164943
801,1778603179.9173155,0.83754885,-0.11951917,-0.60595000,-1.10077830,4.43747430,0.38377580
802,1778603179.9275653,0.85608655,0.12244616,-0.33422682,-1.89612420,1.41125040,0.00870482
803,1778603179.9375837,0.70729740,0.12634884,0.13555670,-1.22905990,0.04902190,-0.21975860
804,1778603179.947601,0.63412240,0.11854350,0.08530986,-0.30054548,-0.55206907,-0.39324420
805,1778603179.9573424,0.56533790,0.10829899,-0.05274698,0.20647229,-1.38040170,-0.64247704
806,1778603179.9673297,0.44533083,-0.02536733,0.12970269,0.45570514,-1.96805360,-0.82940170
807,1778603179.9777627,0.37508285,-0.17952266,0.28093103,0.80389804,-2.44330640,-1.04198270
808,1778603179.987676,0.37508285,-0.17952266,0.28093103,0.80389804,-2.44330640,-1.04198270
809,1778603179.9977572,0.30434700,-0.28099200,0.22239104,1.04702220,-2.70231320,-1.23745930
810,1778603180.0078723,0.30824968,-0.43661085,0.05896685,1.06412650,-2.87335520,-1.49402250
811,1778603180.017392,0.30824968,-0.43661085,0.05896685,1.06412650,-2.87335520,-1.49402250
812,1778603180.027424,0.79852223,-0.93810350,-0.57716780,0.24556763,-2.77683850,-2.04013560
813,1778603180.0374353,0.94487220,-1.18641070,-0.81718180,-0.74769850,-2.28814670,-2.32479860
814,1778603180.0474567,1.07219670,-1.30544210,-0.28739482,-1.79105560,-1.92895830,-2.47384950
815,1778603180.0574884,1.26050030,-1.49130650,0.07165052,-2.26264300,-1.97171880,-2.45308020
816,1778603180.0675187,1.26050030,-1.49130650,0.07165052,-2.26264300,-1.97171880,-2.45308020
817,1778603180.0776823,1.84053420,-2.38940760,0.11409202,-2.94803330,-2.26737740,-1.78845930
818,1778603180.0876968,1.84053420,-2.38940760,0.11409202,-2.94803330,-2.26737740,-1.78845930
819,1778603180.097283,1.82833840,-2.91138940,-0.52350616,-3.57722430,0.20540328,-0.77198035
820,1778603180.1073074,1.29660010,-2.41136030,-0.30739596,-3.16183610,2.89809510,-0.87582740
821,1778603180.1173236,0.72242020,-1.76742020,0.15555786,-2.75377850,3.85593130,-0.96379190
822,1778603180.1276102,0.55070287,-1.56448150,0.28580934,-2.07694030,4.11493800,-0.96134850
823,1778603180.137804,0.18677919,-1.08591700,0.26434470,-1.49661870,2.94696450,-0.75976306
824,1778603180.1475008,0.18677919,-1.08591700,0.26434470,-1.49661870,2.94696450,-0.75976306
825,1778603180.1577075,0.28776067,-1.02884050,0.24922185,-1.25960310,0.28970262,-0.55939940
826,1778603180.1677284,0.31166452,-0.96932480,0.28483367,-1.12276950,-0.35781404,-0.52885616
827,1778603180.1776378,0.31166452,-0.96932480,0.28483367,-0.91018850,-0.63636840,-0.44944376
828,1778603180.187668,0.34434935,-0.81273040,0.31946984,-0.46792242,-0.60826860,-0.23808455
829,1778603180.1973498,0.37361938,-0.75760514,0.33995885,-0.05009091,-0.36514443,-0.01695150
830,1778603180.2074366,0.39166918,-0.70638270,0.30971318,0.24068072,-0.12446370,0.15409064
831,1778603180.2174144,0.39313272,-0.63515900,0.28288236,0.46303550,0.11621703,0.31291547
832,1778603180.2273884,0.34044670,-0.50685880,0.24775836,0.67683816,0.40454520,0.53649200
833,1778603180.237449,0.29556602,-0.41465837,0.20629252,0.75014200,0.55848310,0.68676470
834,1778603180.247466,0.22385453,-0.29318783,0.20141420,0.77213305,0.76373370,0.86513720
835,1778603180.257624,0.15555786,-0.19952384,0.24922185,0.77824175,0.95676696,1.01418830
836,1778603180.2679534,0.15555786,-0.19952384,0.24922185,0.77824175,0.95676696,1.01418830
837,1778603180.2774944,0.08238286,-0.02585517,0.23751387,0.78923730,1.25609080,1.29640780
838,1778603180.2875042,0.10433535,0.05854000,0.01457402,0.63163420,1.23898650,1.35138560
839,1778603180.297605,0.16385102,0.10537200,-0.10006681,0.27244568,1.22799090,1.27563830
840,1778603180.3076339,0.27312570,0.13561767,-0.25324650,-0.15271619,1.21333010,1.09115720
841,1778603180.3177032,0.50143170,0.17269300,-0.84108570,-0.88575390,1.12414400,0.75395983
842,1778603180.3274944,0.79266820,0.16049717,-1.31769880,-1.97675850,1.24387340,0.22861615
843,1778603180.3375213,0.93609120,0.07219934,-0.46252698,-3.14473200,2.67329700,-0.82451475
844,1778603180.3475764,1.02097430,-0.04878334,1.20439950,-2.43002000,3.05203320,-1.74447720
845,1778603180.35752,1.13463940,-0.09610317,1.52880870,-1.31335930,1.80098210,-2.42986730
846,1778603180.3674526,1.13463940,-0.09610317,1.52880870,-1.31335930,1.80098210,-2.42986730
847,1778603180.3774142,0.41606086,-0.13610551,0.47313735,0.21380267,-1.05175640,-2.68398710
848,1778603180.38757,0.64192766,-0.43758650,-2.10457400,0.31398448,0.34468046,-1.94850590
849,1778603180.398068,0.64192766,-0.43758650,-2.10457400,0.31398448,0.34468046,-1.94850590
850,1778603180.407565,0.35849655,-0.88834447,-0.16738781,-1.26204660,6.28472950,-1.10306910
851,1778603180.4174678,0.57948500,-0.97859365,0.52728680,-1.75196020,4.29697560,-0.59238610
852,1778603180.4277837,0.90243065,-1.27080580,0.70144340,-2.06838820,0.82970710,-0.06337722
853,1778603180.4372892,0.90243065,-1.27080580,0.70144340,-2.06838820,0.82970710,-0.06337722
854,1778603180.4473104,1.32147960,-2.12256300,-0.02884315,-1.67743470,-1.45614890,0.14065161
855,1778603180.457361,1.32147960,-2.12256300,-0.02884315,-1.67743470,-1.45614890,0.14065161
856,1778603180.4675736,1.37709250,-2.37477280,0.06872352,-0.94073176,-0.34193155,-0.05604684
857,1778603180.4773026,0.88535650,-1.88401250,0.46484417,-0.18325943,-0.55817770,0.03069595
858,1778603180.4873505,0.67070990,-1.59082460,0.43313503,0.00000000,-1.24845490,0.29581127
859,1778603180.4974608,0.52631120,-1.32739450,0.31410370,0.12461641,-1.75302920,0.60124370
860,1778603180.5074868,0.47069818,-1.19031330,0.24775836,0.17470732,-1.92773650,0.76495540
861,1778603180.5175648,0.47069818,-1.19031330,0.24775836,0.17470732,-1.92773650,0.76495540
862,1778603180.5276942,0.52192070,-1.11616270,0.17799819,0.26267186,-1.89719330,1.10459630
863,1778603180.537354,0.56728923,-1.08494140,0.18629137,0.30665413,-1.61375200,1.11681350
864,1778603180.5475566,0.59753490,-1.01030290,0.17214419,0.38851000,-1.20080750,1.03251420
865,1778603180.557564,0.58143634,-0.92932254,0.13653237,0.44837475,-0.67912894,0.95310175
866,1778603180.5677552,0.58143634,-0.92932254,0.13653237,0.44837475,-0.67912894,0.95310175
867,1778603180.5774865,0.55362990,-0.87468517,0.12238518,0.43860090,-0.16233732,0.96776253
868,1778603180.5875242,0.64436686,-0.79370487,0.20385335,0.31276277,0.68676470,1.10826150
869,1778603180.597638,0.73071337,-0.77663070,0.20580468,0.19425500,0.76862060,1.06550090
870,1778603180.6076381,0.77364266,-0.75077550,0.18190086,0.07330377,0.73807734,0.96776253
871,1778603180.617355,0.77364266,-0.75077550,0.18190086,0.07330377,0.73807734,0.96776253
872,1778603180.627557,0.79657090,-0.71516370,0.14531335,-0.10995566,0.67332570,0.78572480
873,1778603180.6377296,0.92048055,-0.52929920,-1.79089730,-1.14842580,2.02455850,0.24572036
874,1778603180.6477559,0.81120586,-0.50685880,-1.03768250,-2.50088050,4.33729270,-0.02428187
875,1778603180.657669,0.75364155,-0.54783684,-0.00542715,-3.08608900,4.72580240,-0.30527967
876,1778603180.6676397,0.75364155,-0.54783684,-0.00542715,-3.08608900,4.72580240,-0.30527967
877,1778603180.6776235,0.52240855,-0.41417053,0.36581403,-3.16672300,3.26339240,-0.65958124
878,1778603180.6875496,0.32727520,-0.25318550,-0.04347815,-3.13740160,2.28600880,-0.57772535
879,1778603180.6974564,0.25995418,-0.21025616,-0.15958248,-3.28034380,2.28723050,-0.38347036
880,1778603180.707507,0.24580702,-0.24879500,0.00725652,-3.33532170,2.29700420,-0.23930627
881,1778603180.7175183,0.24580702,-0.24879500,0.00725652,-3.33532170,2.29700420,-0.23930627
882,1778603180.7275336,0.26629603,-0.34148335,0.19068186,-3.07631500,1.62260960,-0.18066326
883,1778603180.7375548,0.27068650,-0.37514386,0.04921019,-2.93703800,1.38681580,-0.21731515
884,1778603180.7477155,0.33800754,-0.41221920,-0.14543532,-2.94803330,1.48821930,-0.34315330
885,1778603180.7577512,0.45216054,-0.51905465,-0.18543765,-3.02744580,1.69224810,-0.55084730
886,1778603180.7673979,0.45216054,-0.51905465,-0.18543765,-3.02744580,1.69224810,-0.55084730
887,1778603180.7773118,0.55704470,-0.69418687,-0.10787215,-3.21681400,1.86329030,-1.07496930
888,1778603180.7873662,0.62192655,-0.82004790,-0.13762999,-3.44283400,1.82541670,-1.33886290
889,1778603180.7975743,0.70095557,-0.93517650,-0.15470415,-3.67496250,1.84374260,-1.47203140
890,1778603180.807733,0.76876440,-1.03225540,-0.13470298,-3.84356120,1.92071160,-1.55633080
891,1778603180.8177202,0.76876440,-1.03225540,-0.13470298,-3.84356120,1.92071160,-1.55633080
892,1778603180.8274794,0.85950130,-1.19958210,-0.09177365,-4.02315500,2.25180030,-1.67483850
893,1778603180.8375096,0.85072035,-1.35032270,-0.13275166,-4.06713770,2.73071840,-1.64796040
894,1778603180.8475258,0.84096366,-1.49179430,-0.20202398,-4.10134600,3.32814400,-1.48180520
895,1778603180.857545,0.86681885,-1.61131360,-0.19860914,-4.14777200,3.99154330,-1.21302470
896,1778603180.8677628,0.86681885,-1.61131360,-0.19860914,-4.14777200,3.99154330,-1.21302470
897,1778603180.8776274,0.80876666,-1.83181430,-0.13421515,-4.19664100,4.61584700,-0.56550807
898,1778603180.8876462,0.71607840,-1.60545950,0.15799703,-4.07080270,4.10394240,-0.11468986
899,1778603180.8976512,0.71607840,-1.60545950,0.15799703,-4.07080270,4.10394240,-0.11468986
900,1778603180.9074438,0.71607840,-1.60545950,0.15799703,-4.07080270,4.10394240,-0.11468986
901,1778603180.9174523,0.66778284,-0.99469220,0.42874455,-3.29500460,2.61343220,0.24449863
902,1778603180.9274728,0.74925100,-0.66491680,0.31166452,-1.92055880,1.28907740,0.69898200
903,1778603180.9378014,0.78827770,-0.59027830,0.21897620,-1.42331490,1.04473150,0.83948094
904,1778603180.9477654,0.78583854,-0.53808016,0.16287535,-1.08856100,0.94332796,0.94943660
905,1778603180.957667,0.78144807,-0.50978583,0.14384985,-0.92362756,0.91767160,1.02640560
906,1778603180.9676359,0.78144807,-0.50978583,0.14384985,-0.92362756,0.91767160,1.02640560
907,1778603180.9774387,0.78144807,-0.50978583,0.14384985,-0.92362756,0.91767160,1.02640560
908,1778603180.9877422,0.73412820,-0.49515083,0.16238752,-0.74158984,0.81382460,1.06672260
909,1778603180.9973638,0.67558820,-0.48441850,0.16141187,-0.67561644,0.74785120,0.99464060
910,1778603181.0073845,0.62192655,-0.46490517,0.13019052,-0.61819520,0.75395983,0.92500200
911,1778603181.0174024,0.62192655,-0.46490517,0.13019052,-0.61819520,0.75395983,0.92500200
912,1778603181.027902,0.54777586,-0.43953782,0.08823685,-0.55833040,0.86269380,0.85047650
913,1778603181.0374928,0.42776886,-0.39270583,0.09653002,-0.53023064,1.14369150,0.78083790
914,1778603181.0475018,0.34483720,-0.38002217,0.17116854,-0.52290020,1.15835240,0.76251197
915,1778603181.057782,0.24922185,-0.35611832,0.18043736,-0.49357873,1.11803530,0.77106404
916,1778603181.0672758,0.24922185,-0.35611832,0.18043736,-0.49357873,1.11803530,0.77106404
917,1778603181.07729,0.16141187,-0.30343235,0.09506652,-0.44715303,1.47355850,0.83825920
918,1778603181.0873995,0.16141187,-0.30343235,0.09506652,-0.44715303,1.47355850,0.83825920
919,1778603181.097412,0.16482669,-0.27757720,-0.07128465,-0.72692907,3.40022600,0.79916380
920,1778603181.107438,0.31605503,-0.33904418,0.07652886,-0.97127500,4.01475600,0.61956960
921,1778603181.1174724,0.44923353,-0.39904767,0.21897620,-1.22539470,4.20901100,0.34712392
922,1778603181.1277297,0.54192185,-0.46002686,0.41313390,-1.66766080,3.56027270,-0.00839939
923,1778603181.1374452,0.62631700,-0.50685880,0.52338420,-1.95721080,2.61709740,-0.13423753
924,1778603181.1476524,0.75169020,-0.59271750,0.62485350,-2.22721300,0.96898425,-0.18677190
925,1778603181.1574364,0.87120930,-0.67955184,0.64924520,-2.24798250,0.21029020,-0.19532402
926,1778603181.1674275,0.87120930,-0.67955184,0.64924520,-2.24798250,0.21029020,-0.19532402
927,1778603181.1775608,1.22537640,-0.96493435,0.59265655,-1.82648560,-1.60886510,-0.31016660
928,1778603181.1874194,1.33172400,-1.08298990,0.46972254,-1.54182270,-1.93506690,-0.37369654
929,1778603181.1974607,1.35855480,-1.17665400,0.17311986,-1.17896900,-1.71882080,-0.40179630
930,1778603181.2073162,1.33709030,-1.19177690,-0.09470064,-0.89430606,-0.93813556,-0.33826637
931,1778603181.2174838,1.33709030,-1.19177690,-0.09470064,-0.89430606,-0.93813556,-0.33826637
932,1778603181.2274687,0.94682360,-1.11469920,-0.77766734,-0.68050337,4.27009770,-0.16478078
933,1778603181.2376027,0.79901004,-1.00835140,0.09116385,-0.68783370,5.18639470,-0.08414663
934,1778603181.2475972,0.69071100,-0.91907805,0.29946870,-0.75380710,4.61829040,0.00381790
935,1778603181.2574205,0.69071100,-0.91907805,0.29946870,-0.75380710,4.61829040,0.00381790
936,1778603181.2675128,0.65851400,-0.87224600,0.32337250,-1.05068740,2.60732360,0.12232567
937,1778603181.2775276,0.71315134,-0.90249170,0.30434700,-1.19118630,1.74111740,0.09422589
938,1778603181.2874656,0.79657090,-0.94346964,0.26532036,-1.35367630,0.73319050,0.07223476
939,1778603181.2976816,0.89218620,-0.93761570,0.25702720,-1.40498900,0.25182900,0.16264275
940,1778603181.307705,0.94536000,-0.90102816,0.23263553,-1.35856330,0.10522146,0.26648977
941,1778603181.3173952,0.94536000,-0.90102816,0.23263553,-1.35856330,0.10522146,0.26648977
942,1778603181.3274705,0.97804487,-0.86200150,0.20043853,-1.24372070,0.17852524,0.36056295
943,1778603181.337493,0.99463123,-0.78150900,0.15604569,-0.76235926,0.93355410,0.41065386
944,1778603181.3475647,0.94487220,-0.74199450,0.13067836,-0.50335260,1.33428140,0.36178467
945,1778603181.3575056,0.89462540,-0.71857850,0.11457986,-0.34330600,1.58229240,0.31780240
946,1778603181.3673568,0.89462540,-0.71857850,0.11457986,-0.34330600,1.58229240,0.31780240
947,1778603181.3773608,0.80974240,-0.67223436,0.11360419,-0.15760311,1.78632130,0.23350306
948,1778603181.3873868,0.80974240,-0.67223436,0.11360419,-0.15760311,1.78632130,0.23350306
949,1778603181.3977246,0.74729970,-0.62442666,0.04042919,-0.17104214,1.75944330,0.16019928
950,1778603181.4074192,0.73656740,-0.60491335,-0.00981765,-0.25289800,1.81564280,0.11377356
951,1778603181.4174669,0.73656740,-0.60491335,-0.00981765,-0.25289800,1.81564280,0.11377356
952,1778603181.427453,0.78437500,-0.58930270,-0.06786981,-0.42271844,2.09541900,0.02947422
953,1778603181.4374783,0.73900650,-0.53271400,-0.45618513,-0.65362530,2.83456540,-0.01817323
954,1778603181.4478846,0.73461604,-0.54051936,-0.48496732,-0.91507540,3.63602000,-0.03039052
955,1778603181.4577549,0.74681187,-0.57759470,-0.28349215,-1.24005560,4.22733700,-0.10613775
956,1778603181.46732,0.74681187,-0.57759470,-0.28349215,-1.24005560,4.22733700,-0.10613775
957,1778603181.4775493,0.59070520,-0.51466420,-0.36105764,-1.90711990,4.11371600,-0.28695372
958,1778603181.4875543,0.53997050,-0.48197934,-0.36008197,-2.28219080,3.89624830,-0.29306240
959,1778603181.4975219,0.51996934,-0.45758770,-0.17763232,-2.66703560,3.38434360,-0.31505352
960,1778603181.507495,0.51704240,-0.43026900,-0.05469831,-2.80264760,2.77714400,-0.40301803
961,1778603181.5173247,0.51704240,-0.43026900,-0.05469831,-2.80264760,2.77714400,-0.40301803
962,1778603181.527501,0.48289403,-0.34636167,-0.23129399,-2.71101780,2.44605540,-0.59605134
963,1778603181.537575,0.48191833,-0.31709167,-0.29129747,-2.52531500,2.60976700,-0.81229746
964,1778603181.5475857,0.47606438,-0.32343350,-0.13080032,-2.43612890,2.24202660,-1.04931300
965,1778603181.557605,0.45508754,-0.33367800,0.04433186,-2.39336820,1.52975810,-1.24601140
966,1778603181.5674427,0.41947567,-0.37075335,0.18629137,-2.27363870,0.61834790,-1.45126200
967,1778603181.5775378,0.38727868,-0.39173016,0.18629137,-2.27363870,0.61834790,-1.45126200
968,1778603181.587669,0.35069120,-0.45612420,0.11214069,-1.98164530,-0.20387612,-1.66872990
969,1778603181.5977638,0.36435053,-0.54149497,0.01262269,-1.90589810,-0.32238388,-1.75425090
970,1778603181.607505,0.43069590,-0.65613580,-0.09470064,-1.94255000,-0.35414886,-1.82633290
971,1778603181.6175365,0.43069590,-0.65613580,-0.09470064,-1.94255000,-0.35414886,-1.82633290
972,1778603181.6275961,0.89023490,-1.13177340,-0.35471582,-2.46300670,-0.16478078,-2.19285180
973,1778603181.6376607,1.06731840,-1.34398090,-0.23861149,-2.95658560,0.06856957,-2.54959680
974,1778603181.6476398,1.24440180,-1.59423940,-0.10982348,-3.29256100,0.22983788,-2.67910030
975,1778603181.6576567,1.41026520,-1.83718030,-0.12299499,-3.51735950,0.41676250,-2.64733530
976,1778603181.6676683,1.41026520,-1.83718030,-0.12299499,-3.51735950,0.41676250,-2.64733530
977,1778603181.6775305,1.58588520,-2.30940300,-0.22202514,-3.89609550,1.31717720,-2.23072550
978,1778603181.687545,1.19074020,-2.31086660,-0.17958365,-4.06591600,2.32754760,-1.67850380
979,1778603181.6975594,0.87316070,-1.97767640,0.07408969,-3.95840380,2.75148770,-1.19347700
980,1778603181.7075868,0.67510040,-1.68741550,0.27117437,-3.70306230,2.49736790,-0.91003580
981,1778603181.717603,0.67510040,-1.68741550,0.27117437,-3.70306230,2.49736790,-0.91003580
982,1778603181.7277534,0.48191833,-1.26202490,0.53070170,-2.85762550,1.32572930,-0.58749920
983,1778603181.7377546,0.42532970,-1.10640610,0.44045252,-2.10992700,0.57314390,-0.47143490
984,1778603181.7473536,0.37557068,-1.04006060,0.30532268,-1.63100900,0.42531460,-0.36270097
985,1778603181.7574894,0.34434935,-0.98347200,0.25166103,-1.37566750,0.52916163,-0.21731515
986,1778603181.7677538,0.30727400,-0.88395400,0.23458686,-1.16553000,0.71852970,0.04046979
987,1778603181.7774794,0.29946870,-0.84053683,0.23751387,-1.09100450,0.84925480,0.22250749
988,1778603181.7874763,0.31166452,-0.68833286,0.27800402,-0.95783600,1.08504860,0.63911730
989,1778603181.7974656,0.32386038,-0.58393650,0.31849420,-0.88819736,1.19011740,0.82970710
990,1778603181.8074925,0.33166570,-0.51222503,0.35313037,-0.77091134,1.19989110,1.02274040
991,1778603181.8175209,0.33166570,-0.51222503,0.35313037,-0.77091134,1.19989110,1.02274040
992,1778603181.8275352,0.33166570,-0.51222503,0.35313037,-0.77091134,1.19989110,1.02274040
993,1778603181.8375726,0.36191136,-0.27757720,0.26580820,-0.38240135,1.06672260,1.42346760
994,1778603181.8473334,0.41167036,-0.21123183,0.14482552,-0.25778493,1.26097760,1.48821930
995,1778603181.857366,0.49313855,-0.15708233,0.03311169,-0.21013749,1.63971380,1.46378470
996,1778603181.867523,0.59948623,-0.10829899,-0.06786981,-0.24190246,1.90605080,1.38559400
997,1778603181.877576,0.59948623,-0.10829899,-0.06786981,-0.37018406,2.25546550,1.20233460
998,1778603181.8877592,0.71900535,-0.05805217,-0.19031598,-0.37018406,2.25546550,1.20233460
999,1778603181.8972807,0.94487220,0.11220168,-0.23275748,-1.43919740,2.57555870,0.32146758
1000,1778603181.9074273,0.95414100,0.17366867,0.02042802,-1.68598680,2.17360950,0.01359174
