id,timestamp,acc_x,acc_y,acc_z,gyro_x,gyro_y,gyro_z
1,1778602423.5889413,1.37123860,-0.02975783,0.71705400,2.85655640,0.36056295,-1.55892690
2,1778602423.5993621,1.34099290,-0.04683200,0.69412583,2.69040130,0.31780240,-1.50028400
3,1778602423.6094697,1.28684330,-0.07707766,0.66583150,2.53157640,0.28848088,-1.43553220
4,1778602423.6193824,1.14781080,-0.09854234,0.56582570,2.30922150,0.26038110,-1.35245470
5,1778602423.6291885,1.14781080,-0.09854234,0.56582570,2.13451430,0.29458955,-1.30358540
6,1778602423.6391606,1.04048750,-0.08683433,0.50191957,1.95980690,0.35078910,-1.24860760
7,1778602423.6492922,0.96975170,-0.08146816,0.46630770,1.85107300,0.38011062,-1.21073400
8,1778602423.6593027,0.88194174,-0.07463850,0.42337835,1.70813060,0.41431904,-1.15209100
9,1778602423.6690488,0.72339590,-0.06097917,0.34093451,1.48211060,0.46685340,-1.05068740
10,1778602423.6794443,0.63558584,-0.06341834,0.29507820,1.35749420,0.49984010,-0.97860540
11,1778602423.6889718,0.53021390,-0.07219934,0.23800169,1.19256080,0.52793986,-0.85887590
12,1778602423.6989934,0.46923468,-0.07951684,0.20580468,1.04350970,0.55481790,-0.73670290
13,1778602423.709023,0.36093570,-0.08293167,0.15067953,0.85291994,0.61101750,-0.56688250
14,1778602423.719188,0.28580934,-0.08244383,0.12140953,0.67454743,0.67943436,-0.39095345
15,1778602423.7292101,0.28580934,-0.08244383,0.12140953,0.67454743,0.67943436,-0.39095345
16,1778602423.739306,0.20678036,-0.08488300,0.11360419,0.41920596,0.81382460,-0.07208204
17,1778602423.7491207,0.19116970,-0.12147050,0.14384985,0.28603745,0.80038560,0.16371176
18,1778602423.7594304,0.19116970,-0.12147050,0.14384985,0.28603745,0.80038560,0.16371176
19,1778602423.7694447,0.20238985,-0.12293400,0.16043620,0.29703300,0.69531685,0.22724170
20,1778602423.7792401,0.20141420,-0.13220283,0.17165637,0.36911505,0.57680905,0.26145010
21,1778602423.789234,0.18970619,-0.14000817,0.15507002,0.46563166,0.41431904,0.28954992
22,1778602423.7993145,0.17848602,-0.14244732,0.13506886,0.51205740,0.30191990,0.31154105
23,1778602423.8093853,0.16189969,-0.14439867,0.06628435,0.54748756,0.12476913,0.40927940
24,1778602423.8193755,0.19312102,-0.15074050,0.00189035,0.48884454,0.05879574,0.54244790
25,1778602423.8290734,0.29946870,-0.18927933,-0.03030665,0.21395539,0.25549420,0.82833266
26,1778602423.8395498,0.29946870,-0.18927933,-0.03030665,0.21395539,0.25549420,0.82833266
27,1778602423.8491328,0.37996120,-0.20440216,0.01067136,0.08445205,0.44486228,0.94684040
28,1778602423.8590806,0.49606553,-0.19269417,0.10921369,0.00381790,0.61346096,1.04457880
29,1778602423.8691752,0.61802390,-0.10390850,0.25995418,0.05146536,0.69165164,1.14598240
30,1778602423.8791332,0.71559054,-0.02000117,0.30971318,0.21151192,0.61346096,1.23639040
31,1778602423.8891006,0.71559054,-0.02000117,0.30971318,0.21151192,0.61346096,1.23639040
32,1778602423.8989842,1.00438790,0.19659685,-0.11031131,-0.04627301,0.53893540,1.46607540
33,1778602423.9090621,1.00438790,0.19659685,-0.11031131,-0.04627301,0.53893540,1.46607540
34,1778602423.9190986,1.13024890,0.25220984,-0.21080498,-0.59482956,0.70020380,1.53571400
35,1778602423.9291422,1.13024890,0.25220984,-0.21080498,-0.59482956,0.70020380,1.53571400
36,1778602423.9392068,1.28733120,0.34831300,0.08921252,-1.49890950,1.09970930,1.57725290
37,1778602423.9493742,1.31221070,0.42587852,0.33703187,-1.67483850,1.06305740,1.62856550
38,1778602423.9594429,1.31221070,0.42587852,0.33703187,-1.67483850,1.06305740,1.62856550
39,1778602423.9694602,1.65271830,0.65076970,0.92291970,-0.99800030,0.31658068,1.96087600
40,1778602423.9791903,1.65271830,0.65076970,0.92291970,-0.99800030,0.31658068,1.96087600
41,1778602423.9891572,1.75077300,0.69662600,0.90535770,-0.63148147,0.09544762,1.88268530
42,1778602423.9995234,1.78345780,0.74004316,0.81998680,-0.41401360,-0.00839939,1.73119080
43,1778602424.0092576,1.74638240,0.77711850,0.69266236,-0.31138830,-0.02550360,1.55892690
44,1778602424.019094,1.62149700,0.80736417,0.51313970,-0.38469210,0.11621703,1.33412870
45,1778602424.0292432,1.49319680,0.80102235,0.45264837,-0.55206907,0.34712392,1.19851670
46,1778602424.0391343,1.41904630,0.78443605,0.47655220,-0.68279410,0.55603970,1.12154770
47,1778602424.0493126,1.36392100,0.76492270,0.53362870,-0.76587170,0.72097313,1.05190920
48,1778602424.0591629,1.23464520,0.75516600,0.73071337,-0.61559900,0.74907290,0.79045904
49,1778602424.0693128,1.23464520,0.75516600,0.73071337,-0.61559900,0.74907290,0.79045904
50,1778602424.0793543,1.15415280,0.75028770,0.77315485,-0.34926194,0.58658290,0.62674725
51,1778602424.089137,1.03658490,0.74053097,0.75364155,-0.10247257,0.42287114,0.51190466
52,1778602424.0991704,0.85413516,0.71662720,0.61558470,0.37644540,0.18707734,0.33231044
53,1778602424.1091752,0.85413516,0.71662720,0.61558470,0.37644540,0.18707734,0.33231044
54,1778602424.1192005,0.76925220,0.69516250,0.51948154,0.55481790,0.17730351,0.23945900
55,1778602424.1294267,0.62875617,0.65906286,0.38386387,0.73074700,0.33124143,0.08674280
56,1778602424.1391118,0.62875617,0.65906286,0.38386387,0.73074700,0.33124143,0.08674280
57,1778602424.1493206,0.58143634,0.64345220,0.34630070,0.77350754,0.41676250,0.03054324
58,1778602424.158986,0.55021500,0.63418335,0.33605620,0.83337230,0.53527030,-0.04520399
59,1778602424.168996,0.55265420,0.60442555,0.40825552,1.01785340,0.56459177,-0.16004658
60,1778602424.179053,0.55265420,0.60442555,0.40825552,1.01785340,0.56459177,-0.16004658
61,1778602424.1890488,0.57850940,0.58832700,0.44777006,1.15957400,0.50472700,-0.22601996
62,1778602424.1992507,0.59704703,0.56881370,0.47557652,1.32695100,0.40454520,-0.30176720
63,1778602424.2092357,0.62924400,0.54149497,0.49606553,1.54808400,0.27259842,-0.39828384
64,1778602424.2194326,0.73607950,0.47856450,0.50045604,1.94636790,0.17730351,-0.62552553
65,1778602424.2295253,0.73607950,0.47856450,0.50045604,1.94636790,0.17730351,-0.62552553
66,1778602424.239525,0.75754420,0.47466183,0.47996700,2.08198000,0.23716825,-0.72570735
67,1778602424.2491176,0.77998453,0.46734434,0.47704002,2.14306640,0.32268932,-0.76358100
68,1778602424.2592835,0.90730906,0.42441500,0.52192070,2.19926600,0.59024810,-0.79778940
69,1778602424.2692828,0.90730906,0.42441500,0.52192070,2.19926600,0.59024810,-0.79778940
70,1778602424.2791858,0.95853150,0.42002448,0.55997170,2.22247890,0.64278245,-0.79045904
71,1778602424.2892964,1.03268230,0.41417053,0.58875390,2.23713950,0.63056517,-0.75869405
72,1778602424.299254,1.23318170,0.37172902,0.65461135,2.22858740,0.47174034,-0.67683816
73,1778602424.3092382,1.23318170,0.37172902,0.65461135,2.22858740,0.47174034,-0.67683816
74,1778602424.3191414,1.23318170,0.37172902,0.65461135,2.22858740,0.47174034,-0.67683816
75,1778602424.3293765,1.38148310,0.29562700,0.68583274,2.20048760,0.10155627,-0.67928165
76,1778602424.3393223,1.38148310,0.29562700,0.68583274,2.20048760,0.10155627,-0.67928165
77,1778602424.3491378,1.37562910,0.28147984,0.66778284,2.14062290,-0.01450804,-0.65606880
78,1778602424.359148,1.34977390,0.23855051,0.62192655,2.04166270,-0.11224640,-0.60842130
79,1778602424.3691714,1.31952820,0.20732918,0.58192420,1.92804190,-0.16233732,-0.55833040
80,1778602424.3793116,1.26537870,0.16976601,0.52679900,1.75333460,-0.16111559,-0.48136145
81,1778602424.389109,1.19854560,0.13903250,0.48630884,1.54808400,-0.09025527,-0.39461866
82,1778602424.3994439,1.09073440,0.09854234,0.44094035,1.21455190,0.12843432,-0.24556763
83,1778602424.409223,1.09073440,0.09854234,0.44094035,1.21455190,0.12843432,-0.24556763
84,1778602424.419016,0.99170420,0.07658983,0.41898784,0.98608845,0.33001968,-0.12339468
85,1778602424.4290335,0.94048166,0.07171150,0.42142700,0.86391550,0.44974920,-0.05131264
86,1778602424.439381,0.89999160,0.07317501,0.43020800,0.76739890,0.55726140,0.01221729
87,1778602424.4493213,0.81901120,0.07610200,0.45264837,0.73685560,0.60246540,0.04031708
88,1778602424.4593198,0.73705520,0.08244383,0.45020920,0.76006850,0.60002196,0.05619956
89,1778602424.4693797,0.56094736,0.08146816,0.38093686,0.89201530,0.45097092,0.10262528
90,1778602424.4791174,0.56094736,0.08146816,0.38093686,0.89201530,0.45097092,0.10262528
91,1778602424.4893842,0.49606553,0.07073583,0.33898320,0.94699310,0.37522370,0.14905101
92,1778602424.499348,0.40630420,0.02731867,0.24288003,1.03617940,0.22006404,0.30298892
93,1778602424.509345,0.40630420,0.02731867,0.24288003,1.03617940,0.22006404,0.30298892
94,1778602424.519228,0.39118138,0.00048783,0.18287653,1.05939220,0.16019928,0.37995788
95,1778602424.5292397,0.37800986,-0.01609850,0.13555670,1.05694880,0.13454297,0.43737918
96,1778602424.5392957,0.35556954,-0.03122133,0.06530869,1.01418830,0.11621703,0.48747010
97,1778602424.5493665,0.34825203,-0.03805100,0.03506302,0.94943660,0.09300416,0.51923510
98,1778602424.5594468,0.36581403,-0.04878334,-0.00006098,0.83459400,0.02703077,0.54489136
99,1778602424.5689824,0.40532854,-0.06536967,-0.00884198,0.73441220,-0.06337722,0.53633930
100,1778602424.579152,0.42581752,-0.07658983,-0.01859865,0.62079130,-0.17821980,0.49846566
101,1778602424.589208,0.42240270,-0.08098034,-0.03128231,0.50594880,-0.29306240,0.46059203
102,1778602424.5993497,0.41410953,-0.07951684,-0.03518498,0.39965830,-0.40668324,0.45203993
103,1778602424.6092508,0.40825552,-0.06878450,-0.03908765,0.27137667,-0.53129965,0.46425724
104,1778602424.6190243,0.55314200,-0.04049017,0.01164702,-0.12446370,-0.76465000,0.51190466
105,1778602424.6290812,0.55314200,-0.04049017,0.01164702,-0.12446370,-0.76465000,0.51190466
106,1778602424.6392202,0.67753950,-0.04927117,0.06091819,-0.33215773,-0.72677636,0.47769627
107,1778602424.649454,0.76974000,-0.05805217,0.10384752,-0.46166107,-0.57161670,0.40805766
108,1778602424.659344,0.83706100,-0.06439400,0.14824036,-0.55451250,-0.34681848,0.31276277
109,1778602424.6693532,0.88535650,-0.05024683,0.21019518,-0.62537280,-0.03039052,0.15638138
110,1778602424.6792612,0.87803906,0.01756200,0.23800169,-0.62537280,0.11621703,0.04642572
111,1778602424.689179,0.86340400,0.10683551,0.23653820,-0.62048590,0.13087778,0.00244346
112,1778602424.699078,0.86340400,0.21123183,0.20092636,-0.65469430,0.03191768,0.02809978
113,1778602424.7091157,0.93950605,0.32001868,0.14189851,-0.88437950,-0.27351472,0.23579380
114,1778602424.7191284,1.13951770,0.38441268,0.14238635,-1.13849930,-0.50319990,0.42638360
115,1778602424.7291903,1.34635900,0.42295152,0.20434119,-1.58076540,-0.75365440,0.68050337
116,1778602424.7396405,1.51222230,0.46295384,0.31410370,-1.84465900,-0.82451475,0.78312860
117,1778602424.7493653,1.77467680,0.57759470,0.61021850,-2.08900480,-0.74510230,0.79901110
118,1778602424.7591622,1.77467680,0.57759470,0.61021850,-2.08900480,-0.74510230,0.79901110
119,1778602424.7691872,1.86199890,0.62442666,0.77169130,-2.04990960,-0.55451250,0.66950780
120,1778602424.7790678,1.86199890,0.62442666,0.77169130,-2.04990960,-0.55451250,0.66950780
121,1778602424.7893353,1.72150280,0.63125634,0.77510620,-1.74936400,-0.09269873,0.34452772
122,1778602424.7989721,1.57564070,0.62101185,0.70437040,-1.63696490,0.17852524,0.25900668
123,1778602424.8090503,1.16390940,0.60930383,0.59070520,-1.45981410,0.63178690,0.29932374
124,1778602424.8190062,1.16390940,0.60930383,0.59070520,-1.45981410,0.63178690,0.29932374
125,1778602424.829208,0.95804370,0.60881600,0.62875617,-1.11772980,0.52183120,0.48258317
126,1778602424.8392746,0.84876900,0.60588900,0.65997756,-1.11772980,0.52183120,0.48258317
127,1778602424.8495631,0.84876900,0.60588900,0.65997756,-1.11772980,0.52183120,0.48258317
128,1778602424.8589807,0.68729620,0.60149850,0.65705050,-0.56917330,0.12965605,0.69149894
129,1778602424.8691416,0.61314553,0.62393886,0.59655917,-0.13423753,-0.24663666,0.83566300
130,1778602424.8793945,0.59412000,0.63857380,0.49411420,0.15409064,-0.50808680,0.91385370
131,1778602424.8891742,0.59899837,0.64394003,0.40825552,0.30069820,-0.63881180,0.93217963
132,1778602424.8992016,0.59607136,0.65076970,0.33800754,0.37033677,-0.69623315,0.91385370
133,1778602424.9090939,0.54094620,0.65272105,0.25507587,0.35934120,-0.52641270,0.77335480
134,1778602424.919062,0.54094620,0.65272105,0.25507587,0.35934120,-0.52641270,0.77335480
135,1778602424.9290583,0.54094620,0.65272105,0.25507587,0.30802858,-0.29550585,0.68050337
136,1778602424.9392536,0.45655105,0.65125750,0.27654052,0.29336780,-0.17455462,0.64629495
137,1778602424.949088,0.43850118,0.64589137,0.35117903,0.30314165,-0.04382955,0.60964304
138,1778602424.959054,0.44777006,0.64247650,0.40581635,0.37033677,0.04291325,0.56321734
139,1778602424.9694092,0.53753140,0.66979520,0.57314324,0.83459400,0.11621703,0.30421066
140,1778602424.979434,0.53753140,0.66979520,0.57314324,0.83459400,0.11621703,0.30421066
141,1778602424.9892192,0.52923816,0.68882070,0.56680137,1.10826150,0.12232567,0.12339468
142,1778602424.9992452,0.48679670,0.69662600,0.51801800,1.29029920,0.15042545,-0.01710421
143,1778602425.0091329,0.48679670,0.69662600,0.51801800,1.29029920,0.15042545,-0.01710421
144,1778602425.0191796,0.43167153,0.70199220,0.44581872,1.50165830,0.32146758,-0.20647229
145,1778602425.0293655,0.53362870,0.68540585,0.60924286,1.65559630,0.38255405,-0.23457208
146,1778602425.0395167,0.53362870,0.68540585,0.60924286,1.65559630,0.38255405,-0.23457208
147,1778602425.049306,0.62973190,0.67662483,0.71656620,1.79731690,0.34101525,-0.23335035
148,1778602425.0592194,0.77608186,0.66638035,0.81023020,2.03555420,0.29092434,-0.28221953
149,1778602425.0694444,1.01707160,0.66930735,0.91462654,2.30311300,0.28481570,-0.41783150
150,1778602425.079158,1.13268800,0.67418570,0.93804260,2.48515060,0.26648977,-0.56077385
151,1778602425.0891745,1.22879120,0.64686700,0.91462654,2.60121500,0.27626360,-0.71715530
152,1778602425.0992994,1.33123620,0.52832350,0.84584200,2.52058080,0.62812173,-0.80389804
153,1778602425.1094651,1.33123620,0.52832350,0.84584200,2.52058080,0.62812173,-0.80389804
154,1778602425.1192002,1.39221540,0.44246486,0.87316070,2.41673370,0.84436786,-0.74525505
155,1778602425.1291988,1.42246100,0.38051000,0.90535770,2.34343000,0.89445880,-0.69149894
156,1778602425.1392317,1.44587710,0.35904533,0.92974937,2.32510400,0.79305520,-0.66950780
157,1778602425.149158,1.44880400,0.34782517,0.95023835,2.32999100,0.59880020,-0.67439470
158,1778602425.1590428,1.42441240,0.32684833,0.91901700,2.32510400,0.29703300,-0.68172510
159,1778602425.1691191,1.39221540,0.30782285,0.87023370,2.28723050,0.10522146,-0.67317300
160,1778602425.1791914,1.35611570,0.27855286,0.79071690,2.18827030,0.02092212,-0.62063860
161,1778602425.1892323,1.31611340,0.23806266,0.72388370,2.03066730,0.12354740,-0.52778715
162,1778602425.1991804,1.27123270,0.21123183,0.67851520,1.89016830,0.29581127,-0.44226610
163,1778602425.2093344,1.08585610,0.17805916,0.61363333,1.56885350,0.79916380,-0.25289800
164,1778602425.2192633,1.08585610,0.17805916,0.61363333,1.56885350,0.79916380,-0.25289800
165,1778602425.229289,0.99560690,0.16196068,0.59119300,1.46500650,0.97387120,-0.16126831
166,1778602425.2393692,0.88194174,0.13659334,0.55655690,1.41369380,1.07283130,-0.08918626
167,1778602425.2493823,0.79169255,0.11756783,0.51850590,1.38192880,1.14002650,-0.01832594
168,1778602425.2593048,0.68729620,0.09756667,0.47216170,1.36726810,1.19622600,0.09040799
169,1778602425.2690423,0.59460783,0.06536967,0.41069470,1.36726810,1.19133900,0.18570289
170,1778602425.2790391,0.55216634,0.05122250,0.38288820,1.36971150,1.15102200,0.25656322
171,1778602425.2892811,0.49021152,0.03512400,0.33849534,1.37582020,1.08260510,0.31887140
172,1778602425.299191,0.44337955,0.02439167,0.30385920,1.38925920,1.00197100,0.36774060
173,1778602425.3092253,0.37118018,-0.01317150,0.22043969,1.41858080,0.74540776,0.44593130
174,1778602425.3190057,0.35898435,-0.03219700,0.18287653,1.41858080,0.74540776,0.44593130
175,1778602425.3291738,0.35898435,-0.03219700,0.18287653,1.40514170,0.61590440,0.46547896
176,1778602425.3392315,0.35264254,-0.05756433,0.14384985,1.38192880,0.49128800,0.46303550
177,1778602425.3493352,0.35264254,-0.07415067,0.12628786,1.35749420,0.39965830,0.44715303
178,1778602425.359338,0.35556954,-0.09707884,0.10921369,1.33550310,0.31169376,0.41905323
179,1778602425.369357,0.35556954,-0.09707884,0.10921369,1.33550310,0.31169376,0.41905323
180,1778602425.3794262,0.29507820,-0.17415650,0.00335385,1.19744770,-0.05604684,0.26755878
181,1778602425.3893085,0.29507820,-0.17415650,0.00335385,1.19744770,-0.05604684,0.26755878
182,1778602425.3990877,0.28483367,-0.18879150,-0.02933098,1.10215280,-0.16355905,0.27000225
183,1778602425.4092207,0.28873634,-0.19610901,-0.05079565,0.92500200,-0.26740605,0.31154105
184,1778602425.4191031,0.33654400,-0.19366984,-0.05128348,0.70142550,-0.29184064,0.37751442
185,1778602425.4290972,0.41215820,-0.19123067,-0.00884198,0.48273590,-0.21487169,0.43371400
186,1778602425.4390695,0.46874684,-0.20245083,0.03945352,0.34345870,-0.10002911,0.45326167
187,1778602425.4492188,0.49265070,-0.22440335,0.09165169,0.25427246,0.03558287,0.46670070
188,1778602425.4591982,0.51265186,-0.25269768,0.13067836,0.20173809,0.14187334,0.49480048
189,1778602425.4693387,0.56582570,-0.25757600,0.12628786,0.15775582,0.27992877,0.61819520
190,1778602425.4794035,0.64778167,-0.21220750,0.08774903,0.09422589,0.36422813,0.81489360
191,1778602425.4893641,0.75900770,-0.15317966,0.03847786,-0.01939496,0.36300638,0.99082270
192,1778602425.4993832,0.75900770,-0.15317966,0.03847786,-0.01939496,0.36300638,0.99082270
193,1778602425.5094042,1.09073440,0.01512283,0.00725652,-0.58383400,-0.00351247,1.26326840
194,1778602425.5194106,1.34831040,0.16049717,0.09457869,-0.96990055,-0.30527967,1.27426400
195,1778602425.5292933,1.60198370,0.36977768,0.34678853,-1.57832180,-0.62415110,1.25715970
196,1778602425.5392854,1.60198370,0.36977768,0.34678853,-1.57832180,-0.62415110,1.25715970
197,1778602425.5495143,1.75418770,0.47124702,0.52679900,-1.78112900,-0.54840386,1.26204660
198,1778602425.5590377,1.85419360,0.52393300,0.63704940,-1.83244160,-0.37736170,1.22661650
199,1778602425.5692446,1.97029780,0.61759704,0.82291390,-1.74569880,-0.02672533,1.07145680
200,1778602425.5793252,1.91712400,0.64833050,0.86633104,-1.57710020,0.31169376,0.91629720
201,1778602425.589254,1.76443220,0.69321120,0.91218740,-1.41338840,0.51450086,0.83199780
202,1778602425.599315,1.60100800,0.74687284,0.93316424,-1.22035520,0.61468270,0.79778940
203,1778602425.6096475,1.44246220,0.79077786,0.92438316,-0.98089610,0.63056517,0.81122845
204,1778602425.619236,1.25025600,0.81468170,0.88925916,-0.57772535,0.51816607,0.89186260
205,1778602425.6293144,1.25025600,0.81468170,0.88925916,-0.57772535,0.51816607,0.89186260
206,1778602425.639377,1.03853620,0.80590070,0.79901004,0.04657844,0.17363831,1.03847010
207,1778602425.6492124,0.94145733,0.77565503,0.72632280,0.36544985,0.03436114,1.13132150
208,1778602425.6594448,0.89023490,0.75028770,0.68388140,0.53282680,-0.02794706,1.18141250
209,1778602425.6690238,0.78388720,0.70150435,0.60534020,0.83092880,-0.10735948,1.26082490
210,1778602425.6790378,0.73364040,0.67857620,0.56924057,1.05084010,-0.14767656,1.31824620
211,1778602425.689044,0.71656620,0.65662370,0.54240966,1.24876030,-0.20509785,1.35611980
212,1778602425.6991236,0.72632280,0.65076970,0.52533550,1.38925920,-0.24663666,1.34390250
213,1778602425.7091177,0.72729856,0.64589137,0.48630884,1.51143220,-0.25885394,1.27915080
214,1778602425.719146,0.69022320,0.64491564,0.41069470,1.61894440,-0.20265439,1.16186480
215,1778602425.729152,0.64583033,0.62930500,0.35117903,1.65315280,-0.03772090,1.00792700
216,1778602425.739181,0.58387550,0.60296200,0.32825086,1.64826580,0.11866048,0.91507540
217,1778602425.749467,0.54045830,0.57759470,0.35215470,1.65193100,0.27992877,0.83688474
218,1778602425.7593887,0.51070050,0.55905706,0.38630300,1.69835670,0.41920596,0.76846790
219,1778602425.768978,0.43118370,0.50490750,0.46777120,1.84862960,0.57558733,0.67683816
220,1778602425.7790828,0.43118370,0.50490750,0.46777120,2.01967170,0.66233015,0.62308210
221,1778602425.789594,0.42435405,0.49173600,0.48435750,2.16750100,0.67699087,0.57787806
222,1778602425.799159,0.42435405,0.49173600,0.48435750,2.32021710,0.65744320,0.54000450
223,1778602425.8092225,0.47508870,0.46246600,0.50728570,2.46560290,0.61712617,0.49846566
224,1778602425.8194273,0.55655690,0.44051352,0.53167737,2.67451880,0.53038335,0.37751442
225,1778602425.8294423,0.59168090,0.42343935,0.54338540,2.80524370,0.47662723,0.26511532
226,1778602425.8393948,0.62582920,0.41758534,0.56045955,2.92375160,0.44119710,0.12705988
227,1778602425.8489583,0.66192890,0.42148802,0.59753490,3.01293780,0.48762280,0.02932151
228,1778602425.8593414,0.69558936,0.43026900,0.62095090,3.06180700,0.56092656,-0.00733038
229,1778602425.869314,0.83023137,0.43368387,0.68339354,3.17542800,0.75273810,-0.10140356
230,1778602425.8791127,0.94389653,0.43661085,0.72778636,3.25239680,0.85047650,-0.18081598
231,1778602425.8893626,1.02634040,0.43270817,0.76095900,3.33547450,0.97264946,-0.26022840
232,1778602425.899429,1.05365900,0.44148916,0.77217925,3.35990900,1.04595330,-0.27855435
233,1778602425.9091089,1.15366480,0.47612533,0.80437620,3.33058740,1.07893990,-0.23823726
234,1778602425.9191325,1.32489440,0.48197934,0.85998920,3.24751000,0.94943660,-0.20280711
235,1778602425.9294517,1.46539040,0.46051466,0.91413870,3.15588020,0.66966050,-0.24068072
236,1778602425.9390388,1.60588630,0.42295152,0.94877490,3.03004200,0.24938555,-0.37751442
237,1778602425.949461,1.68881810,0.38099784,0.94584780,2.90298220,0.00259618,-0.53511757
238,1778602425.9589727,1.68198840,0.27806500,0.87559986,2.74049200,-0.08414663,-0.71349007
239,1778602425.9692895,1.68198840,0.27806500,0.87559986,2.46071600,0.11988221,-0.95783600
240,1778602425.9792306,1.41416790,0.15269183,0.80681540,2.21270500,0.45830130,-1.05679610
241,1778602425.9893987,1.41416790,0.15269183,0.80681540,2.02822380,0.75640330,-1.03236150
242,1778602425.9993618,1.29757570,0.11708001,0.77656970,1.86084690,1.04961840,-0.91996235
243,1778602426.0093372,1.19122800,0.09463967,0.75510510,1.58107080,1.40514170,-0.45814860
244,1778602426.0194418,1.07024540,0.08098034,0.77315485,1.58107080,1.40514170,-0.45814860
245,1778602426.0292141,0.99316764,0.04146583,0.83315830,1.63727030,0.96654080,-0.10018183
246,1778602426.0393958,0.99316764,0.04146583,0.83315830,1.63727030,0.96654080,-0.10018183
247,1778602426.04912,0.97072730,0.00682967,0.80144920,1.74356080,0.67332570,-0.04886918
248,1778602426.0597234,0.94096950,-0.01902550,0.75120234,1.84740780,0.44119710,-0.03665189
249,1778602426.0692298,0.74778754,-0.06683317,0.51167620,1.94636790,0.20784675,-0.04276054
250,1778602426.0792687,0.74778754,-0.06683317,0.51167620,1.94636790,0.20784675,-0.04276054
251,1778602426.0893166,0.66339236,-0.06976017,0.43167153,1.89383350,0.22372922,-0.01832594
252,1778602426.0993352,0.56728923,-0.07951684,0.35849655,1.83274710,0.27382013,0.01588248
253,1778602426.1092458,0.51509106,-0.08683433,0.32239684,1.76310850,0.32879797,0.05619956
254,1778602426.1191244,0.51509106,-0.08683433,0.32239684,1.76310850,0.32879797,0.05619956
255,1778602426.1292243,0.34727636,-0.14537434,0.19604802,1.53220150,0.48395762,0.21991132
256,1778602426.1392267,0.34727636,-0.14537434,0.19604802,1.53220150,0.48395762,0.21991132
257,1778602426.149391,0.29946870,-0.16879034,0.13604453,1.46378470,0.49373147,0.24923283
258,1778602426.1594105,0.28044320,-0.16927817,0.11750685,1.37948540,0.46807513,0.27733260
259,1778602426.169222,0.27605268,-0.16488767,0.11604336,1.30618170,0.37644540,0.28466300
260,1778602426.1791558,0.27458918,-0.16732684,0.11214069,1.26464280,0.26526803,0.27000225
261,1778602426.189308,0.26288120,-0.16391200,0.09945703,1.22799090,0.11621703,0.23579380
262,1778602426.1997547,0.25361237,-0.15366750,0.07262619,1.12903080,-0.07925971,0.22724170
263,1778602426.2089572,0.25117320,-0.14781350,0.04335619,1.12903080,-0.07925971,0.22724170
264,1778602426.2192054,0.29995653,-0.14927700,0.01994019,0.97387120,-0.10613775,0.28832817
265,1778602426.2291667,0.35264254,-0.16049717,0.01554969,0.82604190,-0.02306015,0.35674503
266,1778602426.239391,0.40240154,-0.16879034,0.04335619,0.70020380,0.14187334,0.45692685
267,1778602426.2489812,0.47069818,-0.17220518,0.08823685,0.63178690,0.29581127,0.55100006
268,1778602426.2592335,0.58436340,-0.14927700,0.16824152,0.58780460,0.43142325,0.70738140
269,1778602426.269337,0.69363800,-0.07610200,0.23361120,0.58780460,0.42287114,0.82466745
270,1778602426.2789943,0.82828003,0.02048900,0.26678386,0.59391326,0.16630794,1.05801780
271,1778602426.2893178,0.98341100,0.11903133,0.23409903,0.59391326,0.16630794,1.05801780
272,1778602426.2993627,1.21122920,0.16830250,0.13262970,0.47540550,-0.00717766,1.13376500
273,1778602426.3092213,1.34489560,0.16537550,0.06823569,0.23961172,-0.08903354,1.11543900
274,1778602426.31915,1.52051560,0.19415767,-0.05664965,-0.73410670,0.36300638,0.92240584
275,1778602426.3292851,1.46539040,0.24733151,0.00189035,-1.22890720,0.85047650,0.87842360
276,1778602426.33947,1.46539040,0.24733151,0.00189035,-1.22890720,0.85047650,0.87842360
277,1778602426.349419,1.46539040,0.24733151,0.00189035,-1.22890720,0.85047650,0.87842360
278,1778602426.3594341,1.28537990,0.36002100,0.25946635,-1.76646820,1.61039230,0.97982710
279,1778602426.3691118,1.13659070,0.49368733,0.66241670,-1.73470330,1.83641220,1.40132380
280,1778602426.3790202,1.10000320,0.52100600,0.87072150,-1.47080970,1.60672710,1.57603110
281,1778602426.3892243,1.10000320,0.52100600,0.87072150,-1.47080970,1.60672710,1.57603110
282,1778602426.3992999,1.10000320,0.52100600,0.87072150,-1.47080970,1.60672710,1.57603110
283,1778602426.409441,1.15317700,0.52442086,1.01219320,-0.61559900,0.80160730,1.82892920
284,1778602426.419219,1.15805540,0.58588785,0.91121167,0.14798199,0.05635228,1.88635040
285,1778602426.4292414,1.06000090,0.65272105,0.70095557,0.69653857,-0.52396930,1.86191580
286,1778602426.4393926,1.06000090,0.65272105,0.70095557,0.69653857,-0.52396930,1.86191580
287,1778602426.4493244,1.06000090,0.65272105,0.70095557,0.69653857,-0.52396930,1.86191580
288,1778602426.4591837,0.97365440,0.68638150,0.61656040,0.86025035,-0.65958124,1.84114650
289,1778602426.4692335,0.87316070,0.69613820,0.59802270,1.00441440,-0.57528190,1.80815970
290,1778602426.4793084,0.82828003,0.68979630,0.61558470,1.13636120,-0.45921760,1.78005990
291,1778602426.4892476,0.80096140,0.69369900,0.62924400,1.26219940,-0.38102690,1.75196020
292,1778602426.4989953,0.77071570,0.71565150,0.63558584,1.39658960,-0.33826637,1.72019520
293,1778602426.5090876,0.79266820,0.72443250,0.62534136,1.66903530,-0.19410229,1.47584930
294,1778602426.519107,0.88925916,0.73809180,0.60777940,1.76188670,-0.08903354,1.27304220
295,1778602426.5293846,0.87413640,0.74833630,0.61314553,1.89261190,0.06001746,0.98593575
296,1778602426.539006,0.87413640,0.74833630,0.61314553,1.89261190,0.06001746,0.98593575
297,1778602426.5491228,0.87413640,0.74833630,0.61314553,1.89261190,0.06001746,0.98593575
298,1778602426.5592353,0.61948735,0.65223320,0.58387550,2.31410860,0.50594880,0.35063640
299,1778602426.569415,0.54289750,0.61027950,0.55850820,2.31410860,0.50594880,0.35063640
300,1778602426.5792747,0.54289750,0.61027950,0.55850820,2.46682480,0.61712617,0.24190246
301,1778602426.5892951,0.51509106,0.57857037,0.54826367,2.59388450,0.65377800,0.17348559
302,1778602426.5994039,0.51655453,0.55173950,0.54533670,2.67818380,0.62934345,0.12461641
303,1778602426.609192,0.53411650,0.52295730,0.55997170,2.73560520,0.59635675,0.07696896
304,1778602426.6192892,0.60485240,0.48441850,0.59460783,2.86022160,0.53038335,-0.05497783
305,1778602426.6292214,0.65314790,0.47075918,0.65022090,2.97017720,0.49984010,-0.17104214
306,1778602426.6390133,0.68973535,0.45514850,0.69363800,3.05814170,0.50350530,-0.23823726
307,1778602426.6492803,0.68973535,0.45514850,0.69363800,3.05814170,0.50350530,-0.23823726
308,1778602426.6593986,0.82340170,0.41173133,0.80779105,3.21941020,0.61712617,-0.25411975
309,1778602426.6690528,0.97267870,0.38294917,0.91072387,3.37090470,0.73074700,-0.21991132
310,1778602426.6789858,1.07268450,0.37416816,0.95755583,3.44298670,0.73563390,-0.19792019
311,1778602426.6892245,1.23123040,0.34928867,1.00877830,3.50529480,0.65499973,-0.16982041
312,1778602426.6991196,1.37075080,0.30489585,1.02634040,3.51506880,0.50106186,-0.17348559
313,1778602426.709126,1.45856070,0.26879618,1.02194990,3.48941230,0.32268932,-0.21624613
314,1778602426.7191553,1.62003350,0.18586451,1.00341220,3.39045210,0.15286891,-0.32864526
315,1778602426.7292433,1.67857350,0.13756900,0.98438670,3.25117520,0.10155627,-0.43982264
316,1778602426.739268,1.68540320,0.10244500,0.96097070,3.11434130,0.12721258,-0.52534370
317,1778602426.7489595,1.63905910,0.05561300,0.92389536,2.92619500,0.22372922,-0.60719960
318,1778602426.759039,1.55320040,0.00829317,0.90682120,2.74782250,0.35934120,-0.62796897
319,1778602426.7689824,1.48539150,-0.03512400,0.89121056,2.60121500,0.49617493,-0.58765190
320,1778602426.7790766,1.38245870,-0.08585867,0.86340400,2.50958510,0.58413947,-0.53145236
321,1778602426.78937,1.31074730,-0.10195717,0.83657320,2.43628140,0.64522594,-0.46181378
322,1778602426.7992566,1.19513070,-0.11659218,0.79071690,2.37641670,0.68187780,-0.36651886
323,1778602426.80926,1.11171130,-0.12537317,0.74632406,2.35320380,0.67699087,-0.31031930
324,1778602426.81927,0.91218740,-0.15122834,0.57265530,2.25424390,0.54137890,-0.15882485
325,1778602426.8292992,0.91218740,-0.15122834,0.57265530,2.25424390,0.54137890,-0.15882485
326,1778602426.8393948,0.84486634,-0.14878917,0.50631005,2.18827030,0.48762280,-0.13072506
327,1778602426.849338,0.75754420,-0.13512984,0.43069590,2.08198000,0.44486228,-0.11484258
328,1778602426.859355,0.57948500,-0.11268950,0.29459035,1.78998650,0.45952302,-0.09651663
329,1778602426.8690798,0.57948500,-0.11268950,0.29459035,1.78998650,0.45952302,-0.09651663
330,1778602426.8790581,0.45850238,-0.12098267,0.23117203,1.48455420,0.50472700,-0.04764745
331,1778602426.888993,0.45850238,-0.12098267,0.23117203,1.48455420,0.50472700,-0.04764745
332,1778602426.8991232,0.41362170,-0.12195834,0.21263437,1.35871600,0.54015720,-0.01954767
333,1778602426.9090855,0.37069237,-0.11659218,0.20238985,1.24142990,0.57558733,0.01221729
334,1778602426.9193256,0.31898203,-0.11512867,0.20092636,1.09970930,0.60613060,0.06597339
335,1778602426.9293523,0.28678500,-0.13708118,0.20092636,0.96531910,0.54504410,0.15393792
336,1778602426.939282,0.28678500,-0.13708118,0.20092636,0.96531910,0.54504410,0.15393792
337,1778602426.9493418,0.29605386,-0.15659450,0.20678036,0.93111060,0.46807513,0.19058982
338,1778602426.9592416,0.32678735,-0.19464551,0.19799936,0.90545434,0.26160285,0.24923283
339,1778602426.9693916,0.32678735,-0.19464551,0.19799936,0.90545434,0.26160285,0.24923283
340,1778602426.9791083,0.34386152,-0.20781700,0.19116970,0.85780686,0.07467822,0.32864526
341,1778602426.989017,0.36971670,-0.21367101,0.17555903,0.85780686,0.07467822,0.32864526
342,1778602426.9991534,0.38923004,-0.21123183,0.15360652,0.82359844,0.07101303,0.35918850
343,1778602427.009221,0.38923004,-0.21123183,0.15360652,0.82359844,0.07101303,0.35918850
344,1778602427.0189826,0.45703888,-0.19952384,0.10872585,0.57070040,0.19685118,0.50946120
345,1778602427.0295017,0.51753020,-0.19562118,0.12921485,0.44119710,0.28848088,0.59498227
346,1778602427.039381,0.58924170,-0.17854700,0.19019403,0.31047200,0.38988444,0.70738140
347,1778602427.0491793,0.69656503,-0.14683785,0.25507587,0.26282457,0.44974920,0.79901110
348,1778602427.0592356,0.80974240,-0.11220168,0.33703187,0.27992877,0.47174034,0.88208870
349,1778602427.069308,0.98877716,-0.00682967,0.41850004,0.38133234,0.39721483,0.98715746
350,1778602427.079219,0.98877716,-0.00682967,0.41850004,0.38133234,0.39721483,0.98715746
351,1778602427.089318,1.24537750,0.20928052,0.26483253,0.36300638,0.18219042,0.99570960
352,1778602427.0993764,1.30928360,0.26879618,0.16287535,0.18096869,0.17119485,0.96272290
353,1778602427.1090019,1.41807060,0.31465250,0.15799703,-0.54351693,0.52427470,1.00059650
354,1778602427.1189888,1.41807060,0.31465250,0.15799703,-0.54351693,0.52427470,1.00059650
355,1778602427.1290934,1.46880520,0.34587383,0.29215118,-0.80985400,0.76617720,1.08489580
356,1778602427.13943,1.48587930,0.38685185,0.40923122,-0.92591830,0.91767160,1.16430830
357,1778602427.1493075,1.49807520,0.44441620,0.55606910,-0.92225310,0.92011505,1.22295130
358,1778602427.159165,1.51271020,0.47124702,0.64046420,-0.83795375,0.84070265,1.26815530
359,1778602427.1695788,1.49319680,0.52783567,0.75803200,-0.35903576,0.49128800,1.26693360
360,1778602427.17923,1.49319680,0.52783567,0.75803200,-0.10491603,0.34345870,1.22783820
361,1778602427.1892312,1.43124210,0.54295850,0.71168786,-0.10491603,0.34345870,1.22783820
362,1778602427.199334,1.43124210,0.54295850,0.71168786,-0.10491603,0.34345870,1.22783820
363,1778602427.2089853,1.30099060,0.54637337,0.59363220,0.18952079,0.27870706,1.18507770
364,1778602427.2190106,1.15903100,0.53320190,0.49313855,0.31291547,0.33124143,1.17774720
365,1778602427.2290409,1.08244120,0.53076270,0.46240503,0.39232790,0.38499752,1.17896900
366,1778602427.2392187,1.08244120,0.53076270,0.46240503,0.39232790,0.38499752,1.17896900
367,1778602427.2494123,0.91413870,0.51466420,0.43264723,0.55970484,0.40576693,1.17530380
368,1778602427.259348,0.87169720,0.51417637,0.42240270,0.66233015,0.36300638,1.16919520
369,1778602427.2691896,0.81266934,0.53222615,0.41215820,0.84070265,0.22372922,1.14109540
370,1778602427.279409,0.75266590,0.56198400,0.35020337,0.97142774,0.10399973,1.09711310
371,1778602427.2891195,0.75266590,0.56198400,0.35020337,1.12170040,-0.02672533,1.01525720
372,1778602427.299031,0.75266590,0.56198400,0.35020337,1.12170040,-0.02672533,1.01525720
373,1778602427.3090281,0.75266590,0.56198400,0.35020337,1.12170040,-0.02672533,1.01525720
374,1778602427.31927,0.69168670,0.59125400,0.19702369,1.28296880,0.03802633,0.64262974
375,1778602427.3292744,0.63900070,0.60686470,0.17263202,1.25364720,0.19807291,0.49357873
376,1778602427.3392663,0.60241320,0.61223084,0.18434003,1.21943880,0.35201082,0.36529714
377,1778602427.3489819,0.58143634,0.60979170,0.23946518,1.22066060,0.44974920,0.27000225
378,1778602427.3593116,0.57655805,0.60686470,0.30922535,1.27686010,0.50228360,0.17959425
379,1778602427.369322,0.58338770,0.60832816,0.40191370,1.46989330,0.49250972,0.04764745
380,1778602427.3791144,0.61412120,0.60588900,0.45801452,1.65681800,0.43875363,-0.05131264
381,1778602427.3890235,0.66631940,0.60198635,0.48338187,1.91460290,0.33857182,-0.19669846
382,1778602427.3993526,0.70388250,0.59076620,0.46094155,2.09786250,0.30069820,-0.32742350
383,1778602427.4093914,0.74095786,0.57905820,0.44289170,2.22247890,0.30558512,-0.45448340
384,1778602427.4191606,0.79510736,0.56832590,0.42532970,2.28845210,0.39110620,-0.60231270
385,1778602427.4292536,0.80632750,0.56052050,0.44581872,2.26523920,0.54870930,-0.66706437
386,1778602427.4393826,0.83267050,0.56491100,0.50484650,2.23103100,0.69409513,-0.66828610
387,1778602427.4493535,0.92340750,0.58052164,0.63802505,2.22125700,0.80282900,-0.59864750
388,1778602427.45915,1.23659660,0.52978700,0.87462420,2.36542100,0.54504410,-0.39095345
389,1778602427.4690914,1.23659660,0.52978700,0.87462420,2.36542100,0.54504410,-0.39095345
390,1778602427.4792948,1.43709600,0.44148916,0.93950605,2.47659850,0.19440772,-0.34697118
391,1778602427.4893048,1.56198140,0.38002217,0.94389653,2.54135010,-0.09269873,-0.35063640
392,1778602427.499338,1.56198140,0.38002217,0.94389653,2.54135010,-0.09269873,-0.35063640
393,1778602427.5092678,1.68881810,0.29611483,0.84193933,2.41673370,-0.35048366,-0.51312643
394,1778602427.5191379,1.68881810,0.29611483,0.84193933,2.41673370,-0.35048366,-0.51312643
395,1778602427.5291677,1.61271610,0.21123183,0.78242370,2.26768280,-0.21364996,-0.57909983
396,1778602427.5393426,1.61271610,0.21123183,0.78242370,2.12229700,0.02214385,-0.63652110
397,1778602427.5494213,1.51124670,0.14049600,0.74534833,2.02944540,0.26648977,-0.65729050
398,1778602427.5592916,1.43319330,0.10000584,0.71802974,1.89872050,0.81382460,-0.56932600
399,1778602427.5693479,1.22196150,0.03463617,0.63851285,1.89872050,0.81382460,-0.56932600
400,1778602427.579389,0.97414220,-0.01609850,0.51801800,1.85107300,0.90423256,-0.40927940
401,1778602427.589241,0.87364860,-0.03024567,0.45752668,1.81686460,0.83948094,-0.32864526
402,1778602427.5992963,0.87364860,-0.03024567,0.45752668,1.81686460,0.83948094,-0.32864526
403,1778602427.6094444,0.78974120,-0.04341717,0.39605970,1.76555190,0.75151640,-0.25778493
404,1778602427.619214,0.68241787,-0.05463734,0.32532385,1.67147870,0.60368710,-0.19181155
405,1778602427.6292212,0.54192185,-0.05805217,0.24092870,1.53342330,0.47296205,-0.16982041
406,1778602427.6393998,0.54192185,-0.05805217,0.24092870,1.53342330,0.47296205,-0.16982041
407,1778602427.648999,0.46533203,-0.06097917,0.20482900,1.45278920,0.44486228,-0.16737695
408,1778602427.6592076,0.42289050,-0.06732100,0.18043736,1.39170270,0.43997535,-0.15149446
409,1778602427.669285,0.31556720,-0.10878683,0.11604336,1.22676920,0.42531460,-0.05375610
410,1778602427.6792142,0.29849303,-0.12634884,0.10482319,1.16568270,0.39599308,-0.01221729
411,1778602427.6892474,0.29849303,-0.12634884,0.10482319,1.16568270,0.39599308,-0.01221729
412,1778602427.6992726,0.29215118,-0.14537434,0.11311635,1.11192660,0.32268932,0.01954767
413,1778602427.7093909,0.29410252,-0.15708233,0.12384869,1.09726580,0.22495095,0.02076940
414,1778602427.71935,0.28922418,-0.17366867,0.13214186,1.10581790,0.08933897,0.00366519
415,1778602427.729376,0.28922418,-0.17366867,0.13214186,1.10581790,0.08933897,0.00366519
416,1778602427.7393758,0.26532036,-0.16781467,0.09604219,1.12292220,-0.35170540,-0.02687805
417,1778602427.7493773,0.28044320,-0.16342416,0.05652769,1.07893990,-0.47510007,-0.00977384
418,1778602427.759339,0.29800520,-0.16391200,0.03652652,0.99708400,-0.52030410,0.01954767
419,1778602427.7693527,0.44045252,-0.19806033,0.07750452,0.71852970,-0.33460120,0.12217296
420,1778602427.7794046,0.44045252,-0.19806033,0.07750452,0.71852970,-0.33460120,0.12217296
421,1778602427.7890325,0.55021500,-0.19952384,0.14482552,0.63789550,-0.14156792,0.15638138
422,1778602427.7990575,0.63265884,-0.18342534,0.21653701,0.62812173,-0.00229074,0.17104214
423,1778602427.8091078,0.69363800,-0.14927700,0.24239218,0.64156073,0.08811724,0.18325943
424,1778602427.8191645,0.87120930,0.02536733,0.22775720,0.69287336,0.20540328,0.30787584
425,1778602427.829024,0.87657547,0.13366634,0.12433653,0.69287336,0.20540328,0.30787584
426,1778602427.8395514,0.92487110,0.18635234,-0.00298798,0.61590440,0.17119485,0.48380490
427,1778602427.8493533,0.92487110,0.18635234,-0.00298798,0.34223700,0.10033454,0.72448564
428,1778602427.8596945,0.98828936,0.18732800,-0.03616065,0.08933897,0.07834341,0.88208870
429,1778602427.8692837,1.15951880,0.18732800,0.03213602,-0.47265664,0.13576470,1.19851670
430,1778602427.8793485,1.31123510,0.22342768,0.20970736,-0.80985400,0.35445428,1.44164090
431,1778602427.888948,1.31123510,0.22342768,0.20970736,-0.80985400,0.35445428,1.44164090
432,1778602427.8990579,1.55027340,0.35806966,0.54777586,-1.05542160,0.61590440,1.69942580
433,1778602427.9092941,1.66735340,0.42441500,0.81998680,-0.73655020,0.70142550,1.65177830
434,1778602427.9193242,1.66735340,0.42441500,0.81998680,-0.73655020,0.70142550,1.65177830
435,1778602427.9295692,1.66735340,0.42441500,0.81998680,-0.73655020,0.70142550,1.65177830
436,1778602427.9390836,1.44295000,0.50539535,0.86194050,-0.15012002,0.52060950,1.52838370
437,1778602427.9491365,1.44295000,0.50539535,0.86194050,-0.15012002,0.52060950,1.52838370
438,1778602427.9589489,1.17317820,0.62930500,0.77071570,0.29947644,0.15042545,1.70553450
439,1778602427.9691334,1.14098120,0.65467240,0.72583500,0.58169600,-0.07315106,1.88024180
440,1778602427.979229,1.13366380,0.66686815,0.70193120,0.76495540,-0.19776747,1.94255000
441,1778602427.9892309,1.14098120,0.68150320,0.64583033,0.97875810,-0.31016660,1.94499350
442,1778602427.9998364,1.17366600,0.69711380,0.59265655,1.15224370,-0.34559676,1.85825060
443,1778602428.009172,1.13854200,0.72492033,0.45362400,1.33428140,-0.25396705,1.48806660
444,1778602428.019338,1.13854200,0.72492033,0.45362400,1.33428140,-0.25396705,1.48806660
445,1778602428.029426,1.04439020,0.72052985,0.37800986,1.35993770,-0.12568542,1.23639040
446,1778602428.0389538,0.94536000,0.71760285,0.31751853,1.33794650,0.02092212,1.06168290
447,1778602428.0492826,0.81364506,0.71711504,0.25995418,1.26708630,0.25915940,0.90652335
448,1778602428.0593245,0.74095786,0.71760285,0.24775836,1.19256080,0.44730574,0.82833266
449,1778602428.0692737,0.67266124,0.70345570,0.28678500,1.11070490,0.64400417,0.76358100
450,1778602428.0792923,0.63314670,0.67906404,0.44777006,1.18278700,0.83215050,0.60842130
451,1778602428.0893018,0.63314670,0.67906404,0.44777006,1.18278700,0.83215050,0.60842130
452,1778602428.0993783,0.65851400,0.64930620,0.55509335,1.37582020,0.81993324,0.48869184
453,1778602428.1089482,0.66534370,0.62979280,0.59607136,1.60428360,0.77595097,0.36285368
454,1778602428.1193151,0.64875740,0.60735250,0.63900070,2.00378920,0.65744320,0.16859868
455,1778602428.1294308,0.64875740,0.60735250,0.63900070,2.00378920,0.65744320,0.16859868
456,1778602428.1396413,0.62778056,0.59710800,0.62582920,2.52913280,0.43997535,-0.05253437
457,1778602428.1492486,0.63509804,0.56052050,0.54143405,2.67818380,0.40698865,-0.12339468
458,1778602428.159428,0.73900650,0.50734670,0.60436450,2.89565180,0.45707956,-0.23701553
459,1778602428.1693099,0.82535310,0.48197934,0.68436920,2.89565180,0.45707956,-0.23701553
460,1778602428.1792374,0.82535310,0.48197934,0.68436920,2.99827700,0.53771370,-0.27000225
461,1778602428.1892767,0.96633685,0.44685537,0.76681304,3.33180930,0.68920820,-0.48380490
462,1778602428.199352,1.03170650,0.42392716,0.79901004,3.33180930,0.68920820,-0.48380490
463,1778602428.2092063,1.06439140,0.40880433,0.80437620,3.44543000,0.72708180,-0.56688250
464,1778602428.219166,1.15268920,0.34733734,0.78535074,3.56515960,0.63423040,-0.60475610
465,1778602428.2291918,1.19952120,0.29806617,0.77169130,3.55782910,0.48395762,-0.56199560
466,1778602428.2394104,1.19952120,0.29806617,0.77169130,3.55782910,0.48395762,-0.56199560
467,1778602428.2494638,1.19952120,0.29806617,0.77169130,3.55782910,0.48395762,-0.56199560
468,1778602428.2594142,1.34782250,0.21269535,0.75705640,3.19864060,-0.28695372,-0.34941465
469,1778602428.269149,1.34782250,0.21269535,0.75705640,3.19864060,-0.28695372,-0.34941465
470,1778602428.279309,1.39855720,0.24001400,0.77656970,2.99339000,-0.43233955,-0.32986698
471,1778602428.2893171,1.45904850,0.18927933,0.80583970,2.59754970,-0.42623090,-0.31520623
472,1778602428.2994366,1.45904850,0.18927933,0.80583970,2.59754970,-0.42623090,-0.31520623
473,1778602428.30939,1.45758510,0.12927583,0.79608303,2.42528580,-0.30405796,-0.30787584
474,1778602428.3190558,1.41172870,0.03902667,0.75120234,2.20537450,0.03558287,-0.29321510
475,1778602428.3290715,1.33709030,0.00048783,0.70290690,2.07464960,0.31658068,-0.27366742
476,1778602428.3391001,1.23757220,-0.01561067,0.65363574,1.91826810,0.61590440,-0.23945900
477,1778602428.3491993,1.08634390,-0.00195133,0.59216870,1.79853870,0.75884676,-0.21013749
478,1778602428.3590324,0.99414340,0.01365933,0.55850820,1.69469170,0.82482016,-0.18448116
479,1778602428.3690166,0.81315720,0.02195250,0.49557772,1.46989330,0.79549867,-0.13194679
480,1778602428.3793836,0.72095670,0.00536617,0.45606318,1.46989330,0.79549867,-0.13194679
481,1778602428.3893201,0.63021970,-0.01365933,0.41215820,1.39903310,0.76373370,-0.12583815
482,1778602428.3993766,0.57753370,-0.02195250,0.38825434,1.34649870,0.74418604,-0.11239912
483,1778602428.4092975,0.51362750,-0.03024567,0.35800868,1.29029920,0.72586006,-0.08552107
484,1778602428.4193065,0.42679320,-0.04536850,0.32386038,1.23287790,0.70264720,-0.03420843
485,1778602428.4293337,0.32044550,-0.07024800,0.29946870,1.15713060,0.61834790,0.08307761
486,1778602428.4396005,0.32044550,-0.07024800,0.29946870,1.15713060,0.61834790,0.08307761
487,1778602428.4494555,0.32044550,-0.07024800,0.29946870,1.15713060,0.61834790,0.08307761
488,1778602428.4589424,0.32044550,-0.07024800,0.29946870,1.15713060,0.61834790,0.08307761
489,1778602428.4690704,0.26239336,-0.12439750,0.28337020,1.19744770,0.40821040,0.27611090
490,1778602428.4792976,0.28727287,-0.14586218,0.27458918,1.22799090,0.36911505,0.30665413
491,1778602428.4892514,0.28727287,-0.14586218,0.27458918,1.30129470,0.28725916,0.36529714
492,1778602428.4993732,0.30532268,-0.13805683,0.25312454,1.34649870,0.24083345,0.39584038
493,1778602428.5093863,0.35752088,-0.13561767,0.21019518,1.36115940,0.13942988,0.46059203
494,1778602428.5190613,0.35752088,-0.13561767,0.21019518,1.36115940,0.13942988,0.46059203
495,1778602428.5290768,0.40532854,-0.14683785,0.19946286,1.31962060,0.13209951,0.49602220
496,1778602428.539098,0.47362520,-0.16683900,0.19751152,1.26342100,0.22006404,0.54244790
497,1778602428.5493882,0.53850704,-0.17610784,0.20287769,1.21455190,0.37766716,0.59986920
498,1778602428.5593467,0.81120586,-0.10829899,0.32532385,1.21333010,0.84436786,0.74158984
499,1778602428.5689504,0.81120586,-0.10829899,0.32532385,1.21333010,0.84436786,0.74158984
500,1778602428.5791638,0.79852223,-0.00585400,0.26239336,1.25486900,1.12658740,0.81855880
501,1778602428.5891182,0.77900887,0.09951800,0.15897270,1.19622600,1.34405520,0.95172733
502,1778602428.599151,0.81169370,0.21708584,0.01262269,0.89323700,1.50043670,1.21806440
503,1778602428.6095827,1.23659660,0.27074748,0.12043386,0.49128800,1.56030130,1.43919740
504,1778602428.6191204,1.23659660,0.27074748,0.12043386,-0.01817323,1.58962290,1.60535260
505,1778602428.6291378,1.48344030,0.34684950,0.40191370,-0.31994042,1.49310620,1.60779610
506,1778602428.6394176,1.58490960,0.43563515,0.63704940,-0.34804020,1.21455190,1.49906220
507,1778602428.649435,1.62881450,0.50539535,0.79705870,-0.20754130,0.93111060,1.37566750
508,1778602428.6594193,1.60588630,0.54247070,0.77998453,0.29947644,0.66477360,1.13743020
509,1778602428.6693609,1.60588630,0.54247070,0.77998453,0.29947644,0.66477360,1.13743020
510,1778602428.67938,1.51368600,0.55808130,0.65753840,0.40943210,0.78328140,1.10444360
511,1778602428.6894124,1.41758280,0.57466770,0.55411774,0.44364056,1.04595330,1.11177380
512,1778602428.6994944,1.32245530,0.58393650,0.49362640,0.42287114,1.25120380,1.15209100
513,1778602428.7092223,1.32245530,0.58393650,0.49362640,0.42287114,1.25120380,1.15209100
514,1778602428.7194276,1.14634740,0.58930270,0.52923816,0.40943210,1.34894220,1.27670740
515,1778602428.7293925,1.03512130,0.56686234,0.62095090,0.52549640,1.19011740,1.31091580
516,1778602428.7391567,1.03512130,0.56686234,0.62095090,0.72952527,0.94210620,1.31580270
517,1778602428.7493865,1.01170540,0.55710570,0.63802505,0.99219710,0.66843880,1.28892470
518,1778602428.759323,0.99950960,0.55222730,0.62924400,1.16568270,0.50106186,1.24494240
519,1778602428.7691967,0.93267630,0.55613000,0.55362990,1.49799310,0.21884231,1.10322180
520,1778602428.7792528,0.86242837,0.55759350,0.47655220,1.66170490,0.08445205,1.00426170
521,1778602428.7893379,0.78730210,0.55759350,0.38093686,1.79853870,-0.00595593,0.88331050
522,1778602428.7993526,0.73851870,0.55125170,0.32629952,1.82663850,0.00503963,0.83077610
523,1778602428.80936,0.65363574,0.54149497,0.25410020,1.82052980,0.20662501,0.64751667
524,1778602428.8193805,0.65363574,0.54149497,0.25410020,1.82052980,0.20662501,0.64751667
525,1778602428.828988,0.62924400,0.53661670,0.25068536,1.79976030,0.36178467,0.54855657
526,1778602428.8390024,0.61412120,0.52929920,0.26775953,1.78387780,0.47540550,0.46914417
527,1778602428.8491647,0.62339000,0.52051820,0.32581168,1.79731690,0.58291770,0.36407542
528,1778602428.859206,0.63119537,0.51710330,0.35654520,1.86084690,0.60857403,0.25778493
529,1778602428.8691564,0.63119537,0.51710330,0.35654520,1.86084690,0.60857403,0.25778493
530,1778602428.8789983,0.61265770,0.47319835,0.47264950,2.19926600,0.50106186,-0.05131264
531,1778602428.8893516,0.61265770,0.47319835,0.47264950,2.34098650,0.49373147,-0.14049890
532,1778602428.8993673,0.61119420,0.46490517,0.46679550,2.48026370,0.53404856,-0.21258095
533,1778602428.9093828,0.62778056,0.44929450,0.47313735,2.56211950,0.59269154,-0.24801110
534,1778602428.91896,0.73949430,0.40051118,0.58241206,2.64764070,0.68676470,-0.27977607
535,1778602428.929213,0.73949430,0.40051118,0.58241206,2.73927040,0.78572480,-0.32375833
536,1778602428.9389431,0.80242490,0.39270583,0.65461135,2.86999540,0.87124590,-0.38362310
537,1778602428.9491866,0.84828120,0.38587618,0.72632280,2.99461200,0.89201530,-0.42271844
538,1778602428.959248,0.90340640,0.38148567,0.78096020,3.12411520,0.85902860,-0.44348782
539,1778602428.9695234,0.99414340,0.37563166,0.83120704,3.30493120,0.75151640,-0.43127054
540,1778602428.979228,1.08829520,0.38197350,0.84486634,3.40389130,0.61468270,-0.38117963
541,1778602428.989046,1.19074020,0.36441150,0.83462190,3.42710420,0.49250972,-0.33597562
542,1778602428.9992354,1.34099290,0.30294450,0.77266705,3.23529270,0.28848088,-0.28099780
543,1778602429.008979,1.34099290,0.30294450,0.77266705,3.23529270,0.28848088,-0.28099780
544,1778602429.0190396,1.40489910,0.28440684,0.72924990,2.98850320,0.25427246,-0.25656322
545,1778602429.0291936,1.42050970,0.29026082,0.72144455,2.74171380,0.26893320,-0.23823726
546,1778602429.039072,1.43221770,0.27660152,0.74242140,2.36053420,0.37155850,-0.20769402
547,1778602429.0492108,1.42831500,0.23903833,0.77461840,2.12474040,0.47907070,-0.17715079
548,1778602429.0594041,1.34489560,0.12781233,0.81266934,1.71057420,0.73074700,-0.10018183
549,1778602429.0692308,1.34489560,0.12781233,0.81266934,1.71057420,0.73074700,-0.10018183
550,1778602429.0790017,1.27123270,0.07073583,0.81510854,1.56518830,0.86758070,-0.02565632
551,1778602429.089087,1.17269040,0.02244033,0.78876555,1.46500650,0.97387120,0.05375610
552,1778602429.099234,1.10878420,0.00097567,0.76242250,1.41491560,1.03495760,0.11117739
553,1778602429.1093416,0.98731370,-0.02536733,0.69900423,1.36848990,1.07649650,0.17837252
554,1778602429.1191845,0.86584324,-0.04341717,0.62290220,1.32084240,1.06427920,0.24312419
555,1778602429.1290414,0.75705640,-0.06439400,0.54680020,1.28174700,1.02640560,0.29688028
556,1778602429.139353,0.58582690,-0.08585867,0.41703650,1.21943880,0.97509290,0.35918850
557,1778602429.1491528,0.58582690,-0.08585867,0.41703650,1.14857850,0.92378026,0.41050112
558,1778602429.1589987,0.45752668,-0.09024917,0.33166570,1.03617940,0.81993324,0.47280934
559,1778602429.1690907,0.45752668,-0.09024917,0.33166570,1.03617940,0.81993324,0.47280934
560,1778602429.179215,0.36678970,-0.08976133,0.29215118,0.96531910,0.73319050,0.51434815
561,1778602429.1892283,0.33654400,-0.09610317,0.28727287,0.94821480,0.66110843,0.54977830
562,1778602429.1992874,0.31898203,-0.11220168,0.28776067,0.96776253,0.54870930,0.58643020
563,1778602429.2093372,0.29410252,-0.13512984,0.24824621,1.09604420,0.32268932,0.60719960
564,1778602429.2193477,0.29410252,-0.13512984,0.24824621,1.09604420,0.32268932,0.60719960
565,1778602429.2292554,0.25214887,-0.14147167,0.16482669,1.22188220,0.09056070,0.58520850
566,1778602429.239391,0.25214887,-0.14147167,0.16482669,1.22188220,0.09056070,0.58520850
567,1778602429.2492597,0.24190436,-0.14293517,0.11311635,1.24876030,-0.03283398,0.57421290
568,1778602429.2593129,0.24385570,-0.13122717,0.06726002,1.23654300,-0.10247257,0.56932600
569,1778602429.268975,0.30337137,-0.09415183,-0.03323365,1.01174470,-0.11224640,0.56810427
570,1778602429.2791495,0.30337137,-0.09415183,-0.03323365,1.01174470,-0.11224640,0.56810427
571,1778602429.2891533,0.38483953,-0.09415183,-0.03664848,0.82604190,0.02092212,0.57176940
572,1778602429.2993517,0.46874684,-0.08878566,0.01067136,0.67943436,0.13209951,0.56688250
573,1778602429.3093722,0.53558004,-0.06293050,0.09311519,0.56825700,0.16752967,0.55588690
574,1778602429.3193822,0.73949430,0.02878217,0.27361350,0.55237450,-0.00106901,0.68661200
575,1778602429.3293815,0.73949430,0.02878217,0.27361350,0.55237450,-0.00106901,0.68661200
576,1778602429.3392005,0.94145733,0.07805333,0.29410252,0.57436560,-0.18555018,0.78190690
577,1778602429.3489704,1.13463940,0.13220283,0.24336785,0.48517936,-0.32727080,0.80145460
578,1778602429.3591173,1.37709250,0.18586451,0.13360536,0.27382013,-0.33948810,0.73425950
579,1778602429.3692305,1.52539380,0.21220750,0.03555085,-0.13912445,-0.16111559,0.54977830
580,1778602429.3792887,1.56149350,0.21806150,0.00042685,-0.63881180,0.18707734,0.34941465
581,1778602429.3892016,1.54246800,0.22050068,0.01554969,-1.17026420,0.59146980,0.24068072
582,1778602429.3990948,1.49173340,0.23708700,0.11067719,-1.57221320,0.86635900,0.24190246
583,1778602429.4093876,1.45465800,0.26489350,0.25653934,-1.88741950,1.03617940,0.31154105
584,1778602429.419342,1.46929300,0.32782400,0.67070990,-2.07556580,1.09360060,0.40194902
585,1778602429.429636,1.48295250,0.35904533,0.83120704,-1.94850590,0.88468490,0.56932600
586,1778602429.4391441,1.48295250,0.35904533,0.83120704,-1.94850590,0.88468490,0.56932600
587,1778602429.449061,1.48880640,0.39904767,0.97365440,-1.62596930,0.59635675,0.59986920
588,1778602429.4589562,1.47173230,0.42685416,1.03365790,-1.28510680,0.33001968,0.60719960
589,1778602429.4691439,1.40977740,0.46051466,1.03317010,-0.82940170,-0.00595593,0.61330825
590,1778602429.4791958,1.31269850,0.49173600,0.94828700,-0.41645706,-0.27717990,0.64262974
591,1778602429.4891112,1.14098120,0.52734786,0.68729620,0.05024363,-0.45433068,0.73792464
592,1778602429.4991784,1.14098120,0.52734786,0.68729620,0.05024363,-0.45433068,0.73792464
593,1778602429.5093546,1.06926970,0.54247070,0.57167970,0.12599087,-0.39935285,0.78068520
594,1778602429.5190854,0.95609240,0.55710570,0.43850118,0.13332124,-0.20631959,0.83321960
595,1778602429.5294142,0.88779570,0.56052050,0.38483953,0.09789108,-0.05238165,0.85521066
596,1778602429.539183,0.81852335,0.55954486,0.36532620,0.03802633,0.15042545,0.86742800
597,1778602429.5494218,0.75900770,0.56393534,0.37703420,0.02214385,0.23716825,0.86620620
598,1778602429.5592012,0.73656740,0.56930150,0.39166918,0.03680460,0.28725916,0.85154550
599,1778602429.5692086,0.72437150,0.57564336,0.41898784,0.09666935,0.29092434,0.81000670
600,1778602429.5794945,0.69656503,0.58491220,0.46679550,0.21762058,0.22372922,0.71593350
601,1778602429.5889697,0.66485590,0.59564450,0.45752668,0.36911505,0.14553854,0.59253883
602,1778602429.5992293,0.64387900,0.60735250,0.44045252,0.51450086,0.13209951,0.46425724
603,1778602429.609279,0.61997520,0.62101185,0.41996354,0.60490880,0.16630794,0.36529714
604,1778602429.6194139,0.56728923,0.63564680,0.39118138,0.70142550,0.27870706,0.22846343
605,1778602429.629404,0.52728680,0.63808600,0.39264485,0.75762504,0.38011062,0.15027274
606,1778602429.6389704,0.50679785,0.63418335,0.41459736,0.82848537,0.48762280,0.06597339
607,1778602429.649007,0.49021152,0.62491450,0.46874684,0.98486674,0.60613060,0.00366519
608,1778602429.6594255,0.49021152,0.62491450,0.46874684,0.98486674,0.60613060,0.00366519
609,1778602429.6694052,0.50679785,0.60491335,0.57850940,1.32084240,0.61834790,-0.07696896
610,1778602429.6789603,0.55021500,0.57613117,0.62631700,1.59328810,0.54870930,-0.14782928
611,1778602429.6889763,0.60973066,0.53954360,0.64680606,1.89383350,0.45952302,-0.24923283
612,1778602429.6994705,0.70046770,0.49466303,0.62143870,2.16994450,0.40088000,-0.34452772
613,1778602429.7090344,0.80193704,0.49417520,0.63265884,2.49003740,0.41554075,-0.46059203
614,1778602429.719049,0.80193704,0.49417520,0.63265884,2.49003740,0.41554075,-0.46059203
615,1778602429.729339,0.86681885,0.50539535,0.65802620,2.58288900,0.45219266,-0.50335260
616,1778602429.7393663,1.06439140,0.46197820,0.74339700,2.67451880,0.59146980,-0.58520850
617,1778602429.749103,1.06439140,0.46197820,0.74339700,2.67451880,0.59146980,-0.58520850
618,1778602429.7594721,1.12878540,0.42587852,0.78778990,2.71117070,0.65988666,-0.63041246
619,1778602429.7693615,1.15366480,0.39319370,0.82145040,2.74782250,0.70386890,-0.63896453
620,1778602429.7791839,1.18683760,0.31123766,0.81315720,2.75270940,0.70142550,-0.55833040
621,1778602429.7892966,1.23366950,0.25367334,0.76095900,2.57311500,0.56703526,-0.34086254
622,1778602429.79929,1.23366950,0.25367334,0.76095900,2.57311500,0.56703526,-0.34086254
623,1778602429.8092713,1.25074370,0.25464900,0.75071454,2.44605540,0.46074477,-0.25656322
624,1778602429.8193777,1.25806130,0.25318550,0.74437270,2.26768280,0.30191990,-0.16371176
625,1778602429.8296604,1.27415970,0.21708584,0.75315370,2.08075800,0.16264275,-0.08796453
626,1778602429.8393135,1.27513540,0.17269300,0.75608070,1.91215940,0.11255184,-0.02932151
627,1778602429.8489668,1.24098710,0.11366516,0.74437270,1.75944330,0.16386448,0.01710421
628,1778602429.8589714,1.10975980,0.02341600,0.68290570,1.68369600,0.25182900,0.05131264
629,1778602429.8690088,1.10975980,0.02341600,0.68290570,1.52487120,0.67088220,0.14660755
630,1778602429.8790128,1.03268230,0.00243917,0.65412354,1.52487120,0.67088220,0.14660755
631,1778602429.889069,0.80730320,-0.00243917,0.54338540,1.49677150,0.88224150,0.17959425
632,1778602429.8989427,0.80730320,-0.00243917,0.54338540,1.49677150,0.88224150,0.17959425
633,1778602429.9089956,0.69802850,-0.00243917,0.48143053,1.49432800,0.90667605,0.20280711
634,1778602429.9191144,0.54680020,0.00048783,0.37459502,1.46622810,0.87368935,0.27366742
635,1778602429.9297507,0.39459620,-0.00536617,0.24824621,1.34527700,0.72830355,0.45448340
636,1778602429.9392698,0.39459620,-0.00536617,0.24824621,1.34527700,0.72830355,0.45448340
637,1778602429.949395,0.36825320,-0.02000117,0.21507353,1.25731240,0.59880020,0.55222180
638,1778602429.9594598,0.36044785,-0.02634300,0.19946286,1.19866940,0.49984010,0.60597783
639,1778602429.969187,0.35556954,-0.02585517,0.18531570,1.15346540,0.40943210,0.63652110
640,1778602429.979251,0.35215470,-0.02683084,0.17555903,1.10337450,0.25671592,0.63407767
641,1778602429.989216,0.36239920,-0.04439283,0.16238752,1.06061400,0.02580904,0.58276500
642,1778602429.9992795,0.36239920,-0.04439283,0.16238752,1.06061400,0.02580904,0.58276500
643,1778602430.0093248,0.36386270,-0.05463734,0.14677685,1.04839670,-0.03772090,0.54977830
644,1778602430.01904,0.35020337,-0.06439400,0.12043386,0.97875810,-0.12324197,0.51312643
645,1778602430.0291522,0.33751968,-0.06976017,0.05994253,0.97875810,-0.12324197,0.51312643
646,1778602430.039156,0.34142238,-0.07317501,0.04286835,0.80405074,-0.26007570,0.55466520
647,1778602430.0489864,0.34142238,-0.07317501,0.04286835,0.80405074,-0.26007570,0.55466520
648,1778602430.0592854,0.36532620,-0.07854117,0.04042919,0.65255630,-0.35292712,0.61208653
649,1778602430.0691922,0.55753250,-0.06536967,0.18238870,0.48517936,-0.42256570,0.68050337
650,1778602430.0791066,0.69119890,-0.04292934,0.30824968,0.35445428,-0.42378744,0.78679380
651,1778602430.08928,0.69119890,-0.04292934,0.30824968,0.35445428,-0.42378744,0.78679380
652,1778602430.0992448,0.82779217,-0.01804983,0.40679200,0.42042768,-0.32849252,0.78557210
653,1778602430.1093912,0.92243190,0.07073583,0.41703650,0.61712617,-0.00106901,0.70249450
654,1778602430.1191835,0.92243190,0.07073583,0.41703650,0.61712617,-0.00106901,0.70249450
655,1778602430.129223,0.90584550,0.13366634,0.33751968,0.68676470,0.25549420,0.69760760
656,1778602430.1393116,0.90877250,0.16196068,0.28141886,0.68065610,0.44486228,0.75502884
657,1778602430.1489527,0.94487220,0.21220750,0.21263437,0.57803080,0.56337005,0.90163640
658,1778602430.159013,1.02731600,0.24196534,0.19458452,0.44119710,0.57192210,1.05313090
659,1778602430.1690474,1.21708320,0.28001633,0.21604920,0.23716825,0.52427470,1.21806440
660,1778602430.1793382,1.34001720,0.35806966,0.27897970,0.00870482,0.37888888,1.29625510
661,1778602430.189312,1.43612040,0.45905116,0.37508285,-0.22708899,0.11866048,1.28648130
662,1778602430.199331,1.50539280,0.53710450,0.48582100,-0.38224864,-0.08903354,1.23761200
663,1778602430.2092245,1.52929650,0.63271990,0.71315134,-0.47754353,-0.21975860,1.18874290
664,1778602430.219068,1.52929650,0.63271990,0.71315134,-0.53007793,-0.20509785,1.17286040
665,1778602430.229096,1.54149230,0.63174415,0.79315600,-0.50197816,-0.07315106,1.18019080
666,1778602430.2396016,1.45709730,0.62149966,0.93316424,-0.11835505,0.32757625,1.19851670
667,1778602430.2491665,1.45709730,0.62149966,0.93316424,-0.11835505,0.32757625,1.19851670
668,1778602430.2593427,1.30147840,0.59466887,0.91413870,0.43753190,0.37888888,1.30847240
669,1778602430.2691216,1.30147840,0.59466887,0.91413870,0.43753190,0.37888888,1.30847240
670,1778602430.2791777,1.30147840,0.59466887,0.91413870,0.43753190,0.37888888,1.30847240
671,1778602430.289256,1.18488620,0.57369200,0.79364390,1.09237900,0.04291325,1.31335930
672,1778602430.299275,1.18488620,0.57369200,0.79364390,1.45034580,-0.23197590,1.26082490
673,1778602430.309401,1.02829170,0.52393300,0.55167854,1.91704640,-0.59360784,1.10688700
674,1778602430.3191276,1.02829170,0.52393300,0.55167854,1.91704640,-0.59360784,1.10688700
675,1778602430.3290567,0.94828700,0.49710217,0.43020800,2.07709300,-0.57161670,0.94439700
676,1778602430.3391852,0.88438080,0.47661316,0.35703300,2.07709300,-0.57161670,0.94439700
677,1778602430.3494968,0.81559634,0.46734434,0.30190787,2.07342770,-0.44211337,0.86742800
678,1778602430.3594024,0.73998220,0.45953903,0.26678386,2.04777150,-0.30650140,0.81978050
679,1778602430.3690834,0.71607840,0.45563635,0.25897855,2.01722810,-0.15622866,0.77824175
680,1778602430.3791814,0.67119770,0.44295270,0.27556485,1.99279370,0.06490438,0.70860314
681,1778602430.3891501,0.68680835,0.44539183,0.36678970,2.08442330,0.26160285,0.50579600
682,1778602430.3990629,0.68680835,0.44539183,0.36678970,2.08442330,0.26160285,0.50579600
683,1778602430.409285,0.69900423,0.42392716,0.39020570,2.33487800,0.31047200,0.18936808
684,1778602430.4189987,0.69900423,0.42392716,0.39020570,2.33487800,0.31047200,0.18936808
685,1778602430.4293158,0.64631820,0.41904885,0.36630186,2.46071600,0.28725916,0.03665189
686,1778602430.4392931,0.66095316,0.40099900,0.33898320,2.58655430,0.30314165,-0.13194679
687,1778602430.4491255,0.66095316,0.40099900,0.33898320,2.58655430,0.30314165,-0.13194679
688,1778602430.4591382,0.69217455,0.39514500,0.34581286,2.60365840,0.35811950,-0.20280711
689,1778602430.469164,0.74534833,0.39416936,0.35410600,2.60976700,0.50228360,-0.32498005
690,1778602430.4789736,0.75949556,0.39270583,0.35654520,2.58777600,0.62689996,-0.40317076
691,1778602430.4892514,0.91462654,0.37368035,0.48386967,2.53890680,0.98364500,-0.66950780
692,1778602430.499217,0.91462654,0.37368035,0.48386967,2.53890680,0.98364500,-0.66950780
693,1778602430.5093038,0.91462654,0.37368035,0.48386967,2.53890680,0.98364500,-0.66950780
694,1778602430.5193026,0.91950480,0.40148684,0.59704703,2.55478930,1.18278700,-0.83321960
695,1778602430.5293179,1.01512010,0.41904885,0.67168550,2.55234580,1.20966500,-0.85521066
696,1778602430.5392349,1.11268690,0.44831884,0.77608186,2.56945000,1.17179130,-0.90041470
697,1778602430.548945,1.11268690,0.44831884,0.77608186,2.56945000,1.17179130,-0.90041470
698,1778602430.5591161,1.14488390,0.42880550,0.79705870,2.56211950,1.10093100,-0.86987144
699,1778602430.5691185,1.17317820,0.39709634,0.80242490,2.51569400,1.00319270,-0.79045904
700,1778602430.579142,1.24488970,0.31367683,0.81754774,2.37397310,0.81871150,-0.64140800
701,1778602430.58918,1.29123390,0.28001633,0.89560103,2.25913070,0.68920820,-0.54244790
702,1778602430.5993106,1.29123390,0.28001633,0.89560103,2.12962720,0.52305300,-0.41905323
703,1778602430.609359,1.29123390,0.28001633,0.89560103,2.12962720,0.52305300,-0.41905323
704,1778602430.619216,1.29220960,0.13025150,0.92096840,1.93292890,0.26648977,-0.19792019
705,1778602430.6292758,1.29220960,0.13025150,0.92096840,1.93292890,0.26648977,-0.19792019
706,1778602430.6395524,1.23854790,0.07707766,0.85901350,1.89383350,0.31169376,-0.15149446
707,1778602430.649185,1.17512950,0.04488067,0.78778990,1.84252080,0.44486228,-0.10995566
708,1778602430.6594481,1.08390460,0.02390383,0.69949204,1.78754300,0.56581350,-0.07819069
709,1778602430.6691117,0.98048400,0.01804983,0.62192655,1.70690900,0.69287336,-0.05253437
710,1778602430.679142,0.88925916,0.01902550,0.56289870,1.63116170,0.77839446,-0.03909535
711,1778602430.6891556,0.77169130,0.02000117,0.48923588,1.57496210,0.81260290,-0.03176497
712,1778602430.6993163,0.66046536,0.01658633,0.41508517,1.48944100,0.81504630,-0.02199113
713,1778602430.7093391,0.59704703,0.01122017,0.37849770,1.44790220,0.80649424,-0.00855211
714,1778602430.7193677,0.50191957,-0.00048783,0.32629952,1.32328580,0.72952527,0.07819069
715,1778602430.7293973,0.41069470,-0.02244033,0.27556485,1.32328580,0.72952527,0.07819069
716,1778602430.7390475,0.32142118,-0.04975900,0.23653820,1.25853420,0.55848310,0.17837252
717,1778602430.749144,0.32142118,-0.04975900,0.23653820,1.25853420,0.55848310,0.17837252
718,1778602430.7592359,0.27702835,-0.06195483,0.21458568,1.25120380,0.47051860,0.22479823
719,1778602430.7693143,0.24824621,-0.07317501,0.19751152,1.25731240,0.37278023,0.26267186
720,1778602430.77933,0.20336552,-0.10195717,0.12970269,1.25853420,0.12110394,0.34452772
721,1778602430.7893636,0.20970736,-0.11171384,0.10384752,1.21699540,0.00870482,0.39706210
722,1778602430.7990046,0.20970736,-0.11171384,0.10384752,1.21699540,0.00870482,0.39706210
723,1778602430.8091345,0.20970736,-0.11171384,0.10384752,1.21699540,0.00870482,0.39706210
724,1778602430.819365,0.30044436,-0.10098150,0.06189385,1.06794440,-0.09636392,0.48380490
725,1778602430.8294556,0.30044436,-0.10098150,0.06189385,0.82237670,-0.02672533,0.58032155
726,1778602430.839002,0.33312920,-0.09171267,0.06140602,0.82237670,-0.02672533,0.58032155
727,1778602430.8492932,0.38191253,-0.08537084,0.09604219,0.68432130,0.02947422,0.63896453
728,1778602430.8593361,0.40386504,-0.07805333,0.11799469,0.59513503,0.05757400,0.70005100
729,1778602430.8693545,0.40386504,-0.07805333,0.11799469,0.59513503,0.05757400,0.70005100
730,1778602430.879361,0.54045830,-0.06488183,0.22970851,0.54260063,0.08078687,0.87964530
731,1778602430.8894022,0.74827540,-0.03658750,0.32434818,0.56825700,0.11499529,0.93217963
732,1778602430.899397,0.83657320,-0.00829317,0.32044550,0.58047426,0.23716825,0.99815303
733,1778602430.9090846,0.93755480,0.02927000,0.29068770,0.54626584,0.39599308,1.05801780
734,1778602430.9191594,0.97121520,0.06293050,0.25897855,0.42653632,0.64400417,1.13009990
735,1778602430.9295402,1.00243660,0.17025384,0.19068186,0.23472479,0.88590664,1.20706880
736,1778602430.9391017,1.02438900,0.22001283,0.19019403,0.10033454,0.99219710,1.26693360
737,1778602430.949086,1.15561620,0.30928633,0.29068770,-0.16722423,0.99830574,1.41598450
738,1778602430.9592056,1.27952590,0.37660733,0.41996354,-0.28939718,0.81626810,1.48684490
739,1778602430.9693391,1.43465690,0.49661437,0.58680254,-0.30039275,0.39965830,1.49661870
740,1778602430.979431,1.50880750,0.55661780,0.64241550,-0.22831070,0.16630794,1.45752330
741,1778602430.9889174,1.56539620,0.58979050,0.66290450,-0.12935062,0.02458731,1.39155000
742,1778602430.998949,1.57515290,0.59564450,0.66192890,-0.03894263,0.08933897,1.34268080
743,1778602431.00937,1.50783180,0.61369437,0.67656386,0.02825249,0.29458955,1.33901560
744,1778602431.0190737,1.50783180,0.61369437,0.67656386,0.12476913,0.61101750,1.39888040
745,1778602431.0292013,1.43465690,0.64345220,0.73315257,0.26526803,0.84070265,1.49661870
746,1778602431.0391505,1.36831150,0.65125750,0.78291154,0.43264500,0.90789780,1.57114420
747,1778602431.0490603,1.31269850,0.64198870,0.81218153,0.71486450,0.83948094,1.63956100
748,1778602431.059159,1.21122920,0.60979170,0.77461840,1.33183790,0.37766716,1.67376950
749,1778602431.069115,1.21122920,0.60979170,0.77461840,1.33183790,0.37766716,1.67376950
750,1778602431.0792878,1.15220140,0.58149740,0.68924755,1.65070940,0.09666935,1.62001340
751,1778602431.089195,1.00194870,0.55856913,0.47313735,1.85595990,-0.05971203,1.54182270
752,1778602431.0993068,1.00194870,0.55856913,0.47313735,2.01722810,-0.14889829,1.42698010
753,1778602431.1094453,0.87413640,0.55271520,0.33361703,2.09664060,-0.08536835,1.25349450
754,1778602431.119171,0.87413640,0.55271520,0.33361703,2.09664060,-0.08536835,1.25349450
755,1778602431.1289668,0.77364266,0.54490983,0.27946752,2.02944540,0.21884231,0.99326610
756,1778602431.1389606,0.77364266,0.54490983,0.27946752,2.02944540,0.21884231,0.99326610
757,1778602431.1490047,0.74144566,0.54003155,0.30142003,2.02455850,0.32268932,0.85643244
758,1778602431.1589413,0.69705290,0.53759235,0.32142118,2.05632350,0.36544985,0.74647677
759,1778602431.168942,0.64680606,0.52978700,0.33751968,2.11374470,0.37644540,0.65362530
760,1778602431.1791594,0.59899837,0.50685880,0.35800868,2.20537450,0.35201082,0.55344350
761,1778602431.1892238,0.58436340,0.47856450,0.37069237,2.31899550,0.31535894,0.45326167
762,1778602431.1991732,0.57850940,0.46685650,0.38630300,2.42895100,0.28970262,0.37018406
763,1778602431.2093399,0.57948500,0.44295270,0.41069470,2.58288900,0.22983788,0.24801110
764,1778602431.2193396,0.58826610,0.40441385,0.40337720,2.85166950,0.11255184,0.00855211
765,1778602431.229405,0.58826610,0.40441385,0.40337720,2.85166950,0.11255184,0.00855211
766,1778602431.2391522,0.60241320,0.38880318,0.38532734,2.94085570,0.15531237,-0.09896009
767,1778602431.2490897,0.67168550,0.36538717,0.40679200,2.98483800,0.28725916,-0.18692462
768,1778602431.2591012,0.78388720,0.34245902,0.50631005,3.06058530,0.54504410,-0.34086254
769,1778602431.269046,0.78388720,0.34245902,0.50631005,3.06058530,0.54504410,-0.34086254
770,1778602431.2791572,0.91706574,0.34587383,0.60777940,3.14854980,0.76129025,-0.46914417
771,1778602431.2894015,1.01951060,0.40051118,0.67656386,3.28171830,1.09726580,-0.65729050
772,1778602431.2989285,1.01951060,0.40051118,0.67656386,3.28171830,1.09726580,-0.65729050
773,1778602431.309422,1.04682930,0.42441500,0.70876086,3.29393550,1.11681350,-0.66217744
774,1778602431.319152,1.10634500,0.43905002,0.73217684,3.24751000,1.02151860,-0.57543460
775,1778602431.3292754,1.27903800,0.39319370,0.78047234,3.24751000,1.02151860,-0.57543460
776,1778602431.3391452,1.43709600,0.31953084,0.84096366,3.03615070,0.61956960,-0.30909760
777,1778602431.3489397,1.52246690,0.28977302,0.88925916,2.88709970,0.32391104,-0.24434592
778,1778602431.358997,1.58734870,0.29270002,0.93804260,2.81013060,0.20051636,-0.23701553
779,1778602431.3691585,1.58734870,0.29270002,0.93804260,2.81013060,0.20051636,-0.23701553
780,1778602431.3797507,1.61661880,0.22342768,1.00585140,2.66230150,0.09422589,-0.34330600
781,1778602431.3894103,1.56344490,0.17122951,0.97170300,2.62687130,0.16264275,-0.35307986
782,1778602431.3990705,1.49856300,0.12293400,0.91999270,2.58044550,0.28970262,-0.32620180
783,1778602431.4094718,1.40245990,0.06878450,0.83706100,2.50347660,0.49373147,-0.25411975
784,1778602431.4193525,1.40245990,0.06878450,0.83706100,2.50347660,0.49373147,-0.25411975
785,1778602431.4293585,1.07658720,0.00097567,0.65948970,2.27012630,0.83459400,-0.00855211
786,1778602431.439507,1.07658720,0.00097567,0.65948970,2.27012630,0.83459400,-0.00855211
787,1778602431.4490688,0.97072730,-0.00487833,0.60777940,2.21881370,0.79672040,0.04886918
788,1778602431.4591324,0.97072730,-0.00487833,0.60777940,2.21881370,0.79672040,0.04886918
789,1778602431.4695127,0.72924990,-0.04927117,0.40679200,2.16261400,0.64522594,0.12095123
790,1778602431.479003,0.66631940,-0.05366167,0.34532502,2.02455850,0.52305300,0.13683371
791,1778602431.4891903,0.66631940,-0.05366167,0.34532502,2.02455850,0.52305300,0.13683371
792,1778602431.49919,0.58680254,-0.05902783,0.27800402,1.91826810,0.53282680,0.12828161
793,1778602431.509065,0.43801335,-0.06293050,0.19897503,1.66537010,0.59269154,0.12705988
794,1778602431.5191896,0.37313150,-0.06878450,0.18482786,1.57740560,0.60613060,0.13439025
795,1778602431.5292783,0.37313150,-0.06878450,0.18482786,1.57740560,0.60613060,0.13439025
796,1778602431.539314,0.31946984,-0.08439517,0.17165637,1.48821930,0.59391326,0.14782928
797,1778602431.549272,0.28580934,-0.10390850,0.15799703,1.42102420,0.55237450,0.16004658
798,1778602431.559051,0.25995418,-0.11805566,0.14287418,1.38192880,0.51327914,0.16126831
799,1778602431.5693195,0.21507353,-0.15415533,0.09896919,1.35138560,0.47296205,0.15760311
800,1778602431.579387,0.21507353,-0.15415533,0.09896919,1.29640780,0.39110620,0.15882485
801,1778602431.5893345,0.19604802,-0.15805800,0.08579769,1.25486900,0.32635450,0.17348559
802,1778602431.598976,0.19604802,-0.15805800,0.08579769,1.25486900,0.32635450,0.17348559
803,1778602431.609277,0.18531570,-0.15513100,0.08091935,1.13513950,0.18707734,0.26267186
804,1778602431.619161,0.18726702,-0.15561883,0.09213952,1.07038780,0.13087778,0.31887140
805,1778602431.6292193,0.27117437,-0.20196300,0.18824269,0.99708400,0.07589995,0.40439248
806,1778602431.6397457,0.27117437,-0.20196300,0.18824269,0.91889334,0.07467822,0.60353440
807,1778602431.6490228,0.32337250,-0.23513566,0.23458686,0.91889334,0.07467822,0.60353440
808,1778602431.659109,0.32337250,-0.23513566,0.23458686,0.91889334,0.07467822,0.60353440
809,1778602431.6693394,0.46240503,-0.32001868,0.39410836,1.05694880,0.69287336,1.21195570
810,1778602431.6791275,0.46240503,-0.32001868,0.39410836,1.05694880,0.69287336,1.21195570
811,1778602431.6890857,0.51411533,-0.30879852,0.41996354,1.16201760,0.85169820,1.49661870
812,1778602431.6991694,0.60290104,-0.31270117,0.43654984,1.24876030,0.89934570,1.73485600
813,1778602431.709424,1.07609940,-0.31806734,0.43167153,1.40269830,0.64400417,1.98653220
814,1778602431.7189238,1.07609940,-0.31806734,0.43167153,1.40269830,0.64400417,1.98653220
815,1778602431.7289476,1.38928840,-0.07122366,0.11848252,1.10215280,0.12843432,1.69698240
816,1778602431.739082,1.38928840,-0.07122366,0.11848252,1.10215280,0.12843432,1.69698240
817,1778602431.749113,1.44148660,0.01512283,0.04481969,0.63789550,0.07589995,1.64566970
818,1778602431.7594404,1.44148660,0.01512283,0.04481969,0.63789550,0.07589995,1.64566970
819,1778602431.7689238,1.56393270,0.13366634,0.12872702,-0.16966769,0.46807513,1.67987810
820,1778602431.7793558,1.66198730,0.17464434,0.32922652,-0.54351693,0.88346320,1.72386040
821,1778602431.7893496,1.69564760,0.21367101,0.53460440,-0.62903804,1.05450530,1.76539920
822,1778602431.7994266,1.72052720,0.25123417,0.67900300,-0.54596040,1.09237900,1.84236810
823,1778602431.8089302,1.76589580,0.30392018,0.81754774,-0.34559676,0.94699310,1.89978950
824,1778602431.8189373,1.80101980,0.38490050,0.91462654,-0.05238165,0.67332570,1.92666760
825,1778602431.8292694,1.82833840,0.49515083,0.89316183,0.44974920,0.10888664,1.90589810
826,1778602431.8392687,1.86785280,0.56588670,0.80193704,0.82970710,-0.35659233,1.79838590
827,1778602431.8491015,1.86785280,0.56588670,0.80193704,0.82970710,-0.35659233,1.79838590
828,1778602431.8591132,1.77906720,0.64003736,0.51509106,1.22188220,-0.78419770,1.41109760
829,1778602431.8693435,1.67418300,0.67223436,0.36630186,1.27808190,-0.77564555,1.14842580
830,1778602431.8790803,1.48880640,0.69906515,0.17897385,1.19744770,-0.58627750,0.93217963
831,1778602431.8893383,1.33318760,0.68930850,0.08677336,1.03251420,-0.26862780,0.75502884
832,1778602431.899419,1.17708090,0.67418570,0.07116269,0.84314610,0.08078687,0.60475610
833,1778602431.9090197,1.05024420,0.66150200,0.10433535,0.72097313,0.31291547,0.50946120
834,1778602431.9190235,0.99121636,0.65320885,0.13116619,0.66233015,0.44241880,0.45570514
835,1778602431.9290488,0.82730436,0.62491450,0.24727054,0.65499973,0.59391326,0.38117963
836,1778602431.939168,0.78486290,0.60296200,0.35166687,0.77717274,0.61468270,0.32742350
837,1778602431.9490676,0.77022790,0.58881485,0.44289170,1.02762720,0.51938780,0.23579380
838,1778602431.9592588,0.74583620,0.57759470,0.51362750,1.29396430,0.37644540,0.13072506
839,1778602431.9693148,0.72876203,0.57027720,0.52777470,1.59450980,0.21884231,0.01099557
840,1778602431.9791286,0.69315020,0.55954486,0.50582220,1.88528140,0.07345649,-0.10018183
841,1778602431.9889548,0.60777940,0.53905580,0.41947567,2.22492220,-0.05604684,-0.22357652
842,1778602431.9991393,0.58875390,0.51563984,0.38093686,2.41184690,-0.06582068,-0.28710645
843,1778602432.009397,0.58972955,0.48246717,0.36142352,2.51935900,-0.03405571,-0.33231044
844,1778602432.0189102,0.60290104,0.46392953,0.38044903,2.60854530,0.00992655,-0.38606653
845,1778602432.0290375,0.65997756,0.44587967,0.44777006,2.74293570,0.07467822,-0.47647452
846,1778602432.0390575,0.72924990,0.43612300,0.52435990,2.87610400,0.12721258,-0.56077385
847,1778602432.0491204,0.81266934,0.42685416,0.60729150,3.03859420,0.16508621,-0.64629495
848,1778602432.0591419,0.99267983,0.39709634,0.74095786,3.39167400,0.21762058,-0.89797120
849,1778602432.0697322,1.03902400,0.38831535,0.76388603,3.53828140,0.26526803,-1.00792700
850,1778602432.0792294,1.03902400,0.38831535,0.76388603,3.53828140,0.26526803,-1.00792700
851,1778602432.089311,1.05853740,0.37807086,0.73120123,3.65801100,0.31780240,-1.11055220
852,1778602432.098915,1.06487920,0.37465600,0.67412466,3.67267180,0.40088000,-1.14964750
853,1778602432.1094544,1.07951410,0.38197350,0.63412240,3.58348560,0.46685340,-1.12521290
854,1778602432.1193323,1.28489210,0.33123884,0.68875970,3.18275830,0.47540550,-0.96760980
855,1778602432.12949,1.28489210,0.33123884,0.68875970,3.18275830,0.47540550,-0.96760980
856,1778602432.1396446,1.44831620,0.24294100,0.84681773,2.81013060,0.15042545,-1.00426170
857,1778602432.1490793,1.44831620,0.24294100,0.84681773,2.81013060,0.15042545,-1.00426170
858,1778602432.159359,1.44636490,0.22830600,0.88486870,2.68795780,0.02580904,-1.07878720
859,1778602432.169352,1.43660820,0.21513450,0.89657670,2.56700660,-0.02794706,-1.14231720
860,1778602432.179142,1.38148310,0.18537667,0.87511206,2.34220840,0.05390882,-1.18629940
861,1778602432.1892102,1.28245280,0.15464316,0.86974590,2.14306640,0.24816382,-1.15086930
862,1778602432.1992376,1.21903460,0.12244616,0.87950253,2.00012400,0.45463613,-1.07023510
863,1778602432.2094045,1.15122570,0.08390734,0.89169836,1.89261190,0.68065610,-0.95294905
864,1778602432.2190223,0.93950605,0.01561067,0.84632980,1.83030350,0.90423256,-0.81489360
865,1778602432.229106,0.93950605,0.01561067,0.84632980,1.80586900,1.19744770,-0.59009540
866,1778602432.2392385,0.84437853,0.00536617,0.79852223,1.81564280,1.35260740,-0.39461866
867,1778602432.249115,0.74144566,-0.00439050,0.72973770,1.82541670,1.41247210,-0.24434592
868,1778602432.2590742,0.68485700,-0.00926883,0.68827190,1.83519050,1.42224600,-0.07819069
869,1778602432.2691822,0.51313970,-0.03219700,0.52875036,1.82908190,1.28419050,0.15638138
870,1778602432.2794366,0.51313970,-0.03219700,0.52875036,1.82908190,1.28419050,0.15638138
871,1778602432.2892752,0.43898900,-0.04292934,0.46679550,1.81319940,1.17423490,0.26022840
872,1778602432.29942,0.38874220,-0.05854000,0.43020800,1.80098210,1.06916610,0.35185810
873,1778602432.3091867,0.33849534,-0.07512634,0.38727868,1.79365170,0.93721926,0.44715303
874,1778602432.319058,0.30922535,-0.08585867,0.35752088,1.78998650,0.86513720,0.49480048
875,1778602432.3292675,0.26044202,-0.11025034,0.29849303,1.78509960,0.73807734,0.57054770
876,1778602432.339614,0.21946402,-0.16244850,0.21556135,1.71668280,0.57680905,0.69272065
877,1778602432.349159,0.21946402,-0.16244850,0.21556135,1.71668280,0.57680905,0.69272065
878,1778602432.3592024,0.21946402,-0.17171735,0.19604802,1.67880920,0.53649200,0.72692907
879,1778602432.3693583,0.21361004,-0.17366867,0.17897385,1.64582240,0.49006626,0.75380710
880,1778602432.3791525,0.21312219,-0.16976601,0.16580236,1.59939670,0.39599308,0.79290247
881,1778602432.3891773,0.22678153,-0.15903367,0.15165520,1.56152310,0.32024586,0.83077610
882,1778602432.3992634,0.26873520,-0.14635001,0.13945936,1.48333240,0.24816382,0.89064085
883,1778602432.4091654,0.32532385,-0.14195950,0.14141070,1.39903310,0.21884231,0.93828833
884,1778602432.419412,0.46581987,-0.14635001,0.20726820,1.22676920,0.28237224,1.02503110
885,1778602432.429037,0.57753370,-0.13415417,0.27654052,1.19744770,0.36178467,1.01770070
886,1778602432.4391327,0.57753370,-0.13415417,0.27654052,1.23409960,0.42531460,0.98104880
887,1778602432.4492898,0.63558584,-0.12147050,0.32288470,1.23409960,0.42531460,0.98104880
888,1778602432.4592984,0.78388720,-0.07122366,0.36483836,1.26830800,0.47540550,0.96394460
889,1778602432.4693203,0.86974590,0.00829317,0.31703070,1.34894220,0.80893767,0.97982710
890,1778602432.4794579,0.86974590,0.00829317,0.31703070,1.34894220,0.80893767,0.97982710
891,1778602432.489433,1.06878190,0.13952033,0.15019170,1.11437010,1.21088670,1.04213540
892,1778602432.4992104,1.06878190,0.13952033,0.15019170,1.11437010,1.21088670,1.04213540
893,1778602432.5089242,1.12829760,0.18732800,0.11604336,0.85047650,1.35749420,1.05557430
894,1778602432.5189993,1.17708090,0.23074517,0.12628786,0.68187780,1.38315060,1.07512200
895,1778602432.5291862,1.28001370,0.28538250,0.24288003,0.37644540,1.20966500,1.16675170
896,1778602432.5392134,1.39953280,0.34538600,0.42191488,0.22372922,0.86513720,1.25960310
897,1778602432.5493643,1.52783310,0.41319484,0.60973066,0.21151192,0.43875363,1.32679830
898,1778602432.5592465,1.62686320,0.46392953,0.71851754,0.28603745,0.12599087,1.34145900
899,1778602432.5693307,1.69515980,0.49417520,0.75120234,0.39232790,-0.07559452,1.30969400
900,1778602432.5790133,1.73711350,0.54588550,0.65802620,0.52916163,-0.06704241,1.18141250
901,1778602432.589392,1.65857230,0.55613000,0.61070640,0.56581350,0.47174034,0.99570960
902,1778602432.5992796,1.65857230,0.55613000,0.61070640,0.56581350,0.47174034,0.99570960
903,1778602432.6091506,1.55807880,0.55661780,0.58729035,0.53527030,0.76495540,0.97127500
904,1778602432.6191194,1.45856070,0.54295850,0.58972955,0.50717050,1.00563610,0.99082270
905,1778602432.6292043,1.32245530,0.51661550,0.63704940,0.55237450,1.18767380,1.07145680
906,1778602432.6391163,1.25123160,0.49759000,0.67363685,0.70142550,1.17790000,1.15575610
907,1778602432.6491117,1.17903220,0.48295498,0.69461370,0.93355410,1.01541000,1.23028170
908,1778602432.6592095,1.12976110,0.47466183,0.67753950,1.14857850,0.83215050,1.26449010
909,1778602432.6693954,1.07756290,0.46929568,0.64290340,1.36604630,0.63056517,1.27059880
910,1778602432.679433,0.97950834,0.47124702,0.55119070,1.62138780,0.38133234,1.26326840
911,1778602432.688919,0.88974696,0.46832004,0.45606318,1.82419490,0.19685118,1.23761200
912,1778602432.699143,0.82193820,0.45856333,0.39020570,1.94270280,0.09666935,1.21928610
913,1778602432.7093709,0.74876320,0.44636750,0.34288585,2.05510190,-0.00595593,1.19729500
914,1778602432.7190707,0.71363920,0.43905002,0.32727520,2.11496660,-0.06337722,1.18507770
915,1778602432.729137,0.66680723,0.42295152,0.31507936,2.23836140,-0.15378521,1.15086930
916,1778602432.739138,0.64875740,0.40734085,0.32337250,2.35564730,-0.21975860,1.10322180
917,1778602432.749258,0.63851285,0.40148684,0.32044550,2.48515060,-0.26374087,1.02991810
918,1778602432.7592661,0.64729387,0.39953550,0.29410252,2.57800200,-0.26984950,0.95050560
919,1778602432.7690752,0.66192890,0.39709634,0.27117437,2.64153200,-0.23564109,0.85398895
920,1778602432.7791035,0.68241787,0.38733968,0.22824502,2.67574050,-0.11468986,0.68539030
921,1778602432.789334,0.68436920,0.38148567,0.23897736,2.66963170,0.03191768,0.53511757
922,1778602432.7993472,0.68436920,0.38148567,0.23897736,2.65985800,0.13820815,0.42149670
923,1778602432.8091662,0.69900423,0.37563166,0.28727287,2.66596650,0.20662501,0.30421066
924,1778602432.8189452,0.70778520,0.36928985,0.34337372,2.71239230,0.22983788,0.18448116
925,1778602432.8289397,0.73607950,0.35221568,0.39752320,2.85166950,0.23350306,0.01832594
926,1778602432.8393316,0.78778990,0.32197002,0.39069352,2.95429470,0.25182900,-0.12339468
927,1778602432.848946,0.83023137,0.30050534,0.36386270,2.99949880,0.31413722,-0.27977607
928,1778602432.8592277,0.84925690,0.30001750,0.34483720,2.97872950,0.40454520,-0.40439248
929,1778602432.8692975,0.86389184,0.30392018,0.33020220,2.90786900,0.53282680,-0.51679160
930,1778602432.8794553,0.89755240,0.30684718,0.35313037,2.76370500,0.69531685,-0.63163420
931,1778602432.8890257,0.92779803,0.30196884,0.41606086,2.60365840,0.83092880,-0.70982486
932,1778602432.8989584,0.94584780,0.30489585,0.49216285,2.50714180,0.92378026,-0.72815084
933,1778602432.9089308,0.96487340,0.31806734,0.60143757,2.44116830,0.97631460,-0.68416860
934,1778602432.9191425,0.99170420,0.32148215,0.65363574,2.43261620,0.95676696,-0.60719960
935,1778602432.9290996,1.10927200,0.30684718,0.74437270,2.45216400,0.78205960,-0.47158760
936,1778602432.939116,1.21122920,0.27904066,0.79510736,2.46804640,0.49006626,-0.39584038
937,1778602432.9491875,1.24245060,0.26977180,0.79315600,2.46071600,0.21395539,-0.36774060
938,1778602432.9593976,1.25806130,0.26977180,0.76974000,2.42528580,-0.01084285,-0.35307986
939,1778602432.9694054,1.27367190,0.22879384,0.71266353,2.35686900,-0.14401138,-0.33353218
940,1778602432.9789133,1.27367190,0.22879384,0.71266353,2.19804430,-0.20876303,-0.27366742
941,1778602432.9892905,1.26293960,0.19415767,0.67558820,2.04166270,-0.14156792,-0.20402883
942,1778602432.9990487,1.24781670,0.16098501,0.65705050,1.88161620,0.00259618,-0.12461641
943,1778602433.0093064,1.21122920,0.12293400,0.62680480,1.75699990,0.13576470,-0.05375610
944,1778602433.0192664,1.12829760,0.10634767,0.56680137,1.48944100,0.42164943,0.10262528
945,1778602433.0293097,1.12829760,0.10634767,0.56680137,1.48944100,0.42164943,0.10262528
946,1778602433.0394335,1.00390000,0.12342183,0.53801920,1.36971150,0.50228360,0.14782928
947,1778602433.0493839,1.00390000,0.12342183,0.53801920,1.29518600,0.52427470,0.15149446
948,1778602433.059416,0.91950480,0.11659218,0.50679785,1.25731240,0.52060950,0.13683371
949,1778602433.0691738,0.86877024,0.10342067,0.48533320,1.23654300,0.51694435,0.11972950
950,1778602433.0791845,0.75510510,0.07366284,0.42532970,1.20844330,0.52671814,0.10384701
951,1778602433.0894434,0.65997756,0.05122250,0.36630186,1.18523040,0.54626584,0.10873393
952,1778602433.0992444,0.57265530,0.03122133,0.31703070,1.14246990,0.57558733,0.14538582
953,1778602433.109264,0.51948154,0.01414717,0.28727287,1.10093100,0.58169600,0.18814635
954,1778602433.118899,0.48289403,-0.00585400,0.26288120,1.06550090,0.58169600,0.23212862
955,1778602433.1290395,0.42142700,-0.04244150,0.23263553,1.02640560,0.54626584,0.29443680
956,1778602433.1390703,0.39215705,-0.05463734,0.21604920,1.01296650,0.50228360,0.32498005
957,1778602433.1491685,0.36922884,-0.06829667,0.19458452,1.00441440,0.42287114,0.36041020
958,1778602433.1592503,0.35459387,-0.08098034,0.17360769,0.99708400,0.32146758,0.37995788
959,1778602433.169195,0.34825203,-0.09122483,0.15750920,0.98731020,0.26648977,0.37384924
960,1778602433.179376,0.34142238,-0.10195717,0.14726469,0.98731020,0.10766492,0.37384924
961,1778602433.189036,0.36239920,-0.11951917,0.10238402,0.96531910,-0.11713332,0.34819293
962,1778602433.199275,0.36239920,-0.11951917,0.10238402,0.96531910,-0.11713332,0.34819293
963,1778602433.2092974,0.39410836,-0.11756783,0.05799119,0.89445880,-0.14645483,0.33108872
964,1778602433.2193658,0.41215820,-0.12000700,0.04286835,0.79183346,-0.10125083,0.31887140
965,1778602433.2289844,0.49411420,-0.13610551,0.04140485,0.63789550,0.02336558,0.30054548
966,1778602433.2390523,0.59265655,-0.16293633,0.09701785,0.39843655,0.34223700,0.28588470
967,1778602433.2490034,0.59265655,-0.16293633,0.09701785,0.39843655,0.34223700,0.28588470
968,1778602433.2594042,0.63168323,-0.14732568,0.11457986,0.33612835,0.46074477,0.30787584
969,1778602433.269203,0.70095557,-0.10781116,0.11994602,0.26038110,0.53771370,0.35063640
970,1778602433.2793617,0.93023723,-0.02829433,0.12189735,0.07101303,0.61834790,0.43982264
971,1778602433.2894025,1.08975880,0.04634417,0.12531220,-0.10735948,0.66477360,0.49357873
972,1778602433.2990954,1.08975880,0.04634417,0.12531220,-0.10735948,0.66477360,0.49357873
973,1778602433.3093336,1.33952930,0.17903483,0.19702369,-0.72555465,0.72830355,0.59864750
974,1778602433.3189077,1.36538450,0.19854817,0.24531919,-0.91614443,0.72341660,0.65240360
975,1778602433.3292735,1.49173340,0.24733151,0.49899250,-1.16659900,0.73807734,0.85765415
976,1778602433.3392172,1.70784350,0.32636052,0.75071454,-1.12017330,0.96287560,1.14231720
977,1778602433.3489141,1.70784350,0.32636052,0.75071454,-1.12017330,0.96287560,1.14231720
978,1778602433.3589509,1.77174970,0.36685067,0.81169370,-0.91858790,1.17790000,1.15575610
979,1778602433.3693783,1.76345650,0.42880550,0.83901240,-0.76342830,1.28296880,1.12032600
980,1778602433.3793995,1.64198600,0.52978700,0.78827770,-0.42256570,1.37459850,1.03724840
981,1778602433.3893485,1.44734050,0.58442430,0.61948735,-0.05360339,1.09360060,1.01159200
982,1778602433.3993893,1.44734050,0.58442430,0.61948735,-0.05360339,1.09360060,1.01159200
983,1778602433.4089735,1.36392100,0.59466887,0.56777704,0.08811724,0.79061174,1.02869630
984,1778602433.419448,1.32977270,0.60003500,0.54777586,0.19074252,0.52060950,1.03480490
985,1778602433.42925,1.32977270,0.60003500,0.54777586,0.19074252,0.52060950,1.03480490
986,1778602433.4393034,1.16195800,0.60491335,0.42386620,0.38011062,-0.05726858,0.96516633
987,1778602433.4493282,1.09122220,0.60735250,0.39362052,0.42897978,-0.22464553,0.89064085
988,1778602433.4589899,1.09122220,0.60735250,0.39362052,0.46440995,-0.30527967,0.82100224
989,1778602433.4692564,0.96780044,0.59613234,0.38240036,0.50472700,-0.34315330,0.74403330
990,1778602433.4789836,0.88730790,0.58588785,0.38044903,0.57558733,-0.35048366,0.62063860
991,1778602433.4893224,0.80096140,0.57417990,0.37410718,0.64156073,-0.31749696,0.53878270
992,1778602433.4993465,0.70632170,0.56491100,0.36044785,0.73563390,-0.24908010,0.45326167
993,1778602433.509197,0.63802505,0.56393534,0.33654400,0.82604190,-0.17088942,0.38484480
994,1778602433.5191848,0.59168090,0.56832590,0.30922535,0.87002414,-0.12324197,0.34819293
995,1778602433.5293696,0.54484886,0.57320416,0.27166218,0.92744550,-0.01206458,0.28099780
996,1778602433.5393696,0.53558004,0.56881370,0.26629603,0.94943660,0.07345649,0.22968516
997,1778602433.5489419,0.53314084,0.55954486,0.29654170,0.98364500,0.16264275,0.14538582
998,1778602433.5591376,0.53314084,0.55954486,0.29654170,0.98364500,0.16264275,0.14538582
999,1778602433.5693495,0.52143290,0.54588550,0.37557068,1.13758290,0.23350306,-0.02932151
1000,1778602433.57937,0.54387320,0.51417637,0.49508983,1.57251870,0.19685118,-0.32620180
