id,timestamp,acc_x,acc_y,acc_z,gyro_x,gyro_y,gyro_z
1,1778603119.980403,0.49460202,-0.52442086,-0.62546330,-0.03420843,-2.96025060,0.25809038
2,1778603119.9908254,0.44240385,-0.67955184,0.00481735,-0.55588690,-3.19115760,0.06872228
3,1778603120.0008388,0.33654400,-0.71760285,0.37361938,-0.62552553,-3.48803780,0.07238748
4,1778603120.0108588,0.28434587,-0.73126215,0.48094270,-0.52290020,-3.70794920,0.17012584
5,1778603120.0209053,0.27312570,-0.91176050,0.36825320,-0.29443680,-3.56134180,0.32895067
6,1778603120.0309203,0.31020102,-1.01518120,0.31995770,-0.15882485,-3.14961890,0.35949390
7,1778603120.04044,0.33069003,-1.15567720,0.32093337,0.02199113,-2.43002000,0.33383760
8,1778603120.0504243,0.35508168,-1.26300050,0.36825320,0.27488914,-1.66033040,0.24709481
9,1778603120.0604424,0.40240154,-1.31861350,0.43557420,0.44593130,-1.31687180,0.14309508
10,1778603120.0706952,0.39557186,-1.32885800,0.47460085,0.70127280,-0.97967440,-0.14767656
11,1778603120.0804713,0.30288354,-1.29861240,0.44240385,0.79045904,-0.92469656,-0.26740605
12,1778603120.0907338,0.25117320,-1.32983360,0.41703650,0.78679380,-0.88560120,-0.26007570
13,1778603120.1004667,0.25849068,-1.37910490,0.42728102,0.74892020,-0.85505795,-0.11346813
14,1778603120.1104667,0.28288236,-1.44447460,0.47899136,0.75136370,-0.78908455,0.02092212
15,1778603120.120608,0.38776654,-1.50642930,0.59021735,0.86864970,-0.80130190,0.29214610
16,1778603120.1309361,0.49655336,-1.47472020,0.61265770,1.01525720,-1.12872540,0.40088000
17,1778603120.1406236,0.54923934,-1.44349880,0.61265770,1.19240810,-1.66628630,0.39110620
18,1778603120.1506588,0.57753370,-1.42203430,0.59412000,1.36589360,-2.13787410,0.33490660
19,1778603120.160944,0.58729035,-1.39617910,0.57021620,1.56992240,-2.59724430,0.25305074
20,1778603120.1706994,0.53606784,-1.31812570,0.46533203,1.85947240,-3.03340170,0.16997312
21,1778603120.1807964,0.46484417,-1.23226700,0.35752088,2.15635280,-3.22032640,0.14920372
22,1778603120.1908116,0.46484417,-1.23226700,0.35752088,2.15635280,-3.22032640,0.14920372
23,1778603120.2008677,0.38581520,-1.14689610,0.24336785,2.45323300,-3.15924000,0.19685118
24,1778603120.2110739,0.34093451,-1.09616150,-0.02250131,2.93581600,-2.22583840,0.26282457
25,1778603120.2206392,0.20190202,-1.02445010,-1.16793400,3.02378060,-0.49831295,0.29825473
26,1778603120.2305725,0.26239336,-1.02005960,-1.32111370,1.67132600,0.54504410,0.46929687
27,1778603120.2407038,0.37752202,-1.01274200,-0.83669520,0.07941242,-0.05238165,0.45830130
28,1778603120.2507508,0.41898784,-0.96054390,-0.36398467,-0.84910200,-1.00655250,0.27259842
29,1778603120.2605786,0.44191605,-0.91224840,-0.17177832,-1.02380930,-1.34497150,0.14187334
30,1778603120.2706728,0.43654984,-0.81175464,-0.05225914,-0.62674725,-1.19469880,-0.03283398
31,1778603120.2804787,0.40971902,-0.72784734,0.02237935,-0.18936808,-1.03953910,-0.03649917
32,1778603120.290503,0.42191488,-0.66686815,-0.00542715,0.12461641,-1.34497150,-0.00106901
33,1778603120.300851,0.41264603,-0.61320650,-0.09909115,0.12950334,-1.95827970,0.01970039
34,1778603120.3108857,0.38288820,-0.57905820,-0.18641332,0.02321286,-2.38099810,0.01970039
35,1778603120.320852,0.33703187,-0.55564220,-0.24544115,-0.09529491,-2.62045720,-0.02061669
36,1778603120.3308928,0.28580934,-0.52588433,-0.30446900,-0.16126831,-2.56059240,-0.07192933
37,1778603120.3408737,0.25849068,-0.49515083,-0.34447134,-0.20525056,-2.37488960,-0.11591160
38,1778603120.3509018,0.25849068,-0.49515083,-0.34447134,-0.20525056,-2.37488960,-0.11591160
39,1778603120.36093,0.21117085,-0.45124584,-0.26446667,-0.35674503,-1.93018000,-0.22098033
40,1778603120.3709521,0.23458686,-0.48441850,-0.20592664,-0.48013970,-1.79212450,-0.28695372
41,1778603120.3805375,0.29946870,-0.53173834,-0.13909347,-0.56566080,-1.75669440,-0.36147922
42,1778603120.3905473,0.29946870,-0.53173834,-0.13909347,-0.56566080,-1.75669440,-0.36147922
43,1778603120.4004524,0.42484185,-0.67028300,0.03701435,-0.66950780,-1.92407130,-0.63514670
44,1778603120.4105225,0.48630884,-0.77175236,0.07213835,-0.69027720,-2.10488720,-0.81840610
45,1778603120.4205365,0.49752906,-1.06884290,0.31410370,-0.67195123,-2.55692720,-1.14460790
46,1778603120.4306095,0.42191488,-1.16738520,0.52728680,-0.55955213,-3.09937520,-1.26678090
47,1778603120.440764,0.42337835,-1.31129600,0.61412120,-0.34208430,-4.00589850,-1.30465450
48,1778603120.4508536,0.47947920,-1.47179320,0.56533790,-0.16859868,-4.82567900,-1.33519770
49,1778603120.460895,0.53362870,-1.59716630,0.50435870,-0.10506874,-5.26794530,-1.38284520
50,1778603120.47069,0.62729270,-1.80791030,0.27849188,-0.12705988,-5.40722230,-1.43415770
51,1778603120.4805198,0.65363574,-1.84010740,0.11214069,-0.22479823,-5.08224200,-1.42316220
52,1778603120.4905448,0.66436803,-1.76742020,-0.14299615,-0.41294459,-3.93015120,-1.27166770
53,1778603120.5006914,0.72924990,-1.66595090,-0.21470766,-0.59986920,-2.07923100,-1.00044380
54,1778603120.5105608,0.79266820,-1.54399250,-0.03323365,-0.62919074,-0.83673203,-0.86238840
55,1778603120.5209463,0.81803554,-1.46008530,0.13945936,-0.48869184,0.15897755,-0.80252360
56,1778603120.5306053,0.87511206,-1.40398440,0.10433535,-0.29688028,0.68676470,-0.91858790
57,1778603120.5407221,0.83169484,-1.35178630,-0.13762999,-0.27488914,1.04839670,-1.07985620
58,1778603120.5504935,0.59655917,-1.29666100,-0.23958716,-0.49846566,1.40636350,-1.15926860
59,1778603120.560811,0.49216285,-1.27470850,-0.19909698,-0.75258540,1.40269830,-1.08596490
60,1778603120.5708423,0.40386504,-1.23275480,-0.04542948,-1.01525720,1.03495760,-0.94424420
61,1778603120.5808866,0.39508402,-1.18494710,0.01896452,-1.04335700,0.64889110,-0.87827086
62,1778603120.5908992,0.40825552,-1.11957750,0.03067252,-0.91629720,0.20418155,-0.82940170
63,1778603120.600703,0.43215933,-1.07518470,0.07262619,-0.65729050,-0.12202024,-0.81351920
64,1778603120.6106076,0.44094035,-1.04249990,0.12092169,-0.21868959,-0.45188722,-0.81351920
65,1778603120.6209347,0.38581520,-0.94005483,0.11116502,0.53145236,-1.17026420,-0.77320210
66,1778603120.630723,0.33556834,-0.89371073,0.00872002,0.87842360,-1.71149040,-0.67912894
67,1778603120.6404743,0.29751736,-0.84931780,-0.05908882,1.09833490,-2.20873430,-0.51297370
68,1778603120.650483,0.27117437,-0.79955890,-0.03079448,1.18874290,-2.53615780,-0.34437500
69,1778603120.660989,0.27166218,-0.76053220,-0.00640281,1.23394680,-2.70842170,-0.23075417
70,1778603120.6707914,0.27263784,-0.67906404,0.06628435,1.26571180,-2.87457700,-0.13668099
71,1778603120.6808488,0.27263784,-0.67906404,0.06628435,1.26571180,-2.87457700,-0.13668099
72,1778603120.690624,0.22287886,-0.47466183,0.13506886,1.29014650,-3.09815340,-0.06215549
73,1778603120.7007923,0.20238985,-0.39173016,0.18629137,1.33168520,-3.17267900,-0.03527744
74,1778603120.7106364,0.20043853,-0.29757833,0.27361350,1.40743240,-3.17878770,-0.04749474
75,1778603120.7208605,0.21312219,-0.21367101,0.34239805,1.53204880,-3.13969230,-0.10858121
76,1778603120.730893,0.23068418,-0.15366750,0.34630070,1.62123510,-3.06516670,-0.19410229
77,1778603120.7409031,0.23507468,-0.09903017,0.21604920,1.59069190,-2.92711140,-0.26129740
78,1778603120.7504508,0.21263437,-0.02097683,-0.07762648,1.33657220,-2.43597600,-0.31627524
79,1778603120.7605789,0.20238985,0.03561183,-0.35666716,0.95905770,-1.77502040,-0.32971427
80,1778603120.7705042,0.28824854,0.11464083,-1.01036380,0.13316852,-0.53985170,-0.37125307
81,1778603120.780859,0.42337835,0.06683317,-0.87913670,-1.02747450,0.89934570,-0.58749920
82,1778603120.7908685,0.29410252,-0.09317617,0.37752202,-1.47218410,1.40147650,-0.90148370
83,1778603120.8008754,0.04384402,-0.19562118,0.82584090,-1.02747450,0.83581570,-0.93569213
84,1778603120.8109035,-0.03420931,-0.36538717,0.59899837,-0.53878270,0.19318599,-0.74632406
85,1778603120.8209317,0.02140369,-0.58735140,0.39069352,-0.14905101,-0.34804020,-0.46288280
86,1778603120.8305976,0.12287302,-0.85126920,0.25507587,0.19303326,-0.57528190,-0.23686282
87,1778603120.8405464,0.26824737,-1.24934120,0.18580353,0.75502884,-0.28695372,-0.08781181
88,1778603120.85053,0.26824737,-1.24934120,0.18580353,0.75502884,-0.28695372,-0.08781181
89,1778603120.860547,0.53070170,-2.01621500,0.33069003,1.43797560,-0.20265439,-0.02916879
90,1778603120.8705883,0.64924520,-2.40501830,0.34093451,1.32313310,-0.67790717,-0.04993819
91,1778603120.8805833,0.58631474,-2.58210200,0.30922535,1.03480490,-1.34130630,-0.12202024
92,1778603120.8908718,0.33117786,-2.31135440,0.25019753,0.80511975,-1.53433970,-0.02061669
93,1778603120.900617,0.19019403,-2.01719100,0.25995418,0.74158984,-1.39139720,0.21151192
94,1778603120.9106212,0.09165169,-1.67717100,0.33898320,0.81611530,-1.23990270,0.51205740
95,1778603120.920642,0.10970152,-1.33227290,0.43654984,1.02991810,-1.27166770,0.89812390
96,1778603120.9306617,0.23263553,-1.20055800,0.48484537,1.29747680,-1.60153470,1.15468720
97,1778603120.9406545,0.34386152,-1.17567840,0.50533440,1.53327060,-2.03524880,1.22676920
98,1778603120.950705,0.46630770,-1.19763090,0.46679550,1.85214200,-2.60457470,1.15346540
99,1778603120.9605825,0.52875036,-1.20348480,0.35508168,2.15390920,-2.84159020,1.00319270
100,1778603120.9706006,0.52875036,-1.20348480,0.35508168,2.15390920,-2.84159020,1.00319270
101,1778603120.9805205,0.62095090,-1.23129140,-0.55180050,3.15694930,-1.05419990,0.74907290
102,1778603120.9905403,0.62875617,-1.19763090,-1.12402900,2.77943470,0.70997757,0.68920820
103,1778603121.0005558,0.52484770,-1.12738290,-0.98694780,1.45019290,1.01663170,0.64889110
104,1778603121.0107272,0.42093918,-1.04786600,-0.32837284,0.74158984,0.54504410,0.65622150
105,1778603121.0207949,0.41947567,-1.02737700,0.16726585,0.30421066,-0.41157013,0.58413947
106,1778603121.0306664,0.35508168,-0.94786020,0.23653820,0.58032155,-0.62781626,0.49250972
107,1778603121.0406253,0.28922418,-0.88297830,0.19263318,0.93951005,-0.53374310,0.51083565
108,1778603121.0506222,0.29605386,-0.84541510,0.04238052,1.32068970,-0.35781404,0.60857403
109,1778603121.0605273,0.31264020,-0.83175580,-0.05957664,1.42820190,-0.27229297,0.66477360
110,1778603121.070571,0.45264837,-0.78053340,-0.57960700,1.19240810,-0.10125083,0.69165164
111,1778603121.0806956,0.50435870,-0.75516600,-0.57668000,0.66095567,-0.02550360,0.60002196
112,1778603121.0905516,0.51801800,-0.72052985,-0.30495682,0.33231044,0.00015272,0.46196648
113,1778603121.100799,0.52387200,-0.68540585,-0.12640981,0.28099780,0.01603520,0.34223700
114,1778603121.110804,0.53460440,-0.65467240,-0.10543298,0.27488914,0.00626136,0.20784675
115,1778603121.1209528,0.58289987,-0.65759933,-0.17714448,0.20402883,0.03680460,-0.00106901
116,1778603121.1309571,0.57509450,-0.59808370,-0.34008083,0.00122173,0.22495095,-0.22831070
117,1778603121.1408522,0.57509450,-0.59808370,-0.34008083,0.00122173,0.22495095,-0.22831070
118,1778603121.1508543,0.44825786,-0.47271052,-0.34105647,-0.51923510,0.85658514,-0.58139056
119,1778603121.1610544,0.38142470,-0.40782870,-0.24300198,-0.61086476,1.11803530,-0.68890274
120,1778603121.170889,0.28532153,-0.30782285,-0.03177015,-0.45814860,1.30373810,-0.81229746
121,1778603121.1809263,0.22531801,-0.25220984,0.08774903,-0.23090689,1.16323920,-0.87094045
122,1778603121.190478,0.16336319,-0.18098617,0.13311753,0.03665189,0.72952527,-0.93080520
123,1778603121.2005773,0.10726235,-0.12634884,0.03603869,0.16615522,0.23228133,-0.96990055
124,1778603121.210525,0.09360302,-0.11561650,-0.04933215,0.12828161,-0.07559452,-0.99433510
125,1778603121.220562,0.17751035,-0.20537783,-0.23080614,-0.06963859,-0.23930627,-1.07496930
126,1778603121.2305653,0.39313272,-0.60686470,-0.43764750,-0.52656543,-0.30161450,-1.42560570
127,1778603121.2407858,0.36874104,-0.85468405,-0.39715730,-1.07878720,-0.34315330,-1.77624200
128,1778603121.250746,0.36337486,-1.02640130,-0.27129632,-1.49173180,-0.51663890,-2.01203580
129,1778603121.260884,0.40386504,-1.22251030,-0.12445848,-1.68965200,-0.74143714,-2.13909580
130,1778603121.2709374,0.51070050,-1.53130890,0.06384519,-1.70553450,-1.10306910,-2.26126860
131,1778603121.2809193,0.64875740,-1.95182130,0.11653119,-1.46974060,-1.30831970,-2.35045500
132,1778603121.2904475,0.81169370,-2.47868130,0.00725652,-1.13987360,-1.01388290,-2.38344170
133,1778603121.30085,0.97219090,-2.87187480,-0.08689531,-0.97494020,-0.54473865,-2.36755920
134,1778603121.3108678,0.98145974,-2.91919470,-0.03177015,-0.99204440,-0.16478078,-2.26859900
135,1778603121.3208992,0.77169130,-2.56161280,0.01896452,-1.13865200,0.13576470,-1.69072100
136,1778603121.3305924,0.56045955,-1.90011100,0.03994136,-1.17774720,0.30314165,-1.06397380
137,1778603121.3408744,0.50679785,-1.48106190,0.07360186,-1.09222630,0.42897978,-0.49342602
138,1778603121.3509154,0.48630884,-1.28202590,0.05701552,-0.93951005,0.49861836,-0.24785839
139,1778603121.3604853,0.46581987,-1.15762850,0.03994136,-0.77702000,0.55970484,-0.12079851
140,1778603121.370496,0.44679436,-1.01859600,0.05896685,-0.54489136,0.62812173,-0.04993819
141,1778603121.3805249,0.45118487,-0.95468986,0.09262736,-0.38117963,0.58780460,-0.04505128
142,1778603121.390513,0.43801335,-0.80590070,0.13702019,-0.08796453,0.31169376,-0.04993819
143,1778603121.4008965,0.38044903,-0.70638270,0.10823802,0.13194679,0.06979130,-0.01450804
144,1778603121.410916,0.32239684,-0.63613470,0.06677218,0.34819293,-0.09025527,0.09300416
145,1778603121.420422,0.24629487,-0.52442086,0.03262385,0.57176940,-0.19898920,0.31658068
146,1778603121.4304764,0.22726935,-0.47173482,0.04091702,0.71349007,-0.29061893,0.57070040
147,1778603121.4407492,0.22580586,-0.41417053,0.06043036,0.85398895,-0.39080074,0.75395983
148,1778603121.4507492,0.25019753,-0.37709520,0.09165169,0.96516633,-0.49342602,0.90056740
149,1778603121.4609213,0.26727170,-0.34977650,0.09116385,1.02503110,-0.56917330,0.93844104
150,1778603121.470949,0.27751620,-0.28782168,0.12287302,1.07756540,-0.60582510,0.89445880
151,1778603121.480529,0.28629720,-0.24196534,0.17653470,1.11177380,-0.72311120,0.76617720
152,1778603121.490919,0.27800402,-0.17025384,0.23995303,1.12887810,-0.93691385,0.58902640
153,1778603121.501016,0.27800402,-0.17025384,0.23995303,1.12887810,-0.93691385,0.58902640
154,1778603121.5109792,0.26922303,-0.09122483,0.14921603,1.21439920,-1.13972090,0.23105960
155,1778603121.5207567,0.27068650,-0.02292817,-0.20056048,1.13620850,-0.72677636,0.01237001
156,1778603121.5304902,0.42532970,-0.08098034,-0.61180395,0.80023290,-0.05115993,-0.21853687
157,1778603121.5407877,0.72437150,-0.26294217,-0.84937890,0.00733038,0.51816607,-0.68279410
158,1778603121.5507853,0.77803320,-0.32001868,-0.72790830,-0.79534596,1.07649650,-1.34130630
159,1778603121.5610094,0.77803320,-0.32001868,-0.72790830,-0.79534596,1.07649650,-1.34130630
160,1778603121.570818,0.40386504,-0.32440916,0.23019636,-1.07145680,1.51387560,-1.84710240
161,1778603121.5808609,0.14531335,-0.42295152,0.35361820,-0.85032380,0.97875810,-1.72615110
162,1778603121.590631,0.06677218,-0.51905465,0.21507353,-0.76846790,0.75395983,-1.47325310
163,1778603121.600849,0.09262736,-0.71516370,0.05408852,-0.73303770,0.71486450,-1.10551250
164,1778603121.610886,0.13360536,-0.88688100,-0.07372381,-0.57176940,1.07893990,-0.86849700
165,1778603121.6208704,0.20531686,-1.21324160,-0.26251534,-0.19425500,1.83885570,-0.74998920
166,1778603121.6309114,0.04481969,-1.42740040,0.03116036,0.09651663,2.73560520,-0.32360563
167,1778603121.6409745,0.22873287,-1.63765650,0.33849534,-0.01832594,2.15284010,-0.00229074
168,1778603121.6509235,0.36776537,-1.99914100,0.34776420,-0.19181155,1.33061620,0.28603745
169,1778603121.6604435,0.35361820,-2.19427440,0.34142238,-0.38362310,0.71608620,0.48640108
170,1778603121.6706986,0.32776302,-2.41428700,0.39069352,-0.61452997,0.06246093,0.75395983
171,1778603121.6804485,0.27800402,-2.27671810,0.48338187,-0.64262974,-0.40790495,0.93844104
172,1778603121.6904547,0.22092752,-1.96499260,0.53509220,-0.44837475,-0.73532850,1.07160950
173,1778603121.7007887,0.18921836,-1.66107250,0.51655453,-0.14049890,-1.00288720,1.16079580
174,1778603121.7108147,0.19312102,-1.40886270,0.50191957,0.05986475,-1.13239060,1.21088670
175,1778603121.7208383,0.25702720,-1.21324160,0.51753020,0.41538805,-1.40727970,1.26342100
176,1778603121.730738,0.31361586,-1.14835980,0.47704002,0.77702000,-1.73714670,1.27686010
177,1778603121.7407532,0.36337486,-1.13811520,0.39118138,1.13254330,-1.93018000,1.28663400
178,1778603121.7505434,0.47118600,-1.13567600,0.28385803,1.37444580,-1.88253250,1.23776470
179,1778603121.7609499,0.51753020,-1.11128440,0.10531103,1.58947010,-1.57099150,1.14857850
180,1778603121.7707272,0.55997170,-1.06786720,-0.11665315,2.01707550,-0.10369430,1.13513950
181,1778603121.7808328,0.62582920,-1.07128200,-0.13226382,2.27241700,1.11314830,1.15957400
182,1778603121.7907596,0.71607840,-1.08396580,-0.07274815,2.37382050,2.18094000,1.13391770
183,1778603121.8008535,0.83462190,-1.10103990,-0.08982231,2.24187370,2.67451880,0.98608845
184,1778603121.8107233,0.98828936,-1.07567250,-0.85815984,1.73607770,3.16931920,0.74174255
185,1778603121.8206675,0.98828936,-1.07567250,-0.85815984,1.73607770,3.16931920,0.74174255
186,1778603121.8306525,0.84096366,-0.92054150,-0.25324650,-1.04702220,3.88769630,-0.12812889
187,1778603121.8409233,0.76827660,-0.84931780,-0.00152448,-1.16186480,3.62502430,-0.33582290
188,1778603121.8508449,0.65851400,-0.69906515,0.00579302,-0.69760760,3.72642780,-0.42012227
189,1778603121.8608708,0.65851400,-0.69906515,0.00579302,-0.69760760,3.72642780,-0.42012227
190,1778603121.8708932,0.55558115,-0.50344400,-0.12543415,-0.01099557,2.98850320,-0.27962336
191,1778603121.8808298,0.62339000,-0.43514732,-0.06933331,-0.13194679,1.62138780,-0.25518876
192,1778603121.8908906,0.66485590,-0.44978234,0.11848252,-0.17348559,0.34712392,-0.33460120
193,1778603121.9008927,0.66485590,-0.44978234,0.11848252,-0.17348559,0.34712392,-0.33460120
194,1778603121.9108982,0.68827190,-0.43026900,0.06091819,0.11484258,-0.58749920,-0.62292933
195,1778603121.9209383,0.71315134,-0.27416235,-0.49326050,0.21258095,-0.46043932,-0.93324864
196,1778603121.9304338,0.71315134,-0.27416235,-0.49326050,0.21258095,-0.46043932,-0.93324864
197,1778603121.940496,0.73266470,-0.06780884,-0.67180747,-0.63774280,0.01603520,-1.65651260
198,1778603121.9507241,0.60729150,-0.06927233,-0.25910050,-0.88819736,-0.06337722,-2.06334850
199,1778603121.9608,0.52338420,-0.07561417,-0.05762531,-0.89674950,-0.21487169,-2.24294280
200,1778603121.970623,0.45020920,-0.09317617,0.09067602,-0.80389804,-0.53252137,-2.41642830
201,1778603121.980666,0.26044202,-0.09659100,0.19995070,-0.63529940,-1.13849930,-2.53860140
202,1778603121.9909127,0.14287418,-0.10878683,0.18726702,-0.50090910,-1.64307360,-2.46041060
203,1778603122.0004156,0.08823685,-0.14195950,0.13019052,-0.45448340,-1.87642380,-2.29914240
204,1778603122.010533,0.13945936,-0.21903718,0.01994019,-0.46670070,-1.99737510,-2.09877870
205,1778603122.0206156,0.46191720,-0.51954250,-0.31959182,-0.64018630,-1.89597150,-1.99248810
206,1778603122.0308857,0.80193704,-0.90005250,-0.66449000,-1.21195570,-1.13849930,-2.26004700
207,1778603122.0409944,0.93901820,-1.12640710,-0.24592897,-1.75929060,-0.47632182,-2.68643070
208,1778603122.0508678,1.07902630,-1.30934480,-0.03079448,-2.02074070,-0.43233955,-3.01385400
209,1778603122.0608885,1.26781790,-1.55570050,0.04384402,-2.22965650,-0.58994263,-3.31684300
210,1778603122.070942,1.67662220,-2.12061140,0.08970036,-2.56074520,-0.83062340,-3.57707140
211,1778603122.0804508,1.95566280,-2.56210060,0.04286835,-2.79653900,-0.83917546,-3.45734200
212,1778603122.0905426,2.15079620,-2.88260720,-0.17616881,-2.97491150,-0.15012002,-2.84892060
213,1778603122.1007035,1.99029900,-2.76699070,-0.08445615,-2.82952570,1.07038780,-2.07190060
214,1778603122.1107328,1.63369290,-2.45282600,0.12433653,-2.42268970,1.93415060,-1.30831970
215,1778603122.1207445,0.97072730,-1.48154990,0.34581286,-1.72874740,1.81442100,-0.71455910
216,1778603122.130832,0.77656970,-1.13030980,0.38337603,-1.30114200,1.13147430,-0.54351693
217,1778603122.1408632,0.62631700,-0.87273390,0.37069237,-0.80267630,0.10155627,-0.46288280
218,1778603122.1508565,0.57070400,-0.78443605,0.30581054,-0.35918850,-0.68279410,-0.44333512
219,1778603122.1609662,0.57802150,-0.75565380,0.19165753,-0.06230821,-1.03465220,-0.45433068
220,1778603122.1708832,0.58192420,-0.74443364,0.12482436,0.12095123,-1.11039950,-0.46532625
221,1778603122.1809106,0.54582450,-0.67760050,0.05213719,0.41783150,-0.91614443,-0.33704466
222,1778603122.1904254,0.50143170,-0.62345100,0.07116269,0.55466520,-0.85017100,-0.12812889
223,1778603122.200639,0.43703770,-0.56491100,0.10531103,0.66462090,-0.91125750,0.08078687
224,1778603122.2106721,0.39264485,-0.53466535,0.12287302,0.79778940,-1.01021770,0.28970262
225,1778603122.2208216,0.32727520,-0.49466303,0.12092169,0.98227054,-1.08963000,0.52793986
226,1778603122.2308085,0.27654052,-0.44783100,0.12092169,1.15697790,-1.09940390,0.78083790
227,1778603122.2408447,0.19604802,-0.38002217,0.13165402,1.30114200,-0.99189170,1.04473150
228,1778603122.250755,0.12336086,-0.33367800,0.17994952,1.40132380,-0.86483180,1.26464280
229,1778603122.2607884,0.07945585,-0.28879735,0.18677919,1.49539700,-0.74510230,1.48944100
230,1778603122.2705142,0.06823569,-0.22976951,0.18677919,1.57480940,-0.64003354,1.68736120
231,1778603122.280498,0.06823569,-0.22976951,0.18677919,1.57480940,-0.64003354,1.68736120
232,1778603122.2908015,0.19214535,-0.05610084,-0.08884665,1.49295350,-0.76220655,1.88772490
233,1778603122.300828,0.29946870,0.06488183,-0.49813882,1.16553000,-0.87949260,1.75455640
234,1778603122.3108673,0.45557535,0.17318083,-1.15622600,0.37873617,-0.87460566,1.48821930
235,1778603122.320866,0.45557535,0.17318083,-1.15622600,0.37873617,-0.87460566,1.48821930
236,1778603122.3308837,1.00633920,0.25025850,-0.69619910,-1.85092030,-0.19410229,0.11377356
237,1778603122.340722,1.05463470,0.16586334,0.63704940,-1.45630170,-0.06948587,-0.68401580
238,1778603122.3506663,0.89804020,0.05268600,1.24049930,-0.22846343,-1.06275200,-1.32053700
239,1778603122.36068,0.55021500,-0.05024683,0.99950960,0.64262974,-2.19040850,-1.48669220
240,1778603122.370732,0.30971318,-0.10878683,0.64436686,1.06290470,-2.84281200,-1.35596700
241,1778603122.3807354,0.20336552,-0.51612770,-0.22056165,1.46974060,-2.87702040,-0.68645930
242,1778603122.390583,0.22385453,-0.79711970,-0.76888630,1.15453450,-2.31135960,-0.40912670
243,1778603122.4004314,0.48338187,-0.91127270,0.14384985,0.38728827,-2.35167670,-0.06826414
244,1778603122.4104857,0.70339470,-0.99761920,0.54484886,0.44104436,-2.82692960,-0.01084285
245,1778603122.420516,0.99219203,-1.29178270,0.57509450,0.66339916,-3.26430870,-0.11957678
246,1778603122.4307454,1.19025240,-1.60302040,0.55460554,0.99815303,-3.60394950,-0.36392270
247,1778603122.4407682,1.31806480,-1.92255120,0.50338304,1.16064310,-3.61616680,-0.45677415
248,1778603122.4507804,1.40831390,-2.23964290,0.43654984,1.21684270,-3.24598260,-0.31505352
249,1778603122.4609933,1.54344380,-2.41721420,0.46923468,1.22172950,-2.95032400,-0.10858121
250,1778603122.4708397,1.61661880,-2.29330440,0.53704350,1.32557650,-2.60824000,0.18952079
251,1778603122.4806745,1.61661880,-2.29330440,0.53704350,1.32557650,-2.60824000,0.18952079
252,1778603122.490539,1.03365790,-1.27665980,0.57460670,2.03417970,-1.83244160,0.37522370
253,1778603122.5005715,0.85803780,-1.01664470,0.55509335,3.02744580,-1.19347700,0.40821040
254,1778603122.510575,0.77169130,-0.90005250,0.53314084,3.51125070,-0.89904020,0.44119710
255,1778603122.5208147,0.69461370,-0.79955890,0.46923468,3.91564320,-0.67546374,0.49495320
256,1778603122.530823,0.67363685,-0.73077434,0.32922652,4.25039700,-0.51297370,0.57314390
257,1778603122.5408318,0.67705170,-0.70784616,0.17994952,4.39944800,-0.42256570,0.61956960
258,1778603122.5508502,0.75071454,-0.51515200,-3.30903460,3.69328860,0.66599530,0.61712617
259,1778603122.560764,0.72778636,-0.43856218,-2.45386270,0.98104880,2.38374700,0.61956960
260,1778603122.5707946,0.64631820,-0.52929920,-0.79571710,-0.95294905,1.83641220,0.54382235
261,1778603122.580824,0.60924286,-0.57174070,0.29751736,-1.52349670,0.18096869,0.34590217
262,1778603122.5909092,0.50484650,-0.45905116,-0.02884315,-0.83321960,-0.04016436,0.15897755
263,1778603122.6007586,0.45996585,-0.36099666,-0.16836348,0.16126831,1.20233460,0.09544762
264,1778603122.61077,0.53558004,-0.36148450,-0.31715265,0.84665860,1.38192880,0.10522146
265,1778603122.6207845,0.70583385,-0.37416816,-0.46691746,0.82222400,-0.13179408,0.10277800
266,1778603122.6305897,0.82876784,-0.36294800,-0.08152915,0.91751890,-2.65833100,0.05146536
267,1778603122.640906,0.85998920,-0.35904533,0.00774435,1.45752330,-3.54041960,-0.09025527
268,1778603122.6509588,0.85267170,-0.35416700,-0.12299499,1.79838590,-3.87028650,-0.27107126
269,1778603122.6604156,0.81559634,-0.33855635,-0.23763582,1.83503780,-3.90205140,-0.37980518
270,1778603122.6704519,0.69266236,-0.32001868,-0.22300081,1.74096470,-3.81042170,-0.47876528
271,1778603122.6804519,0.51070050,-0.32684833,-0.07665081,1.62978720,-3.67603160,-0.47754353
272,1778603122.6904914,0.39654753,-0.34294683,0.03994136,1.57725290,-3.50498940,-0.47876528
273,1778603122.7008653,0.31946984,-0.35270350,0.15360652,1.59191360,-3.35105160,-0.51053023
274,1778603122.7109754,0.31946984,-0.35270350,0.15360652,1.59191360,-3.35105160,-0.51053023
275,1778603122.720912,0.31946984,-0.35270350,0.15360652,1.59191360,-3.35105160,-0.51053023
276,1778603122.7311227,0.17751035,-0.28830950,0.20873170,1.83870300,-3.10548380,-0.55939940
277,1778603122.7405035,0.29702953,-0.34343470,0.15604569,1.81671190,-3.10792730,-0.59482956
278,1778603122.750577,0.62290220,-0.52978700,0.16775368,1.62367860,-3.30462570,-0.84406240
279,1778603122.7605383,0.80144920,-0.66930735,0.23409903,1.37566750,-3.70168780,-1.19714220
280,1778603122.7707732,0.86730665,-0.77321590,0.30727400,1.08611760,-4.24780100,-1.51479200
281,1778603122.7808015,0.97072730,-0.93664010,0.36239920,0.64140800,-5.04314700,-1.74447720
282,1778603122.7908142,1.15707970,-1.14201780,0.34191018,0.26267186,-5.35224440,-1.73836840
283,1778603122.8008296,1.37855600,-1.37129950,0.32678735,-0.06352994,-5.24595400,-1.65773430
284,1778603122.8106732,1.66052370,-1.64351060,0.34239805,-0.38362310,-4.85255700,-1.49768770
285,1778603122.8206677,1.91761180,-1.87669490,0.38240036,-0.61819520,-4.29667000,-1.26800250
286,1778603122.8306787,2.19616460,-1.99816540,0.44337955,-0.64140800,-3.54041960,-1.07496930
287,1778603122.8405695,2.19616460,-1.99816540,0.44337955,-0.64140800,-3.54041960,-1.07496930
288,1778603122.850749,1.83614370,-1.32934580,0.57167970,0.59253883,-1.73959020,-1.68094720
289,1778603122.8604329,1.46636600,-0.95322630,0.59899837,1.44530610,-0.84406240,-1.96561010
290,1778603122.8709092,1.18830100,-0.73857970,0.57411885,2.10015320,-0.38347036,-2.09511350
291,1778603122.8804123,0.92048055,-0.55222730,0.41410953,2.80142600,-0.06215549,-2.08778300
292,1778603122.8904305,0.72681070,-0.45124584,0.03262385,3.14717530,0.29092434,-1.84588060
293,1778603122.9007118,0.78681420,-0.51515200,0.03847786,3.12029720,0.61101750,-1.48058350
294,1778603122.910729,0.92926157,-0.68930850,0.23800169,3.06654120,0.37278023,-1.33641950
295,1778603122.9208112,0.91755354,-0.86541635,0.38532734,3.01034160,-0.39080074,-1.27044610
296,1778603122.9307978,0.76632524,-0.88736886,0.36581403,2.99323750,-1.14582960,-1.18492500
297,1778603122.9408073,0.60241320,-0.87078250,0.33361703,3.06287600,-1.60764340,-0.98456130
298,1778603122.9504163,0.44679436,-0.84785430,0.35800868,3.21437050,-1.83610680,-0.76831520
299,1778603122.9605608,0.34239805,-0.82248700,0.44923353,3.47093370,-2.07067900,-0.52763444
300,1778603122.9704506,0.24385570,-0.80248580,0.54972720,3.92297360,-2.49706240,-0.22220206
301,1778603122.9806142,0.12482436,-0.76687400,0.61851174,4.47641700,-3.03462360,0.05635228
302,1778603122.9904873,0.00335385,-0.75272685,0.55948380,5.05918200,-3.54652800,0.32146758
303,1778603123.0005207,-0.09031015,-0.74004316,0.41606086,5.43058800,-3.82386100,0.52427470
304,1778603123.0105307,-0.09031015,-0.74004316,0.41606086,5.43058800,-3.82386100,0.52427470
305,1778603123.0207787,-0.19421865,-0.67321000,0.19068186,5.62972970,-4.19526670,0.97264946
306,1778603123.0308042,-0.16104598,-0.62003620,-0.01176898,5.24244170,-4.39563040,1.25120380
307,1778603123.04083,-0.11958014,-0.53808016,-0.18104716,4.64745900,-4.38830000,1.36360290
308,1778603123.0508347,-0.07518731,-0.45124584,-0.42789080,3.78491800,-4.25268800,1.37948540
309,1778603123.060876,0.05945469,-0.32684833,-0.95621430,2.75133500,-4.05721100,1.29640780
310,1778603123.0705833,0.23019636,-0.28928518,-1.18208120,1.73729940,-3.86784320,1.12292220
311,1778603123.0808003,0.37020450,-0.36782634,-0.79035100,-0.38728827,-2.74751700,0.32268932
312,1778603123.0906358,0.24092870,-0.56881370,-0.07177249,-0.90896680,-1.65651260,-0.19165882
313,1778603123.1008704,0.24092870,-0.56881370,-0.07177249,-0.90896680,-1.65651260,-0.19165882
314,1778603123.1108787,0.10433535,-0.72979870,0.46289290,-0.52656543,-0.99433510,-0.40546150
315,1778603123.1207454,0.17311986,-0.90590650,0.33947104,-0.29565856,-0.96257020,-0.24785839
316,1778603123.1306798,0.17311986,-0.90590650,0.33947104,-0.29565856,-0.96257020,-0.24785839
317,1778603123.140501,0.54972720,-1.18738640,0.23702602,-0.07941242,-0.60826860,-0.05115993
318,1778603123.150518,0.73412820,-1.28836790,0.29751736,0.04398226,-0.28695372,-0.13423753
319,1778603123.1605253,0.80486405,-1.33861470,0.36337486,0.19058982,-0.11102467,-0.24785839
320,1778603123.170528,0.82340170,-1.39130070,0.38386387,0.34208430,-0.02306015,-0.34804020
321,1778603123.1805718,0.82779217,-1.49277000,0.42679320,0.49235702,-0.01695150,-0.41401360
322,1778603123.1906407,0.81803554,-1.53862640,0.48728454,0.57787806,-0.24419320,-0.31994042
323,1778603123.2008607,0.81120586,-1.55082230,0.63168323,0.68294680,-0.65469430,-0.14401138
324,1778603123.2106194,0.84632980,-1.48252560,0.67705170,0.87842360,-1.19347700,0.11255184
325,1778603123.220412,0.91657790,-1.38349530,0.60631585,1.13620850,-1.65284740,0.28603745
326,1778603123.230616,0.95950720,-1.22104680,0.52972600,1.57236600,-2.10000040,0.30680683
327,1778603123.2408354,1.00438790,-1.14396920,0.39703536,1.94132830,-2.30280760,0.17974696
328,1778603123.2508404,1.01658370,-1.09274670,0.30483487,2.23210000,-2.29914240,0.04046979
329,1778603123.2604768,1.00585140,-1.02347430,0.21458568,2.42757650,-2.16597400,-0.01450804
330,1778603123.2706127,0.99170420,-0.96786135,0.14189851,2.59861870,-1.96683190,-0.02428187
331,1778603123.2808983,0.94145733,-0.88346620,0.02530635,2.75377850,-1.63085630,0.02580904
332,1778603123.290469,0.85998920,-0.75614170,-0.28495565,2.85029500,-0.93935734,0.16630794
333,1778603123.3005304,0.85998920,-0.75614170,-0.28495565,2.85029500,-0.93935734,0.16630794
334,1778603123.3107433,0.67558820,-0.62491450,-0.60595000,2.53997560,1.57374040,0.64400417
335,1778603123.3207731,0.67949086,-0.67077080,-0.41374367,2.02562760,1.68613950,0.74785120
336,1778603123.3304634,0.65558710,-0.67369790,-0.10689648,1.13132150,0.43631017,0.70020380
337,1778603123.3408086,0.63461020,-0.66052634,0.19263318,0.80756325,-0.63392490,0.56703526
338,1778603123.350425,0.59216870,-0.61564570,0.26873520,0.74403330,-1.67483850,0.35811950
339,1778603123.3606784,0.57411885,-0.58247300,0.20970736,0.82955440,-2.14153900,0.22495095
340,1778603123.3706686,0.60046184,-0.55856913,0.11214069,0.94195350,-2.26737740,0.12721258
341,1778603123.380842,0.60046184,-0.55856913,0.11214069,0.94195350,-2.26737740,0.12721258
342,1778603123.3906262,0.73949430,-0.53905580,0.02579419,1.19362970,-1.65895600,-0.12446370
343,1778603123.400638,0.72876203,-0.52539650,-0.00640281,1.23394680,-1.50013110,-0.15989386
344,1778603123.410655,0.71315134,-0.48002800,-0.11470181,1.25349450,-1.25700700,-0.17211115
345,1778603123.4205172,0.71510270,-0.42100018,-0.30446900,1.11910430,-0.80008010,-0.19043710
346,1778603123.4306607,0.71510270,-0.42100018,-0.30446900,1.11910430,-0.80008010,-0.19043710
347,1778603123.4408245,0.60436450,-0.34245902,-0.22592781,0.54733485,-0.31627524,-0.29550585
348,1778603123.4508433,0.56143516,-0.33075100,-0.16250949,0.43615746,-0.27840160,-0.36636615
349,1778603123.4606137,0.50484650,-0.30245668,-0.12250716,0.45570514,-0.21242823,-0.42623090
350,1778603123.4704852,0.47411305,-0.29026082,-0.10201815,0.52534370,-0.14889829,-0.49953467
351,1778603123.4804718,0.45118487,-0.30538365,-0.07616298,0.63285590,-0.20021093,-0.64980740
352,1778603123.4908416,0.46777120,-0.35758185,-0.06006448,0.66462090,-0.46654797,-0.85994490
353,1778603123.500861,0.53070170,-0.48246717,-0.02201348,0.64018630,-0.80496705,-1.08596490
354,1778603123.510898,0.56826484,-0.57515550,0.00530519,0.59253883,-1.18248150,-1.31687180
355,1778603123.5204036,0.60241320,-0.69711380,0.03896569,0.51679160,-1.63574310,-1.52578750
356,1778603123.5304878,0.64143986,-0.81468170,0.03603869,0.42394015,-1.99737510,-1.62108240
357,1778603123.5405052,0.69705290,-0.90590650,0.01994019,0.32864526,-2.21484300,-1.60764340
358,1778603123.5508018,0.76681304,-0.98932606,0.00432952,0.25656322,-2.25516000,-1.54900040
359,1778603123.56076,0.84632980,-1.08250210,-0.00250015,0.18936808,-2.19040850,-1.47325310
360,1778603123.570786,0.98975290,-1.24007240,0.02433069,0.08429934,-2.00226200,-1.35230200
361,1778603123.5805347,1.11219910,-1.36544550,0.05506419,0.01832594,-1.87153700,-1.27411130
362,1778603123.5905762,1.24732890,-1.50496590,0.08287069,-0.06963859,-1.69072100,-1.17759450
363,1778603123.6006606,1.38245870,-1.67570760,0.10628670,-0.16615522,-1.39994930,-1.06763890
364,1778603123.6104553,1.47026870,-1.76010260,0.13458103,-0.21258095,-1.09329520,-1.00777410
365,1778603123.620781,1.47270790,-1.73571110,0.14872819,-0.20036365,-0.82573646,-1.01510450
366,1778603123.6308682,1.29708790,-1.48594050,0.04969802,-0.07696896,-0.15012002,-1.12017330
367,1778603123.6408367,1.16634850,-1.19519160,-0.31422567,-0.01710421,0.88101970,-1.23379410
368,1778603123.6508405,1.02243770,-0.95761680,-0.46008780,-0.13439025,2.04654980,-1.35718880
369,1778603123.660876,1.02243770,-0.95761680,-0.46008780,-0.13439025,2.04654980,-1.35718880
370,1778603123.6708682,0.85559875,-0.79760754,-0.00006098,-0.54489136,1.53097990,-1.43415770
371,1778603123.6808941,0.74095786,-0.73467700,0.17458336,-0.56321734,0.26038110,-1.41827540
372,1778603123.6907108,0.74095786,-0.73467700,0.17458336,-0.56321734,0.26038110,-1.41827540
373,1778603123.7007594,0.54923934,-0.67857620,0.07604102,0.21380267,-0.70967215,-1.01143930
374,1778603123.7105227,0.49167505,-0.67418570,0.00725652,0.54244790,-0.60826860,-0.75609785
375,1778603123.7205522,0.43020800,-0.66198987,-0.00493931,0.81855880,-0.45555240,-0.40423977
376,1778603123.7308874,0.36239920,-0.62735367,0.02579419,0.97738370,-0.43600473,-0.13057235
377,1778603123.74086,0.30629835,-0.57661900,0.05116152,1.14598240,-0.48487392,0.20784675
378,1778603123.7506664,0.23605035,-0.52149385,0.06530869,1.22661650,-0.50808680,0.40088000
379,1778603123.7611184,0.17897385,-0.47905236,0.09262736,1.30847240,-0.49586950,0.63911730
380,1778603123.770908,0.15653352,-0.44587967,0.10287185,1.33779380,-0.46166107,0.76129025
381,1778603123.7804341,0.13604453,-0.37172902,0.13019052,1.35978500,-0.40423977,0.91156300
382,1778603123.7905576,0.03262385,-0.27562585,0.12482436,1.31458100,-0.54962560,1.03251420
383,1778603123.8005676,-0.04396598,-0.24684367,0.09701785,1.22661650,-0.78541940,1.17545650
384,1778603123.810709,-0.02250131,-0.19757250,-0.00542715,1.04091360,-0.93569213,1.30862510
385,1778603123.820516,0.01603752,-0.14635001,-0.11616532,0.78679380,-0.89415330,1.34161170
386,1778603123.8309152,0.12482436,-0.08098034,-0.09274931,0.33719736,-0.75243270,1.25853420
387,1778603123.8404486,0.24922185,-0.05658867,-0.19470648,0.01466075,-0.62659454,1.07893990
388,1778603123.8506536,0.44972134,-0.05414950,-0.38203448,-0.50946120,-0.28451028,0.63667380
389,1778603123.8606613,0.68046653,-0.06390616,-0.36691165,-0.83566300,0.30680683,0.07834341
390,1778603123.8708913,0.96536124,-0.12683667,-0.23470882,-0.95417076,1.27686010,-0.60216000
391,1778603123.8809125,0.77315485,-0.35514265,0.40532854,-0.80634150,1.86329030,-1.43904470
392,1778603123.8907065,0.43654984,-0.46636870,0.45069703,-0.58887360,1.30251650,-1.46225760
393,1778603123.9007256,0.37215585,-0.59515667,0.29946870,-0.55466520,0.77228580,-1.17026420
394,1778603123.9107327,0.44777006,-0.75419040,0.11409202,-0.58520850,0.48517936,-0.74876750
395,1778603123.9207542,0.60582805,-0.99664350,-0.24495333,-0.55955213,0.84070265,-0.55695593
396,1778603123.9307666,0.81266934,-1.27812340,-0.01079331,-0.38606653,2.13329240,-0.40912670
397,1778603123.940763,0.91462654,-1.41130190,0.31751853,-0.21013749,2.08198000,-0.37736170
398,1778603123.9505591,1.02682820,-1.53667500,0.44874570,-0.12095123,1.46256300,-0.33215773
399,1778603123.9608169,1.03268230,-1.69473300,0.48972370,-0.05375610,0.39599308,-0.25763223
400,1778603123.970909,0.97902054,-1.76790800,0.40045020,-0.00733038,-0.36025750,-0.11835505
401,1778603123.9804227,0.77852106,-1.74888250,0.28385803,0.13561198,-0.86849700,0.23472479
402,1778603123.9906826,0.66290450,-1.60448380,0.29019985,0.36896232,-0.77931076,0.52183120
403,1778603124.0007873,0.59314436,-1.48691610,0.28385803,0.75747234,-0.57528190,0.81138116
404,1778603124.0107331,0.52826256,-1.31568650,0.27946752,1.02380930,-0.47998700,0.97020596
405,1778603124.020781,0.51655453,-1.23177920,0.28483367,1.20462540,-0.54596040,1.12047870
406,1778603124.0307755,0.60582805,-1.18202020,0.32581168,1.32679830,-0.85994490,1.24265170
407,1778603124.040922,0.71851754,-1.16689740,0.32971436,1.44164090,-1.35108020,1.21210850
408,1778603124.0504925,0.73705520,-1.13616380,0.23653820,1.49539700,-1.55388720,1.12903080
409,1778603124.060404,0.73705520,-1.13616380,0.23653820,1.49539700,-1.55388720,1.12903080
410,1778603124.0704386,0.70583385,-1.04786600,0.05847902,1.51860990,-1.16659900,0.99341890
411,1778603124.0808296,0.65217220,-0.95615333,-0.00396365,1.46851900,-0.41645706,0.97631460
412,1778603124.0908499,0.63851285,-0.87468517,0.01896452,1.38544130,0.17730351,1.03251420
413,1778603124.1005237,0.67656386,-0.83712210,0.05018586,1.29625510,0.53038335,1.07527470
414,1778603124.1105256,0.73217684,-0.79858315,0.08921252,1.19240810,0.70264720,1.07160950
415,1778603124.1208937,0.81120586,-0.74736070,0.07945585,0.99204440,0.77350754,0.98853195
416,1778603124.1306815,0.85852570,-0.70004090,-0.02591615,0.81245020,0.83459400,0.89568050
417,1778603124.14074,0.90828470,-0.62149966,-0.36008197,0.50823950,1.08993550,0.78572480
418,1778603124.150835,0.88389300,-0.53125054,-0.37179000,-0.21013749,1.68491780,0.62689996
419,1778603124.1609702,0.84437853,-0.49076036,-0.19665782,-0.50579600,1.80831240,0.57680905
420,1778603124.170489,0.83071923,-0.46441734,-0.10689648,-0.78312860,1.82297330,0.52916163
421,1778603124.1807814,0.80681540,-0.39612067,-0.16689998,-1.07756540,1.93537240,0.45463613
422,1778603124.1907487,0.78096020,-0.31611600,-0.29715148,-1.16675170,2.30311300,0.41187558
423,1778603124.2007043,0.75315370,-0.25172200,-0.36447248,-1.19240810,3.03492900,0.35201082
424,1778603124.2108827,0.75803200,-0.18488884,-0.36691165,-1.20340360,3.46986460,0.26160285
425,1778603124.2209911,0.78535074,-0.14878917,-0.33227548,-1.26326840,3.39900450,0.10277800
426,1778603124.2304237,0.82096255,-0.03561183,-0.05860098,-1.29869850,2.19193550,-0.23564109
427,1778603124.2406132,0.78193590,0.02000117,0.09018819,-1.03602670,0.86269380,-0.51297370
428,1778603124.2506819,0.78193590,0.02000117,0.09018819,-1.03602670,0.86269380,-0.51297370
429,1778603124.260722,0.65753840,0.01658633,0.00823219,-0.26878050,-0.31627524,-0.80252360
430,1778603124.2707953,0.61948735,0.01219583,-0.08201698,0.01954767,-0.60338170,-0.95890500
431,1778603124.2808163,0.61948735,0.01219583,-0.08201698,0.01954767,-0.60338170,-0.95890500
432,1778603124.2905471,0.51899370,-0.25660032,-0.13860564,0.14294235,-0.84528416,-1.56488290
433,1778603124.300822,0.48484537,-0.40587732,-0.09323715,0.12705988,-0.74754580,-1.78723760
434,1778603124.3106244,0.47362520,-0.51515200,-0.09226148,0.02565632,-0.60216000,-2.00714900
435,1778603124.3206685,0.51948154,-0.62345100,-0.11421398,-0.15393792,-0.54351693,-2.13298700
436,1778603124.3308125,0.77071570,-1.00298540,-0.25714916,-0.52290020,-0.57283840,-2.26737740
437,1778603124.3404052,0.96194637,-1.31617430,-0.53618980,-1.15697790,-0.55451250,-2.42131520
438,1778603124.350722,1.02146210,-1.49862400,-0.44008666,-1.93155440,-0.38224864,-2.48484520
439,1778603124.3605378,1.08683170,-1.59131240,-0.31812832,-2.42268970,-0.24052800,-2.42009350
440,1778603124.3709679,1.21805880,-1.81425230,-0.20836583,-2.78554340,-0.10125083,-2.24049930
441,1778603124.3804815,1.33757800,-2.19476220,-0.26544230,-3.13129280,0.54504410,-1.72248600
442,1778603124.3906257,1.29464860,-2.38696860,-0.20104831,-3.13129280,0.54504410,-1.72248600
443,1778603124.4004276,1.13171230,-2.32940400,0.05408852,-3.01889370,2.38252540,-0.74388057
444,1778603124.41088,0.94194525,-2.02011800,0.20824386,-2.69880060,2.59266280,-0.52519100
445,1778603124.420415,0.83657320,-1.75376090,0.27995536,-2.35671640,2.26279600,-0.50075640
446,1778603124.4307146,0.65753840,-1.30105150,0.38679087,-1.80571630,1.29152080,-0.60460340
447,1778603124.4407458,0.65753840,-1.30105150,0.38679087,-1.80571630,1.29152080,-0.60460340
448,1778603124.45097,0.58289987,-1.01566900,0.32483602,-0.97249675,-0.06459895,-0.65958124
449,1778603124.4604683,0.58387550,-0.97908145,0.10726235,-0.74892020,-0.24052800,-0.58994263
450,1778603124.470492,0.57607020,-0.94932365,-0.00542715,-0.64629495,-0.08292489,-0.43966994
451,1778603124.4805067,0.56436217,-0.83517070,-0.04347815,-0.59986920,0.40454520,-0.17944153
452,1778603124.490656,0.55314200,-0.74150670,0.04140485,-0.52656543,0.68065610,0.01114828
453,1778603124.5007844,0.52045720,-0.66784390,0.09116385,-0.40805766,0.70386890,0.15775582
454,1778603124.5106726,0.47313735,-0.58588785,0.12531220,-0.24434592,0.62201303,0.31535894
455,1778603124.5209262,0.41069470,-0.51661550,0.13360536,-0.01221729,0.47540550,0.54015720
456,1778603124.5304291,0.31166452,-0.42490283,0.11994602,0.24190246,0.36056295,0.83581570
457,1778603124.5406945,0.26971084,-0.37611952,0.06969919,0.34086254,0.34345870,1.01052310
458,1778603124.550727,0.15946053,-0.32099435,0.03262385,0.32253662,0.38499752,1.22554740
459,1778603124.5604613,0.13555670,-0.28343117,-0.03908765,0.19058982,0.38621926,1.35505080
460,1778603124.570714,0.07604102,-0.24342884,-0.06591848,-0.04764745,0.42042768,1.43568490
461,1778603124.5807798,-0.01957431,-0.16488767,-0.16689998,-0.42149670,0.80405074,1.54808400
462,1778603124.590976,-0.01615948,-0.09317617,-0.10835998,-0.84543690,1.16934790,1.60061850
463,1778603124.6008244,0.04921019,-0.05610084,0.02042802,-1.16553000,1.10826150,1.54075370
464,1778603124.6108527,0.27654052,-0.00878100,0.28629720,-1.18019080,0.82848537,1.36115940
465,1778603124.6207302,0.43557420,0.05024683,0.01750102,-0.99937480,0.70631240,1.07283130
466,1778603124.6307604,0.76876440,0.08683433,-0.30495682,-0.68050337,1.81808630,0.54137890
467,1778603124.640777,1.13220020,-0.05707650,-0.29568797,-0.55466520,2.37397310,0.01603520
468,1778603124.650789,1.63076590,-0.23513566,-0.45277032,-1.11055220,2.29456100,-1.10062560
469,1778603124.6608045,1.63076590,-0.23513566,-0.45277032,-1.11055220,2.29456100,-1.10062560
470,1778603124.670819,0.71998100,-0.32440916,0.82730436,-1.17408220,-0.47754353,-2.14276100
471,1778603124.6808422,0.65022090,-0.49905350,-0.36447248,-1.04946570,-1.42438400,-1.48791380
472,1778603124.690428,0.68046653,-0.87175820,-0.58155830,-1.10322180,0.37522370,-0.78786284
473,1778603124.7004392,0.71656620,-0.89614980,0.34044670,-1.04702220,0.84070265,-0.29428410
474,1778603124.710506,0.71656620,-0.89614980,0.34044670,-1.04702220,0.84070265,-0.29428410
475,1778603124.7205606,0.85315955,-1.01079070,0.53850704,-0.55466520,-1.09818220,0.10766492
476,1778603124.7305114,0.75217800,-1.02347430,0.42045137,-0.30054548,-1.86909350,-0.02428187
477,1778603124.7407217,0.59168090,-1.06494020,0.39801103,-0.06230821,-2.35534200,-0.08170316
478,1778603124.7504814,0.54582450,-1.18494710,0.44386740,0.21624613,-2.64855700,0.10399973
479,1778603124.7604778,0.70193120,-1.36690900,0.51655453,0.47647452,-2.72552590,0.38133234
480,1778603124.770511,0.93560340,-1.57082330,0.59314436,0.76846790,-2.68643070,0.65988666
481,1778603124.7808669,1.23854790,-1.77668890,0.59753490,1.17286040,-2.71208700,0.91767160
482,1778603124.7904723,1.52783310,-1.79571460,0.53314084,1.59557880,-2.78416900,0.92133680
483,1778603124.8004825,1.31513770,-1.48691610,0.36727753,2.04273180,-2.63145280,0.76739890
484,1778603124.8108013,1.10488150,-1.25080470,0.27361350,2.43857220,-2.16108680,0.69898200
485,1778603124.8207068,0.92535890,-1.07567250,0.19214535,2.84174300,-1.52212230,0.65988666
486,1778603124.8306766,0.71949320,-0.93273740,0.12140953,3.35609100,-0.43356127,0.64400417
487,1778603124.8409045,0.56631350,-0.86151370,0.06335735,3.57355900,0.20418155,0.65133460
488,1778603124.8506405,0.47411305,-0.84053683,0.02579419,3.64930630,0.73196870,0.69531685
489,1778603124.8604512,0.44728217,-0.84395164,0.01554969,3.56011990,0.91644990,0.76617720
490,1778603124.870617,0.43898900,-0.85078140,-0.05567398,3.34509560,0.92378026,0.82604190
491,1778603124.8809607,0.47362520,-0.90054035,-1.41428980,1.58824840,1.14613510,0.92500200
492,1778603124.8904228,0.63412240,-0.93712790,-0.52984804,-0.15882485,0.68187780,0.73074700
493,1778603124.9004369,0.64095205,-0.89419854,0.02091586,-0.72082040,0.30436337,0.52549640
494,1778603124.9106061,0.67656386,-0.85712314,0.17897385,-0.70371620,0.25182900,0.47296205
495,1778603124.920805,0.70876086,-0.79614400,0.14726469,-0.52412200,0.38499752,0.47174034
496,1778603124.9304838,0.75754420,-0.67321000,-0.00591498,-0.10262528,1.05817060,0.55237450
497,1778603124.9405017,0.79559517,-0.57271636,-0.09470064,0.32009315,1.97080250,0.61468270
498,1778603124.9505115,0.83657320,-0.44685537,-0.34788615,0.42882708,2.37641670,0.62079130
499,1778603124.9605813,0.88096600,-0.33855635,-0.71522460,0.05497783,2.34465170,0.56214833
500,1778603124.9706063,0.87901473,-0.18098617,-0.60107166,-0.65973395,1.62993990,0.44974920
501,1778603124.9807634,0.80291270,-0.09171267,-0.25031948,-0.96027940,0.83703744,0.39843655
502,1778603124.9905267,0.80144920,-0.04927117,-0.19763349,-0.63529940,0.42775807,0.38133234
503,1778603125.0005307,0.84828120,-0.01219583,-0.20934150,-0.37873617,0.04169152,0.27259842
504,1778603125.0105522,0.84828120,-0.01219583,-0.20934150,-0.37873617,0.04169152,0.27259842
505,1778603125.0206,0.67997870,0.01122017,-0.21812248,-0.05742129,-1.46592270,0.00626136
506,1778603125.0305903,0.54045830,-0.08781000,-0.17909582,0.16737695,-2.25271650,-0.15989386
507,1778603125.0405974,0.45167267,-0.18244967,-0.10933565,0.31154105,-2.58380530,-0.30405796
508,1778603125.0503945,0.37849770,-0.23757485,-0.01030548,0.37629270,-2.76828650,-0.41401360
509,1778603125.060424,0.31507936,-0.28782168,0.09506652,0.44348782,-2.88557240,-0.49586950
510,1778603125.0704443,0.28093103,-0.34197116,0.16677801,0.55100006,-2.99064140,-0.56917330
511,1778603125.0804424,0.25556368,-0.37221682,0.11555553,0.61208653,-3.04561900,-0.60826860
512,1778603125.0906818,0.32532385,-0.44636750,-0.06055231,0.53511757,-3.05172780,-0.66568990
513,1778603125.1006994,0.51557887,-0.58735140,-0.25861263,0.18203771,-2.85625100,-0.89904020
514,1778603125.1106954,0.70095557,-0.72150550,-0.21129280,-0.20158538,-2.71086530,-1.21302470
515,1778603125.1207168,0.78437500,-0.80833983,0.04140485,-0.50823950,-2.86113790,-1.48669220
516,1778603125.131023,0.93853040,-0.97176400,0.25946635,-0.73425950,-3.37792940,-1.72126420
517,1778603125.1405797,1.11658950,-1.15323800,0.27605268,-0.90774506,-3.86539960,-1.84710240
518,1778603125.1505055,1.30245400,-1.35520100,0.27897970,-1.08856100,-4.10730200,-1.82022430
519,1778603125.160768,1.56929890,-1.70400190,0.24873403,-1.23639040,-4.08408930,-1.62963450
520,1778603125.1707776,1.75565110,-1.98889650,0.16141187,-1.41109760,-3.67603160,-1.26067220
521,1778603125.1807575,2.00444630,-2.19573780,0.17799819,-1.53937920,-2.47018460,-0.72677636
522,1778603125.1907756,1.75077300,-1.96206570,0.28288236,-1.23516860,-1.38773200,-0.66935510
523,1778603125.2004836,1.35270100,-1.60594740,0.31751853,-0.75869405,-0.60704690,-0.71822430
524,1778603125.2104764,1.04682930,-1.29763660,0.23995303,0.00488692,0.43386670,-0.82573646
525,1778603125.220489,0.79998570,-1.06981850,0.10092052,0.47158760,1.17912170,-0.88071430
526,1778603125.230672,0.58680254,-0.93517650,0.08335852,1.22539470,2.43017300,-0.85505795
527,1778603125.240801,0.54826367,-0.91468745,0.01750102,1.52594020,2.72583130,-0.68279410
528,1778603125.2508156,0.55704470,-0.90444300,-0.20299964,1.38910650,2.51569400,-0.53007793
529,1778603125.2604613,0.55704470,-0.90444300,-0.20299964,1.38910650,2.51569400,-0.53007793
530,1778603125.2704837,0.54045830,-0.84248820,0.08579769,0.41050112,0.32391104,-0.30894485
531,1778603125.2805147,0.52826256,-0.75955650,0.13409320,0.20280711,-0.73777190,-0.22708899
532,1778603125.2906759,0.49557772,-0.69565034,0.11311635,0.30176720,-1.06886070,-0.08292489
533,1778603125.3007529,0.42874455,-0.62637800,0.14189851,0.62796897,-0.92836180,0.13576470
534,1778603125.3108885,0.38044903,-0.57271636,0.16531453,0.99693130,-0.70356350,0.34468046
535,1778603125.3204153,0.33312920,-0.52344520,0.15263085,1.39155000,-0.46043932,0.54748756
536,1778603125.3304281,0.27800402,-0.47612533,0.11506769,1.88635040,-0.11957678,0.84192437
537,1778603125.3404577,0.25897855,-0.44685537,0.11604336,2.14780040,0.00015272,1.01785340
538,1778603125.350412,0.24141651,-0.36733850,0.12726352,2.38359430,0.03436114,1.17301310
539,1778603125.3604217,0.25019753,-0.31904300,0.10287185,2.48744130,-0.08659008,1.27197310
540,1778603125.3704906,0.23848954,-0.26391783,0.03408735,2.49599340,-0.35414886,1.35382900
541,1778603125.3806512,0.22336671,-0.08537084,-0.40301132,2.10870530,-0.95401806,1.43079800
542,1778603125.390624,0.22336671,-0.08537084,-0.40301132,2.10870530,-0.95401806,1.43079800
543,1778603125.4008713,0.44679436,0.13317850,-0.87035560,0.61208653,-2.27959470,1.18645220
544,1778603125.4108806,0.71217570,0.18001050,-1.11476020,-0.13561198,-2.14398260,0.70631240
545,1778603125.4204035,0.89023490,0.13854466,-1.12305330,-0.34574947,-1.45004020,0.30558512
546,1778603125.430459,1.04780510,-0.12342183,-0.73522580,-0.59131710,0.05635228,-0.52396930
547,1778603125.4405775,0.94292086,-0.33172667,0.56875270,-0.45570514,0.04413498,-0.98578304
548,1778603125.4505737,0.61656040,-0.44929450,1.10878420,0.13072506,-1.44637510,-1.08963000
549,1778603125.460717,0.43947688,-0.45709983,0.82632870,0.50823950,-2.69131760,-0.91858790
550,1778603125.4705613,0.43947688,-0.45709983,0.82632870,0.50823950,-2.69131760,-0.91858790
551,1778603125.4805646,0.39605970,-0.62101185,0.35020337,1.00792700,-3.37670780,-0.31261006
552,1778603125.4906013,0.39605970,-0.62101185,0.35020337,1.00792700,-3.37670780,-0.31261006
553,1778603125.5007741,0.39605970,-0.62101185,0.35020337,1.00792700,-3.37670780,-0.31261006
554,1778603125.5108602,0.72778636,-1.06347670,0.24336785,1.44041920,-2.60579630,-0.20509785
555,1778603125.5209358,0.80827886,-1.23177920,0.20385335,1.52960540,-2.37244600,-0.26496258
556,1778603125.5308158,0.79315600,-1.36690900,0.14726469,1.52105330,-2.12321330,-0.26129740
557,1778603125.5406184,0.76242250,-1.50155100,0.18580353,1.46118860,-1.77379860,-0.15378521
558,1778603125.5506382,0.80193704,-1.65034020,0.30142003,1.37322400,-1.40483630,0.12843432
559,1778603125.5605557,0.80193704,-1.65034020,0.30142003,1.37322400,-1.40483630,0.12843432
560,1778603125.5704186,0.95511675,-1.75180960,0.47996700,1.39521520,-1.14094270,0.43753190
561,1778603125.5804377,0.91901700,-1.51813730,0.51655453,1.60657440,-1.02487840,0.38866273
562,1778603125.5907595,0.84925690,-1.30300280,0.44191605,1.81182490,-0.93569213,0.29947644
563,1778603125.6005824,0.84974470,-1.21763200,0.38483953,1.92178060,-0.80374530,0.27137667
564,1778603125.6106212,0.86681885,-1.17714180,0.37898555,1.99874960,-0.59971650,0.28970262
565,1778603125.6206858,0.86633104,-1.14835980,0.38679087,2.04273180,-0.59238610,0.32146758
566,1778603125.6304848,0.83315830,-1.07372120,0.29605386,2.10870530,-0.68768100,0.41187558
567,1778603125.6408334,0.79705870,-1.02054740,0.16677801,2.11481380,-0.66446817,0.44241880
568,1778603125.650843,0.75412935,-0.97566670,0.07311402,2.09648800,-0.49586950,0.40698865
569,1778603125.6606963,0.75412935,-0.97566670,0.07311402,2.09648800,-0.49586950,0.40698865
570,1778603125.6707804,0.56728923,-0.83370720,-0.91767544,1.72874740,0.46563166,0.26648977
571,1778603125.6807218,0.51606670,-0.70199220,-1.28647760,-0.37995788,1.66170490,0.34345870
572,1778603125.690691,0.54484886,-0.72248120,-0.42203683,-1.32435490,1.39170270,0.27870706
573,1778603125.701057,0.56192300,-0.70052870,0.09701785,-1.56747900,0.94210620,0.16630794
574,1778603125.7104309,0.55265420,-0.64150090,0.11604336,-1.35367630,0.89568050,0.09178244
575,1778603125.7204561,0.54582450,-0.57125280,0.03359952,-0.97738370,1.25120380,0.05146536
576,1778603125.730463,0.56289870,-0.48783335,0.07945585,-0.32498005,1.95736350,0.01481347
577,1778603125.740466,0.58143634,-0.43319598,0.07506536,-0.01221729,2.01111960,-0.01328631
578,1778603125.750796,0.61851174,-0.34928867,-0.07518731,0.05131264,1.51509740,-0.09147700
579,1778603125.7608256,0.62534136,-0.29123650,-0.15470415,-0.14782928,0.79672040,-0.19654575
580,1778603125.7708654,0.58631474,-0.24538018,-0.16933915,-0.22479823,0.56214833,-0.22342380
581,1778603125.7806718,0.54387320,-0.19366984,-0.12250716,-0.14660755,0.62689996,-0.16233732
582,1778603125.790488,0.55899600,-0.17903483,-0.01615948,0.04153880,0.68187780,-0.09636392
583,1778603125.8004994,0.58777820,-0.16781467,0.05652769,0.20158538,0.48273590,-0.10247257
584,1778603125.8105118,0.60338890,-0.14732568,-0.00542715,0.32498005,0.10033454,-0.16722423
585,1778603125.8207467,0.63851285,-0.11415300,-0.16202165,0.33964083,-0.46043932,-0.34804020
586,1778603125.830716,0.66973420,-0.07366284,-0.39715730,0.20158538,-0.94913113,-0.63148147
587,1778603125.8407285,0.69851637,-0.18879150,-0.48789433,0.07574723,-1.02854360,-0.96990055
588,1778603125.850755,0.76193470,-0.38197350,-0.53375065,0.03665189,-0.66568990,-1.29732410
589,1778603125.8607683,0.76193470,-0.38197350,-0.53375065,0.03665189,-0.66568990,-1.29732410
590,1778603125.8708568,0.77852106,-0.76199570,-0.39227900,-0.27855435,0.33979353,-2.05846170
591,1778603125.8807812,0.56728923,-0.94981160,0.12921485,-0.59253883,-0.19776747,-2.20751260
592,1778603125.8904648,0.56728923,-0.94981160,0.12921485,-0.59253883,-0.19776747,-2.20751260
593,1778603125.9010248,0.56387436,-1.19567940,0.27507702,-0.65484700,-1.18736840,-1.73714670
594,1778603125.9105334,0.69119890,-1.35178630,0.19263318,-0.67561644,-1.30343270,-1.53800480
595,1778603125.920423,0.86047710,-1.60936210,0.05018586,-0.84665860,-1.02610020,-1.12017330
596,1778603125.9304187,1.01024190,-1.93962530,-0.15324064,-1.01770070,-0.35659233,-0.81229746
597,1778603125.9404562,1.09902750,-2.20842150,-0.28983400,-1.17286040,1.07649650,-0.49586950
598,1778603125.9504564,1.07707500,-2.09963460,-0.28007730,-1.18507770,2.40696000,-0.46166107
599,1778603125.96062,1.00780270,-1.76498100,-0.27471116,-1.29869850,2.74049200,-0.61193377
600,1778603125.9707243,0.91023600,-1.48057410,-0.09811548,-1.47584930,2.45705080,-0.75487614
601,1778603125.9804854,0.74827540,-1.18738640,0.15019170,-1.42087150,1.59206630,-0.76220655
602,1778603125.990472,0.67266124,-1.03079180,0.23117203,-1.05190920,0.96531910,-0.62537280
603,1778603126.0006664,0.65119654,-0.94932365,0.22385453,-0.64751667,0.65255630,-0.48487392
604,1778603126.0106816,0.66388017,-0.89614980,0.18580353,-0.15149446,0.43997535,-0.33215773
605,1778603126.0206757,0.66241670,-0.86346510,0.14775252,0.18448116,0.32024586,-0.23930627
606,1778603126.0308282,0.66924640,-0.79760754,0.01945235,0.44959646,0.29581127,-0.15989386
607,1778603126.0407841,0.64387900,-0.68296670,-0.09762765,0.53145236,0.40332347,-0.12324197
608,1778603126.0506494,0.56582570,-0.58930270,-0.12299499,0.49846566,0.49250972,-0.07192933
609,1778603126.0606742,0.56582570,-0.58930270,-0.12299499,0.49846566,0.49250972,-0.07192933
610,1778603126.070706,0.41215820,-0.44246486,-0.20056048,0.34452772,0.60613060,0.11255184
611,1778603126.080633,0.33215353,-0.36099666,-0.20836583,0.24068072,0.79549867,0.27504188
612,1778603126.091102,0.25263670,-0.30294450,-0.17519315,0.19547673,0.86635900,0.35934120
613,1778603126.1005826,0.16482669,-0.22976951,-0.17860797,0.12217296,0.78816830,0.45707956
614,1778603126.1105962,0.09701785,-0.17610784,-0.19763349,0.00366519,0.64644766,0.54260063
615,1778603126.1206203,0.09701785,-0.17610784,-0.19763349,0.00366519,0.64644766,0.54260063
616,1778603126.130597,0.10628670,-0.12195834,-0.15616766,-0.38240135,0.45707956,0.67088220
617,1778603126.140595,0.18092519,-0.12537317,-0.11714099,-0.52778715,0.60368710,0.60979575
618,1778603126.1508853,0.24434352,-0.10878683,-0.11518965,-0.69027720,0.95065830,0.44730574
619,1778603126.1603966,0.31995770,-0.07805333,-0.15128931,-0.85643244,1.44301530,0.23105960
620,1778603126.1704319,0.38337603,-0.07171150,-0.28495565,-0.99815303,1.83519050,0.07589995
621,1778603126.180568,0.38337603,-0.07171150,-0.28495565,-0.99815303,1.83519050,0.07589995
622,1778603126.1908457,0.38337603,-0.07171150,-0.28495565,-0.99815303,1.83519050,0.07589995
623,1778603126.20063,0.53655570,-0.51368850,0.49118720,-2.52775840,2.37519500,-0.59727305
624,1778603126.2106633,0.57363105,-0.60442555,0.45264837,-2.45811990,1.62016610,-0.54840386
625,1778603126.2208927,0.67168550,-0.69174767,0.41410953,-2.39336820,0.92255855,-0.51663890
626,1778603126.2304013,0.92096840,-0.88834447,0.32483602,-2.23454330,0.24938555,-0.52763444
627,1778603126.2405624,1.17610530,-1.16348250,0.00091469,-1.77150790,0.55481790,-0.55206907
628,1778603126.2506545,1.35123740,-1.42398550,0.08726119,-0.89919290,2.06365400,-0.59482956
629,1778603126.2604353,1.38782490,-1.56301800,0.42435405,-0.25289800,2.46682480,-0.62537280
630,1778603126.2708282,1.40636250,-1.68643990,0.47947920,0.12950334,1.92071160,-0.64125530
631,1778603126.2805626,1.36831150,-1.75229740,0.38337603,0.22724170,0.82359844,-0.69501140
632,1778603126.2904074,0.95658020,-1.50642930,0.07457753,-0.03909535,-0.13301581,-0.69989830
633,1778603126.3005593,0.74290920,-1.37032390,-0.02054998,-0.31031930,-0.39202246,-0.60582510
634,1778603126.3108199,0.74290920,-1.37032390,-0.02054998,-0.31031930,-0.39202246,-0.60582510
635,1778603126.3208299,0.74290920,-1.37032390,-0.02054998,-0.31031930,-0.39202246,-0.60582510
636,1778603126.3305476,0.48533320,-1.23373060,0.12970269,-0.94195350,-0.69256794,0.21762058
637,1778603126.3408518,0.63509804,-1.36837240,0.15994836,-0.98227054,-0.57283840,0.38377580
638,1778603126.3508322,0.70973650,-1.40544780,0.18287653,-0.96760980,-0.45310894,0.41309732
639,1778603126.3605497,0.72144455,-1.37666570,0.16872935,-0.91018850,-0.23319763,0.37522370
640,1778603126.3707628,0.65656270,-1.28348960,0.12140953,-0.86131936,0.11133011,0.34468046
641,1778603126.3805742,0.52240855,-1.13177340,0.06140602,-0.90652335,0.74785120,0.41554075
642,1778603126.390669,0.44191605,-1.01615690,0.03652652,-1.06046130,1.21699540,0.52305300
643,1778603126.4008372,0.39215705,-0.93322520,0.02384285,-1.28525950,1.56641010,0.61468270
644,1778603126.4108446,0.36191136,-0.86395290,0.02042802,-1.48073630,1.77654760,0.64522594
645,1778603126.4208796,0.35020337,-0.79272920,0.03213602,-1.66766080,1.93903760,0.63178690
646,1778603126.4308789,0.33654400,-0.72492033,0.05652769,-1.87535490,2.07342770,0.56214833
647,1778603126.4403875,0.33215353,-0.66247770,0.09848136,-2.02684930,2.11741000,0.46807513
648,1778603126.4504526,0.35020337,-0.61027950,0.17311986,-2.12092260,2.01722810,0.36544985
649,1778603126.4605525,0.35020337,-0.61027950,0.17311986,-2.12092260,2.01722810,0.36544985
650,1778603126.4708705,0.42386620,-0.53759235,0.30142003,-2.12947460,1.51387560,0.19929464
651,1778603126.4808798,0.46338070,-0.49027252,0.31312802,-2.04761860,1.03984450,0.10888664
652,1778603126.490537,0.52094500,-0.45027018,0.26483253,-2.00119300,0.80771595,0.06246093
653,1778603126.5006084,0.56582570,-0.37416816,0.13555670,-1.98408880,0.74296427,-0.01206458
654,1778603126.5107822,0.56582570,-0.37416816,0.13555670,-1.98408880,0.74296427,-0.01206458
655,1778603126.521012,0.57021620,-0.22147635,-0.18153499,-2.17834380,1.73623040,-0.10613775
656,1778603126.5305538,0.50289520,-0.18586451,-0.04591731,-2.37015530,2.26401760,-0.10980295
657,1778603126.5406432,0.45069703,-0.17171735,0.05652769,-2.48011110,2.36542100,-0.08048143
658,1778603126.5506449,0.42776886,-0.18196183,0.12287302,-2.57174060,2.24691340,-0.07070760
659,1778603126.5605714,0.42435405,-0.19025500,0.11945819,-2.62549690,2.06365400,-0.13301581
660,1778603126.5710554,0.42972020,-0.22001283,0.07799236,-2.65848350,1.99890230,-0.19288056
661,1778603126.5804791,0.46679550,-0.29465136,0.02774552,-2.70979620,1.97568940,-0.28817546
662,1778603126.5907671,0.51362750,-0.51417637,0.01945235,-2.83685610,2.05632350,-0.47021317
663,1778603126.600774,0.50191957,-0.62881720,0.02628202,-2.94436810,2.09664060,-0.49220430
664,1778603126.6107879,0.50191957,-0.62881720,0.02628202,-2.94436810,2.09664060,-0.49220430
665,1778603126.6207952,0.51606670,-0.74833630,0.02774552,-3.12884950,2.18949200,-0.30283620
666,1778603126.6308284,0.59070520,-0.88932020,0.03506302,-3.24613550,2.28234360,-0.11835505
667,1778603126.641002,0.59070520,-0.88932020,0.03506302,-3.24613550,2.28234360,-0.11835505
668,1778603126.6505086,0.85364735,-1.22007120,0.04530752,-3.45505120,2.63664500,0.37888888
669,1778603126.6605973,0.98877716,-1.37715350,0.05262502,-3.52835500,2.87121730,0.63178690
670,1778603126.6705394,1.23903570,-1.65814550,0.06335735,-3.55645470,3.17176270,0.87979800
671,1778603126.680557,1.51514940,-1.86840160,0.11506769,-3.42817300,3.74231030,1.09726580
672,1778603126.6907613,1.57612850,-1.76449320,0.18677919,-3.06654120,4.13937230,0.95676696
673,1778603126.7007716,1.31513770,-1.28446520,0.24922185,-2.67192240,4.25910200,0.82359844
674,1778603126.71078,1.16634850,-0.99664350,0.24824621,-2.26508670,4.19312860,0.82359844
675,1778603126.7206535,1.13366380,-0.80590070,0.20873170,-1.90467640,3.95000430,0.85291994
676,1778603126.7308867,1.14585960,-0.61808485,0.13506886,-1.51127950,3.29149220,0.80282900
677,1778603126.7407064,1.12341920,-0.52295730,0.08384635,-1.34634600,2.70750550,0.72097313
678,1778603126.750717,1.03170650,-0.40929216,0.03116036,-1.24372070,1.89505530,0.63178690
679,1778603126.7609966,0.92682236,-0.38587618,0.00432952,-1.19240810,1.13880470,0.57436560
680,1778603126.7704818,0.86291620,-0.42051232,0.03506302,-1.14231720,0.74296427,0.51694435
681,1778603126.7807178,0.77315485,-0.49515083,0.04189269,-0.96150120,0.17486005,0.34834564
682,1778603126.7907834,0.67997870,-0.56247187,0.03359952,-0.79534596,-0.03161225,0.24205516
683,1778603126.800792,0.58631474,-0.60198635,0.04823452,-0.64996010,-0.03405571,0.20418155
684,1778603126.810814,0.51850590,-0.61857265,0.06433302,-0.55222180,0.04291325,0.21884231
685,1778603126.8208861,0.44679436,-0.61564570,0.04091702,-0.48258317,0.15775582,0.25182900
686,1778603126.8309615,0.38386387,-0.60881600,-0.00396365,-0.45448340,0.39721483,0.30069820
687,1778603126.840482,0.38386387,-0.60881600,-0.00396365,-0.45448340,0.39721483,0.30069820
688,1778603126.8505952,0.29215118,-0.57710683,-0.08591965,-0.60719960,1.27808190,0.39110620
689,1778603126.86042,0.28971204,-0.56198400,-0.01469598,-0.72204214,1.60672710,0.41309732
690,1778603126.8706968,0.29361472,-0.54003155,0.04530752,-0.83444130,1.80953420,0.42042768
691,1778603126.8808186,0.26483253,-0.46978348,0.10092052,-1.00426170,2.03066730,0.44241880
692,1778603126.890741,0.24678269,-0.42734203,0.11897036,-1.12765630,2.25302200,0.48640108
693,1778603126.900626,0.29068770,-0.42880550,0.13653237,-1.22050790,2.47659850,0.50717050
694,1778603126.9106042,0.29068770,-0.42880550,0.13653237,-1.22050790,2.47659850,0.50717050
695,1778603126.9208627,0.39459620,-0.46734434,0.21946402,-1.43308880,2.70628380,0.44364056
696,1778603126.9306004,0.54192185,-0.54978820,0.32922652,-1.59313540,2.40451650,0.38377580
697,1778603126.9405906,0.64973300,-0.58686350,0.39410836,-1.73729940,1.78265620,0.35567603
698,1778603126.951015,0.72437150,-0.58832700,0.43752554,-1.78861210,0.94088450,0.35078910
699,1778603126.960533,0.81462070,-0.59710800,0.50435870,-1.71286490,0.40698865,0.34590217
700,1778603126.9705951,0.91852920,-0.61613350,0.53948270,-1.52838370,-0.09269873,0.30680683
701,1778603126.9805849,1.00682710,-0.63076854,0.49411420,-1.25471630,-0.45310894,0.22861615
702,1778603126.9906566,1.10634500,-0.64296430,0.23068418,-0.79534596,-0.37369654,0.06490438
703,1778603127.0007365,1.13805430,-0.63125634,-0.22300081,-0.50946120,0.60246540,-0.02061669
704,1778603127.010842,1.13805430,-0.63125634,-0.22300081,-0.50946120,0.60246540,-0.02061669
705,1778603127.020863,1.02097430,-0.64198870,-0.09957898,-0.36896232,3.07646780,0.03436114
706,1778603127.0309546,0.92828584,-0.73516480,0.24580702,-0.40439248,3.08257630,0.04291325
707,1778603127.040486,0.87803906,-0.77809420,0.31068885,-0.45326167,2.53768500,-0.02916879
708,1778603127.0505073,0.83267050,-0.83760990,0.29117550,-0.53389580,1.75822150,-0.12935062
709,1778603127.0608652,0.83267050,-0.83760990,0.29117550,-0.53389580,1.75822150,-0.12935062
710,1778603127.0703883,0.81218153,-0.96054390,0.08287069,-0.72204214,1.02518380,-0.17944153
711,1778603127.0806475,0.84876900,-1.05030520,-0.10299382,-0.85276720,1.34405520,-0.17088942
712,1778603127.0909283,0.87755126,-1.06250110,-0.02298915,-0.96394460,1.83641220,-0.15256348
713,1778603127.1005478,0.88291740,-1.03079180,0.08335852,-1.01403560,2.01600650,-0.09269873
714,1778603127.110864,0.90730906,-0.99274087,0.15360652,-1.05190920,1.97202420,0.01847866
715,1778603127.1207104,0.91316307,-0.95810470,0.15555786,-1.04946570,1.86084690,0.08811724
716,1778603127.1306624,0.88877136,-0.86444070,0.10579886,-1.00792700,1.82908190,0.14920372
717,1778603127.1406927,0.85559875,-0.78687520,0.07213835,-0.93706656,1.92559850,0.18219042
718,1778603127.1508873,0.82096255,-0.71809065,0.06872352,-0.85887590,2.03799770,0.18829907
719,1778603127.1603858,0.82096255,-0.71809065,0.06872352,-0.79656770,2.06243230,0.18096869
720,1778603127.170677,0.77803320,-0.61467000,0.10677453,-0.73914640,1.98912850,0.16508621
721,1778603127.1805518,0.76095900,-0.55661780,0.08043153,-0.66706437,1.86939900,0.15653410
722,1778603127.1906314,0.76827660,-0.51466420,0.04725886,-0.59864750,1.80098210,0.14065161
723,1778603127.200661,0.78583854,-0.48051584,0.03506302,-0.53145236,1.75944330,0.10522146
724,1778603127.2107995,0.80730320,-0.45124584,0.02774552,-0.47403106,1.70568720,0.06001746
725,1778603127.220846,0.82193820,-0.41758534,0.00091469,-0.42027497,1.64826580,0.00748309
726,1778603127.230853,0.84193933,-0.38929102,-0.06591848,-0.37018406,1.59450980,-0.05238165
727,1778603127.240789,0.88633220,-0.36197233,-0.12640981,-0.36163196,1.57740560,-0.11713332
728,1778603127.2507863,0.89999160,-0.33562934,-0.22056165,-0.41783150,1.53464510,-0.19165882
729,1778603127.2608013,0.86437976,-0.32684833,-0.31812832,-0.57909983,1.40269830,-0.28451028
730,1778603127.270818,0.83023137,-0.34880084,-0.34886180,-0.78435040,1.20233460,-0.40668324
731,1778603127.2808602,0.72778636,-0.42002448,-0.39179114,-1.05679610,0.90301085,-0.63025975
732,1778603127.2904983,0.58436340,-0.44197700,-0.44496498,-1.34023740,0.67821264,-0.84772760
733,1778603127.300549,0.48143053,-0.46978348,-0.43911100,-1.57969630,0.51327914,-0.96867883
734,1778603127.3105257,0.42093918,-0.50344400,-0.36300900,-1.82526400,0.28481570,-1.07741270
735,1778603127.3207629,0.39752320,-0.54100716,-0.26105180,-1.89856770,0.17363831,-1.14949480
736,1778603127.3308694,0.37410718,-0.61125517,-0.15860681,-1.90467640,0.06001746,-1.29854580
737,1778603127.34075,0.36435053,-0.67613703,-0.12933682,-1.86802450,0.06856957,-1.36451920
738,1778603127.3507566,0.42045137,-0.81663305,-0.09713981,-1.86069420,0.13332124,-1.35841060
739,1778603127.3604662,0.42045137,-0.81663305,-0.09713981,-1.86069420,0.13332124,-1.35841060
740,1778603127.3706949,0.66729504,-1.08201430,-0.07372381,-1.96331940,0.18707734,-1.38040170
741,1778603127.3808348,0.83657320,-1.24982900,-0.07860215,-2.09770970,0.20906848,-1.45737060
742,1778603127.39054,0.96145850,-1.38447100,-0.08006565,-2.27730400,0.26648977,-1.56732630
743,1778603127.4005458,1.01853500,-1.48252560,-0.05762531,-2.48499800,0.34101525,-1.64063010
744,1778603127.4105718,1.02438900,-1.54643180,-0.05713748,-2.65604000,0.40332347,-1.63207790
745,1778603127.420624,1.01560810,-1.61570400,-0.08640748,-2.83929940,0.52305300,-1.54044830
746,1778603127.4308841,1.01560810,-1.61570400,-0.08640748,-2.83929940,0.52305300,-1.54044830
747,1778603127.440922,0.82437736,-1.67961010,-0.11811664,-3.21314880,1.39536790,-0.94057906
748,1778603127.4504406,0.72924990,-1.59180020,-0.01615948,-3.17649670,2.02578040,-0.59849477
749,1778603127.460515,0.72924990,-1.59180020,-0.01615948,-3.17649670,2.02578040,-0.59849477
750,1778603127.4705966,0.66631940,-1.34105380,0.17019285,-2.67558770,2.28600880,-0.39813113
751,1778603127.4806504,0.63704940,-1.20397270,0.21117085,-2.37626400,2.09908410,-0.43722647
752,1778603127.4905849,0.58972955,-0.96737355,0.29019985,-1.92911100,1.60550530,-0.43966994
753,1778603127.5006597,0.58972955,-0.96737355,0.29019985,-1.92911100,1.60550530,-0.43966994
754,1778603127.510863,0.60192540,-0.77663070,0.23800169,-1.34878950,0.80527250,-0.11591160
755,1778603127.5206323,0.62778056,-0.71467584,0.21604920,-1.14476060,0.59146980,0.05635228
756,1778603127.5305564,0.65314790,-0.64345220,0.19507235,-0.90652335,0.37888888,0.21151192
757,1778603127.5405645,0.63900070,-0.56735015,0.16287535,-0.68905544,0.23594652,0.32513280
758,1778603127.5505867,0.61851174,-0.51222503,0.13067836,-0.53511757,0.19440772,0.41187558
759,1778603127.5607347,0.58387550,-0.45758770,0.09945703,-0.37873617,0.23594652,0.52671814
760,1778603127.5704207,0.54777586,-0.41368267,0.09067602,-0.26389357,0.30436337,0.61223924
761,1778603127.5804293,0.52484770,-0.38392484,0.08091935,-0.12828161,0.43753190,0.69898200
762,1778603127.590458,0.46630770,-0.33562934,0.06774786,0.00855211,0.65622150,0.76739890
763,1778603127.600735,0.40337720,-0.30635932,0.06677218,0.08552107,0.82115495,0.79549867
764,1778603127.6107256,0.30971318,-0.26782050,0.05067369,0.14294235,1.14002650,0.84925480
765,1778603127.6207485,0.30971318,-0.26782050,0.05067369,0.14294235,1.14002650,0.84925480
766,1778603127.6307437,0.28337020,-0.21171968,-0.09031015,-0.04520399,1.99035010,0.92988890
767,1778603127.640451,0.40484068,-0.21367101,-0.15665549,-0.35063640,2.26646110,0.82115495
768,1778603127.6506903,0.50582220,-0.16879034,-0.10396948,-0.82711090,2.24935670,0.53038335
769,1778603127.6606426,0.50631005,-0.12293400,0.02140369,-1.15697790,2.12229700,0.27382013
770,1778603127.6706724,0.48728454,-0.10293283,0.15897270,-1.38910650,1.94025920,0.03436114
771,1778603127.680865,0.45703888,-0.11366516,0.30776188,-1.36467200,1.78265620,-0.05849030
772,1778603127.6908808,0.44972134,-0.13220283,0.30190787,-1.17530380,1.76555190,-0.03527744
773,1778603127.7007892,0.43362287,-0.11708001,0.20921952,-0.95905770,1.95247650,0.01359174
774,1778603127.7106798,0.37313150,-0.07610200,-0.06982114,-0.83566300,2.32266070,0.06979130
775,1778603127.720445,0.33947104,-0.07122366,-0.36105764,-0.84054995,2.82112620,0.15653410
776,1778603127.7307115,0.57655805,-0.36392367,-0.29129747,-1.21806440,3.85715300,0.27015495
777,1778603127.740389,0.72534720,-0.54344630,0.37410718,-1.44041920,3.16687580,0.10033454
778,1778603127.7506077,0.76339823,-0.65125750,0.61412120,-1.36467200,1.55297100,-0.08414663
779,1778603127.7606637,0.83364620,-0.77077670,0.49313855,-1.15209100,0.45097092,-0.19165882
780,1778603127.7704334,0.95267755,-0.93810350,0.22970851,-0.88941914,-0.00351247,-0.28695372
781,1778603127.7804258,1.08048990,-1.08152650,0.16824152,-0.56199560,0.13698642,-0.42256570
782,1778603127.7904544,1.26196400,-1.34300520,0.21946402,0.12828161,0.52427470,-0.66691160
783,1778603127.8007307,1.15951880,-1.39471540,0.19751152,0.40561423,0.59513503,-0.65958124
784,1778603127.8109298,1.00341220,-1.37764140,0.16141187,0.50213087,0.45341438,-0.51663890
785,1778603127.820462,0.85072035,-1.33129720,0.12433653,0.43127054,0.22250749,-0.25396705
786,1778603127.8304772,0.75754420,-1.29763660,0.14775252,0.15760311,-0.12446370,0.25182900
787,1778603127.8405104,0.83657320,-1.31080820,0.18629137,-0.02932151,-0.30039275,0.58047426
788,1778603127.8505075,0.83657320,-1.31080820,0.18629137,-0.02932151,-0.30039275,0.58047426
789,1778603127.8605177,0.90389425,-1.18836200,0.15604569,-0.08307761,-0.07803798,0.73441220
790,1778603127.8704615,0.91755354,-1.11518700,0.18482786,-0.03054324,0.08323032,0.76862060
791,1778603127.8807917,0.91755354,-1.11518700,0.18482786,-0.03054324,0.08323032,0.76862060
792,1778603127.8908741,0.91365090,-1.01079070,0.24970970,0.17837252,0.12843432,0.77472925
793,1778603127.9008522,0.86291620,-0.95517770,0.23653820,0.26878050,0.10399973,0.78939000
794,1778603127.9107351,0.80827886,-0.90395516,0.21165870,0.37384924,0.16630794,0.83215050
795,1778603127.9207618,0.78291154,-0.87517300,0.18726702,0.43127054,0.25671592,0.86025035
796,1778603127.9308667,0.74486053,-0.82004790,0.14238635,0.51312643,0.50839220,0.88101970
797,1778603127.940593,0.74290920,-0.79272920,0.11360419,0.54611313,0.75640330,0.85658514
798,1778603127.950757,0.75998336,-0.77614284,0.09799352,0.54366964,0.99097540,0.78083790
799,1778603127.960793,0.75998336,-0.77614284,0.09799352,0.54366964,0.99097540,0.78083790
800,1778603127.970655,0.75559290,-0.73028654,0.04823452,0.45692685,1.24509510,0.63667380
801,1778603127.9808364,0.74290920,-0.68930850,-0.00006098,0.31031930,1.37582020,0.58536120
802,1778603127.9904788,0.74095786,-0.66589254,-0.03420931,0.17959425,1.45156740,0.58047426
803,1778603128.0007567,0.75705640,-0.63418335,-0.09421282,-0.00977384,1.55297100,0.59146980
804,1778603128.0107005,0.78193590,-0.60832816,-0.15226498,-0.21502440,1.73745210,0.58902640
805,1778603128.0207186,0.78193590,-0.60832816,-0.15226498,-0.21502440,1.73745210,0.58902640
806,1778603128.030778,0.92291970,-0.52734786,-0.29959065,-0.59253883,2.46926800,0.50106186
807,1778603128.0407825,0.98633810,-0.49271170,-0.19031598,-0.72448564,2.68429260,0.37033677
808,1778603128.0505507,1.03804840,-0.40099900,-0.20202398,-0.80145460,2.56578470,0.17363831
809,1778603128.060652,1.03902400,-0.26440567,-0.37959530,-0.91385370,2.41062520,0.01237001
810,1778603128.0710309,0.98877716,-0.16586334,-0.43472052,-1.08733930,2.11618830,-0.13057235
811,1778603128.0804083,0.94389653,-0.10634767,-0.42886650,-1.22539470,1.69591330,-0.25396705
812,1778603128.0904338,0.84584200,-0.08390734,-0.31715265,-1.14231720,1.10948310,-0.48243046
813,1778603128.1007187,0.74534833,-0.11951917,-0.27422333,-0.85643244,0.57070040,-0.77075860
814,1778603128.1107697,0.58387550,-0.16635117,-0.26690580,-0.64385146,0.01970039,-0.97600920
815,1778603128.1208198,0.46581987,-0.22245201,-0.22934265,-0.50090910,-0.54718214,-1.11039950
816,1778603128.1311648,0.36874104,-0.30733500,-0.14494748,-0.34452772,-1.04809130,-1.20447270
817,1778603128.1404643,0.29215118,-0.37319250,-0.06201581,-0.21868959,-1.28144160,-1.21913340
818,1778603128.1504896,0.25068536,-0.42734203,-0.04201465,-0.16249003,-1.35596700,-1.16659900
819,1778603128.160707,0.20482900,-0.48002800,-0.07226031,-0.19792019,-1.33764110,-1.08229970
820,1778603128.170755,0.23165986,-0.55905706,-0.11567748,-0.36407542,-1.32298040,-0.95523980
821,1778603128.180562,0.35117903,-0.69565034,-0.16543648,-0.53023064,-1.34374980,-0.91736620
822,1778603128.1904857,0.76291037,-1.06591580,-0.22836697,-1.06656990,-1.48058350,-1.15193820
823,1778603128.2009165,1.06000090,-1.36886040,-0.39764515,-1.47462760,-1.48180520,-1.48180520
824,1778603128.2104135,1.14927430,-1.53911420,-0.48935783,-1.98775400,-1.29121540,-1.81411560
825,1778603128.2204173,1.14927430,-1.53911420,-0.48935783,-1.98775400,-1.29121540,-1.81411560
826,1778603128.23041,1.34587120,-1.89815950,-0.31325000,-2.99079400,-0.72188944,-2.17452600
827,1778603128.2404919,1.44734050,-2.32208660,-0.10104248,-3.53079840,0.05268709,-1.91674100
828,1778603128.2508588,1.34684680,-2.45819200,0.02481852,-3.62487150,0.60735230,-1.55999590
829,1778603128.260443,1.05902530,-2.24110630,0.20190202,-3.42450790,1.19011740,-1.11895160
830,1778603128.2706077,0.85169610,-1.97767640,0.27019870,-3.08120200,1.41247210,-0.82329303
831,1778603128.28045,0.72924990,-1.68107370,0.35117903,-2.62794020,1.24020830,-0.62781626
832,1778603128.290648,0.64192766,-1.29324620,0.39996237,-2.18323060,0.66233015,-0.57894707
833,1778603128.300663,0.60143757,-1.06347670,0.35654520,-1.76417740,0.17241658,-0.58505577
834,1778603128.310379,0.60729150,-0.94688450,0.30824968,-1.47584930,0.03191768,-0.55206907
835,1778603128.3204145,0.65656270,-0.88541750,0.26336902,-1.26082490,0.10766492,-0.47021317
836,1778603128.3305466,0.72827417,-0.83224360,0.26190552,-1.07634380,0.24205516,-0.34926194
837,1778603128.340562,0.83169484,-0.69613820,0.25653934,-0.94195350,0.22372922,-0.26862780
838,1778603128.350653,0.84925690,-0.54247070,0.22043969,-0.81000670,0.10888664,-0.24663666
839,1778603128.360768,0.83071923,-0.42636633,0.15897270,-0.68294680,0.07956514,-0.19288056
840,1778603128.370433,0.79120470,-0.32440916,0.12726352,-0.61330825,0.10644319,-0.14156792
841,1778603128.380555,0.71607840,-0.24391668,0.11604336,-0.50823950,0.15286891,-0.04993819
842,1778603128.390483,0.56485003,-0.16049717,0.12189735,-0.31887140,0.27748534,0.15286891
843,1778603128.4005425,0.43167153,-0.16342416,0.10579886,-0.14416409,0.42042768,0.33490660
844,1778603128.410457,0.35361820,-0.20245083,0.11067719,0.01221729,0.60368710,0.47174034
845,1778603128.420483,0.27215004,-0.23903833,0.12336086,0.11606431,0.77472925,0.56947870
846,1778603128.4304848,0.17751035,-0.24440451,0.17019285,0.23579380,1.04717490,0.71730800
847,1778603128.440738,0.09457869,-0.22489117,0.25458800,0.32620180,1.20233460,0.86269380
848,1778603128.4507408,0.07311402,-0.20489000,0.35947220,0.49968740,1.13758290,1.09604420
849,1778603128.4607587,0.00384169,-0.17415650,0.36483836,0.63774280,1.03984450,1.24387340
850,1778603128.4708292,-0.02981881,-0.10927467,0.21263437,0.72692907,1.01541000,1.38925920
851,1778603128.480781,-0.02981881,-0.10927467,0.21263437,0.72692907,1.01541000,1.38925920
852,1778603128.4907181,-0.02981881,-0.10927467,0.21263437,0.72692907,1.01541000,1.38925920
853,1778603128.500547,0.67363685,0.01951333,-0.60302300,-1.03113970,0.45219266,0.85291994
854,1778603128.5109112,0.67363685,0.01951333,-0.60302300,-1.03113970,0.45219266,0.85291994
855,1778603128.5205276,0.81705990,0.06341834,-0.40984097,-1.57114420,0.31902415,0.04657844
856,1778603128.530535,0.87901473,0.03902667,0.59655917,-0.36529714,1.36726810,-1.15804700
857,1778603128.5403852,0.84437853,-0.02000117,-0.01274465,0.32742350,1.64093550,-1.52823090
858,1778603128.550428,0.53118950,-0.07805333,-0.55082480,0.05375610,2.06243230,-1.49280080
859,1778603128.5603855,0.36044785,-0.48832120,-0.41862200,-0.80634150,1.71912620,-0.95401806
860,1778603128.5705345,0.41703650,-0.71077317,-0.27763817,-1.38788470,1.11437010,-0.56550807
861,1778603128.580723,0.62973190,-1.07518470,-0.13665432,-1.70797790,1.02396210,-0.38713557
862,1778603128.5906005,0.76681304,-1.13860300,0.53070170,-1.45263650,0.63423040,-0.45310894
863,1778603128.6006234,0.82193820,-1.22836430,0.55509335,-1.14720400,-0.13179408,-0.54596040
864,1778603128.6103823,0.85559875,-1.37325100,0.54192185,-0.79778940,-0.99311340,-0.58139056
865,1778603128.620511,0.86242837,-1.57375040,0.50631005,-0.54366964,-1.53311790,-0.47265664
866,1778603128.6305232,0.83413410,-1.75180960,0.43898900,-0.23579380,-1.94117560,-0.11346813
867,1778603128.6407676,0.78535074,-1.85815730,0.35508168,0.07574723,-1.95950150,0.48273590
868,1778603128.6507854,0.85169610,-2.00792200,0.26141770,0.36163196,-1.65529080,1.00074920
869,1778603128.660787,1.09658840,-1.97572490,0.30434700,0.78801554,-1.05542160,1.35138560
870,1778603128.670903,1.14146910,-1.80595910,0.30483487,1.21562090,-0.63881180,1.25731240
871,1778603128.6807733,0.98341100,-1.36934830,0.34288585,1.53204880,-0.48243046,1.13636120
872,1778603128.6908588,0.89852810,-1.15957990,0.39508402,1.75073850,-0.65469430,1.08871380
873,1778603128.701024,0.81413287,-0.97322750,0.36727753,2.00119300,-1.08840840,1.11681350
874,1778603128.7105405,0.73656740,-0.87273390,0.26678386,2.15268750,-1.29854580,1.19989110
875,1778603128.720426,0.68046653,-0.79809535,0.16677801,2.28585600,-1.22035520,1.29640780
876,1778603128.7306707,0.64534250,-0.72394466,-0.02494048,2.39947680,-0.81962780,1.37582020
877,1778603128.7408319,0.69705290,-0.63613470,-0.46691746,2.37259900,0.61712617,1.47111510
878,1778603128.750843,0.92145620,-0.68003964,-0.47960114,1.96698460,1.88161620,1.41002860
879,1778603128.7607393,1.01609590,-0.69516250,-0.32056746,1.29381160,2.12474040,1.13391770
880,1778603128.7708924,1.01170540,-0.67418570,-0.14055698,0.73914640,1.69224810,0.88346320
881,1778603128.7807262,0.97609350,-0.65613580,-0.02835531,0.38240135,1.24265170,0.73807734
882,1778603128.7904046,0.98438670,-0.60003500,-0.25714916,-0.18448116,0.71608620,0.52793986
883,1778603128.8008041,0.96584904,-0.54393420,-0.53375065,-0.39217520,1.33305970,0.51083565
884,1778603128.810832,0.93218850,-0.52734786,-0.53472630,-0.48869184,2.68184900,0.59635675
885,1778603128.8207982,0.90194285,-0.54881250,-0.39959648,-0.49724394,3.38923050,0.68065610
886,1778603128.8308082,0.90974820,-0.55661780,-0.30349332,-0.60109097,3.29760070,0.72341660
887,1778603128.8408716,0.94048166,-0.51466420,-0.13958131,-0.72204214,2.28845210,0.66477360
888,1778603128.8503819,0.90291860,-0.38880318,-0.07518731,-0.57054770,1.10093100,0.52671814
889,1778603128.8605928,0.82437736,-0.24928285,-0.13470298,-0.30298892,0.42164943,0.43264500
890,1778603128.870419,0.78486290,-0.18440100,-0.15763116,0.00977384,-0.03405571,0.36056295
891,1778603128.8804312,0.79461956,-0.11366516,-0.13080032,0.34330600,-0.58261230,0.22006404
892,1778603128.8907592,0.70241904,-0.05610084,-0.26446667,0.52290020,-1.16293380,0.05879574
893,1778603128.9012485,0.61412120,0.00829317,-0.40837747,0.48624837,-1.65162560,-0.09147700
894,1778603128.9107282,0.50240740,0.02780650,-0.34642264,0.40072730,-1.90574540,-0.20265439
895,1778603128.9207594,0.37215585,-0.01073233,-0.11762882,0.39339690,-2.11343930,-0.30650140
896,1778603128.9306135,0.29654170,-0.03219700,0.01213485,0.44959646,-2.23805600,-0.34315330
897,1778603128.940486,0.18921836,-0.08585867,0.17946169,0.65362530,-2.52638400,-0.39202246
898,1778603128.950489,0.15214302,-0.15659450,0.16433886,0.79290247,-2.73407800,-0.44944376
899,1778603128.9605327,0.16433886,-0.24342884,0.06969919,0.83932820,-2.79760800,-0.53740830
900,1778603128.9705667,0.16433886,-0.24342884,0.06969919,0.83932820,-2.79760800,-0.53740830
901,1778603128.98053,0.16433886,-0.24342884,0.06969919,0.83932820,-2.79760800,-0.53740830
902,1778603128.9904122,0.86291620,-0.91224840,-0.37910750,-0.48380490,-2.32113340,-1.60153470
903,1778603129.000565,0.93755480,-1.06981850,-0.21275632,-1.22905990,-2.35045500,-2.03647040
904,1778603129.0105228,1.11268690,-1.21324160,-0.10543298,-1.75806880,-2.53127100,-2.29059030
905,1778603129.020532,1.29220960,-1.40252080,-0.02250131,-2.23210000,-2.73163460,-2.48118000
906,1778603129.0305493,1.50929550,-1.64594960,0.07165052,-2.64748790,-2.89778970,-2.58014000
907,1778603129.0407329,1.50929550,-1.64594960,0.07165052,-2.64748790,-2.89778970,-2.58014000
908,1778603129.0504723,2.00298260,-2.51234170,-0.06152798,-3.62120650,-2.04257920,-1.75791610
909,1778603129.0606036,1.96395600,-2.69137640,-0.26007617,-3.69328860,-0.28206682,-1.34741500
910,1778603129.0704784,1.52783310,-2.29135320,0.05652769,-3.18749240,2.06365400,-1.11528640
911,1778603129.080488,1.19757000,-1.90645270,0.32971436,-2.69880060,2.83334350,-1.03220880
912,1778603129.0907187,0.67510040,-1.18250800,0.72827417,-1.58091810,3.04958960,-0.85750145
913,1778603129.1009705,0.45459970,-0.86005020,0.64143986,-0.68905544,2.53890680,-0.65102910
914,1778603129.1104996,0.40727988,-0.69955300,0.31995770,-0.18936808,2.05632350,-0.49098256
915,1778603129.1204886,0.40727988,-0.69955300,0.31995770,-0.18936808,2.05632350,-0.49098256
916,1778603129.1304994,0.77266705,-0.68686940,0.14970386,-0.01588248,0.63178690,-0.54596040
917,1778603129.140589,0.71754190,-0.60686470,0.17799819,-0.00244346,-0.71700250,-0.73532850
918,1778603129.1507103,0.65948970,-0.57320416,0.17311986,0.10018183,-1.11528640,-0.63392490
919,1778603129.1607313,0.58631474,-0.51515200,0.19116970,0.36529714,-1.25089840,-0.36636615
920,1778603129.1706,0.58631474,-0.51515200,0.19116970,0.36529714,-1.25089840,-0.36636615
921,1778603129.1804955,0.50874920,-0.44490403,0.22239104,1.02380930,-1.13849930,0.10155627
922,1778603129.1905394,0.41410953,-0.36197233,0.21751268,1.55770520,-1.08963000,0.35445428
923,1778603129.2005515,0.30093220,-0.31367683,0.24483135,1.99264090,-1.11772980,0.56459177
924,1778603129.2105334,0.23897736,-0.28928518,0.24434352,2.32739470,-1.14827310,0.74296427
925,1778603129.220529,0.19604802,-0.25074634,0.25605154,2.61450120,-1.12994710,0.92255855
926,1778603129.230707,0.17653470,-0.21611017,0.27263784,2.86739920,-1.20325090,1.10581790
927,1778603129.240781,0.16775368,-0.11708001,0.15946053,3.11663220,-1.51723540,1.33061620
928,1778603129.2508092,0.20970736,-0.01170800,-0.19421865,3.04088500,-1.87886740,1.40758510
929,1778603129.26072,0.20970736,-0.01170800,-0.19421865,3.04088500,-1.87886740,1.40758510
930,1778603129.270488,0.20970736,-0.01170800,-0.19421865,3.04088500,-1.87886740,1.40758510
931,1778603129.280497,1.04780510,0.24538018,-1.40941150,-0.59864750,-2.01936630,0.21395539
932,1778603129.290747,1.06536700,0.16732684,-0.37618050,-1.06412650,-1.09573860,-0.48976085
933,1778603129.3009326,1.06536700,0.16732684,-0.37618050,-1.06412650,-1.09573860,-0.48976085
934,1778603129.3105006,0.73803085,-0.16683900,1.12780980,0.23823726,-1.36085400,-1.35841060
935,1778603129.320404,0.73803085,-0.16683900,1.12780980,0.23823726,-1.36085400,-1.35841060
936,1778603129.3308556,0.21800053,-0.34782517,0.27312570,1.15819970,-2.57280970,-0.87582740
937,1778603129.3403876,0.25166103,-0.67564917,-0.41032880,1.20462540,-1.59542610,-0.42012227
938,1778603129.3504004,0.23263553,-1.00688800,-1.07036730,0.62919074,-0.49586950,-0.14767656
939,1778603129.3607044,0.59655917,-1.06835500,0.30093220,-0.16859868,-0.42745262,0.19562945
940,1778603129.3709116,0.88682010,-1.22592510,0.62095090,-0.04764745,-1.07374750,0.16752967
941,1778603129.3804207,0.99853390,-1.38398310,0.62778056,0.19669846,-1.94361900,-0.03649917
942,1778603129.3906963,1.09951530,-1.66985360,0.61216986,0.45203993,-2.54226660,-0.20998476
943,1778603129.4005303,0.96292200,-1.77668890,0.53362870,0.68783370,-2.74873880,-0.14645483
944,1778603129.4105432,0.96292200,-1.77668890,0.53362870,0.68783370,-2.74873880,-0.14645483
945,1778603129.4205918,0.89462540,-1.88889060,0.62095090,1.04824400,-2.62534400,0.45463613
946,1778603129.4308617,1.03658490,-1.77034720,0.81852335,1.57480940,-2.64244840,0.76862060
947,1778603129.4403646,1.18049570,-1.69473300,0.76339823,2.27363870,-2.78905580,0.71852970
948,1778603129.4503849,1.12341920,-1.45520690,0.60338890,2.93337270,-2.72674780,0.43264500
949,1778603129.4608366,1.03121860,-1.29812460,0.51996934,3.44161220,-2.46774100,0.26160285
950,1778603129.4708686,0.94779920,-1.14933540,0.43020800,3.99505570,-1.99126650,0.21884231
951,1778603129.4809449,0.92438316,-1.09616150,0.39508402,4.25406200,-1.76646820,0.25427246
952,1778603129.49051,0.81120586,-0.93566430,0.22873287,4.55827300,-1.45370540,0.40454520
953,1778603129.500742,0.73217684,-0.84541510,0.05799119,4.64135070,-1.22524200,0.54626584
954,1778603129.510859,0.53801920,-0.60296200,-3.22366360,4.15143700,0.53771370,0.67088220
955,1778603129.5208702,0.53801920,-0.60296200,-3.22366360,4.15143700,0.53771370,0.67088220
956,1778603129.530696,0.67802740,-0.62393886,-0.69083300,0.25411975,3.35868720,0.90789780
957,1778603129.5407157,0.63314670,-0.62491450,0.46191720,-0.60109097,0.57925254,0.53404856
958,1778603129.5508955,0.49655336,-0.50246835,0.39557186,-0.09773836,-0.30039275,0.32879797
959,1778603129.560407,0.49655336,-0.50246835,0.39557186,-0.09773836,-0.30039275,0.32879797
960,1778603129.5704558,0.49069935,-0.34782517,0.02335502,1.38788470,1.05450530,0.38621926
961,1778603129.5807827,0.54484886,-0.32148215,-0.05616181,1.78983380,0.94332796,0.42409286
962,1778603129.5908241,0.66046536,-0.26879618,-0.15177715,1.72263870,-0.50197816,0.39477137
963,1778603129.600839,0.73656740,-0.27074748,-0.14592315,1.71530830,-1.42071880,0.29825473
964,1778603129.6108544,0.79071690,-0.27904066,-0.17568098,1.84969850,-1.69438610,0.21029020
965,1778603129.6204262,0.84145150,-0.28782168,-0.27958950,1.95476730,-1.84099380,0.12354740
966,1778603129.6304326,0.88828355,-0.27367450,-0.44740415,1.90345470,-2.02303150,0.03558287
967,1778603129.640456,0.93023723,-0.22391550,-0.66302650,1.53571400,-2.38466330,-0.10980295
968,1778603129.6504362,0.93023723,-0.22391550,-0.66302650,1.53571400,-2.38466330,-0.10980295
969,1778603129.6604567,0.83608540,-0.30440800,-0.28934616,1.26082490,-2.98453260,-0.29550585
970,1778603129.6703758,0.70973650,-0.36928985,-0.02347698,1.30847240,-3.34738640,-0.40912670
971,1778603129.6803746,0.61168200,-0.39807200,0.14433768,1.39032830,-3.65281870,-0.50686500
972,1778603129.6903963,0.47313735,-0.42246366,0.23019636,1.58458330,-4.20015340,-0.67424200
973,1778603129.700417,0.39752320,-0.43758650,0.15994836,1.68965200,-4.45549500,-0.75854135
974,1778603129.7106316,0.40386504,-0.43807435,-0.06396715,1.62245690,-4.51413800,-0.81718430
975,1778603129.7208693,0.51460320,-0.45173368,-0.58448535,1.08123060,-4.17938400,-0.93324864
976,1778603129.730851,0.62826836,-0.60003500,-0.36056980,0.50823950,-3.63571450,-1.08352140
977,1778603129.7403603,0.69949204,-0.74687284,0.18677919,0.05986475,-3.39503380,-1.31565000
978,1778603129.7506504,0.79901004,-0.84980565,0.43020800,0.05375610,-3.82752600,-1.44270990
979,1778603129.760717,0.94048166,-0.99030167,0.50484650,0.10629047,-4.18427100,-1.53189610
980,1778603129.7706785,1.13512720,-1.19128900,0.49460202,0.18814635,-4.71694500,-1.69316450
981,1778603129.7805893,1.26781790,-1.32154060,0.41069470,0.18936808,-4.87943500,-1.77868560
982,1778603129.7904358,1.48051320,-1.70400190,0.25800288,-0.07819069,-4.22947500,-1.66506470
983,1778603129.800461,1.65564540,-1.90791630,0.26434470,-0.33964083,-3.01874110,-1.26922430
984,1778603129.8108265,1.71808800,-1.92645400,0.37313150,-0.37751442,-2.23194720,-1.03587400
985,1778603129.8204384,1.71808800,-1.92645400,0.37313150,-0.37751442,-2.23194720,-1.03587400
986,1778603129.8306372,1.71808800,-1.92645400,0.37313150,-0.37751442,-2.23194720,-1.03587400
987,1778603129.8406503,1.04439020,-1.12543150,0.59412000,0.67805990,-0.76098480,-1.06275200
988,1778603129.8504953,1.04439020,-1.12543150,0.59412000,0.67805990,-0.76098480,-1.06275200
989,1778603129.8605082,0.73998220,-0.82882890,0.40776768,1.69453900,-0.64003354,-1.16171200
990,1778603129.8705356,0.67949086,-0.76199570,0.19799936,2.04151000,-0.53496486,-1.14827310
991,1778603129.880743,0.67607605,-0.73126215,-0.03567281,2.16368300,-0.24541493,-1.13116880
992,1778603129.8907473,0.77461840,-0.68784500,-0.56936250,1.89856770,0.90056740,-1.04686950
993,1778603129.9007528,0.88730790,-0.70443135,-0.19275515,1.64078280,1.62749650,-0.98089610
994,1778603129.9107726,0.91706574,-0.69077200,0.17214419,1.51494470,1.47355850,-0.93447040
995,1778603129.9208333,0.91706574,-0.69077200,0.17214419,1.51494470,1.47355850,-0.93447040
996,1778603129.930864,0.79949784,-0.60637680,0.27995536,1.63100900,0.22861615,-0.67179850
997,1778603129.9406157,0.72583500,-0.56003267,0.32434818,1.91322850,-0.22098033,-0.46776970
998,1778603129.9504132,0.65412354,-0.52929920,0.43215933,2.41047240,-0.58994263,-0.29794928
999,1778603129.9605696,0.55509335,-0.50198050,0.50289520,2.94192480,-0.90148370,-0.15500695
1000,1778603129.9707541,0.43996470,-0.48490632,0.53265303,3.53935050,-1.26555910,0.03802633
