id,timestamp,acc_x,acc_y,acc_z,gyro_x,gyro_y,gyro_z
1,1778604592.472929,0.59119300,-1.60350820,0.07116269,0.84284070,0.06963859,0.04657844
2,1778604592.483377,0.56094736,-1.34105380,-0.06347931,1.02487840,0.83566300,0.21029020
3,1778604592.4930687,0.53509220,-1.14982320,-0.12250716,1.06641720,1.32313310,0.32635450
4,1778604592.50308,0.51948154,-1.07225760,-0.14641099,1.04686950,1.66277400,0.40454520
5,1778604592.5131748,0.48484537,-0.98786247,-0.21373199,0.95768327,1.81793360,0.43264500
6,1778604592.523032,0.39752320,-0.88688100,-0.34739830,0.66324645,1.61634810,0.40210176
7,1778604592.5334442,0.35654520,-0.84395164,-0.34203213,0.40179630,1.09589140,0.35567603
8,1778604592.5433679,0.33166570,-0.80980330,-0.26593015,0.15622866,0.10018183,0.26038110
9,1778604592.5534313,0.33166570,-0.80980330,-0.26593015,0.15622866,0.10018183,0.26038110
10,1778604592.5631979,0.25995418,-0.70589480,-0.12884897,0.18188499,-1.36833720,0.05390882
11,1778604592.5734546,0.19214535,-0.63515900,-0.13275166,0.28084508,-1.60779610,0.03313941
12,1778604592.5834188,0.15799703,-0.59710800,-0.13811780,0.33460120,-1.58824840,0.05146536
13,1778604592.5932748,0.14384985,-0.56637454,-0.16104598,0.34804020,-1.38177610,0.07101303
14,1778604592.6032555,0.14384985,-0.56637454,-0.16104598,0.34804020,-1.38177610,0.07101303
15,1778604592.6135817,0.16580236,-0.57564336,-0.20885365,0.20021093,-0.79778940,0.00626136
16,1778604592.6231065,0.17068069,-0.54149497,-0.21519548,-0.05757400,-0.39217520,-0.10858121
17,1778604592.6332946,0.14238635,-0.49271170,-0.20641449,-0.32146758,-0.20525056,-0.21487169
18,1778604592.643423,0.12580003,-0.45514850,-0.17275399,-0.56947870,-0.13316852,-0.29306240
19,1778604592.6530933,0.10140836,-0.40148684,-0.15324064,-0.69898200,-0.13927718,-0.33337945
20,1778604592.6630492,0.07213835,-0.33709285,-0.12250716,-0.89690220,-0.22601996,-0.38347036
21,1778604592.6735406,0.05116152,-0.28830950,-0.12201932,-1.00319270,-0.33841908,-0.40301803
22,1778604592.683018,0.04774669,-0.25708818,-0.13470298,-1.06672260,-0.44593130,-0.41157013
23,1778604592.6930768,0.04774669,-0.25708818,-0.13470298,-1.06672260,-0.44593130,-0.41157013
24,1778604592.7032266,0.07652886,-0.35611832,-0.20397532,-1.22188220,-0.64629495,-0.49831295
25,1778604592.7133462,0.07116269,-0.41514617,-0.27763817,-1.29518600,-0.63652110,-0.53985170
26,1778604592.7233942,0.04628318,-0.48246717,-0.32739717,-1.54564060,-0.43615746,-0.58383400
27,1778604592.733072,0.03262385,-0.52100600,-0.29812714,-1.67636560,-0.19303326,-0.56428635
28,1778604592.743157,0.02335502,-0.58979050,-0.15421632,-1.64215720,0.25900668,-0.51175195
29,1778604592.7534485,0.03847786,-0.66345334,-0.07128465,-1.42835460,0.64018630,-0.47265664
30,1778604592.7634118,0.07165052,-0.76736190,0.13458103,-0.99708400,0.91629720,-0.44089165
31,1778604592.7733302,0.09848136,-0.84785430,0.24190436,-0.60735230,0.85765415,-0.41279188
32,1778604592.7830687,0.15750920,-0.96347090,0.22141537,-0.21762058,0.60719960,-0.36514443
33,1778604592.7931082,0.21604920,-1.08786850,0.23361120,0.05604684,0.38728827,-0.33337945
34,1778604592.803374,0.21604920,-1.08786850,0.23361120,0.21364996,0.18325943,-0.30283620
35,1778604592.8131025,0.26775953,-1.34007820,0.20385335,0.30772313,0.05742129,-0.27107126
36,1778604592.8233385,0.45801452,-1.91620950,-0.05811315,0.41767880,0.24678937,-0.25274530
37,1778604592.8335342,0.73120123,-2.52356200,-0.41862200,0.42256570,1.11543900,-0.35170540
38,1778604592.8431325,0.92682236,-3.00358990,-0.51716435,0.37125307,2.22843480,-0.53007793
39,1778604592.8531983,0.92682236,-3.00358990,-0.51716435,0.37125307,2.22843480,-0.53007793
40,1778604592.8633773,0.95316535,-3.38946600,0.28727287,0.29917103,2.58273630,-0.66813340
41,1778604592.8732302,0.95316535,-3.38946600,0.28727287,0.29917103,2.58273630,-0.66813340
42,1778604592.883134,0.49118720,-1.94791850,0.05311285,0.22953244,-0.10751220,0.26160285
43,1778604592.8931315,0.47850356,-1.58936100,-0.16592431,0.25152358,-1.05679610,0.75762504
44,1778604592.9033036,0.50533440,-1.48789170,-0.25861263,0.35292712,-1.26204660,0.96043220
45,1778604592.9133904,0.50728570,-1.43325440,-0.25861263,0.50442160,-1.17774720,1.01418830
46,1778604592.9232137,0.43752554,-1.37032390,-0.18592548,0.72433290,-0.90896680,0.96409730
47,1778604592.933681,0.38337603,-1.32446750,-0.17421748,0.81107570,-0.73548120,0.90178910
48,1778604592.943097,0.31410370,-1.25275600,-0.22446433,0.80008010,-0.51190466,0.83581570
49,1778604592.9532723,0.31410370,-1.25275600,-0.22446433,0.80008010,-0.51190466,0.83581570
50,1778604592.9631555,0.27019870,-1.07176980,-0.29324880,0.45921760,-0.09773836,0.78694654
51,1778604592.9732718,0.28044320,-0.96688575,-0.27812597,0.19410229,0.07696896,0.75151640
52,1778604592.9830437,0.29410252,-0.88249050,-0.23909931,-0.04902190,0.16982041,0.70264720
53,1778604592.9931595,0.30288354,-0.76102000,-0.20251182,-0.19440772,0.21868959,0.65622150
54,1778604593.003498,0.29849303,-0.65369666,-0.18885247,-0.30436337,0.28466300,0.59880020
55,1778604593.0131164,0.30239570,-0.55466646,-0.16104598,-0.37644540,0.33475390,0.54137890
56,1778604593.023334,0.30142003,-0.42295152,-0.09567632,-0.38011062,0.36529714,0.43264500
57,1778604593.0333524,0.31995770,-0.33562934,-0.01615948,-0.33368490,0.36163196,0.35078910
58,1778604593.0431697,0.31507936,-0.25220984,0.00725652,-0.27504188,0.26511532,0.26648977
59,1778604593.0531547,0.31507936,-0.25220984,0.00725652,-0.27504188,0.26511532,0.26648977
60,1778604593.0634508,0.21019518,0.00975667,0.00725652,-0.18219042,-0.17226386,0.13087778
61,1778604593.073105,0.20629252,0.07610200,0.00237819,-0.16019928,-0.34941465,0.07589995
62,1778604593.0834515,0.14921603,0.15610667,-0.05128348,-0.15042545,-0.54366964,-0.00229074
63,1778604593.0930674,0.07213835,0.20001167,-0.11323831,-0.20540328,-0.73303770,-0.05360339
64,1778604593.1030934,0.00579302,0.22245201,-0.11958014,-0.28359398,-0.88697565,-0.03772090
65,1778604593.113431,-0.04494165,0.21025616,-0.06543065,-0.35689774,-1.05190920,0.02092212
66,1778604593.12329,-0.04591731,0.17952266,-0.06543065,-0.41065386,-1.26449010,0.13209951
67,1778604593.1333194,-0.05421048,0.14976484,-0.08884665,-0.42531460,-1.35001110,0.21884231
68,1778604593.1430283,-0.05372265,0.14683785,-0.25617350,-0.50350530,-1.29258990,0.28725916
69,1778604593.1532805,-0.01664731,0.15561883,-0.57180166,-0.77472925,-0.96760980,0.34712392
70,1778604593.1634643,0.05994253,0.12830016,-0.50643200,-1.35382900,-0.15882485,0.36544985
71,1778604593.172954,0.07604102,0.07073583,0.05018586,-1.46622810,0.25045455,0.31658068
72,1778604593.1832302,0.08579769,0.03268483,0.40923122,-1.10826150,-0.03543016,0.24083345
73,1778604593.1934783,0.08579769,0.03268483,0.40923122,-1.10826150,-0.03543016,0.24083345
74,1778604593.2031612,0.13750802,0.01122017,0.36337486,-0.37033677,-0.96760980,0.03558287
75,1778604593.213117,0.16043620,-0.01658633,0.27800402,-0.08933897,-1.26449010,-0.10002911
76,1778604593.2231379,0.48143053,-0.30879852,-1.38648330,-0.22006404,-0.18936808,-0.44944376
77,1778604593.233129,0.27702835,-0.25269768,-0.27422333,-0.73074700,2.23454330,-0.98578304
78,1778604593.243023,0.13116619,-0.18098617,0.22287886,-0.47296205,2.46667200,-1.24112450
79,1778604593.253362,0.14580119,-0.24391668,-0.04201465,-0.28237224,2.48499800,-1.36818440
80,1778604593.2635765,0.37313150,-0.82834107,-1.41428980,-0.58413947,3.88998700,-1.60642170
81,1778604593.2730653,0.44972134,-1.49374570,-0.05225914,-0.83581570,5.50755700,-1.94972770
82,1778604593.2830825,0.49021152,-2.13866140,0.77510620,-0.26893320,4.35302260,-1.96072330
83,1778604593.2930913,0.63265884,-3.20213800,0.81803554,0.51541716,2.75377850,-1.51845720
84,1778604593.303301,0.73559170,-3.84656600,0.74534833,1.17270770,1.59435710,-0.84528416
85,1778604593.3130858,1.05414680,-5.09785840,0.10140836,1.43049260,0.60597783,0.17119485
86,1778604593.3233693,1.53515050,-5.88912400,-0.76205665,1.29732410,1.16919520,0.85047650
87,1778604593.3330932,0.82486516,-3.42898060,-0.20982932,0.55695593,1.64200450,1.24142990
88,1778604593.343275,0.48338187,-2.24549700,0.26727170,0.36147922,0.12217296,1.69469170
89,1778604593.3532681,0.41508517,-1.68546430,0.18873052,0.46288280,-0.82222400,1.82786010
90,1778604593.3633497,0.46094155,-1.46496360,-0.02542831,0.67057680,-1.84847680,1.78387780
91,1778604593.3731475,0.54923934,-1.47715940,-0.09079798,0.75487614,-2.32739470,1.52609290
92,1778604593.3835108,0.62192655,-1.57179900,-0.09177365,0.80130190,-2.34694240,1.18156520
93,1778604593.3931854,0.49265070,-1.60204470,0.00189035,0.83795375,-2.22721300,1.02762720
94,1778604593.4029915,0.40191370,-1.57423820,0.03652652,0.89537510,-2.14047030,1.06061400
95,1778604593.4131658,0.36239920,-1.55570050,0.05213719,0.95646155,-2.06594470,1.08138330
96,1778604593.4234583,0.30629835,-1.42642470,-0.00932981,1.09818220,-1.83870300,1.03129240
97,1778604593.43302,0.30629835,-1.42642470,-0.00932981,1.09818220,-1.83870300,1.03129240
98,1778604593.4431646,0.22678153,-1.14543270,-0.15421632,1.13605580,-1.33412870,1.04106630
99,1778604593.452954,0.19409668,-0.95908040,-0.22153732,1.06641720,-1.08611760,1.08993550
100,1778604593.4630694,0.22922069,-0.86931900,-0.27324766,0.95279634,-0.81855880,1.13269600
101,1778604593.472977,0.31020102,-0.79272920,-0.27812597,0.75609785,-0.48258317,1.10948310
102,1778604593.4831548,0.34873986,-0.69272333,-0.26690580,0.55695593,-0.20891576,0.98608845
103,1778604593.4933505,0.33069003,-0.60003500,-0.28544348,0.36147922,0.08674280,0.84192437
104,1778604593.503172,0.29410252,-0.49271170,-0.23812364,0.21853687,0.27122396,0.70631240
105,1778604593.5130222,0.25653934,-0.43026900,-0.23275748,0.08781181,0.44715303,0.56825700
106,1778604593.5233884,0.09165169,-0.21171968,-0.20348747,-0.02947422,0.77579826,0.45952302
107,1778604593.5330758,0.01896452,-0.09317617,-0.20153615,-0.02580904,1.04335700,0.43631017
108,1778604593.5430083,-0.03908765,0.04390500,-0.17714448,0.09758565,1.50883600,0.41065386
109,1778604593.5531802,-0.05128348,0.12293400,-0.23178181,0.15134175,1.72874740,0.38377580
110,1778604593.5631375,-0.04933215,0.17025384,-0.23568448,0.14401138,1.90834150,0.33979353
111,1778604593.5733612,-0.05567398,0.19074284,-0.19665782,0.00473420,1.89856770,0.25793764
112,1778604593.5829732,-0.03616065,0.16000934,-0.09421282,-0.19074252,1.70797790,0.21762058
113,1778604593.5929828,-0.01859865,0.12781233,-0.03567281,-0.34345870,1.46607540,0.19074252
114,1778604593.6032133,-0.01859865,0.12781233,-0.03567281,-0.34345870,1.46607540,0.19074252
115,1778604593.613453,0.00432952,0.06439400,0.05213719,-0.55726140,0.91141030,0.12599087
116,1778604593.622978,0.01164702,0.04536850,0.06140602,-0.59635675,0.64873840,0.08689552
117,1778604593.6330822,0.01506185,0.03073350,0.06433302,-0.61101750,0.44470957,0.04535671
118,1778604593.6432016,0.01603752,0.02292817,0.05555202,-0.60613060,0.27977607,0.00381790
119,1778604593.6532412,0.01603752,0.02292817,0.05555202,-0.60613060,0.27977607,0.00381790
120,1778604593.6633902,0.01798886,0.01512283,0.02042802,-0.59880020,0.10384701,-0.04871647
121,1778604593.673093,0.01798886,0.01268367,0.00481735,-0.60002196,0.03176497,-0.07925971
122,1778604593.6833148,0.02140369,0.02048900,0.01457402,-0.58658290,-0.05986475,-0.10735948
123,1778604593.6933348,0.02140369,0.02048900,0.01457402,-0.58658290,-0.05986475,-0.10735948
124,1778604593.703189,0.02091586,0.02390383,-0.01030548,-0.54260063,-0.19669846,-0.13545926
125,1778604593.7129881,0.23653820,-0.16293633,-1.06841600,-0.95310175,-0.68783370,-0.22708899
126,1778604593.723438,0.20678036,-0.46588080,-1.31916240,-2.17849660,-1.41964970,-0.32971427
127,1778604593.7330203,0.13702019,-0.37563166,-0.45618513,-2.23469610,-1.41598450,-0.37858346
128,1778604593.7431185,0.13506886,-0.28001633,-0.08884665,-1.82419490,-1.08245240,-0.42134398
129,1778604593.7535818,0.12433653,-0.23074517,0.03018469,-1.35871600,-0.70493793,-0.52519100
130,1778604593.7630925,0.10677453,-0.22342768,0.01067136,-0.90423256,-0.20769402,-0.71089387
131,1778604593.77337,0.05603985,-0.39514500,-0.05079565,-0.49495320,0.58398670,-0.87827086
132,1778604593.783125,-0.21324414,-1.25031690,0.19458452,-0.19807291,1.22417310,-0.52641270
133,1778604593.7931478,-0.42252466,-2.72893950,0.23263553,-0.33612835,0.91263200,0.65377800
134,1778604593.803071,-0.42252466,-2.72893950,0.23263553,-0.33612835,0.91263200,0.65377800
135,1778604593.813618,0.08140719,-5.86814740,0.43362287,-0.08445205,0.35063640,3.09112860
136,1778604593.8233652,0.72437150,-6.57209060,0.87120930,1.49768770,0.41905323,3.29882260
137,1778604593.8334017,0.65558710,-5.85985400,0.69119890,2.18307800,-0.40072730,2.64886240
138,1778604593.8432088,0.26044202,-4.29683600,0.02384285,2.63756130,-0.77457654,1.62383130
139,1778604593.8532224,-0.11323831,-3.07383780,-0.72742050,3.07860600,0.66706437,1.35993770
140,1778604593.8633568,-0.34934965,-2.01182480,-1.73821130,2.99430630,3.46849010,1.62749650
141,1778604593.8733923,-0.14592315,-1.36837240,-1.30647860,1.83121990,5.38904900,1.86817720
142,1778604593.8837016,-0.14592315,-1.36837240,-1.30647860,1.83121990,5.38904900,1.86817720
143,1778604593.8931568,-0.08640748,-1.10494240,-0.78254560,-0.32268932,-0.89797120,0.77228580
144,1778604593.9031155,-0.20299964,-1.02835270,-0.50057800,-1.40636350,-3.01522850,0.42164943
145,1778604593.913139,-0.29617580,-0.96298310,-0.35666716,-2.08931020,-4.08668500,0.28359398
146,1778604593.923182,-0.35422800,-0.86736774,-0.17763232,-2.25546550,-4.07324650,0.38988444
147,1778604593.9334352,-0.34252000,-0.79126567,-0.05762531,-1.82908190,-3.19848800,0.65499973
148,1778604593.9436169,-0.23324533,-0.78833870,0.03457519,-1.36971150,-2.33594680,0.86269380
149,1778604593.9531314,-0.23324533,-0.78833870,0.03457519,-1.36971150,-2.33594680,0.86269380
150,1778604593.9629402,-0.04738082,-0.68052750,0.20970736,-0.49739665,-1.11788250,1.06672260
151,1778604593.9729888,0.03750219,-0.44880670,0.28776067,-0.00626136,-0.70127280,1.20111290
152,1778604593.983114,0.09604219,-0.27269882,0.23848954,0.29672757,-0.54244790,1.26952970
153,1778604593.9932656,0.16287535,-0.12147050,0.15019170,0.47632182,-0.38606653,1.26830800
154,1778604594.0033014,0.17165637,-0.03414834,0.05018586,0.51663890,-0.20769402,1.22799090
155,1778604594.01379,0.20190202,0.07219934,-0.08884665,0.45310894,0.11728604,1.16079580
156,1778604594.0232778,0.15067953,0.19903600,-0.28349215,0.14767656,0.79290247,1.04839670
157,1778604594.03342,0.08335852,0.25855166,-0.44594067,-0.21029020,1.28281600,1.02640560
158,1778604594.043002,0.13116619,0.27660152,-0.55716664,-0.76373370,1.90956330,1.00074920
159,1778604594.0530171,0.13116619,0.27660152,-0.55716664,-0.76373370,1.90956330,1.00074920
160,1778604594.0633645,0.25995418,0.39904767,-0.21470766,-1.13636120,2.21988270,0.75029470
161,1778604594.0734496,0.30678620,0.31709167,0.24190436,-0.65988666,0.80756325,0.54993100
162,1778604594.0829852,0.30678620,0.31709167,0.24190436,-0.65988666,0.80756325,0.54993100
163,1778604594.0930047,0.30678620,0.31709167,0.24190436,-0.65988666,0.80756325,0.54993100
164,1778604594.1032128,0.38337603,0.12049483,0.35703300,-0.25549420,-1.39277170,0.04535671
165,1778604594.11345,0.44972134,0.05122250,0.24092870,-0.14798199,-2.51554100,-0.71700250
166,1778604594.1234176,0.43703770,0.01170800,0.09116385,-0.19440772,-2.88206000,-1.39628420
167,1778604594.1331575,0.39166918,0.00048783,-0.00981765,-0.31535894,-2.92237700,-1.92407130
168,1778604594.1431847,0.39752320,-0.01073233,-0.15763116,-0.47296205,-2.76355220,-2.31869000
169,1778604594.1533294,0.39752320,-0.01073233,-0.15763116,-0.47296205,-2.76355220,-2.31869000
170,1778604594.1631317,0.60436450,-0.26245433,-1.16159210,-1.24876030,-0.50335260,-3.17756580
171,1778604594.1732924,0.60436450,-0.26245433,-1.16159210,-1.24876030,-0.50335260,-3.17756580
172,1778604594.183436,0.22775720,-0.40734085,0.08287069,-1.52487120,2.52653670,-4.26979200
173,1778604594.1931818,0.15409435,-0.37904653,0.18238870,-1.10581790,2.77454780,-4.48237300
174,1778604594.2031662,0.11214069,-0.36831418,0.22239104,-1.10581790,2.77454780,-4.48237300
175,1778604594.2135503,0.07408969,-0.41319484,0.21019518,-0.36056295,2.90160780,-4.65708000
176,1778604594.2230554,-0.14397182,-1.08250210,0.23605035,0.69134620,3.22780940,-4.29789200
177,1778604594.2334309,-0.39423034,-2.02450850,0.20043853,0.96257020,3.43061660,-3.31928660
178,1778604594.243333,-0.56204500,-2.98407650,0.22141537,0.88560120,3.24491380,-2.04013560
179,1778604594.2530553,-0.56204500,-2.98407650,0.22141537,0.88560120,3.24491380,-2.04013560
180,1778604594.2634015,-0.34447134,-4.60465900,0.34434935,1.14705130,3.45382950,1.41002860
181,1778604594.2736754,0.29849303,-5.58666750,0.33751968,1.70416000,2.66947910,3.11189800
182,1778604594.283241,0.95804370,-4.81979370,-0.46594182,1.87886740,1.44408430,3.09601550
183,1778604594.2933211,0.67070990,-2.61429880,-0.50448066,0.79152805,-0.66339916,2.38374700
184,1778604594.303242,0.42045137,-1.77376200,-0.04152681,-0.02092212,-2.41658120,2.12596230
185,1778604594.313043,0.30971318,-1.35032270,-0.07372381,-0.39477137,-3.66518880,2.01478480
186,1778604594.3231041,0.30190787,-1.29617320,-0.20495099,-0.31658068,-3.72016640,1.83152530
187,1778604594.3331778,0.44240385,-1.70644090,-0.10201815,-0.05024363,-3.19970970,1.31839900
188,1778604594.3433945,0.33361703,-1.95718730,-0.09470064,0.14401138,-2.57174060,0.76251197
189,1778604594.3534114,0.16970502,-2.04450940,-0.04884431,0.28084508,-1.89612420,0.57558733
190,1778604594.3629448,0.02140369,-2.06402300,-0.02103781,0.37003133,-1.40865420,0.56825700
191,1778604594.3731039,-0.09811548,-1.87181640,-0.01567165,0.48609564,-0.66217744,0.77472925
192,1778604594.383002,-0.11177482,-1.58838530,-0.04201465,0.54596040,-0.31154105,0.97997980
193,1778604594.393011,-0.10445731,-1.33666340,-0.03859982,0.54596040,-0.31154105,0.97997980
194,1778604594.4030454,-0.08445615,-1.22055900,-0.02103781,0.44577858,-0.27244568,1.33672490
195,1778604594.413182,-0.03274581,-1.06640370,0.01067136,0.36514443,-0.40683594,1.44912400
196,1778604594.4233723,0.01311052,-0.91176050,-0.00298798,0.27840160,-0.53878270,1.55785790
197,1778604594.4334219,0.16433886,-0.84200037,0.01457402,0.33093598,-0.57665634,1.51021040
198,1778604594.4432478,0.21068303,-0.66930735,-0.10933565,0.51908237,-0.33353218,1.30129470
199,1778604594.4532723,0.21068303,-0.66930735,-0.10933565,0.51908237,-0.33353218,1.30129470
200,1778604594.4637837,0.23165986,-0.40392600,-0.28641915,0.77075860,0.52412200,0.89934570
201,1778604594.4732895,0.20824386,-0.29221216,-0.30934730,0.68401580,1.10566520,0.59391326
202,1778604594.4833157,0.16287535,-0.21025616,-0.26739365,0.52763444,1.32557650,0.40698865
203,1778604594.4933553,0.11067719,-0.13122717,-0.22397648,0.30527967,1.40132380,0.23105960
204,1778604594.503024,0.11067719,-0.13122717,-0.22397648,0.17577635,1.40621080,0.13576470
205,1778604594.5130427,0.02725769,0.00682967,-0.19714566,0.08292489,1.42087150,0.07956514
206,1778604594.5230494,-0.00932981,0.13317850,-0.09616415,0.10002911,1.42331490,0.03069595
207,1778604594.5331962,0.00579302,0.16879034,-0.02933098,0.26496258,1.26204660,-0.01206458
208,1778604594.5434048,-0.00152448,0.16927817,0.00774435,0.37369654,0.96883154,-0.04871647
209,1778604594.5532513,-0.00054881,0.14342300,0.00579302,0.36147922,0.68050337,-0.05482511
210,1778604594.5633929,0.01652535,0.11561650,-0.00932981,0.29428410,0.46181378,-0.06459895
211,1778604594.5731614,0.06238169,0.09805451,-0.02006215,0.10125083,0.08552107,-0.11102467
212,1778604594.5832205,0.13506886,0.08537084,-0.00884198,-0.02947422,-0.13072506,-0.21364996
213,1778604594.5929887,0.28141886,0.07463850,-0.00103665,-0.08811724,-0.29688028,-0.43600473
214,1778604594.6030662,0.39996237,0.06585750,-0.00006098,-0.09178244,-0.40194902,-0.65347260
215,1778604594.6132104,0.39996237,0.06585750,-0.00006098,-0.09178244,-0.40194902,-0.65347260
216,1778604594.623042,0.53265303,0.10732334,-0.28397998,-0.01725693,-0.35307986,-1.74081200
217,1778604594.6330712,0.40679200,0.17805916,-0.52496964,-0.03069595,0.32498005,-2.31624650
218,1778604594.643304,0.21946402,0.22293983,-0.67083186,-0.13454297,0.91018850,-2.50927970
219,1778604594.6530335,0.21946402,0.22293983,-0.67083186,-0.13454297,0.91018850,-2.50927970
220,1778604594.663191,0.12140953,0.07073583,-0.04347815,-0.08567379,0.99570960,-2.60579630
221,1778604594.6729717,0.09506652,-0.04731983,0.13458103,0.06948587,0.44104436,-2.57891850
222,1778604594.682991,0.05555202,-0.12976366,0.11311635,0.24785839,-0.18570289,-2.55081870
223,1778604594.6930902,0.01798886,-0.13220283,0.11409202,0.34070984,-0.54366964,-2.53737950
224,1778604594.7033687,0.00189035,-0.11659218,0.10140836,0.29184064,-0.90407985,-2.55692720
225,1778604594.7129698,-0.00689065,-0.13415417,0.15409435,0.15500695,-1.43064530,-2.59113570
226,1778604594.7229643,0.00969569,-0.18879150,0.23702602,0.11957678,-1.73363420,-2.61434860
227,1778604594.7330284,-0.03567281,-0.96883700,0.21653701,0.15012002,-1.95476730,-2.50683640
228,1778604594.7430615,-0.09323715,-2.91870700,-0.00640281,-0.08933897,-2.15024400,-1.56488290
229,1778604594.7530684,-0.09323715,-2.91870700,-0.00640281,-0.08933897,-2.15024400,-1.56488290
230,1778604594.7633462,0.05847902,-6.12621100,-0.11079915,0.79763670,2.55097130,1.61405740
231,1778604594.7731352,0.05847902,-6.12621100,-0.11079915,0.79763670,2.55097130,1.61405740
232,1778604594.783313,0.52826256,-6.58526230,0.63851285,0.70234180,4.06591600,3.99398660
233,1778604594.7932403,0.67314905,-5.39007040,0.78876555,2.19651700,3.47459900,3.38067840
234,1778604594.8032167,0.28483367,-2.95285500,-0.21373199,2.19651700,3.47459900,3.38067840
235,1778604594.8133843,0.05164935,-1.77864040,-2.30068300,2.68154360,3.42084260,2.56945000
236,1778604594.8234339,0.22287886,-1.27617200,-1.91041620,0.53740830,4.77451900,2.45094230
237,1778604594.8331666,0.39118138,-1.07567250,-0.00396365,-1.37337670,1.03602670,1.63360510
238,1778604594.8431866,0.39118138,-1.07567250,-0.00396365,-1.37337670,1.03602670,1.63360510
239,1778604594.8530629,0.13653237,-1.05079300,0.05408852,-1.90849420,-2.20766520,0.77839446
240,1778604594.8630714,-0.01615948,-1.00005830,-0.16982698,-2.05388020,-3.79347040,0.00626136
241,1778604594.8731916,-0.14885014,-0.97713020,-0.33325115,-1.87550760,-3.00667640,0.04291325
242,1778604594.883158,-0.19129165,-1.03664590,-0.20007265,-1.56274490,-1.62490030,0.26648977
243,1778604594.893274,-0.17519315,-1.04542680,-0.01615948,-1.29640780,-0.45081820,0.52060950
244,1778604594.9029958,-0.12055582,-1.01274200,0.11311635,-1.18278700,0.00122173,0.64889110
245,1778604594.913529,-0.05323482,-0.94883580,0.20287769,-1.08138330,0.28099780,0.78816830
246,1778604594.9232118,-0.03323365,-0.76053220,0.23117203,-0.98853195,0.23701553,0.97753640
247,1778604594.933016,0.01652535,-0.60198635,0.21165870,-0.88101970,0.08429934,1.10826150
248,1778604594.9432828,0.05847902,-0.43124464,0.17214419,-0.73685560,-0.02076940,1.21210850
249,1778604594.953056,0.12140953,-0.30343235,0.14531335,-0.59391326,-0.06230821,1.24265170
250,1778604594.9633086,0.12531220,-0.17952266,0.12140953,-0.44486228,-0.01588248,1.23898650
251,1778604594.9734194,0.22678153,-0.05805217,0.11897036,-0.22006404,0.07941242,1.10215280
252,1778604594.9831457,0.24775836,0.05122250,0.18287653,0.04016436,0.14905101,0.88712835
253,1778604594.993439,0.24775836,0.05122250,0.18287653,0.04016436,0.14905101,0.88712835
254,1778604595.0032454,0.10970152,0.17903483,-0.03225798,0.21609342,0.26022840,0.62079130
255,1778604595.013144,0.10970152,0.17903483,-0.03225798,0.21609342,0.26022840,0.62079130
256,1778604595.0231333,0.05408852,0.20293866,-0.20251182,-0.15531237,0.64996010,0.53649200
257,1778604595.0330431,0.10775018,0.20489000,-0.18348631,-0.50472700,0.87475836,0.43997535
258,1778604595.0433002,0.16629020,0.21952501,-0.22056165,-0.71975140,0.92118406,0.32757625
259,1778604595.0533242,0.25605154,0.19464551,-0.12006798,-0.92011505,0.95294905,0.15897755
260,1778604595.0632973,0.25605154,0.19464551,-0.12006798,-0.92011505,0.95294905,0.15897755
261,1778604595.0734284,0.25605154,0.19464551,-0.12006798,-0.92011505,0.95294905,0.15897755
262,1778604595.0837715,1.11463820,0.00585400,0.35800868,-0.93233240,-0.50701780,-1.91429750
263,1778604595.0931134,1.29123390,-0.03463617,0.41459736,-0.60490880,-0.92484930,-3.36571220
264,1778604595.1035006,1.29123390,-0.03463617,0.41459736,-0.60490880,-0.92484930,-3.36571220
265,1778604595.1134372,0.59168090,-0.05610084,0.16824152,-0.04291325,-1.12154770,-5.17631530
266,1778604595.1232064,0.20141420,-0.10195717,-0.28251648,0.12568542,-0.64629495,-5.53061680
267,1778604595.1330247,0.09604219,-0.22391550,-0.72010297,0.15378521,0.37018406,-5.50740430
268,1778604595.1432185,-0.00981765,-0.31074983,-0.30154198,0.18555018,1.73119080,-5.41455270
269,1778604595.1532257,-0.04591731,-0.23025733,0.09409086,0.28817546,1.83625950,-5.32292300
270,1778604595.1629622,-0.03713631,-0.21611017,0.12872702,0.37736170,1.54060100,-5.22029800
271,1778604595.1729767,0.06628435,-0.26733267,0.14287418,0.47998700,1.02869630,-5.09934660
272,1778604595.182958,0.19214535,-0.35075217,0.18238870,0.52396930,0.66584260,-5.03215100
273,1778604595.193207,0.39996237,-1.08347790,0.21312219,0.59605134,0.34574947,-4.72183200
274,1778604595.2034118,0.96340990,-2.22354440,0.00042685,0.28695372,0.19181155,-4.11829760
275,1778604595.2134795,1.70198950,-3.64655420,-0.21129280,-0.47296205,0.97860540,-2.85014220
276,1778604595.2230737,2.55960060,-5.39738800,-0.17909582,-1.10337450,2.68902680,-0.90637064
277,1778604595.2329934,2.98401550,-6.30475800,0.35166687,-1.15346540,4.27361000,0.73563390
278,1778604595.2433946,1.81126430,-4.42367270,0.67558820,-0.23105960,5.06040400,1.70690900
279,1778604595.2529495,1.25220720,-3.43385890,0.59948623,0.15745040,4.57049040,1.94025920
280,1778604595.2631838,0.25800288,-1.68204930,-0.10055464,0.49220430,3.18627070,2.36419940
281,1778604595.2732742,0.08238286,-1.05908620,-0.18397415,0.52396930,1.24982930,2.68062730
282,1778604595.2832868,0.20629252,-1.00005830,0.45752668,0.61682070,-1.45385810,2.71483600
283,1778604595.293372,0.20629252,-1.00005830,0.45752668,0.61682070,-1.45385810,2.71483600
284,1778604595.3029594,0.28727287,-1.12591930,0.51216400,1.08474310,-4.51062540,2.37886020
285,1778604595.3129423,0.36288702,-1.35812810,-0.05469831,1.19836400,-5.09583400,1.97202420
286,1778604595.3232784,0.38971785,-1.48154990,-0.38008317,1.17148590,-4.47519540,1.68247440
287,1778604595.333083,0.41167036,-1.49179430,-0.35520366,1.08229970,-3.53812890,1.51265400
288,1778604595.3431664,0.38581520,-1.35910370,-0.18055932,0.94302250,-2.50576730,1.39048100
289,1778604595.353203,0.35459387,-1.23226700,-0.08689531,0.82940170,-1.95721080,1.36848990
290,1778604595.363095,0.35459387,-1.23226700,-0.08689531,0.82940170,-1.95721080,1.36848990
291,1778604595.372974,0.27068650,-0.90102816,-0.12689765,0.46654797,-1.17896900,1.46256300
292,1778604595.3832278,0.24092870,-0.76784970,-0.13372731,0.32727080,-0.80145460,1.48821930
293,1778604595.39323,0.21312219,-0.62393886,-0.10543298,0.27107126,-0.39095345,1.49677150
294,1778604595.403111,0.16775368,-0.50344400,-0.12884897,0.27107126,-0.14049890,1.48944100
295,1778604595.4135845,0.13262970,-0.39612067,-0.11031131,0.27962336,0.18325943,1.47844550
296,1778604595.423087,0.08774903,-0.24781933,-0.06786981,0.29306240,0.52045680,1.46622810
297,1778604595.4330611,0.05847902,-0.16488767,-0.08396832,0.30527967,0.74158984,1.45034580
298,1778604595.4431996,0.01213485,-0.07024800,-0.08396832,0.29794928,0.90652335,1.44545880
299,1778604595.4532733,0.01213485,-0.07024800,-0.08396832,0.29794928,0.90652335,1.44545880
300,1778604595.4633207,-0.02737965,0.05268600,-0.07421165,0.25030184,1.17896900,1.43201970
301,1778604595.4735353,-0.05713748,0.09512750,-0.02737965,0.23075417,1.27670740,1.43446330
302,1778604595.4831553,-0.05713748,0.09512750,-0.02737965,0.23075417,1.27670740,1.43446330
303,1778604595.4931214,-0.01762298,0.08293167,0.00628085,0.22098033,1.33901560,1.44545880
304,1778604595.5032544,-0.00103665,0.06976017,0.01311052,0.18432845,1.29503330,1.41002860
305,1778604595.5131528,0.00823219,0.06341834,0.00481735,0.12812889,1.21195570,1.35749420
306,1778604595.523367,0.03603869,0.05414950,-0.02981881,0.03039052,1.11788250,1.27930360
307,1778604595.533363,0.06579652,0.05317384,-0.06786981,-0.11377356,0.97738370,1.13758290
308,1778604595.5431461,0.12189735,0.07561417,-0.18738899,-0.24205516,0.89186260,1.00074920
309,1778604595.5530012,0.19751152,0.13610551,-0.41374367,-0.24205516,0.89186260,1.00074920
310,1778604595.5630238,0.25605154,0.17805916,-0.45959997,-0.66843880,0.92240584,0.54015720
311,1778604595.5730324,0.31410370,0.16488767,-0.09128582,-0.76862060,0.59864750,0.00259618
312,1778604595.5830584,0.23165986,0.12439750,0.10482319,-0.63667380,0.05009091,-0.43233955
313,1778604595.593338,0.18970619,0.10098150,0.10579886,-0.52916163,-0.39217520,-0.70112010
314,1778604595.603108,0.20531686,0.09268834,0.08823685,-0.42042768,-0.88575390,-1.01266110
315,1778604595.6133294,0.25605154,0.06683317,0.02725769,-0.34956738,-1.13132150,-1.20935950
316,1778604595.623198,0.28580934,-0.26684484,-0.39227900,-0.14920372,-1.47951450,-1.54289170
317,1778604595.6333978,0.45167267,-0.60344980,-0.69571130,0.07070760,-1.78128170,-1.77746380
318,1778604595.6433778,0.24141651,-0.48978466,-0.34593480,0.34315330,-1.66155220,-2.09389190
319,1778604595.6533532,0.16872935,-0.35758185,-0.13323948,0.47876528,-1.35611980,-2.30036400
320,1778604595.6638308,0.14189851,-0.30099317,-0.05518614,0.47876528,-1.35611980,-2.30036400
321,1778604595.6732092,0.14872819,-0.31221333,-0.07860215,-0.16630794,-1.15453450,-2.84647730
322,1778604595.683371,0.19068186,-0.66589254,-0.37422916,-0.27870706,-0.33231044,-3.01629760
323,1778604595.6931624,0.16921718,-2.94504980,-0.73620150,-0.57803080,1.28892470,-2.51294500
324,1778604595.7030418,0.38240036,-5.15444700,-0.71668816,-1.17667830,3.09586260,-1.62352590
325,1778604595.7134035,0.43947688,-6.82283740,0.17897385,-1.19744770,5.40859700,-0.34559676
326,1778604595.723214,0.59753490,-8.06242200,0.84389070,-0.37644540,6.49104930,1.27319490
327,1778604595.733086,0.56826484,-7.42092040,1.10390590,0.43844820,6.04878300,1.88772490
328,1778604595.7431426,0.01115919,-3.91388700,0.68339354,1.65773430,4.36646130,2.12962720
329,1778604595.7531836,-0.20251182,-2.19085960,0.01408619,2.15253470,2.91260340,2.48759410
330,1778604595.7634263,-0.22739130,-1.23129140,-1.14159100,1.94361900,2.12092260,2.91397760
331,1778604595.7733214,-0.01274465,-0.68199100,-1.21866870,0.43111783,1.67254780,3.08135460
332,1778604595.7829807,0.10726235,-0.66247770,-0.36398467,-1.02762720,-0.21746786,2.87366060
333,1778604595.793183,0.16775368,-0.73028654,0.03603869,-1.74111740,-1.96942810,2.58288900
334,1778604595.803019,0.16775368,-0.73028654,0.03603869,-1.74111740,-1.96942810,2.58288900
335,1778604595.8132834,0.21897620,-0.68491805,0.19653587,-2.33487800,-4.20397140,1.96469390
336,1778604595.8232286,0.24483135,-0.49954134,0.14970386,-2.24080470,-4.49718670,1.71301760
337,1778604595.8332353,0.27702835,-0.31660384,0.04384402,-1.85595990,-4.07324650,1.53342330
338,1778604595.8433683,0.33117786,-0.22098850,0.00872002,-1.38315060,-3.29622630,1.40514170
339,1778604595.8531904,0.33117786,-0.22098850,0.00872002,-1.38315060,-3.29622630,1.40514170
340,1778604595.8635502,0.33117786,-0.22098850,0.00872002,-1.38315060,-3.29622630,1.40514170
341,1778604595.8731072,0.43947688,-0.18001050,0.08726119,-0.17119485,-1.39888040,0.87246764
342,1778604595.8831177,0.43947688,-0.18001050,0.08726119,-0.17119485,-1.39888040,0.87246764
343,1778604595.893031,0.44972134,-0.11415300,-0.07908998,0.00229074,-0.92118406,0.42775807
344,1778604595.903037,0.43654984,-0.06097917,-0.22446433,-0.07467822,-0.61697340,0.18585561
345,1778604595.9133747,0.38825434,0.00487833,-0.34203213,-0.21884231,-0.11362085,-0.05115993
346,1778604595.9231334,0.27458918,0.09073700,-0.36252114,-0.48517936,0.85398895,-0.34315330
347,1778604595.9333675,0.16921718,0.16000934,-0.28105298,-0.58780460,1.59557880,-0.51541716
348,1778604595.9431489,0.06969919,0.23318435,-0.27910164,-0.54137890,2.09770970,-0.58994263
349,1778604595.953155,-0.01079331,0.30245668,-0.17714448,-0.35078910,2.52287150,-0.60093820
350,1778604595.963191,-0.02006215,0.29806617,-0.05908882,-0.20173809,2.48255440,-0.58505577
351,1778604595.972973,-0.03616065,0.24586800,0.24239218,0.08781181,1.73241250,-0.53618660
352,1778604595.9831858,-0.03957548,0.20537783,0.23361120,0.21853687,0.84299340,-0.48609564
353,1778604595.9930036,-0.05030781,0.17903483,0.22629368,0.21242823,0.16371176,-0.44089165
354,1778604596.0030112,-0.04640514,0.14586218,0.19702369,0.16600250,-0.59986920,-0.38102690
355,1778604596.0132184,-0.03274581,0.11317733,0.17458336,0.12079851,-1.10810880,-0.35170540
356,1778604596.023131,-0.00542715,0.07219934,0.15458219,0.05849030,-1.65910880,-0.34437500
357,1778604596.0330117,0.02969686,0.04634417,0.09653002,0.00473420,-2.10381840,-0.38591382
358,1778604596.0435753,0.08287069,0.00780533,0.04579536,-0.06246093,-2.37748580,-0.50197816
359,1778604596.05307,0.08287069,0.00780533,0.04579536,-0.06246093,-2.37748580,-0.50197816
360,1778604596.0632339,0.20287769,-0.15025267,-0.15665549,-0.20418155,-2.40925070,-0.83306680
361,1778604596.073023,0.37361938,-0.30001750,-0.26690580,-0.28237224,-1.55648350,-1.20813790
362,1778604596.0830693,0.37361938,-0.30001750,-0.26690580,-0.28237224,-1.55648350,-1.20813790
363,1778604596.0930536,0.59119300,-0.98444770,0.01750102,-0.37888888,-1.11910430,-1.93873210
364,1778604596.1033957,0.59119300,-0.98444770,0.01750102,-0.37888888,-1.11910430,-1.93873210
365,1778604596.1131322,0.63217103,-2.39331050,-0.23617230,-1.07405300,-0.74036810,-2.02180980
366,1778604596.1234035,0.42581752,-4.45001550,-0.40106000,-0.92378026,3.52957680,-1.23379410
367,1778604596.1332183,0.31507936,-4.85247800,0.30385920,-0.78083790,5.62239930,-0.21853687
368,1778604596.1433861,0.24970970,-5.13737300,0.62826836,-0.78328140,5.66271640,0.56337005
369,1778604596.1530728,0.08677336,-4.77832750,0.96487340,0.60704690,5.28520200,1.14857850
370,1778604596.163105,-0.15567982,-3.44800600,0.89462540,1.52823090,4.29926630,1.35993770
371,1778604596.173198,-0.29178533,-2.15866260,0.48240623,2.02303150,1.51494470,1.84129920
372,1778604596.1833467,-0.33373898,-1.63521730,0.15653352,1.76891170,-0.38973173,2.14428800
373,1778604596.1933806,-0.33617815,-1.40056960,0.03067252,1.41705360,-1.39643690,2.26768280
374,1778604596.2031298,-0.27324766,-1.22153460,-0.04786865,1.17026420,-2.53508880,2.16017060
375,1778604596.2134194,-0.27324766,-1.22153460,-0.04786865,1.17026420,-2.53508880,2.16017060
376,1778604596.222944,-0.25471000,-1.46789050,-0.75766620,0.30283620,-3.09097580,1.49066280
377,1778604596.2332127,-0.15080148,-1.71327070,-0.40398700,-0.28359398,-2.82463880,1.20111290
378,1778604596.2432745,-0.14689882,-1.78986060,-0.08348048,-0.65988666,-2.47888920,0.94943660
379,1778604596.2532153,-0.13275166,-1.73278390,0.06091819,-0.52549640,-2.00852350,0.86269380
380,1778604596.2634466,-0.08787098,-1.57911650,0.12628786,-0.16875139,-1.54548790,0.86758070
381,1778604596.272993,-0.02445265,-1.38203190,0.06482086,0.19776747,-1.31091580,0.94454970
382,1778604596.2830298,0.03555085,-1.21129020,-0.06494281,0.27107126,-1.29014650,0.95676696
383,1778604596.2931163,0.08043153,-1.02981620,-0.16348514,0.25518876,-1.18141250,0.89690220
384,1778604596.30331,0.08921252,-0.89322287,-0.22056165,0.25518876,-1.18141250,0.89690220
385,1778604596.3131585,0.07848018,-0.78004550,-0.21178065,0.00106901,-1.01892240,0.79061174
386,1778604596.3232462,0.07604102,-0.65564800,-0.13275166,-0.23716825,-0.99815303,0.73441220
387,1778604596.3331306,0.09701785,-0.57759470,-0.06055231,-0.36056295,-1.04824400,0.66721710
388,1778604596.343444,0.05945469,-0.47417400,-0.06543065,-0.40088000,-1.07512200,0.56947870
389,1778604596.3531232,0.03213602,-0.35026434,-0.09079798,-0.42409286,-0.99937480,0.49006626
390,1778604596.3633008,0.00920785,-0.26391783,-0.10153031,-0.42653632,-0.90530163,0.46563166
391,1778604596.373279,0.00920785,-0.26391783,-0.10153031,-0.42653632,-0.90530163,0.46563166
392,1778604596.383019,-0.01811081,-0.00682967,-0.08104131,-0.32391104,-0.32620180,0.38621926
393,1778604596.3934088,-0.03323365,0.05122250,-0.03762415,-0.18707734,-0.15393792,0.35201082
394,1778604596.403217,-0.03664848,0.09171267,-0.03372148,-0.10644319,-0.07696896,0.31413722
395,1778604596.4137409,-0.02445265,0.10634767,-0.01615948,-0.10399973,-0.01710421,0.27259842
396,1778604596.4232576,-0.00640281,0.10634767,-0.00884198,-0.13087778,0.04886918,0.19318599
397,1778604596.4329813,0.00237819,0.08439517,-0.00835415,-0.15653410,0.08796453,0.12232567
398,1778604596.443391,0.01018352,0.06439400,-0.00542715,-0.19196425,0.09407318,0.05390882
399,1778604596.4529424,0.01213485,0.05268600,-0.00689065,-0.23472479,0.08063415,0.00626136
400,1778604596.4631631,0.01359835,0.04049017,0.00676869,-0.27504188,0.03909535,-0.04138609
401,1778604596.473507,0.02872119,0.02683084,0.00920785,-0.32268932,-0.05131264,-0.10369430
402,1778604596.4832644,0.03847786,0.02683084,0.00481735,-0.35811950,-0.13194679,-0.15256348
403,1778604596.493458,0.05116152,0.02634300,0.00140252,-0.38377580,-0.25778493,-0.22220206
404,1778604596.503215,0.05116152,0.02634300,0.00140252,-0.38377580,-0.25778493,-0.22220206
405,1778604596.513245,0.08043153,0.01707417,-0.03616065,-0.42042768,-0.40317076,-0.36270097
406,1778604596.523422,0.09994486,0.01804983,-0.07811432,-0.47296205,-0.39828384,-0.49831295
407,1778604596.5334048,0.11701902,0.02439167,-0.18446198,-0.53404856,-0.23701553,-0.62903804
408,1778604596.5433872,0.11701902,0.02439167,-0.18446198,-0.53404856,-0.23701553,-0.62903804
409,1778604596.5532994,0.11701902,0.02439167,-0.18446198,-0.53404856,-0.23701553,-0.62903804
410,1778604596.5630345,0.11701902,0.02439167,-0.18446198,-0.53404856,-0.23701553,-0.62903804
411,1778604596.5730386,0.02433069,-0.21123183,0.04579536,0.30527967,2.06594470,-1.09085180
412,1778604596.5833988,0.04579536,-0.28440684,0.12092169,1.04686950,1.49417520,-1.19592050
413,1778604596.5933275,0.06579652,-0.31904300,0.13262970,1.55755250,0.93951005,-1.36207570
414,1778604596.6033373,0.06140602,-0.32636052,0.06140602,1.58687400,0.56688250,-1.63207790
415,1778604596.6133459,0.02237935,-0.41758534,0.18629137,1.51112680,0.69516414,-1.80434180
416,1778604596.623026,-0.58253400,-3.58020880,-0.35422800,0.87216216,0.05497783,-0.77198035
417,1778604596.6330838,-0.58253400,-3.58020880,-0.35422800,0.87216216,0.05497783,-0.77198035
418,1778604596.6431308,-1.04890260,-7.84972670,0.55216634,1.05908680,2.47033720,2.14550970
419,1778604596.6533885,-1.13232220,-8.26584800,0.47850356,2.07556580,2.77821300,2.92253000
420,1778604596.663245,-0.89182030,-7.40970040,0.11701902,2.37733300,2.32739470,2.87976930
421,1778604596.6734283,-0.88840550,-3.22311500,-1.64308380,2.48118000,3.42695140,2.13573600
422,1778604596.683057,-0.67473453,-1.80351970,-1.66308490,1.65895600,4.30781840,2.16627930
423,1778604596.6931145,-0.30544463,-1.04006060,-0.83230470,0.08048143,2.44468100,2.06609750
424,1778604596.7033243,-0.30544463,-1.04006060,-0.83230470,0.08048143,2.44468100,2.06609750
425,1778604596.7131855,-0.30544463,-1.04006060,-0.83230470,0.08048143,2.44468100,2.06609750
426,1778604596.7232957,-0.11958014,-0.65076970,-0.08494398,-2.67085360,-2.60839270,0.87979800
427,1778604596.7330744,-0.13519081,-0.55076385,0.03896569,-2.61954100,-2.30662540,0.64644766
428,1778604596.7435155,-0.09713981,-0.44783100,0.15946053,-2.21637000,-1.74462990,0.60246540
429,1778604596.7533162,-0.10640865,-0.37416816,0.19263318,-2.21637000,-1.74462990,0.60246540
430,1778604596.7629988,-0.10640865,-0.37416816,0.19263318,-1.87306420,-1.44774950,0.62689996
431,1778604596.773037,0.00725652,-0.25513685,0.28288236,-0.86513720,-0.89919290,0.80893767
432,1778604596.7830193,0.02628202,-0.21123183,0.30581054,-0.57803080,-0.92973620,0.92255855
433,1778604596.7931368,0.02628202,-0.21123183,0.30581054,-0.57803080,-0.92973620,0.92255855
434,1778604596.803273,0.10092052,-0.19123067,0.27800402,-0.43753190,-1.17530380,1.03617940
435,1778604596.8135686,0.19556019,-0.11366516,0.12580003,-0.38744098,-1.54426610,1.05450530
436,1778604596.823263,0.31459153,-0.02244033,0.00920785,-0.36789330,-1.38421960,0.94699310
437,1778604596.832942,0.36922884,0.04341717,-0.10396948,-0.37888888,-0.93095790,0.72219490
438,1778604596.842984,0.33849534,0.12244616,-0.18397415,-0.44241880,-0.26878050,0.47418380
439,1778604596.8534331,0.33849534,0.12244616,-0.18397415,-0.52671814,0.32375833,0.30680683
440,1778604596.8631382,0.21214652,0.22440335,-0.22300081,-0.61101750,0.92729276,0.18463388
441,1778604596.8731682,0.14238635,0.31855518,-0.16153382,-0.60490880,1.63711760,0.03924806
442,1778604596.883286,0.12287302,0.36880200,-0.07372381,-0.32146758,1.76539920,-0.06704241
443,1778604596.8930652,0.12970269,0.40685300,-0.06396715,-0.01114828,1.43553220,-0.16111559
444,1778604596.903333,0.12970269,0.40685300,-0.06396715,-0.01114828,1.43553220,-0.16111559
445,1778604596.9134548,0.29166338,0.40441385,-0.54497087,0.13423753,0.65484700,-0.41645706
446,1778604596.9230912,0.60534020,0.10683551,-0.44935548,-0.26893320,0.63652110,-0.73777190
447,1778604596.9331117,0.69412583,-0.11512867,0.05408852,-0.76739890,0.32864526,-1.18859020
448,1778604596.943035,0.69412583,-0.11512867,0.05408852,-0.76739890,0.32864526,-1.18859020
449,1778604596.9531236,0.78339940,-0.33904418,0.69022320,-1.14613510,-1.72141700,-2.34556800
450,1778604596.9633741,0.73949430,-0.44880670,0.66388017,-1.12047870,-2.28219080,-2.77561700
451,1778604596.973273,0.33898320,-0.46344167,0.44045252,-0.97142774,-2.74278280,-3.26919560
452,1778604596.983086,0.33898320,-0.46344167,0.44045252,-0.97142774,-2.74278280,-3.26919560
453,1778604596.9929874,0.12677568,-0.90005250,-1.33379730,-0.56092656,-0.50823950,-3.19833520
454,1778604597.0033615,-0.10006681,-1.14445710,-1.33330950,0.02061669,4.20641470,-3.23498730
455,1778604597.0134115,-0.13128816,-1.14592050,-0.00054881,0.55573420,6.11231300,-3.13114020
456,1778604597.023394,0.01311052,-1.39813030,0.38386387,0.64492047,5.15692040,-2.73774310
457,1778604597.033076,-0.16494864,-2.00255580,0.55509335,0.65469430,4.04881200,-2.33823780
458,1778604597.0433898,-0.56204500,-3.19335700,0.68924755,1.29121540,2.99812440,-1.40727970
459,1778604597.05332,-0.70302886,-3.78948930,0.57314324,1.29121540,2.99812440,-1.40727970
460,1778604597.0634165,-0.74790950,-4.04706530,-0.28251648,2.22828200,2.17834380,0.33124143
461,1778604597.0733805,-0.37959530,-3.62021140,-0.92401730,1.38528860,2.65604000,0.64400417
462,1778604597.0830767,-0.22690348,-2.38452940,-0.23129399,0.39568767,0.80145460,0.42897978
463,1778604597.0930967,-0.31471348,-1.82400900,0.15263085,-0.41431904,-1.50517080,0.46563166
464,1778604597.1031015,-0.41764635,-1.61131360,0.22239104,-0.81382460,-2.91504670,0.64400417
465,1778604597.113066,-0.40886533,-1.62789980,0.21068303,-0.88835010,-3.40129520,0.86513720
466,1778604597.1231802,-0.26739365,-1.93035650,0.11848252,-0.67576915,-3.38663430,1.03129240
467,1778604597.133026,-0.33276330,-2.15427200,-0.06738198,-0.26404630,-2.81364320,0.97020596
468,1778604597.143364,-0.50740767,-2.09231730,-0.10201815,0.00839939,-2.03295800,1.00685790
469,1778604597.153137,-0.57619214,-1.95084560,0.00237819,0.12935062,-1.24616420,1.27319490
470,1778604597.1630254,-0.58546096,-1.83278990,0.08921252,0.14889829,-0.97371846,1.46867170
471,1778604597.1730506,-0.57619214,-1.69522080,0.15165520,0.27351472,-0.73303770,1.77043880
472,1778604597.1831524,-0.54009247,-1.57570170,0.13799585,0.46532625,-0.69272065,1.85473820
473,1778604597.1934202,-0.50009020,-1.47032960,0.04384402,0.61559900,-0.64996010,1.84007740
474,1778604597.2032804,-0.44740415,-1.38691020,-0.04933215,0.65225090,-0.61208653,1.77043880
475,1778604597.2130327,-0.32593364,-1.27324500,-0.12592198,0.64858570,-0.50579600,1.64093550
476,1778604597.2230542,-0.32593364,-1.27324500,-0.12592198,0.64858570,-0.50579600,1.64093550
477,1778604597.2331338,-0.20348747,-1.19909430,-0.12445848,0.61926420,-0.38484480,1.55297100
478,1778604597.2431812,0.14287418,-1.02201080,-0.09226148,0.54351693,-0.37140578,1.40636350
479,1778604597.253262,0.14287418,-1.02201080,-0.09226148,0.54351693,-0.37140578,1.40636350
480,1778604597.2631023,0.40581635,-0.81663305,-0.14055698,0.46776970,-0.42027497,1.07893990
481,1778604597.2732313,0.50582220,-0.59174186,-0.20885365,0.35903576,-0.34941465,0.69898200
482,1778604597.283318,0.49362640,-0.40099900,-0.26349100,0.25152358,-0.20525056,0.35201082
483,1778604597.2934449,0.42240270,-0.25172200,-0.26739365,0.15256348,0.04153880,0.03802633
484,1778604597.3030581,0.27361350,-0.10000584,-0.23958716,0.10002911,0.27611090,-0.15134175
485,1778604597.3130186,0.17994952,-0.02341600,-0.22251299,0.05726858,0.42638360,-0.23808455
486,1778604597.322972,0.03116036,0.10342067,-0.18299848,-0.01237001,0.62796897,-0.28939718
487,1778604597.33298,-0.03664848,0.19123067,-0.22690348,-0.05879574,0.73059430,-0.27107126
488,1778604597.3432338,-0.05957664,0.23952618,-0.24202631,-0.11621703,0.82833266,-0.24663666
489,1778604597.353292,-0.06835765,0.25952733,-0.25178298,-0.15897755,0.83321960,-0.23075417
490,1778604597.3631973,-0.05762531,0.27513800,-0.24105065,-0.19562945,0.76480270,-0.23075417
491,1778604597.3732083,-0.01762298,0.25464900,-0.20104831,-0.25305074,0.60597783,-0.25152358
492,1778604597.3834116,0.03555085,0.20684133,-0.15811898,-0.33490660,0.50579600,-0.29428410
493,1778604597.3932426,0.03555085,0.20684133,-0.15811898,-0.33490660,0.50579600,-0.29428410
494,1778604597.403264,0.11457986,0.12830016,-0.09762765,-0.39721483,0.40317076,-0.46776970
495,1778604597.4133997,0.11653119,0.11561650,-0.08591965,-0.42042768,0.41538805,-0.54596040
496,1778604597.4234157,0.12531220,0.09659100,0.06140602,-0.32757625,0.39706210,-0.66080296
497,1778604597.433112,0.11653119,0.09171267,0.09457869,-0.19929464,0.32742350,-0.72188944
498,1778604597.4433374,0.13653237,0.10146933,0.03018469,-0.00015272,0.19914192,-0.76220655
499,1778604597.4529738,0.13653237,0.10146933,0.03018469,-0.00015272,0.19914192,-0.76220655
500,1778604597.4630778,0.13653237,0.10146933,0.03018469,-0.00015272,0.19914192,-0.76220655
501,1778604597.4730756,0.23605035,-0.45075798,-1.01768140,0.05971203,1.27426400,-0.84161896
502,1778604597.482992,0.23605035,-0.45075798,-1.01768140,0.05971203,1.27426400,-0.84161896
503,1778604597.4929562,0.23165986,-0.60637680,0.15360652,-0.05146536,1.35734150,-1.36696270
504,1778604597.5030453,0.07848018,-0.68247885,0.14433768,0.01328631,0.64751667,-1.37918000
505,1778604597.51307,-0.04299031,-0.82931674,0.11116502,0.14523310,0.03665189,-1.28021990
506,1778604597.523329,-0.08299265,-0.91371185,0.08530986,-0.11866048,-0.63652110,-1.16537730
507,1778604597.5330942,-0.00640281,-1.33324850,-0.16933915,-0.38621926,-0.72937256,-1.10062560
508,1778604597.5431912,0.06140602,-3.48508120,-0.41374367,0.23808455,2.04761860,-1.31076310
509,1778604597.5532033,0.06140602,-3.48508120,-0.41374367,0.23808455,2.04761860,-1.31076310
510,1778604597.5632157,-0.72010297,-4.36659600,0.51070050,1.05664340,2.35549450,-0.87582740
511,1778604597.5732222,-1.07817270,-4.94175200,0.35654520,0.84528416,1.67254780,-0.12690715
512,1778604597.5832458,-0.98255730,-3.53825520,-0.00493931,0.92103136,0.79901110,0.57925254
513,1778604597.5933535,-0.79035100,-2.28257230,-0.16397297,0.69256794,0.20525056,1.32939450
514,1778604597.6035385,-0.58253400,-1.79961720,-0.23324533,0.54596040,-0.30298892,1.87795100
515,1778604597.613113,-0.58253400,-1.79961720,-0.23324533,0.35537058,-0.90163640,2.12596230
516,1778604597.6233416,-0.33471465,-1.39276420,-0.30202982,-0.13332124,-1.80938150,2.08198000
517,1778604597.6330042,-0.21031716,-1.55618830,-0.26983282,-0.48762280,-2.20033500,1.84496440
518,1778604597.6430135,-0.03128231,-2.09621980,-0.18738899,-0.74418604,-2.48011110,1.16812620
519,1778604597.6531518,-0.03128231,-2.09621980,-0.18738899,-0.74418604,-2.48011110,1.16812620
520,1778604597.663113,-0.02250131,-2.24354550,-0.32934850,-0.26282457,-1.49784040,0.41554075
521,1778604597.6731083,-0.16250949,-1.77132300,-0.45179462,0.05971203,-0.43493572,0.29214610
522,1778604597.6831105,-0.22251299,-1.50301460,-0.49277264,0.15867212,0.19181155,0.22006404
523,1778604597.692979,-0.22251299,-1.50301460,-0.49277264,0.15867212,0.19181155,0.22006404
524,1778604597.703296,-0.37569264,-1.15079880,-0.49033347,-0.27626360,0.01343903,0.27870706
525,1778604597.7133727,-0.41325584,-0.96200730,-0.40398700,-0.56459177,-0.35063640,0.36178467
526,1778604597.723604,-0.37471700,-0.77614284,-0.18690115,-1.00807960,-0.97860540,0.53160506
527,1778604597.7331972,-0.36496034,-0.62540233,-0.04542948,-1.16568270,-1.24616420,0.65744320
528,1778604597.7434127,-0.36496034,-0.62540233,-0.04542948,-1.16568270,-1.24616420,0.65744320
529,1778604597.753017,-0.27910164,-0.48636985,0.12628786,-1.11559180,-1.08489580,0.89812390
530,1778604597.7633312,-0.18982814,-0.35806966,0.18873052,-0.90178910,-0.75014200,1.01418830
531,1778604597.7732375,-0.01469598,-0.14537434,0.30093220,-0.54015720,-0.46792242,1.01296650
532,1778604597.7834036,0.10823802,0.00731750,0.32776302,-0.27259842,-0.34086254,0.94088450
533,1778604597.7930548,0.18775485,0.12049483,0.21653701,0.02061669,-0.24923283,0.75273810
534,1778604597.8029814,0.22726935,0.19610901,0.09116385,0.15867212,-0.09896009,0.57314390
535,1778604597.8131914,0.22580586,0.25952733,-0.01323248,0.20509785,0.12705988,0.38133234
536,1778604597.8233373,0.19556019,0.33855635,-0.10982348,0.20143266,0.59253883,0.13454297
537,1778604597.8332202,0.17311986,0.35026434,-0.12543415,0.20021093,0.84910200,0.00259618
538,1778604597.842982,0.13994719,0.34245902,-0.10835998,0.23808455,0.89186260,-0.14401138
539,1778604597.853134,0.13994719,0.34245902,-0.10835998,0.23808455,0.89186260,-0.14401138
540,1778604597.8634217,0.10677453,0.37709520,-0.25031948,0.16844596,0.58643020,-0.20509785
541,1778604597.8731275,0.18580353,0.41563400,-0.51374950,-0.06856957,0.24923283,-0.17821980
542,1778604597.8831468,0.32532385,0.35611832,-0.42984214,-0.39232790,0.12095123,-0.18188499
543,1778604597.893103,0.44289170,0.17952266,-0.08738314,-0.61101750,-0.11606431,-0.25274530
544,1778604597.9030683,0.46972254,0.05414950,0.17263202,-0.61101750,-0.11606431,-0.25274530
545,1778604597.913153,0.52094500,-0.07610200,0.42240270,-0.84436786,-1.42942360,-0.57039500
546,1778604597.9235415,0.71998100,-0.30440800,0.48826018,-0.92988890,-2.30418200,-1.03709570
547,1778604597.9332933,0.72485936,-0.50246835,0.29995653,-1.01052310,-2.73423080,-1.67117330
548,1778604597.943298,0.44337955,-0.54490983,-0.01908648,-1.15102200,-2.56318860,-2.09511350
549,1778604597.953301,0.44337955,-0.54490983,-0.01908648,-1.15102200,-2.56318860,-2.09511350
550,1778604597.9630806,0.44337955,-0.54490983,-0.01908648,-1.15102200,-2.56318860,-2.09511350
551,1778604597.9731278,-0.05567398,-0.82638970,-0.12201932,0.23808455,2.29440800,-2.34312460
552,1778604597.9829872,-0.29324880,-0.95712900,0.08091935,0.17577635,1.68965200,-2.10733080
553,1778604597.9932284,-0.64107400,-1.34446870,0.03311169,-0.29214610,0.94073176,-1.37795820
554,1778604598.0034537,-0.64107400,-1.34446870,0.03311169,-0.29214610,0.94073176,-1.37795820
555,1778604598.0129418,-0.98109380,-1.85132750,-0.07079682,-1.38925920,0.36774060,1.15346540
556,1778604598.0230925,-1.31574750,-3.27921580,0.39557186,-0.70264720,-0.71593350,3.24995330
557,1778604598.033121,-0.99036264,-3.04505560,0.06482086,0.10369430,-1.52471850,4.00498200
558,1778604598.0430853,-0.99036264,-3.04505560,0.06482086,0.10369430,-1.52471850,4.00498200
559,1778604598.0532246,-0.59863245,-2.24549700,-0.24641682,-0.53282680,-1.48440150,3.74841900
560,1778604598.063449,-0.44837980,-2.10158600,-0.18055932,-0.84558960,-1.28892470,2.86266520
561,1778604598.0732744,-0.34300780,-2.08792660,0.01311052,-0.81504630,-1.32557650,1.52731470
562,1778604598.0833647,-0.58838800,-2.17720030,0.10482319,-0.65377800,-1.40132380,0.21151192
563,1778604598.093319,-1.01719340,-1.92450250,0.13019052,-0.38499752,-1.33046350,-0.09392046
564,1778604598.1033833,-1.01719340,-1.92450250,0.13019052,-0.38499752,-1.33046350,-0.09392046
565,1778604598.1135075,-0.99670450,-1.98694530,-0.02201348,0.19654575,-0.89552780,0.45463613
566,1778604598.1233463,-1.11719940,-2.00353170,-0.10982348,0.34070984,-0.63652110,0.50961393
567,1778604598.133007,-1.11719940,-2.00353170,-0.10982348,0.34070984,-0.63652110,0.50961393
568,1778604598.1431718,-1.09231980,-1.82498460,0.04384402,0.29061893,-0.60842130,0.91278470
569,1778604598.1532228,-0.98841137,-1.67668320,0.07555319,0.31016660,-0.72692907,1.02640560
570,1778604598.1633828,-0.88645416,-1.54838300,0.09994486,0.44455683,-0.71837700,1.08382680
571,1778604598.1732476,-0.68449116,-1.29422190,0.11067719,0.67546374,-0.55710870,1.08871380
572,1778604598.1834617,-0.58497316,-1.06933070,0.11067719,0.92836180,-0.36529714,1.08749200
573,1778604598.192985,-0.45569730,-0.81273040,-0.01420815,1.13605580,-0.11484258,1.16812620
574,1778604598.2030826,-0.28300430,-0.69174767,-0.10445731,1.27899810,0.15638138,1.19866940
575,1778604598.2132387,-0.15031365,-0.54734900,-0.18592548,1.38284520,0.43860090,1.17423490
576,1778604598.2232628,0.10872585,-0.46588080,-0.24836816,1.41461010,0.72937256,1.00930130
577,1778604598.2332919,0.25653934,-0.40392600,-0.32203100,1.35841060,0.81611530,0.77350754
578,1778604598.2437994,0.29654170,-0.34782517,-0.34154433,1.19225540,0.72326390,0.53771370
579,1778604598.2530057,0.32337250,-0.31611600,-0.34252000,1.05297820,0.60353440,0.42287114
580,1778604598.2632506,0.28824854,-0.26977180,-0.32447016,0.77686730,0.36285368,0.24083345
581,1778604598.2732432,0.22141537,-0.22830600,-0.27032065,0.50442160,0.22113305,0.08689552
582,1778604598.2831662,0.19263318,-0.17171735,-0.20007265,0.29917103,0.21013749,-0.04382955
583,1778604598.2931473,0.15507002,-0.10878683,-0.13714215,0.15989386,0.27244568,-0.13668099
584,1778604598.3029912,0.14141070,-0.08976133,-0.10445731,0.09392046,0.36774060,-0.17699806
585,1778604598.3137279,0.13750802,-0.08634650,-0.08055348,0.07070760,0.50579600,-0.20143266
586,1778604598.3231418,0.10823802,-0.11171384,-0.08006565,0.09758565,0.79778940,-0.20876303
587,1778604598.3331563,0.06579652,-0.24830718,-0.12592198,0.12690715,1.02991810,-0.15745040
588,1778604598.3431857,0.11653119,-0.41807315,-0.13714215,0.10247257,1.33168520,-0.18677190
589,1778604598.3531468,0.11653119,-0.41807315,-0.13714215,0.10247257,1.33168520,-0.18677190
590,1778604598.3632238,0.18580353,-0.31660384,-0.15567982,0.11835505,1.32068970,-0.51663890
591,1778604598.3731682,0.20824386,-0.20684133,-0.14299615,0.16478078,1.00059650,-0.73899364
592,1778604598.3833575,0.15555786,-0.14927700,-0.11128698,0.15012002,0.70615970,-0.85505795
593,1778604598.3932402,0.09653002,-0.15805800,-0.06347931,0.11468986,0.46059203,-0.89781850
594,1778604598.4032476,0.02774552,-0.21415883,-0.01713515,-0.02458731,0.27733260,-0.89904020
595,1778604598.4132662,-0.01030548,-0.21464668,0.05701552,-0.21029020,-0.01832594,-0.85994490
596,1778604598.4233854,-0.04103898,-0.13756900,0.04238052,-0.49617493,-0.81245020,-0.78297590
597,1778604598.4335103,-0.19519432,0.11951917,-0.89133245,-0.90178910,-1.25715970,-0.66446817
598,1778604598.4431517,-0.44886765,0.24879500,-1.66357270,-2.04777150,-0.25534147,-0.32604910
599,1778604598.453406,-0.44886765,0.24879500,-1.66357270,-2.04777150,-0.25534147,-0.32604910
600,1778604598.4630883,-0.31422567,-0.37319250,-0.48545516,-2.61831930,-0.18448116,-0.20631959
601,1778604598.4730287,-0.33276330,-0.82151130,0.24727054,-1.81197760,-2.57662770,-0.33826637
602,1778604598.483539,-0.42593947,-1.02835270,-0.12153149,-1.46011950,-2.60839270,-0.20631959
603,1778604598.493006,-0.60741350,-1.43374220,-0.86255040,-1.35871600,-0.97371846,-0.00106901
604,1778604598.5032418,-0.60741350,-1.43374220,-0.86255040,-1.24876030,1.20829060,0.11010838
605,1778604598.5129356,-1.02548660,-2.17573700,-0.59814465,-0.76495540,2.57662770,0.17852524
606,1778604598.522954,-1.45038950,-2.32696500,0.37459502,0.08536835,1.73485600,0.60490880
607,1778604598.532972,-1.63674190,-2.48551080,0.32190904,0.47387835,0.39584038,1.36115940
608,1778604598.543074,-1.74016250,-2.62551900,0.15702136,0.55939940,-0.40194902,2.20048760
609,1778604598.553218,-1.66552400,-2.74601390,-0.04933215,0.63759010,-0.64018630,2.64153200
610,1778604598.5634546,-1.48161090,-2.82406700,-0.21519548,0.77931076,-0.63652110,2.53524160
611,1778604598.5731225,-0.90889450,-2.82211600,-0.39325467,0.79885840,-0.44715303,1.06427920
612,1778604598.5832586,-1.00499770,-2.04694870,-0.35471582,0.60216000,-0.51068294,0.10033454
613,1778604598.5933094,-1.02987720,-1.65863350,-0.28202865,0.47510007,-0.60597783,0.22739442
614,1778604598.602962,-1.02987720,-1.65863350,-0.28202865,0.47510007,-0.60597783,0.22739442
615,1778604598.6130261,-0.76498365,-1.42203430,-0.25422215,0.15134175,-0.80511975,0.59513503
616,1778604598.6232038,-0.80401033,-1.21763200,-0.33276330,0.01695150,-0.98471403,0.36178467
617,1778604598.6330106,-0.85279363,-1.07420900,-0.36788732,0.08414663,-0.95050560,0.25671592
618,1778604598.643024,-0.85425717,-0.97956930,-0.36788732,0.27473643,-0.66095567,0.20295982
619,1778604598.6533887,-0.85425717,-0.97956930,-0.36788732,0.27473643,-0.66095567,0.20295982
620,1778604598.66313,-0.81474260,-0.80833983,-0.34252000,0.44089165,-0.15393792,0.23350306
621,1778604598.673242,-0.73181100,-0.63369550,-0.28788266,0.40912670,0.01221729,0.33368490
622,1778604598.683243,-0.73181100,-0.63369550,-0.28788266,0.40912670,0.01221729,0.33368490
623,1778604598.6931472,-0.52057916,-0.42587852,-0.20299964,0.14645483,-0.15515965,0.63789550
624,1778604598.70342,-0.52057916,-0.42587852,-0.20299964,0.14645483,-0.15515965,0.63789550
625,1778604598.7129345,-0.32056746,-0.31416467,-0.15226498,-0.01114828,-0.38117963,0.76739890
626,1778604598.7229428,-0.17763232,-0.25416118,-0.13616648,-0.28725916,-0.78557210,0.98608845
627,1778604598.7329748,-0.17763232,-0.25416118,-0.13616648,-0.28725916,-0.78557210,0.98608845
628,1778604598.7429848,0.10384752,-0.14098383,-0.16397297,-0.41187558,-0.63041246,0.85780686
629,1778604598.7533216,0.10384752,-0.14098383,-0.16397297,-0.41187558,-0.63041246,0.85780686
630,1778604598.7630343,0.19409668,-0.09854234,-0.15811898,-0.44608400,-0.48624837,0.75395983
631,1778604598.7730463,0.28288236,-0.01317150,-0.15909465,-0.67088220,-0.11239912,0.31902415
632,1778604598.7831268,0.29068770,0.01024450,-0.12201932,-0.87613280,-0.20036365,0.15531237
633,1778604598.7934315,0.32190904,0.01512283,-0.10006681,-1.00685790,-0.32742350,0.04046979
634,1778604598.8034217,0.34922770,0.02048900,-0.08884665,-1.08871380,-0.48258317,-0.10491603
635,1778604598.8129508,0.35508168,0.04536850,-0.11909231,-1.08871380,-0.48258317,-0.10491603
636,1778604598.823064,0.35020337,0.09073700,-0.16787565,-0.89690220,-0.46792242,-0.32482734
637,1778604598.8330374,0.33947104,0.07658983,-0.14250831,-0.70753413,-0.42149670,-0.39568767
638,1778604598.8433697,0.30922535,0.03414834,-0.07811432,-0.60979575,-0.51679160,-0.46776970
639,1778604598.8532312,0.30922535,0.03414834,-0.07811432,-0.60979575,-0.51679160,-0.46776970
640,1778604598.863363,0.21263437,-0.04000233,0.08091935,-0.64644766,-1.10810880,-0.58016884
641,1778604598.873329,0.12238518,-0.14878917,-0.13616648,-0.75029470,-1.22172950,-0.58627750
642,1778604598.8830748,0.16287535,-0.31416467,-0.32934850,-0.81748980,-0.41905323,-0.61437726
643,1778604598.8931694,0.21702486,-0.51368850,-0.13811780,-0.78816830,0.40194902,-0.78297590
644,1778604598.9032047,0.17702252,-0.63028070,0.08091935,-0.74418604,0.58520850,-1.03343050
645,1778604598.9133196,0.07213835,-0.76345920,0.12482436,-0.75151640,0.36285368,-1.26800250
646,1778604598.9233298,-0.13421515,-0.95127505,-0.00591498,-0.87613280,0.08429934,-1.46836630
647,1778604598.9329357,-0.39813298,-1.34056600,-0.77034986,-0.78450310,1.37933270,-1.57465670
648,1778604598.9429605,-0.39813298,-1.34056600,-0.77034986,-0.78450310,1.37933270,-1.57465670
649,1778604598.9531488,-0.93133485,-1.60741090,0.36874104,0.08292489,2.24920420,-1.68827750
650,1778604598.9632497,-0.93133485,-1.60741090,0.36874104,0.08292489,2.24920420,-1.68827750
651,1778604598.9731827,-1.12207770,-1.50545370,0.30678620,0.08292489,2.24920420,-1.68827750
652,1778604598.9830747,-1.51332000,-2.25525360,-0.59375420,-0.29581127,0.53023064,0.30925030
653,1778604598.9931247,-1.65235260,-2.55868600,-0.57716780,-0.00992655,1.04824400,0.40210176
654,1778604599.0034435,-1.65235260,-2.55868600,-0.57716780,-0.00992655,1.04824400,0.40210176
655,1778604599.0130775,-1.70406290,-2.65478900,-0.50057800,0.10735948,0.68539030,0.13087778
656,1778604599.0233934,-1.90553810,-2.15573550,-0.28300430,-0.50472700,-0.00000000,-0.38835728
657,1778604599.033155,-1.90553810,-2.15573550,-0.28300430,-0.50472700,-0.00000000,-0.38835728
658,1778604599.043059,-1.74504080,-1.77961610,0.06726002,-0.07956514,-0.49357873,0.76984230
659,1778604599.0531316,-1.74504080,-1.77961610,0.06726002,-0.07956514,-0.49357873,0.76984230
660,1778604599.0637856,-1.29428290,-2.08158500,0.07799236,0.49953467,-0.63285590,1.54441890
661,1778604599.073298,-1.04451220,-2.21769020,-0.13714215,0.65102910,-0.68050337,1.72279140
662,1778604599.0831015,-0.80596167,-2.16451640,-0.24690464,0.53985170,-0.73181600,1.73256530
663,1778604599.0930257,-0.65717250,-1.92352680,-0.27324766,0.25885394,-0.92851450,1.61650100
664,1778604599.1031446,-0.53375065,-1.69034240,-0.20934150,0.04260782,-1.13009990,1.47355850
665,1778604599.11312,-0.39130333,-1.40496000,-0.12397064,-0.04291325,-1.24494240,1.25731240
666,1778604599.1233342,-0.34105647,-1.16738520,-0.06250364,0.04627301,-1.19240810,0.94943660
667,1778604599.133341,-0.29763930,-0.88444180,-0.02494048,0.21853687,-1.09833490,0.73319050
668,1778604599.143109,-0.24056281,-0.61808485,-0.02884315,0.37125307,-1.00426170,0.60002196
669,1778604599.1531367,-0.16348514,-0.39416936,-0.07372381,0.47510007,-0.88086700,0.51694435
670,1778604599.1631532,-0.09421282,-0.31172550,-0.10250599,0.52396930,-0.76480270,0.45463613
671,1778604599.1729975,0.03262385,-0.22196417,-0.09957898,0.59238610,-0.50213087,0.27015495
672,1778604599.1833665,0.16531453,-0.16000934,-0.03372148,0.68279410,-0.30543238,0.02458731
673,1778604599.1929362,0.22483020,-0.07902900,0.04823452,0.81718430,-0.16371176,-0.19410229
674,1778604599.2029526,0.22483020,-0.07902900,0.04823452,0.81718430,-0.16371176,-0.19410229
675,1778604599.2131011,0.20726820,0.03317267,0.08970036,1.27899810,0.21135922,-0.53252137
676,1778604599.2230568,0.16970502,0.09951800,0.00920785,1.46103580,0.42516190,-0.62415110
677,1778604599.2334948,0.13555670,0.15366750,-0.11958014,1.48547040,0.55710870,-0.62537280
678,1778604599.243371,0.11409202,0.16927817,-0.26446667,1.29365890,0.55222180,-0.56795150
679,1778604599.2530544,0.15750920,0.11659218,-0.31666481,1.02487840,0.49846566,-0.54962560
680,1778604599.2633417,0.16677801,0.06439400,-0.34252000,0.70845044,0.40072730,-0.59482956
681,1778604599.2730668,0.15555786,-0.02292817,-0.37520483,0.25885394,0.24434592,-0.69378966
682,1778604599.2830925,0.14775252,-0.06634533,-0.40837747,0.01450804,0.22846343,-0.74876750
683,1778604599.292989,0.14775252,-0.06634533,-0.40837747,0.01450804,0.22846343,-0.74876750
684,1778604599.3031404,0.17604686,-0.07366284,-0.42496383,-0.22250749,0.26511532,-0.80618880
685,1778604599.3136704,0.20336552,-0.02487950,-0.40057215,-0.43997535,0.33719736,-0.88804466
686,1778604599.323372,0.14238635,0.00439050,-0.33471465,-0.49984010,0.32986698,-0.89293160
687,1778604599.333236,0.05311285,0.01609850,-0.23324533,-0.52671814,0.18203771,-0.83184510
688,1778604599.343192,0.05311285,0.01609850,-0.23324533,-0.52671814,0.18203771,-0.83184510
689,1778604599.3531768,-0.18299848,-0.09366400,-0.01957431,-0.55970484,-0.27244568,-0.64492047
690,1778604599.36306,-0.28397998,-0.15708233,0.05213719,-0.58536120,-0.36529714,-0.56306463
691,1778604599.3730526,-0.42301250,-0.21562232,-0.06982114,-0.65622150,-0.40439248,-0.35903576
692,1778604599.3831222,-0.50887114,-0.33904418,-1.17964200,-0.81138116,0.19181155,-0.15622866
693,1778604599.3931382,-0.36056980,-0.80541280,-1.39282510,-0.97997980,1.96209760,-0.14889829
694,1778604599.4031715,-0.19860914,-1.03762150,-0.60887700,-0.66233015,2.44712420,-0.36392270
695,1778604599.4134383,-0.26056397,-0.97078830,0.05457636,-0.30436337,1.86558100,-0.50197816
696,1778604599.4229524,-0.26056397,-0.97078830,0.05457636,-0.30436337,1.86558100,-0.50197816
697,1778604599.4329808,-0.26056397,-0.97078830,0.05457636,-0.30436337,1.86558100,-0.50197816
698,1778604599.443289,-1.03280410,-1.85132750,-0.18494982,-0.61590440,-0.33353218,-0.26496258
699,1778604599.4532993,-1.43136390,-2.85431300,-0.70595580,0.33460120,0.77824175,-0.25763223
700,1778604599.463102,-1.70650210,-3.51435140,-0.15226498,1.64918220,1.37200220,-0.63025975
701,1778604599.4731827,-1.88602470,-2.94114730,0.11555553,1.32298040,0.92362756,-0.64614224
702,1778604599.4832118,-2.20506790,-3.07725290,0.18580353,0.70967215,1.01525720,-0.21364996
703,1778604599.4933407,-1.88748820,-2.71088980,0.16189969,0.58261230,0.05619956,0.26648977
704,1778604599.5029585,-1.88748820,-2.71088980,0.16189969,0.58261230,0.05619956,0.26648977
705,1778604599.5134277,-1.42063160,-2.14890580,-0.93962806,0.78419770,-0.55710870,0.82359844
706,1778604599.5233483,-0.96597105,-2.00889750,-0.57326520,0.21609342,-0.05864302,0.95676696
707,1778604599.5331597,-0.83425600,-2.10646440,-0.36105764,-0.03802633,-0.56810427,0.92500200
708,1778604599.5430005,-0.83425600,-2.10646440,-0.36105764,-0.03802633,-0.56810427,0.92500200
709,1778604599.5531409,-0.78937536,-2.05426620,-0.30154198,-0.09300416,-0.75014200,0.77961620
710,1778604599.5633345,-0.81425480,-1.54984650,-0.35813063,-0.01725693,-0.52656543,0.54382235
711,1778604599.573162,-0.70888280,-1.31666220,-0.43667180,0.09147700,-0.27977607,0.43631017
712,1778604599.5832272,-0.64595230,-1.03030400,-0.50399286,0.12690715,0.02809978,0.30314165
713,1778604599.593449,-0.61180395,-0.85614750,-0.52789670,-0.00992655,0.16615522,0.28237224
714,1778604599.6029527,-0.61180395,-0.85614750,-0.52789670,-0.00992655,0.16615522,0.28237224
715,1778604599.612959,-0.51618860,-0.59954715,-0.37374133,-0.49006626,0.01588248,0.38866273
716,1778604599.6230485,-0.43911100,-0.48685768,-0.23226966,-0.79916380,-0.35063640,0.50350530
717,1778604599.6330676,-0.32739717,-0.35416700,-0.10738432,-0.88224150,-0.58643020,0.56825700
718,1778604599.6433134,-0.21763465,-0.24684367,-0.03567281,-0.88224150,-0.58643020,0.56825700
719,1778604599.6533785,-0.13860564,-0.19366984,0.00384169,-0.65988666,-0.61575170,0.61101750
720,1778604599.6634586,-0.04884431,-0.12098267,0.03847786,-0.41798422,-0.31520623,0.55970484
721,1778604599.673149,0.07262619,-0.12195834,0.13945936,-0.01847866,0.08796453,0.43020153
722,1778604599.6831923,0.07262619,-0.12195834,0.13945936,-0.01847866,0.08796453,0.43020153
723,1778604599.6932209,0.19312102,-0.05268600,0.10531103,0.30772313,0.15271619,0.14798199
724,1778604599.7033958,0.21117085,0.03512400,0.01457402,0.27962336,-0.04886918,0.00137445
725,1778604599.7135913,0.22141537,0.06195483,-0.04494165,0.16600250,-0.18325943,-0.10002911
726,1778604599.7233403,0.20824386,0.15317966,-0.10835998,-0.01481347,-0.22846343,-0.22708899
727,1778604599.7330332,0.19799936,0.22293983,-0.11470181,-0.15286891,-0.17104214,-0.31994042
728,1778604599.743058,0.18043736,0.27074748,-0.13714215,-0.22617269,-0.06963859,-0.37369654
729,1778604599.753337,0.18043736,0.27074748,-0.13714215,-0.22617269,-0.06963859,-0.37369654
730,1778604599.7630975,0.13555670,0.32879966,-0.19665782,-0.30680683,0.06597339,-0.36880960
731,1778604599.7730727,0.14824036,0.33416584,-0.27275982,-0.44852746,-0.11850777,-0.29306240
732,1778604599.7830915,0.14824036,0.33416584,-0.27275982,-0.44852746,-0.11850777,-0.29306240
733,1778604599.7933905,0.39508402,0.03853883,-0.53326280,-0.85291994,-0.09896009,-0.25885394
734,1778604599.8034246,0.39508402,0.03853883,-0.53326280,-0.85291994,-0.09896009,-0.25885394
735,1778604599.813437,0.43118370,-0.27318668,-0.07128465,-1.18889560,-0.11972950,-0.55817770
736,1778604599.8231366,0.41167036,-0.35465485,0.38288820,-1.09237900,-0.56077385,-1.07374750
737,1778604599.8333666,0.41459736,-0.61662130,0.32337250,-0.93966275,-0.78679380,-1.44881860
738,1778604599.8432834,0.17458336,-0.84590304,-0.01859865,-0.78816830,-0.64507324,-1.78357240
739,1778604599.853398,0.17458336,-0.84590304,-0.01859865,-0.78816830,-0.64507324,-1.78357240
740,1778604599.8631427,0.00579302,-1.16153120,-0.95182380,-0.62323480,1.38055440,-1.80556360
741,1778604599.873394,-0.68058850,-1.34495650,0.61656040,0.54351693,3.98161670,-1.24967660
742,1778604599.88338,-0.75229996,-1.33471200,0.50826140,0.72311120,1.32679830,-0.67546374
743,1778604599.893023,-0.75229996,-1.33471200,0.50826140,0.72311120,1.32679830,-0.67546374
744,1778604599.903557,-1.03621900,-1.73083270,-0.28397998,0.13423753,-1.14353880,0.34345870
745,1778604599.913134,-1.17037320,-2.50258500,-2.18555430,0.12935062,1.04091360,0.47296205
746,1778604599.9233017,-0.86255040,-2.56161280,-0.19665782,0.44577858,3.10930180,-0.24785839
747,1778604599.9329925,-0.86255040,-2.56161280,-0.19665782,0.16233732,-0.10140356,-0.88804466
748,1778604599.9432962,-1.47185420,-2.01377600,-0.02396481,-0.68187780,-1.25838150,-0.69867660
749,1778604599.9532232,-1.40941150,-2.02206920,-0.13909347,-1.23287790,-1.29747680,-0.10369430
750,1778604599.963094,-1.14793290,-2.01572730,-0.19177948,-0.94454970,-1.47340580,0.16997312
751,1778604599.97353,-0.96206840,-1.81376450,-0.33617815,-0.66233015,-1.14231720,0.19440772
752,1778604599.9831545,-0.96206840,-1.81376450,-0.33617815,-0.66233015,-1.14231720,0.19440772
753,1778604599.9932458,-1.10061300,-1.72302730,0.03067252,-0.57314390,-1.20096020,0.39232790
754,1778604600.0032792,-1.10061300,-1.72302730,0.03067252,-0.57314390,-1.20096020,0.39232790
755,1778604600.0133376,-1.15134760,-1.78790930,0.12384869,-0.02336558,-1.56625720,0.53282680
756,1778604600.023049,-1.06597690,-1.82352100,0.13165402,0.31627524,-1.63345240,0.70997757
757,1778604600.0330527,-0.95962920,-1.76010260,0.10775018,0.61315554,-1.55159650,0.75395983
758,1778604600.043151,-0.95962920,-1.76010260,0.10775018,0.61315554,-1.55159650,0.75395983
759,1778604600.0532858,-0.73083530,-1.46789050,0.10970152,0.80374530,-1.39643690,0.71852970
760,1778604600.0632334,-0.65961170,-1.31275950,0.11262852,1.09085180,-1.18263420,0.61101750
761,1778604600.073191,-0.60497430,-1.09177100,-0.00250015,1.40483630,-0.98104880,0.53527030
762,1778604600.0830586,-0.54350734,-0.97956930,-0.09616415,1.54289170,-0.83566300,0.52916163
763,1778604600.093125,-0.44740415,-0.84736650,-0.20153615,1.60031300,-0.71959870,0.54870930
764,1778604600.1032388,-0.27617463,-0.75565380,-0.27763817,1.60031300,-0.71959870,0.54870930
765,1778604600.1134079,-0.18592548,-0.70101650,-0.31178647,1.47447490,-0.71837700,0.35934120
766,1778604600.1229377,-0.05811315,-0.58832700,-0.34544697,1.35352360,-0.83932820,0.09789108
767,1778604600.1334133,-0.01176898,-0.47027132,-0.36642382,1.22035520,-0.87964530,-0.10247257
768,1778604600.1434221,0.03311169,-0.38441268,-0.38788850,1.03220880,-0.75869405,-0.28206682
769,1778604600.1531322,0.05799119,-0.33465368,-0.38008317,0.85505795,-0.52900890,-0.40912670
770,1778604600.1629243,0.08530986,-0.27757720,-0.37325350,0.67424200,-0.21013749,-0.53374310
771,1778604600.1734164,0.11799469,-0.15513100,-0.30983517,0.46532625,0.37018406,-0.72066770
772,1778604600.1831079,0.11799469,-0.15513100,-0.30983517,0.46532625,0.37018406,-0.72066770
773,1778604600.1932006,0.01945235,-0.00682967,-0.16348514,0.33826637,0.93462310,-0.91736620
774,1778604600.2034085,0.01945235,-0.00682967,-0.16348514,0.33826637,0.93462310,-0.91736620
775,1778604600.2132618,-0.15470415,0.09951800,-0.16494864,0.33460120,1.02136590,-0.81229746
776,1778604600.2232757,-0.18836464,0.06878450,-0.13762999,0.29794928,1.05435260,-0.57528190
777,1778604600.233143,-0.15324064,0.02731867,-0.11958014,0.22831070,1.09100450,-0.41279188
778,1778604600.243126,-0.07811432,-0.01170800,-0.08006565,0.12690715,1.07756540,-0.33948810
779,1778604600.2531044,-0.07811432,-0.01170800,-0.08006565,0.12690715,1.07756540,-0.33948810
780,1778604600.2633097,0.00384169,-0.04000233,-0.00201231,-0.06979130,0.97127500,-0.24174973
781,1778604600.2732875,0.06433302,-0.00292700,0.02676985,-0.15775582,0.73303770,-0.24052800
782,1778604600.283224,0.10726235,0.04097800,0.02481852,-0.23594652,0.41050112,-0.27351472
783,1778604600.293087,0.13409320,0.05951567,0.01457402,-0.29825473,0.11484258,-0.33215773
784,1778604600.3031013,0.13409320,0.05951567,0.01457402,-0.29825473,0.11484258,-0.33215773
785,1778604600.3133001,0.13409320,0.05951567,0.01457402,-0.29825473,0.11484258,-0.33215773
786,1778604600.3233032,0.19263318,0.05171033,-0.32349450,-0.68920820,-0.25534147,-0.71944600
787,1778604600.3331654,0.15799703,-0.10098150,-0.48057684,-0.83459400,0.10995566,-0.80496705
788,1778604600.3431551,0.05994253,-0.34733734,-0.73034745,-0.90056740,0.42760533,-0.78541940
789,1778604600.3529317,-0.02737965,-0.64735484,-1.08549010,-0.88346320,0.65118190,-0.74510230
790,1778604600.3633685,-0.02737965,-0.64735484,-1.08549010,-0.66355187,0.54977830,-0.68279410
791,1778604600.373182,-0.34447134,-1.02737700,-0.11762882,-0.37400195,0.05009091,-0.58139056
792,1778604600.3829598,-0.38642500,-1.10006420,-0.18982814,-0.41920596,0.16859868,-0.46166107
793,1778604600.3931997,-0.54106820,-1.87523140,-0.85718410,-0.63178690,1.19485150,-0.43233955
794,1778604600.4031527,-0.98792350,-2.86748430,-0.68253980,-0.56825700,2.91749020,-0.44577858
795,1778604600.4132426,-1.53039420,-3.18067340,0.33654400,0.14645483,2.30540370,-0.29550585
796,1778604600.4233458,-2.15433300,-3.22165130,-0.02006215,0.45066550,1.21806440,0.28970262
797,1778604600.4332135,-2.36361360,-3.29385070,0.03994136,0.16355905,1.32924180,0.98120150
798,1778604600.443181,-1.97432260,-2.88846100,0.12872702,-0.31780240,-0.06841686,1.26952970
799,1778604600.4532454,-1.55966410,-2.37867550,-0.06445498,-0.71364280,-1.22295130,0.74052083
800,1778604600.4631467,-1.54746830,-1.62107030,-0.21617115,-0.93111060,-1.50150560,0.31169376
801,1778604600.4731438,-1.62113120,-1.21031450,-0.16446081,-0.79549867,-1.13498680,0.97387120
802,1778604600.4831798,-1.35379850,-1.51521030,0.10043269,-0.61468270,-1.25838150,1.68736120
803,1778604600.4932048,-1.20305800,-1.77181080,0.15750920,-0.41187558,-1.40865420,1.82786010
804,1778604600.5033937,-1.20305800,-1.77181080,0.15750920,-0.41187558,-1.40865420,1.82786010
805,1778604600.5132139,-1.20305800,-1.77181080,0.15750920,-0.41187558,-1.40865420,1.82786010
806,1778604600.5232239,-0.66936830,-1.97426150,0.15897270,1.85076760,0.14172062,1.02884900
807,1778604600.533413,-0.52838450,-1.72107600,-0.35715497,2.49217560,0.96760980,0.91400640
808,1778604600.543232,-0.52838450,-1.72107600,-0.35715497,2.49217560,0.96760980,0.91400640
809,1778604600.553184,-0.40935317,-1.30397840,-1.12354110,2.57891850,1.71530830,0.71486450
810,1778604600.563214,-0.41959770,-1.06542800,-1.28111120,1.49035740,1.30969400,0.50106186
811,1778604600.5729556,-0.42642733,-0.74199450,-1.07719700,0.08536835,0.27366742,0.49006626
812,1778604600.5831068,-0.39032766,-0.52539650,-0.61326750,-1.12047870,-0.70371620,0.56581350
813,1778604600.5932465,-0.33569032,-0.37758300,-0.23178181,-1.70202200,-1.26326840,0.69898200
814,1778604600.6031296,-0.33569032,-0.37758300,-0.23178181,-1.70202200,-1.26326840,0.69898200
815,1778604600.6130064,-0.29080966,-0.29904184,-0.05225914,-1.77043880,-1.41109760,0.83703744
816,1778604600.6230638,-0.19714566,-0.24196534,0.15263085,-1.19378240,-0.96638810,1.14002650
817,1778604600.6336944,-0.19714566,-0.24196534,0.15263085,-1.19378240,-0.96638810,1.14002650
818,1778604600.6432538,0.16385102,-0.30196884,0.28141886,-0.18707734,0.05497783,0.94699310
819,1778604600.6529512,0.16385102,-0.30196884,0.28141886,-0.18707734,0.05497783,0.94699310
820,1778604600.6629567,0.19165753,-0.26147866,0.06335735,0.23930627,0.57176940,0.48640108
821,1778604600.6732075,0.20238985,-0.16196068,-0.07811432,0.22342380,0.60231270,0.24694209
822,1778604600.6831987,0.21117085,-0.04439283,-0.18446198,0.13179408,0.66462090,0.06979130
823,1778604600.6935303,0.23702602,0.06195483,-0.26007617,0.02061669,0.81000670,-0.07192933
824,1778604600.7032115,0.23702602,0.06195483,-0.26007617,0.02061669,0.81000670,-0.07192933
825,1778604600.7129354,0.26336902,0.21074401,-0.33910516,-0.18707734,1.08245240,-0.24297146
826,1778604600.7229514,0.30532268,0.23123300,-0.32398233,-0.33246315,1.11177380,-0.31138830
827,1778604600.7329774,0.37557068,0.19513334,-0.28300430,-0.46929687,0.98227054,-0.40912670
828,1778604600.7430732,0.40630420,0.12195834,-0.15372847,-0.56459177,0.74158984,-0.55451250
829,1778604600.7532752,0.35947220,0.06341834,-0.05030781,-0.60002196,0.52167850,-0.65835950
830,1778604600.763048,0.35947220,0.06341834,-0.05030781,-0.60002196,0.52167850,-0.65835950
831,1778604600.7731154,0.26727170,-0.00146350,0.13165402,-0.71975140,-0.24923283,-0.77931076
832,1778604600.7829578,0.26727170,-0.00146350,0.13165402,-0.71975140,-0.24923283,-0.77931076
833,1778604600.7930875,0.13653237,-0.06634533,0.18385220,-0.91156300,-1.69209540,-0.90514886
834,1778604600.8030975,0.13653237,-0.06634533,0.18385220,-0.92744550,-1.82892920,-0.89415330
835,1778604600.813055,0.13994719,-0.13854466,-0.03177015,-0.92133680,-1.60657440,-0.86361010
836,1778604600.8230042,0.24336785,-0.31806734,-0.13616648,-0.92378026,-0.65240360,-0.93935734
837,1778604600.8330448,0.24336785,-0.31806734,-0.13616648,-0.88224150,0.75380710,-1.26311560
838,1778604600.843039,0.20775603,-0.87907565,-0.86694086,-0.73929910,2.74156120,-1.59053920
839,1778604600.8531427,0.08774903,-1.41910720,-0.81864536,-0.45463613,5.03963400,-2.01203580
840,1778604600.863137,-0.19129165,-2.08109710,-0.44594067,0.23930627,6.26014230,-2.43841960
841,1778604600.8730204,-1.05036620,-2.45233820,0.43703770,2.06090500,3.71527960,-2.35289840
842,1778604600.8830326,-1.30403950,-2.22744700,-0.12348281,1.59909130,0.96394460,-1.47936180
843,1778604600.893534,-1.30403950,-2.22744700,-0.12348281,1.59909130,0.96394460,-1.47936180
844,1778604600.9029646,-1.67820780,-2.68113200,-0.66985613,0.15256348,0.27244568,-0.57161670
845,1778604600.9130392,-2.40117670,-2.78308920,-0.62790250,0.31749696,0.34086254,0.34834564
846,1778604600.923047,-2.01481270,-2.66308210,-0.46984450,-0.04046979,-0.24068072,0.60979575
847,1778604600.9333596,-1.40746020,-2.15768670,-0.13519081,-0.80527250,-0.39095345,0.57192210
848,1778604600.943135,-1.06353760,-1.80937390,0.22190319,-0.62201303,-0.68905544,0.68309957
849,1778604600.953149,-0.86889213,-1.65424290,0.17458336,-0.36300638,-0.79534596,0.86269380
850,1778604600.9633508,-0.76888630,-1.57716520,0.07652886,-0.27504188,-1.07023510,1.03495760
851,1778604600.972976,-0.63473210,-1.75083370,0.07604102,0.08903354,-1.04580040,1.11559180
852,1778604600.9835346,-0.41569500,-2.15817450,0.09750569,0.48120874,-0.77091134,0.98975366
853,1778604600.9930212,-0.34691048,-2.14353970,0.11262852,0.71211565,-0.74525505,0.81015940
854,1778604601.0030296,-0.44252580,-1.93572270,0.01213485,0.89048815,-0.72937256,0.73074700
855,1778604601.0133486,-0.50935900,-1.74985810,-0.04445382,0.99555690,-0.61086476,0.71486450
856,1778604601.023346,-0.50935900,-1.74985810,-0.04445382,0.99555690,-0.61086476,0.71486450
857,1778604601.033142,-0.48740650,-1.34544430,-0.00591498,0.99433510,-0.88086700,0.55603970
858,1778604601.0433955,-0.48740650,-1.34544430,-0.00591498,0.99433510,-0.88086700,0.55603970
859,1778604601.053268,-0.50789547,-1.01420550,-0.03811198,1.11039950,-0.80389804,0.43142325
860,1778604601.0629208,-0.50789547,-1.01420550,-0.03811198,1.11039950,-0.80389804,0.43142325
861,1778604601.0729659,-0.36544815,-0.74248230,-0.12982465,1.26922430,-0.26389357,0.31535894
862,1778604601.0831716,-0.24788031,-0.62198750,-0.15616766,1.36329750,0.00244346,0.23594652
863,1778604601.0930183,-0.17568098,-0.48636985,-0.18787682,1.48424880,0.15638138,0.15042545
864,1778604601.1031754,-0.17568098,-0.48636985,-0.18787682,1.48424880,0.15638138,0.15042545
865,1778604601.1131358,-0.04542948,-0.39904767,-0.32105532,1.54411340,0.30421066,-0.01084285
866,1778604601.123112,0.02335502,-0.33758068,-0.38691282,1.40239290,0.52412200,-0.13545926
867,1778604601.1331527,0.02335502,-0.33758068,-0.38691282,1.40239290,0.52412200,-0.13545926
868,1778604601.143022,0.14580119,-0.15317966,-0.36056980,0.84894930,0.95417076,-0.37614000
869,1778604601.153257,0.19799936,-0.03463617,-0.32788497,0.66813340,1.13376500,-0.48120874
870,1778604601.1634717,0.27410138,0.05073466,-0.24934383,0.59116440,1.30725060,-0.60460340
871,1778604601.1730285,0.33947104,0.13756900,-0.27519900,0.56550807,1.38788470,-0.82084954
872,1778604601.1831014,0.35117903,0.14781350,-0.31861615,0.46410450,1.35001110,-0.96379190
873,1778604601.1931517,0.34922770,0.09659100,-0.25861263,0.31749696,1.25960310,-1.05542160
874,1778604601.2031336,0.34922770,0.09659100,-0.25861263,0.31749696,1.25960310,-1.05542160
875,1778604601.2130408,0.22092752,-0.03756317,-0.07372381,-0.04657844,0.86987144,-1.17881630
876,1778604601.2230587,0.13653237,-0.07122366,0.05360069,-0.18952079,0.46914417,-1.20447270
877,1778604601.2332852,0.06677218,-0.07219934,0.12336086,-0.28603745,-0.01710421,-1.19225540
878,1778604601.2433732,0.04238052,-0.05366167,0.12238518,-0.28603745,-0.01710421,-1.19225540
879,1778604601.25311,0.00872002,-0.03219700,0.09945703,-0.40943210,-0.83810645,-1.13483400
880,1778604601.2632408,-0.01323248,-0.00926883,0.07652886,-0.50350530,-1.26082490,-1.07863450
881,1778604601.2732563,-0.02396481,0.01365933,0.05164935,-0.59880020,-1.62490030,-1.02121320
882,1778604601.2832658,-0.05518614,0.03268483,-0.02884315,-0.69409513,-1.89612420,-0.95401806
883,1778604601.2934184,-0.05518614,0.03268483,-0.02884315,-0.69409513,-1.89612420,-0.95401806
884,1778604601.302968,-0.28788266,0.13708118,-1.11476020,-0.88835010,-1.43675400,-0.80130190
885,1778604601.3129623,-0.30349332,-0.30733500,-0.61082834,-1.52364950,2.26264300,-0.44700030
886,1778604601.3229783,-0.20885365,-0.43661085,0.18238870,-0.79549867,1.24372070,-0.49831295
887,1778604601.3329782,-0.21519548,-0.52539650,0.24922185,-0.33735007,0.16249003,-0.48609564
888,1778604601.3429835,-0.32837284,-0.69467470,0.13945936,-0.14798199,-0.78557210,-0.38713557
889,1778604601.3530047,-0.32837284,-0.69467470,0.13945936,-0.14798199,-0.78557210,-0.38713557
890,1778604601.3631225,-0.32837284,-0.69467470,0.13945936,-0.14798199,-0.78557210,-0.38713557
891,1778604601.3731503,-1.40258190,-3.01041960,-0.27324766,0.40912670,2.52287150,0.67699087
892,1778604601.38316,-1.40258190,-3.01041960,-0.27324766,0.40912670,2.52287150,0.67699087
893,1778604601.3932595,-2.21580000,-3.85339550,0.42581752,1.30954130,1.41476290,2.01722810
894,1778604601.4034283,-1.99968990,-4.36171800,0.53362870,1.32664560,0.66095567,2.82601300
895,1778604601.4133434,-1.29184370,-4.25683360,0.22629368,1.62841280,-0.08429934,2.54868050
896,1778604601.4235175,-1.29184370,-4.25683360,0.22629368,1.62841280,-0.08429934,2.54868050
897,1778604601.4330711,-0.65668464,-2.06646200,-0.89767430,1.27533290,0.40561423,0.49006626
898,1778604601.4430046,-0.58741230,-1.72888140,-0.82693845,0.64247704,0.19058982,0.72586006
899,1778604601.453019,-0.54545870,-1.76010260,-0.71376115,0.64247704,0.19058982,0.72586006
900,1778604601.4629264,-0.64692800,-1.74497990,-0.59570550,-0.99097540,-1.23394680,0.64156073
901,1778604601.4729412,-0.82791420,-1.68497650,-0.49911448,-1.32084240,-1.47707100,0.48517936
902,1778604601.483047,-1.11134530,-1.46642700,-0.18494982,-1.32084240,-1.47707100,0.48517936
903,1778604601.4932623,-1.07329430,-1.21860770,-0.06640632,-1.05328360,-1.12765630,0.56214833
904,1778604601.5034099,-1.07329430,-1.21860770,-0.06640632,-1.05328360,-1.12765630,0.56214833
905,1778604601.5132532,-0.88499070,-0.80785200,-0.10592081,-0.31169376,-0.45326167,0.75884676
906,1778604601.5231159,-0.71766380,-0.63906170,-0.19616999,0.07437278,0.07696896,0.78450310
907,1778604601.5331397,-0.63326865,-0.50051700,-0.21861032,0.20387612,0.32253662,0.78572480
908,1778604601.5431166,-0.52936010,-0.43417168,-0.21226847,0.22953244,0.45448340,0.79672040
909,1778604601.553062,-0.46594182,-0.40978000,-0.19665782,0.18677190,0.46303550,0.82848537
910,1778604601.5634532,-0.46594182,-0.40978000,-0.19665782,0.18677190,0.46303550,0.82848537
911,1778604601.5729425,-0.26446667,-0.37270468,-0.11860447,0.04749474,0.31642795,1.10703970
912,1778604601.583071,-0.10055464,-0.36685067,-0.06494281,0.04993819,0.20525056,1.25609080
913,1778604601.593098,0.09506652,-0.38636400,-0.07226031,0.09147700,0.16493349,1.31106850
914,1778604601.6032794,0.18726702,-0.37709520,-0.09372498,0.08292489,0.21258095,1.25242560
915,1778604601.612914,0.18726702,-0.37709520,-0.09372498,0.08292489,0.21258095,1.25242560
916,1778604601.622977,0.46679550,-0.22245201,-0.01079331,0.01206458,0.23579380,0.82359844
917,1778604601.6331239,0.53948270,-0.10195717,0.03018469,0.01206458,0.23335035,0.56092656
918,1778604601.643268,0.60436450,-0.01951333,-0.12738548,0.03894263,0.18081598,0.11255184
919,1778604601.6530075,0.60436450,-0.01951333,-0.12738548,0.03894263,0.18081598,0.11255184
920,1778604601.6629863,0.60436450,-0.01951333,-0.12738548,0.03894263,0.18081598,0.11255184
921,1778604601.673101,0.64192766,0.10195717,-0.17616881,-0.47784898,0.54977830,-0.77808900
922,1778604601.6831017,0.61168200,0.09366400,-0.14348398,-0.66233015,0.37507100,-1.14949480
923,1778604601.6931317,0.50777350,0.09707884,-0.18299848,-0.83825920,0.05986475,-1.43660130
924,1778604601.7029707,0.40581635,0.11122601,-0.23568448,-0.96898425,-0.15149446,-1.54411340
925,1778604601.7132869,0.32044550,0.08390734,-0.08738314,-1.08993550,-0.38973173,-1.57099150
926,1778604601.7233493,0.22970851,0.00682967,0.22239104,-1.17545650,-1.20584700,-1.56366110
927,1778604601.7332244,0.19799936,-0.02634300,0.23263553,-1.15713060,-1.79594240,-1.56976970
928,1778604601.7430089,0.19799936,-0.02634300,0.23263553,-1.15713060,-1.79594240,-1.56976970
929,1778604601.7530618,0.15214302,-0.06293050,0.16824152,-1.05084010,-2.28341250,-1.56366110
930,1778604601.7631652,0.14043503,-0.07317501,0.12970269,-0.93355410,-2.26997350,-1.52578750
931,1778604601.7730427,0.07262619,-0.22586684,-0.21421981,-0.57436560,-0.60231270,-1.27655470
932,1778604601.7830899,0.05311285,-0.27904066,-0.10201815,-0.54870930,0.22846343,-1.26800250
933,1778604601.7934022,0.09067602,-0.61515784,-0.29763930,-0.58536120,0.93217963,-1.30343270
934,1778604601.803099,0.07750452,-0.98152070,-0.51960350,-0.41676250,2.28585600,-1.40850150
935,1778604601.8130813,0.07750452,-0.98152070,-0.51960350,-0.41676250,2.28585600,-1.40850150
936,1778604601.8234217,-0.40349916,-2.43380050,0.18531570,0.51419544,4.21130200,-1.73470330
937,1778604601.8332253,-1.01377870,-2.49234060,0.39362052,0.75121100,1.97798010,-1.19714220
938,1778604601.843014,-1.20939980,-2.63917830,0.28483367,0.21487169,-0.33964083,-0.36636615
939,1778604601.85329,-1.20939980,-2.63917830,0.28483367,0.21487169,-0.33964083,-0.36636615
940,1778604601.8634682,-1.54405340,-2.94261070,0.44094035,-0.13820815,-1.85214200,0.40332347
941,1778604601.8730562,-2.00700740,-3.11774280,-1.51575920,1.24601140,-1.50761430,1.31351200
942,1778604601.8830822,-1.30013680,-2.59527330,-0.48399165,-0.23716825,1.18263420,0.92622370
943,1778604601.893103,-1.20257010,-2.00401950,0.05116152,-0.70386890,-0.31398448,0.23716825
944,1778604601.9031155,-1.49478230,-1.63375390,-0.03420931,-0.61346096,-1.22661650,-0.09147700
945,1778604601.9130857,-1.53185760,-1.62107030,-0.00981765,-0.55603970,-1.13620850,0.27382013
946,1778604601.9231026,-1.27867220,-1.74546780,0.18385220,-0.39232790,-0.94561870,0.98364500
947,1778604601.9331605,-1.11719940,-1.82108200,0.21117085,-0.11377356,-1.17408220,1.16201760
948,1778604601.9431977,-1.01573000,-1.90937970,0.11262852,0.30894485,-1.38421960,1.19744770
949,1778604601.9532876,-1.01573000,-1.90937970,0.11262852,0.30894485,-1.38421960,1.19744770
950,1778604601.9634416,-0.56936250,-1.83376550,0.11653119,0.74388057,-0.91385370,1.36360290
951,1778604601.9730704,-0.40593830,-1.67034140,0.18677919,0.96379190,-0.60109097,1.22676920
952,1778604601.9830923,-0.26007617,-1.43227860,0.22970851,1.05419990,-0.74647677,1.08382680
953,1778604601.9935906,-0.19177948,-1.27324500,0.21946402,1.14827310,-0.94317520,0.98853195
954,1778604602.0030694,-0.19177948,-1.27324500,0.21946402,1.14827310,-0.94317520,0.98853195
955,1778604602.0131462,-0.05323482,-1.01664470,0.13019052,1.37551470,-1.30114200,0.79427695
956,1778604602.0231898,-0.05323482,-1.01664470,0.13019052,1.37551470,-1.30114200,0.79427695
957,1778604602.033277,0.06677218,-0.72540814,-0.31276214,1.44026650,-0.85765415,0.41676250
958,1778604602.0429447,0.08774903,-0.49807784,-0.54692215,1.40239290,-0.16615522,0.26648977
959,1778604602.0532207,0.08774903,-0.49807784,-0.54692215,1.40239290,-0.16615522,0.26648977
960,1778604602.0630462,0.04677102,-0.26294217,-0.61424315,1.02243500,0.58398670,-0.04505128
961,1778604602.0730286,-0.02152565,-0.13122717,-0.49765100,0.66691160,0.47891800,-0.32360563
962,1778604602.0834088,-0.10543298,-0.02390383,-0.40496266,0.32849252,0.21135922,-0.49831295
963,1778604602.0931666,-0.17080265,0.02048900,-0.34544697,0.01084285,-0.03665189,-0.56795150
964,1778604602.1030788,-0.17080265,0.02048900,-0.34544697,0.01084285,-0.03665189,-0.56795150
965,1778604602.1132727,-0.18153499,0.08488300,-0.19909698,-0.25305074,0.05864302,-0.51541716
966,1778604602.1235323,-0.21178065,0.13854466,-0.12153149,-0.21151192,0.49357873,-0.34804020
967,1778604602.1330528,-0.15714332,0.10000584,-0.05664965,-0.11377356,0.69516414,-0.17333288
968,1778604602.1432166,-0.07908998,-0.00487833,0.03018469,0.00473420,0.61208653,-0.01695150
969,1778604602.1532173,-0.04884431,-0.03170917,0.08384635,0.05604684,0.49846566,0.05146536
970,1778604602.1631868,0.00676869,-0.07122366,0.12775135,0.10247257,0.30787584,0.12843432
971,1778604602.1730037,0.08970036,-0.05512517,0.14677685,0.09269873,0.02932151,0.18585561
972,1778604602.1830003,0.17799819,-0.04439283,0.15311868,0.03161225,-0.27244568,0.14309508
973,1778604602.1929746,0.22824502,-0.04195367,0.12482436,-0.01603520,-0.53267410,0.02458731
974,1778604602.203004,0.22824502,-0.04195367,0.12482436,-0.01603520,-0.53267410,0.02458731
975,1778604602.2129292,0.26385686,0.00585400,0.06384519,-0.11743876,-0.89674950,-0.36270097
976,1778604602.2229476,0.26288120,0.01707417,0.02042802,-0.18829907,-1.03602670,-0.59360784
977,1778604602.233018,0.22336671,0.02244033,-0.20836583,-0.29703300,-1.00914860,-0.80252360
978,1778604602.2430522,0.26092985,-0.07610200,-0.82108450,-0.55359620,-0.04764745,-0.90392715
979,1778604602.2530177,0.22434235,-0.32489700,-0.80498600,-0.79916380,1.30602880,-0.98822650
980,1778604602.2633355,0.22434235,-0.32489700,-0.80498600,-0.79916380,1.30602880,-0.98822650
981,1778604602.273309,-0.04542948,-0.91078490,-0.40886533,-0.60124370,1.91567200,-1.16659900
982,1778604602.283236,-0.26690580,-1.37373880,-0.41862200,-0.06856957,0.90285814,-1.14094270
983,1778604602.2932568,-0.26690580,-1.37373880,-0.41862200,-0.06856957,0.90285814,-1.14094270
984,1778604602.303201,-0.52057916,-1.33959040,-0.32690930,-0.38621926,0.12950334,-0.96623534
985,1778604602.3134143,-0.67473453,-1.64790120,-0.24300198,-1.04961840,0.25167630,-0.76220655
986,1778604602.3229327,-1.17525150,-2.38160230,0.00189035,-1.77043880,0.83199780,-0.20998476
987,1778604602.3330917,-1.17525150,-2.38160230,0.00189035,-1.77043880,0.83199780,-0.20998476
988,1778604602.3430185,-2.27238870,-3.32214500,0.48435750,-0.33124143,-0.73059430,1.13025260
989,1778604602.3533516,-2.24458220,-3.56020780,0.08384635,0.05360339,-0.68050337,1.92804190
990,1778604602.363209,-2.06554720,-3.58947750,0.02042802,0.36392270,-0.31764970,1.91338120
991,1778604602.3731933,-1.34550540,-2.97822260,-0.08738314,0.67424200,-0.22479823,0.79549867
992,1778604602.3831885,-1.34550540,-2.97822260,-0.08738314,0.67424200,-0.22479823,0.79549867
993,1778604602.393348,-1.01914490,-1.47862290,-0.30837163,0.35170540,-0.21624613,0.56214833
994,1778604602.4031482,-1.01914490,-1.47862290,-0.30837163,0.35170540,-0.21624613,0.56214833
995,1778604602.4131527,-0.76937413,-1.53960200,-0.38544932,0.29184064,-0.09407318,0.83825920
996,1778604602.422975,-0.83376810,-1.49911190,-0.35422800,0.14034618,0.05253437,0.44608400
997,1778604602.43333,-0.90596753,-1.27958690,-0.31959182,0.08536835,0.20525056,0.35689774
998,1778604602.4430518,-0.90011346,-1.07616030,-0.30495682,0.09880738,0.37262753,0.38988444
999,1778604602.453078,-0.90011346,-1.07616030,-0.30495682,0.09880738,0.37262753,0.38988444
1000,1778604602.4631708,-0.84889100,-0.93810350,-0.28495565,0.11346813,0.45326167,0.46563166
