id,timestamp,acc_x,acc_y,acc_z,gyro_x,gyro_y,gyro_z
1,1778602407.0833676,1.15805540,0.60101070,0.70046770,1.26952970,0.24205516,0.58643020
2,1778602407.0936375,1.17805650,0.59905934,0.70095557,1.37826370,0.20295982,0.52534370
3,1778602407.1036627,1.19708200,0.58735140,0.69558936,1.44423710,0.20173809,0.48013970
4,1778602407.1138117,1.21366830,0.57222855,0.70485820,1.51021040,0.24449863,0.44348782
5,1778602407.1238213,1.23415730,0.55710570,0.73071337,1.58351420,0.32146758,0.40805766
6,1778602407.1335607,1.24342620,0.54247070,0.75656850,1.70324370,0.42042768,0.35063640
7,1778602407.1435788,1.23757220,0.52100600,0.76583740,1.86084690,0.53160506,0.27611090
8,1778602407.1536682,1.20976570,0.50637100,0.75022670,1.96469390,0.59269154,0.22601996
9,1778602407.16364,1.16000680,0.47173482,0.70290690,2.12962720,0.66843880,0.13316852
10,1778602407.1737225,1.16000680,0.47173482,0.70290690,2.12962720,0.66843880,0.13316852
11,1778602407.1837318,0.99804610,0.39368150,0.57948500,2.35320380,0.71486450,-0.00733038
12,1778602407.1938546,0.93365210,0.36587500,0.53899485,2.41062520,0.73807734,-0.02932151
13,1778602407.2038908,0.93365210,0.36587500,0.53899485,2.41062520,0.73807734,-0.02932151
14,1778602407.2134209,0.85267170,0.31026200,0.48582100,2.50714180,0.78083790,-0.04764745
15,1778602407.2237616,0.80388840,0.29074870,0.44777006,2.57555870,0.81504630,-0.09285145
16,1778602407.2337875,0.74729970,0.29123650,0.42045137,2.62320610,0.84070265,-0.13316852
17,1778602407.2438815,0.69997984,0.29318783,0.41606086,2.66718840,0.84803300,-0.15393792
18,1778602407.2535932,0.67997870,0.29416350,0.42240270,2.70750550,0.82359844,-0.16859868
19,1778602407.2635694,0.67851520,0.28343117,0.44825786,2.78813960,0.74540776,-0.20525056
20,1778602407.2734666,0.69168670,0.24879500,0.47021037,2.90909080,0.62567824,-0.26022840
21,1778602407.2834272,0.68534490,0.22781818,0.47069818,3.01293780,0.52427470,-0.30298892
22,1778602407.2934499,0.67656386,0.22245201,0.45313620,3.11189800,0.42042768,-0.33475390
23,1778602407.303537,0.67656386,0.23562351,0.42142700,3.14977150,0.37888888,-0.34574947
24,1778602407.3135884,0.69802850,0.23611133,0.39947453,3.14854980,0.37400195,-0.35185810
25,1778602407.3236976,0.69802850,0.23611133,0.39947453,3.14854980,0.37400195,-0.35185810
26,1778602407.3337486,0.72729856,0.23025733,0.40484068,3.08746340,0.38744098,-0.37140578
27,1778602407.3437757,0.72729856,0.23025733,0.40484068,3.08746340,0.38744098,-0.37140578
28,1778602407.3536777,0.79998570,0.23513566,0.50972486,2.91764280,0.30680683,-0.37873617
29,1778602407.363555,0.82535310,0.23220867,0.53753140,2.89687350,0.24327690,-0.37140578
30,1778602407.3736997,0.83706100,0.25562465,0.57802150,2.86633010,0.08689552,-0.34574947
31,1778602407.3837206,0.85803780,0.27952853,0.59119300,2.83212180,-0.07070760,-0.30421066
32,1778602407.393727,0.88828355,0.29026082,0.57119190,2.77470060,-0.16600250,-0.27122396
33,1778602407.4038026,0.88828355,0.29026082,0.57119190,2.77470060,-0.16600250,-0.27122396
34,1778602407.41343,0.95072630,0.29513916,0.51460320,2.49858980,-0.18066326,-0.22601996
35,1778602407.4234543,0.96877605,0.28391900,0.48728454,2.20293120,-0.08903354,-0.18692462
36,1778602407.4338522,0.95901930,0.26879618,0.48874804,1.99890230,0.01481347,-0.14049890
37,1778602407.443546,0.94438434,0.23708700,0.48972370,1.76066500,0.17363831,-0.07330377
38,1778602407.4535642,0.93706685,0.21074401,0.48533320,1.76066500,0.17363831,-0.07330377
39,1778602407.4640448,0.91121167,0.15708233,0.45703888,1.39658960,0.42897978,0.06108648
40,1778602407.4736524,0.85657440,0.11756783,0.41508517,1.25609080,0.52793986,0.12461641
41,1778602407.4834363,0.85657440,0.11756783,0.41508517,1.25609080,0.52793986,0.12461641
42,1778602407.4940743,0.70339470,0.08293167,0.35264254,0.93111060,0.71975140,0.29565856
43,1778602407.5036507,0.64192766,0.08000467,0.33508053,0.81748980,0.76739890,0.34452772
44,1778602407.5136833,0.58826610,0.05610084,0.34337372,0.69042990,0.81871150,0.39461866
45,1778602407.523878,0.58826610,0.05610084,0.34337372,0.69042990,0.81871150,0.39461866
46,1778602407.5334249,0.45850238,0.01658633,0.32922652,0.61223924,0.92622370,0.44470957
47,1778602407.5434203,0.38825434,-0.01365933,0.31312802,0.61590440,1.01174470,0.50335260
48,1778602407.5534523,0.34873986,-0.03317267,0.29312685,0.62812173,1.06305740,0.55344350
49,1778602407.563498,0.30532268,-0.06488183,0.26434470,0.65011287,1.14980020,0.66217744
50,1778602407.573594,0.24873403,-0.09951800,0.21848835,0.66599530,1.22799090,0.82466745
51,1778602407.583798,0.22531801,-0.11951917,0.20190202,0.67454743,1.22066060,0.94684040
52,1778602407.5938163,0.22873287,-0.13512984,0.19799936,0.68432130,1.10948310,1.09955660
53,1778602407.6048307,0.22873287,-0.13512984,0.19799936,0.68432130,1.10948310,1.09955660
54,1778602407.613451,0.28385803,-0.16879034,0.19409668,0.69898200,0.77106404,1.31335930
55,1778602407.6234963,0.39752320,-0.19171850,0.21507353,0.70997757,0.59757847,1.41231940
56,1778602407.6336071,0.47996700,-0.18879150,0.22385453,0.71852970,0.51205740,1.45874510
57,1778602407.6440768,0.53801920,-0.17464434,0.21507353,0.70753413,0.48517936,1.46485380
58,1778602407.6537094,0.55850820,-0.16098501,0.21556135,0.65866494,0.46440995,1.47951450
59,1778602407.6637197,0.59899837,-0.12147050,0.22824502,0.57192210,0.43875363,1.52594020
60,1778602407.6737645,0.73510385,-0.07756550,0.29166338,0.43020153,0.43753190,1.65544350
61,1778602407.6835794,0.88828355,-0.04634417,0.36727753,0.37155850,0.45707956,1.72508220
62,1778602407.6939733,0.88828355,-0.04634417,0.36727753,0.37155850,0.45707956,1.72508220
63,1778602407.7036898,1.19366730,0.10781116,0.51313970,0.45097092,0.57925254,1.65666530
64,1778602407.7137842,1.29611220,0.23172083,0.46435636,0.53160506,0.68187780,1.45630170
65,1778602407.7237751,1.30684460,0.29270002,0.38825434,0.47662723,0.70142550,1.29747680
66,1778602407.7333863,1.29269740,0.40246250,0.27702835,0.27504188,0.70997757,1.13620850
67,1778602407.743653,1.28342850,0.46295384,0.28093103,0.07956514,0.70264720,1.06290470
68,1778602407.753688,1.29952700,0.51807904,0.38142470,-0.06826414,0.62567824,1.04824400
69,1778602407.7638373,1.34343200,0.56930150,0.52972600,-0.09636392,0.37033677,1.09589140
70,1778602407.7739275,1.49612390,0.61954830,0.73803085,0.08567379,0.02947422,1.12887810
71,1778602407.7837322,1.62491180,0.66101420,0.82681656,0.44608400,-0.32116216,1.08733930
72,1778602407.793536,1.71272180,0.68394230,0.76534950,0.82970710,-0.63514670,0.97005326
73,1778602407.8036473,1.73028390,0.68540585,0.66388017,1.03740110,-0.77564555,0.84054995
74,1778602407.813762,1.71564890,0.68150320,0.50387090,1.11559180,-0.78419770,0.70982486
75,1778602407.8237736,1.64735220,0.69808954,0.30093220,1.00563610,-0.58627750,0.55222180
76,1778602407.8340359,1.55710300,0.70735836,0.18580353,0.77961620,-0.31016660,0.46181378
77,1778602407.843655,1.45075540,0.69613820,0.15897270,0.56947870,-0.10980295,0.41538805
78,1778602407.8536973,1.45075540,0.69613820,0.15897270,0.56947870,-0.10980295,0.41538805
79,1778602407.8637257,1.30391750,0.66540470,0.22385453,0.27748534,0.15042545,0.39950556
80,1778602407.8735917,1.10975980,0.58344870,0.36142352,0.22983788,0.30436337,0.48136145
81,1778602407.8836846,1.04195110,0.55222730,0.43996470,0.34345870,0.31169376,0.59253883
82,1778602407.894066,1.01365670,0.52637213,0.54045830,0.51572260,0.24816382,0.68539030
83,1778602407.903925,1.01365670,0.52637213,0.54045830,0.51572260,0.24816382,0.68539030
84,1778602407.9135594,1.03024300,0.50929800,0.62485350,1.05694880,0.02703077,0.73181600
85,1778602407.92377,1.02536480,0.50588316,0.58680254,1.50654530,-0.09147700,0.63407767
86,1778602407.9335012,0.96682465,0.50637100,0.49069935,1.79609510,-0.14401138,0.50457430
87,1778602407.9436355,0.87511206,0.50783450,0.38874220,1.98790670,-0.12446370,0.38484480
88,1778602407.9537802,0.81266934,0.50685880,0.33556834,2.07709300,-0.07192933,0.32253662
89,1778602407.964039,0.74047005,0.49661437,0.27215004,2.11130140,-0.00106901,0.29077163
90,1778602407.9735594,0.67217330,0.46929568,0.21312219,2.08442330,0.08689552,0.26633704
91,1778602407.9836166,0.59899837,0.45709983,0.19263318,2.01722810,0.18585561,0.24923283
92,1778602407.9937005,0.57655805,0.45222150,0.21604920,1.94881140,0.28603745,0.24068072
93,1778602408.0038764,0.59070520,0.44295270,0.27019870,1.91826810,0.34223700,0.23090689
94,1778602408.0133872,0.61314553,0.43709868,0.30434700,1.94148100,0.37155850,0.19303326
95,1778602408.0233996,0.73217684,0.41709750,0.42728102,2.09541900,0.40698865,0.02443459
96,1778602408.0334084,0.77217925,0.41709750,0.45216054,2.24813500,0.44730574,-0.14660755
97,1778602408.0438578,0.77364266,0.42051232,0.44728217,2.43994670,0.49739665,-0.36529714
98,1778602408.053704,0.74437270,0.44490403,0.41898784,2.55967620,0.51083565,-0.51434815
99,1778602408.0635862,0.70583385,0.48149154,0.34630070,2.66230150,0.54382235,-0.67928165
100,1778602408.0735998,0.71412706,0.48783335,0.29751736,2.66230150,0.58536120,-0.75991577
101,1778602408.0836203,0.73900650,0.48539415,0.26629603,2.58777600,0.61346096,-0.82222400
102,1778602408.0936425,0.84437853,0.46685650,0.30190787,2.40085120,0.67576915,-0.90530163
103,1778602408.1037352,0.90486985,0.45905116,0.37166804,2.33487800,0.72830355,-0.97005326
104,1778602408.1136167,0.95170190,0.46441734,0.47947920,2.31166500,0.78939000,-1.07756540
105,1778602408.12363,1.05561040,0.47075918,0.59948623,2.36664300,0.82604190,-1.24372070
106,1778602408.1338573,1.10097890,0.46880785,0.62387790,2.45216400,0.87246764,-1.39155000
107,1778602408.1438177,1.10683290,0.46978348,0.60973066,2.50347660,0.95065830,-1.51005770
108,1778602408.1534357,1.10683290,0.46978348,0.60973066,2.50347660,0.95065830,-1.51005770
109,1778602408.1634629,1.12195560,0.46344167,0.58533900,2.39718600,1.11681350,-1.48440150
110,1778602408.1736617,1.18586180,0.39026670,0.60729150,2.25546550,1.17179130,-1.35245470
111,1778602408.1836784,1.22293720,0.34831300,0.62729270,2.14550970,1.18156520,-1.25105110
112,1778602408.1936953,1.23610880,0.32148215,0.65266000,2.03555420,1.14369150,-1.14720400
113,1778602408.2040668,1.23610880,0.32148215,0.65266000,2.03555420,1.14369150,-1.14720400
114,1778602408.213558,1.23610880,0.32148215,0.65266000,2.03555420,1.14369150,-1.14720400
115,1778602408.2238488,1.14439600,0.28830950,0.67656386,1.86206850,0.77595097,-0.81978050
116,1778602408.2338734,1.11658950,0.25952733,0.69656503,1.84129920,0.65011287,-0.69149894
117,1778602408.2434475,1.07853850,0.21464668,0.67070990,1.85351650,0.53160506,-0.48380490
118,1778602408.2534063,1.04829290,0.19464551,0.63021970,1.85718170,0.54137890,-0.37262753
119,1778602408.263763,0.99804610,0.16781467,0.56436217,1.83030350,0.61712617,-0.18081598
120,1778602408.2741501,0.90633330,0.14342300,0.47411305,1.75089120,0.70997757,0.01099557
121,1778602408.2837255,0.85364735,0.12878800,0.43215933,1.67392220,0.78328140,0.15393792
122,1778602408.2940164,0.79901004,0.10976250,0.38532734,1.58717940,0.85658514,0.28588470
123,1778602408.3035147,0.72827417,0.09268834,0.33654400,1.52120600,0.89445880,0.36041020
124,1778602408.313536,0.67851520,0.08098034,0.30288354,1.52120600,0.89445880,0.36041020
125,1778602408.3234525,0.59948623,0.05658867,0.24336785,1.41613720,0.94332796,0.42882708
126,1778602408.333499,0.51411533,0.02634300,0.16141187,1.33305970,0.96287560,0.46914417
127,1778602408.3435123,0.46679550,0.00780533,0.11799469,1.22676920,0.96898425,0.51068294
128,1778602408.3536713,0.46679550,0.00780533,0.11799469,1.22676920,0.96898425,0.51068294
129,1778602408.3637347,0.37264370,-0.02829433,0.06140602,1.02029690,0.91400640,0.56810427
130,1778602408.3737543,0.33508053,-0.03366050,0.04823452,0.92866720,0.86269380,0.59986920
131,1778602408.3834593,0.31312802,-0.04780767,0.04091702,0.86391550,0.81015940,0.63041246
132,1778602408.3935242,0.30434700,-0.06244267,0.02433069,0.78572480,0.73319050,0.66584260
133,1778602408.403759,0.30873755,-0.06976017,0.02091586,0.71730800,0.67210400,0.69760760
134,1778602408.4137788,0.33215353,-0.07707766,0.02140369,0.65133460,0.61834790,0.72692907
135,1778602408.4237885,0.38337603,-0.08732217,0.02676985,0.54993100,0.55115277,0.76113750
136,1778602408.4338639,0.43411067,-0.09707884,0.02189152,0.44852746,0.49861836,0.76602440
137,1778602408.4436455,0.45459970,-0.09756667,0.01945235,0.34590217,0.45707956,0.75136370
138,1778602408.4536636,0.45459970,-0.09756667,0.01945235,0.34590217,0.45707956,0.75136370
139,1778602408.4634655,0.45459970,-0.09756667,0.01945235,0.34590217,0.45707956,0.75136370
140,1778602408.4737585,0.57167970,-0.09171267,0.11848252,-0.03894263,0.42531460,0.77457654
141,1778602408.483791,0.57167970,-0.09171267,0.11848252,-0.03894263,0.42531460,0.77457654
142,1778602408.4942143,0.74290920,-0.04585633,0.25849068,-0.14523310,0.51450086,0.82344574
143,1778602408.5033827,0.92194400,0.01122017,0.29751736,-0.16722423,0.56581350,0.79534596
144,1778602408.5137646,1.01755940,0.05805217,0.28532153,-0.18555018,0.63789550,0.72082040
145,1778602408.5237777,1.13366380,0.16976601,0.24385570,-0.25152358,0.84314610,0.46670070
146,1778602408.5334997,1.10049100,0.26489350,0.19995070,-0.38102690,0.88346320,0.27366742
147,1778602408.5438733,1.03951190,0.35806966,0.19458452,-0.57283840,0.75273810,0.26267186
148,1778602408.553867,1.02780380,0.47514970,0.27361350,-0.74021540,0.50472700,0.43249226
149,1778602408.5637853,1.11317470,0.51710330,0.36971670,-0.87827086,0.17241658,0.69516414
150,1778602408.5737987,1.43855950,0.57417990,0.60338890,-0.93202690,-0.33704466,1.00670520
151,1778602408.583616,1.71613680,0.61320650,0.74242140,-0.87094045,-0.52396930,1.05435260
152,1778602408.5936306,1.92980770,0.62686586,0.77461840,-0.73655020,-0.54229520,0.90530163
153,1778602408.6036565,1.99078700,0.63028070,0.71998100,-0.65102910,-0.40179630,0.67928165
154,1778602408.613468,1.96785880,0.64394003,0.65266000,-0.63881180,-0.17455462,0.42882708
155,1778602408.6234853,1.74296760,0.70589480,0.48630884,-0.76098480,0.26893320,0.13194679
156,1778602408.633507,1.53076000,0.71906640,0.42386620,-0.95279634,0.61101750,0.00610865
157,1778602408.643485,1.37514130,0.70833400,0.41313390,-1.13972090,0.83825920,-0.02321286
158,1778602408.6535068,1.37514130,0.70833400,0.41313390,-1.13972090,0.83825920,-0.02321286
159,1778602408.6635776,1.10927200,0.65076970,0.43557420,-1.27411130,0.98242330,0.03176497
160,1778602408.6735346,0.94926270,0.61808485,0.47460085,-1.24723320,0.95188004,0.07941242
161,1778602408.683562,0.83120704,0.61125517,0.50874920,-1.09818220,0.76739890,0.14049890
162,1778602408.6935985,0.72827417,0.61515784,0.52045720,-0.94180080,0.59024810,0.18325943
163,1778602408.703796,0.72827417,0.61515784,0.52045720,-0.94180080,0.59024810,0.18325943
164,1778602408.7138274,0.65705050,0.62540233,0.50533440,-0.63148147,0.29458955,0.27366742
165,1778602408.7239738,0.66290450,0.63906170,0.51704240,-0.31261006,0.02458731,0.32375833
166,1778602408.7335186,0.66144100,0.65808713,0.51362750,-0.11835505,-0.10858121,0.30054548
167,1778602408.7434955,0.62778056,0.68686940,0.47362520,0.10888664,-0.22831070,0.26022840
168,1778602408.7536309,0.62778056,0.68686940,0.47362520,0.10888664,-0.22831070,0.26022840
169,1778602408.763714,0.57558240,0.71906640,0.37020450,0.33735007,-0.25030184,0.22724170
170,1778602408.7737393,0.54972720,0.72784734,0.30971318,0.39232790,-0.13423753,0.19181155
171,1778602408.7837539,0.54972720,0.72784734,0.30971318,0.39232790,-0.13423753,0.19181155
172,1778602408.7937677,0.50777350,0.71223664,0.27507702,0.40210176,0.12110394,0.06841686
173,1778602408.80361,0.50777350,0.71223664,0.27507702,0.40210176,0.12110394,0.06841686
174,1778602408.813618,0.51265186,0.68589365,0.33947104,0.47051860,0.34590217,-0.12339468
175,1778602408.8234835,0.53558004,0.68003964,0.43898900,0.61101750,0.42042768,-0.26755878
176,1778602408.8338852,0.51996934,0.66784390,0.48582100,0.83337230,0.43631017,-0.41538805
177,1778602408.8433788,0.48679670,0.65467240,0.48435750,1.02762720,0.43142325,-0.51312643
178,1778602408.853613,0.45264837,0.63954950,0.45459970,1.24998200,0.46318823,-0.59131710
179,1778602408.8636482,0.44484302,0.63028070,0.44386740,1.39781130,0.51450086,-0.62308210
180,1778602408.87377,0.46728337,0.61125517,0.44337955,1.54075370,0.56947870,-0.63407767
181,1778602408.8834944,0.56972840,0.58491220,0.48045490,1.67636560,0.61956960,-0.65362530
182,1778602408.8939905,0.67900300,0.57222855,0.53899485,1.78998650,0.65622150,-0.70249450
183,1778602408.9036613,0.85803780,0.57125280,0.67802740,1.98790670,0.62567824,-0.83077610
184,1778602408.913829,0.96243420,0.57271636,0.76193470,2.20415280,0.50106186,-0.98837924
185,1778602408.923922,1.04439020,0.57222855,0.82730436,2.50347660,0.12721258,-1.25227280
186,1778602408.933451,1.05756160,0.57661900,0.76193470,2.59877160,-0.12202024,-1.35978500
187,1778602408.9434144,1.08292900,0.55710570,0.65070870,2.55478930,-0.21853687,-1.35611980
188,1778602408.9534075,1.08292900,0.55710570,0.65070870,2.55478930,-0.21853687,-1.35611980
189,1778602408.96342,1.14634740,0.47319835,0.59070520,2.15650530,0.07101303,-1.00670520
190,1778602408.9734533,1.24196270,0.40538952,0.66046536,1.82541670,0.42409286,-0.66950780
191,1778602408.9834876,1.31562550,0.38538834,0.74290920,1.63482690,0.60124370,-0.45692685
192,1778602408.993538,1.34294410,0.38246134,0.81315720,1.54319720,0.61101750,-0.34941465
193,1778602409.0035803,1.34148070,0.36636284,0.85706220,1.51998420,0.51816607,-0.27122396
194,1778602409.013846,1.32440650,0.32587266,0.86437976,1.53831030,0.44241880,-0.23579380
195,1778602409.0238738,1.29416080,0.23318435,0.85120827,1.58717940,0.27504188,-0.16371176
196,1778602409.033884,1.26684220,0.17074168,0.80681540,1.64337900,0.22250749,-0.11362085
197,1778602409.0435374,1.18878890,0.12293400,0.71802974,1.69102640,0.28725916,-0.05864302
198,1778602409.0535688,1.18878890,0.12293400,0.71802974,1.69102640,0.28725916,-0.05864302
199,1778602409.0636334,0.97609350,0.11708001,0.51265186,1.62016610,0.38377580,0.12095123
200,1778602409.0736682,0.86535540,0.13366634,0.42484185,1.49310620,0.39843655,0.26511532
201,1778602409.0837033,0.77998453,0.14635001,0.35556954,1.34161170,0.39477137,0.38606653
202,1778602409.0934849,0.71461487,0.14439867,0.30239570,1.18156520,0.39477137,0.46547896
203,1778602409.1038415,0.71461487,0.14439867,0.30239570,1.18156520,0.39477137,0.46547896
204,1778602409.1138794,0.58875390,0.14195950,0.22580586,0.92255855,0.43875363,0.51801336
205,1778602409.1235218,0.49655336,0.12000700,0.19409668,0.74052083,0.50961393,0.56566080
206,1778602409.1337385,0.44142820,0.08244383,0.19214535,0.60979575,0.55726140,0.62063860
207,1778602409.1439688,0.41215820,0.05366167,0.20190202,0.52793986,0.60490880,0.68661200
208,1778602409.1534202,0.41215820,0.05366167,0.20190202,0.52793986,0.60490880,0.68661200
209,1778602409.1636026,0.36776537,0.01414717,0.21946402,0.51816607,0.65499973,0.75869405
210,1778602409.1735592,0.32337250,0.00097567,0.20873170,0.58291770,0.65255630,0.80267630
211,1778602409.1838348,0.30483487,-0.02341600,0.20434119,0.66355187,0.58047426,0.85032380
212,1778602409.193391,0.30873755,-0.04292934,0.20287769,0.74296427,0.46685340,0.88697565
213,1778602409.2035737,0.30922535,-0.06683317,0.18434003,0.85536340,0.28725916,0.91751890
214,1778602409.2138686,0.31556720,-0.07854117,0.15653352,0.93599755,0.13454297,0.93584484
215,1778602409.2234066,0.32873870,-0.07073583,0.11262852,0.99341890,-0.10247257,0.95050560
216,1778602409.2334616,0.32873870,-0.07073583,0.11262852,0.99341890,-0.10247257,0.95050560
217,1778602409.2437773,0.36483836,-0.05951567,0.01896452,0.90423256,-0.43356127,0.99693130
218,1778602409.2537923,0.41410953,-0.06634533,-0.00250015,0.75273810,-0.50442160,1.02258770
219,1778602409.2638717,0.46484417,-0.06732100,-0.01225681,0.60368710,-0.46776970,1.02869630
220,1778602409.2734895,0.51996934,-0.06195483,0.02189152,0.43142325,-0.30650140,1.03969180
221,1778602409.2836177,0.56728923,-0.04927117,0.10238402,0.33124143,-0.12812889,1.07634380
222,1778602409.2940028,0.64143986,-0.02341600,0.18580353,0.34223700,-0.02794706,1.13254330
223,1778602409.3037274,0.71900535,0.00487833,0.22873287,0.42531460,-0.01328631,1.16919520
224,1778602409.3137598,0.83754885,0.06293050,0.20336552,0.56581350,-0.03405571,1.17896900
225,1778602409.3236856,0.97999614,0.16049717,0.12384869,0.57925254,-0.05604684,1.16553000
226,1778602409.333572,0.97999614,0.16049717,0.12384869,0.57925254,-0.05604684,1.16553000
227,1778602409.34356,1.10829640,0.43026900,0.00384169,0.23961172,-0.28695372,1.13254330
228,1778602409.3534486,1.10829640,0.43026900,0.00384169,0.23961172,-0.28695372,1.13254330
229,1778602409.3637254,1.16244590,0.52246950,0.02042802,-0.09269873,-0.47510007,1.15697790
230,1778602409.3737946,1.40733810,0.58198520,0.31117670,-0.58872090,-0.70845044,1.31824620
231,1778602409.3838885,1.55124900,0.62198750,0.51606670,-0.64980740,-0.73166330,1.50028400
232,1778602409.393372,1.69857480,0.65320885,0.68095434,-0.55206907,-0.62415110,1.62367860
233,1778602409.403761,1.69857480,0.65320885,0.68095434,-0.55206907,-0.62415110,1.62367860
234,1778602409.4137857,1.91907540,0.71662720,0.84047586,-0.01572977,-0.27962336,1.50150560
235,1778602409.4239116,1.88687850,0.76004434,0.71510270,0.27015495,-0.05115993,1.22172950
236,1778602409.4334915,1.68735440,0.77906984,0.55802040,0.41798422,0.21395539,0.97616190
237,1778602409.4435494,1.45563360,0.76492270,0.43264723,0.44119710,0.44119710,0.86009760
238,1778602409.4538352,1.45563360,0.76492270,0.43264723,0.44119710,0.44119710,0.86009760
239,1778602409.4638698,1.28635550,0.73126215,0.36874104,0.42164943,0.57803080,0.84299340
240,1778602409.473471,0.97609350,0.67857620,0.35996002,0.39965830,0.50717050,0.91263200
241,1778602409.4837155,0.82096255,0.68443020,0.39410836,0.46807513,0.23716825,0.98471403
242,1778602409.4938722,0.76144690,0.68638150,0.44045252,0.57314390,-0.02428187,1.09833490
243,1778602409.5033953,0.76144690,0.68638150,0.44045252,0.57314390,-0.02428187,1.09833490
244,1778602409.513438,0.79266820,0.67760050,0.52728680,0.94332796,-0.60216000,1.39521520
245,1778602409.5236027,0.91365090,0.68003964,0.60143757,1.25975580,-0.79641500,1.42087150
246,1778602409.5334487,0.95755583,0.68491805,0.64290340,1.65437450,-0.88437950,1.29992020
247,1778602409.5435889,0.96926390,0.67613703,0.60046184,1.97691120,-0.86605350,1.11788250
248,1778602409.5536165,0.92389536,0.66930735,0.47069818,2.28234360,-0.71211565,0.85276720
249,1778602409.5638862,0.92389536,0.66930735,0.47069818,2.28234360,-0.71211565,0.85276720
250,1778602409.573562,0.92389536,0.66930735,0.47069818,2.28234360,-0.71211565,0.85276720
251,1778602409.5835354,0.68485700,0.67613703,0.21458568,2.28356530,0.22250749,0.24190246
252,1778602409.5935473,0.68485700,0.67613703,0.21458568,2.28356530,0.22250749,0.24190246
253,1778602409.6037092,0.65900180,0.66784390,0.24434352,2.20170930,0.48273590,0.12339468
254,1778602409.613743,0.69802850,0.65320885,0.44337955,2.21392680,0.77595097,-0.13561198
255,1778602409.6238167,0.72339590,0.66198987,0.53850704,2.39229920,0.80649424,-0.28954992
256,1778602409.6337936,0.76388603,0.67662483,0.60192540,2.63664500,0.76984230,-0.42149670
257,1778602409.6437955,0.84193933,0.68979630,0.63168323,2.87488250,0.69042990,-0.52656543
258,1778602409.6538565,0.96926390,0.70784616,0.65412354,3.04714630,0.64156073,-0.63529940
259,1778602409.6633747,1.04292670,0.71321240,0.66827070,3.20474930,0.63789550,-0.77824175
260,1778602409.6737034,1.10195460,0.68199100,0.67900300,3.37090470,0.64156073,-1.01403560
261,1778602409.683722,1.14390810,0.65174530,0.69949204,3.45520400,0.60613060,-1.17286040
262,1778602409.6934638,1.20391170,0.60735250,0.75998336,3.51873370,0.56337005,-1.27915080
263,1778602409.7035294,1.31123510,0.56930150,0.80096140,3.61158540,0.46440995,-1.39277170
264,1778602409.7138004,1.39270320,0.54442203,0.79120470,3.65312400,0.40576693,-1.47340580
265,1778602409.7235615,1.54880990,0.46295384,0.69461370,3.58837250,0.40576693,-1.58336150
266,1778602409.7335782,1.60832560,0.38782752,0.63314670,3.38312200,0.49617493,-1.70186920
267,1778602409.7437022,1.62491180,0.31709167,0.61948735,3.16321060,0.57803080,-1.77761650
268,1778602409.7535644,1.59808100,0.24391668,0.66192890,2.90664740,0.64522594,-1.83870300
269,1778602409.7636347,1.53368700,0.18001050,0.69802850,2.75026580,0.67576915,-1.87168970
270,1778602409.7737358,1.42636370,0.11317733,0.71461487,2.59266280,0.70631240,-1.89368080
271,1778602409.7834327,1.29367300,0.05414950,0.71266353,2.46560290,0.74785120,-1.85336380
272,1778602409.7934172,1.17220260,0.00292700,0.70485820,2.38008200,0.82237670,-1.70675620
273,1778602409.8037393,1.17220260,0.00292700,0.70485820,2.38008200,0.82237670,-1.70675620
274,1778602409.8136995,1.01999860,-0.06976017,0.68534490,2.29944780,0.90789780,-1.29136810
275,1778602409.8237953,1.01999860,-0.06976017,0.68534490,2.29944780,0.90789780,-1.29136810
276,1778602409.8337545,0.90486985,-0.09805451,0.62778056,2.24569150,0.82970710,-0.67195123
277,1778602409.8437939,0.86389184,-0.11415300,0.57802150,2.22125700,0.77106404,-0.51434815
278,1778602409.8538132,0.86389184,-0.11415300,0.57802150,2.22125700,0.77106404,-0.51434815
279,1778602409.8638382,0.78096020,-0.15415533,0.46679550,2.11374470,0.78450310,-0.31031930
280,1778602409.8738892,0.69315020,-0.17171735,0.38044903,1.97813280,0.92500200,-0.23090689
281,1778602409.8838925,0.61656040,-0.18001050,0.33215353,1.84252080,1.11681350,-0.18570289
282,1778602409.8941736,0.61656040,-0.18001050,0.33215353,1.84252080,1.11681350,-0.18570289
283,1778602409.9038377,0.61656040,-0.18001050,0.33215353,1.84252080,1.11681350,-0.18570289
284,1778602409.9137425,0.39313272,-0.20342650,0.23507468,1.58717940,1.43690670,-0.07941242
285,1778602409.9238331,0.20726820,-0.21269535,0.17458336,1.36971150,1.56396650,0.14538582
286,1778602409.9335818,0.15263085,-0.21415883,0.15750920,1.26097760,1.47844550,0.30665413
287,1778602409.9434972,0.14092286,-0.22293983,0.15360652,1.17179130,1.32817280,0.46303550
288,1778602409.953597,0.16385102,-0.24489233,0.14336202,1.11925700,1.19622600,0.56077385
289,1778602409.9637089,0.16385102,-0.24489233,0.14336202,1.11925700,1.19622600,0.56077385
290,1778602409.9737868,0.18141302,-0.23855051,0.09311519,0.94943660,0.95188004,0.80389804
291,1778602409.9838953,0.19116970,-0.22001283,0.08189502,0.84681130,0.90178910,0.94684040
292,1778602409.9934697,0.19116970,-0.22001283,0.08189502,0.84681130,0.90178910,0.94684040
293,1778602410.0035558,0.23605035,-0.18147400,0.07652886,0.56947870,0.91889334,1.28648130
294,1778602410.013678,0.25995418,-0.15659450,0.08579769,0.44119710,0.95798870,1.42087150
295,1778602410.023731,0.37020450,-0.11073817,0.15214302,0.29581127,0.97753640,1.57603110
296,1778602410.0334918,0.51460320,-0.07707766,0.20482900,0.19685118,1.01785340,1.67987810
297,1778602410.0438387,0.61656040,-0.04488067,0.24092870,0.17363831,1.07527470,1.68109990
298,1778602410.0538538,0.61656040,-0.04488067,0.24092870,0.17363831,1.07527470,1.68109990
299,1778602410.0634897,0.82291390,0.03366050,0.30678620,0.16142102,1.20355630,1.59924400
300,1778602410.0733948,0.90974820,0.12976366,0.31800637,0.16264275,1.25731240,1.54548790
301,1778602410.0835152,0.93706685,0.22391550,0.29800520,0.13209951,1.31473370,1.53693580
302,1778602410.0935345,1.04634150,0.33367800,0.28776067,0.06612612,1.35749420,1.55281830
303,1778602410.1036167,1.20342390,0.43953782,0.26775953,-0.07070760,1.40025480,1.53204880
304,1778602410.1136463,1.29855130,0.50685880,0.23409903,-0.22586726,1.44057190,1.45019290
305,1778602410.123662,1.34343200,0.56832590,0.21848835,-0.53496486,1.50288010,1.31946790
306,1778602410.1336963,1.36440890,0.61271864,0.27556485,-0.73044160,1.53464510,1.29625510
307,1778602410.143565,1.39172760,0.66589254,0.39752320,-0.87704910,1.54319720,1.37200220
308,1778602410.1538093,1.44977970,0.71857850,0.50728570,-0.87704910,1.54319720,1.37200220
309,1778602410.1638367,1.44977970,0.71857850,0.50728570,-0.89293160,1.50043670,1.49661870
310,1778602410.173871,1.64393730,0.79711970,0.73559170,-0.59727305,1.26342100,1.65788700
311,1778602410.183404,1.64393730,0.79711970,0.73559170,-0.59727305,1.26342100,1.65788700
312,1778602410.193543,1.72394220,0.79224133,0.76193470,0.04780017,0.82115495,1.39277170
313,1778602410.2035913,1.66247510,0.77565503,0.68290570,0.28481570,0.69165164,1.24127720
314,1778602410.2134771,1.54978550,0.76102000,0.58338770,0.46563166,0.63911730,1.11788250
315,1778602410.223491,1.38245870,0.75126330,0.47460085,0.60979575,0.64278245,1.03480490
316,1778602410.2338753,1.23806000,0.73223790,0.41215820,0.65133460,0.66110843,1.03602670
317,1778602410.2435746,1.12927320,0.70687050,0.38630300,0.70142550,0.66477360,1.06534810
318,1778602410.2534938,1.06536700,0.69760170,0.38825434,0.75518160,0.64156073,1.08611760
319,1778602410.2636843,0.99999740,0.69516250,0.39459620,0.75518160,0.64156073,1.08611760
320,1778602410.2738535,0.97706926,0.69223550,0.39166918,0.92378026,0.48151416,1.08611760
321,1778602410.2837136,0.97219090,0.68101540,0.37361938,1.04717490,0.38011062,0.98104880
322,1778602410.2937717,0.95121410,0.68003964,0.36093570,1.14491330,0.34468046,0.82222400
323,1778602410.303748,0.95121410,0.68003964,0.36093570,1.22066060,0.32879797,0.68050337
324,1778602410.313786,0.85852570,0.67760050,0.36239920,1.29762950,0.32268932,0.53878270
325,1778602410.3236542,0.85852570,0.67760050,0.36239920,1.29762950,0.32268932,0.53878270
326,1778602410.3338544,0.68388140,0.65516020,0.31459153,1.46011950,0.43997535,0.24801110
327,1778602410.3433983,0.63461020,0.65125750,0.30971318,1.50898870,0.51572260,0.15149446
328,1778602410.353561,0.55997170,0.64150090,0.31800637,1.55052760,0.56581350,0.09773836
329,1778602410.3636923,0.52631120,0.63223200,0.33654400,1.60306190,0.59880020,0.05619956
330,1778602410.3737242,0.51753020,0.61710920,0.37069237,1.71301760,0.61223924,0.00855211
331,1778602410.3834445,0.51753020,0.61710920,0.37069237,1.71301760,0.61223924,0.00855211
332,1778602410.3935266,0.61997520,0.54881250,0.44094035,1.95492000,0.53038335,-0.10384701
333,1778602410.4034524,0.67461250,0.54100716,0.47264950,2.08931020,0.45463613,-0.19547673
334,1778602410.413573,0.67461250,0.54100716,0.47264950,2.08931020,0.45463613,-0.19547673
335,1778602410.4237108,0.77949670,0.50344400,0.52094500,2.46804640,0.35078910,-0.45203993
336,1778602410.4336553,0.86194050,0.46100250,0.54680020,2.59388450,0.33490660,-0.53756100
337,1778602410.4436474,0.97999614,0.41514617,0.58143634,2.71605750,0.33857182,-0.63285590
338,1778602410.4534101,1.03999970,0.38977882,0.60485240,2.80402200,0.35445428,-0.73425950
339,1778602410.4636333,1.11268690,0.37563166,0.60973066,2.82601300,0.37278023,-0.79168075
340,1778602410.4737635,1.19366730,0.34684950,0.59314436,2.78691800,0.41309732,-0.87964530
341,1778602410.4835377,1.19366730,0.34684950,0.59314436,2.78691800,0.41309732,-0.87964530
342,1778602410.4939194,1.31221070,0.26684484,0.57509450,2.53157640,0.49006626,-0.88697565
343,1778602410.5039623,1.37709250,0.23611133,0.63509804,2.33365600,0.47540550,-0.80634150
344,1778602410.513805,1.41563140,0.23806266,0.67558820,2.18460510,0.35811950,-0.73059430
345,1778602410.5236955,1.49661170,0.24391668,0.72242020,2.05021500,0.17363831,-0.68172510
346,1778602410.5333722,1.58100690,0.23123300,0.76632524,1.86695550,-0.12202024,-0.72326390
347,1778602410.5437598,1.59076360,0.18440100,0.75705640,1.73623040,-0.24297146,-0.82344574
348,1778602410.5535266,1.54588280,0.13025150,0.72583500,1.64093550,-0.18799363,-0.90530163
349,1778602410.56379,1.45856070,0.07756550,0.67168550,1.54441890,-0.01817323,-0.95417076
350,1778602410.5738714,1.33367540,0.04000233,0.60241320,1.40269830,0.30191990,-0.94073176
351,1778602410.5834217,1.33367540,0.04000233,0.60241320,1.40269830,0.30191990,-0.94073176
352,1778602410.5936747,0.97365440,-0.01561067,0.44679436,1.03251420,0.93966275,-0.62552553
353,1778602410.6038575,0.97365440,-0.01561067,0.44679436,1.03251420,0.93966275,-0.62552553
354,1778602410.6135583,0.82340170,-0.02975783,0.39654753,0.83337230,1.14857850,-0.36163196
355,1778602410.6237764,0.69754070,-0.03414834,0.36191136,0.72708180,1.17545650,-0.20280711
356,1778602410.6338036,0.60777940,-0.02829433,0.34142238,0.66477360,1.13513950,-0.07696896
357,1778602410.6434402,0.55314200,-0.02780650,0.33264136,0.64644766,1.04106630,0.02687805
358,1778602410.6537457,0.50582220,-0.03170917,0.31312802,0.65011287,0.91522810,0.12217296
359,1778602410.6637802,0.45752668,-0.02683084,0.27751620,0.64766940,0.81382460,0.20036365
360,1778602410.6734467,0.39557186,-0.02439167,0.22873287,0.63056517,0.70386890,0.30665413
361,1778602410.6835282,0.39557186,-0.02439167,0.22873287,0.63056517,0.70386890,0.30665413
362,1778602410.6935816,0.39557186,-0.02439167,0.22873287,0.63056517,0.70386890,0.30665413
363,1778602410.703572,0.30629835,-0.03561183,0.17751035,0.59269154,0.50594880,0.49846566
364,1778602410.713723,0.27654052,-0.04878334,0.13994719,0.58902640,0.45585784,0.56566080
365,1778602410.7237465,0.27654052,-0.04878334,0.13994719,0.58902640,0.45585784,0.56566080
366,1778602410.7337892,0.27019870,-0.10390850,0.06921136,0.50717050,0.33612835,0.87231493
367,1778602410.743658,0.32239684,-0.10342067,0.06286953,0.46929687,0.29581127,0.96516633
368,1778602410.7536945,0.37118018,-0.09317617,0.07360186,0.43631017,0.21762058,1.02258770
369,1778602410.7637172,0.42337835,-0.07268717,0.08287069,0.39599308,0.09300416,1.05923950
370,1778602410.7737763,0.49118720,-0.05707650,0.08433419,0.34956738,-0.04627301,1.08489580
371,1778602410.7838967,0.61412120,-0.04780767,0.09555435,0.22495095,-0.23075417,1.07390020
372,1778602410.793408,0.71412706,-0.04536850,0.12043386,0.13820815,-0.26862780,1.02258770
373,1778602410.8034313,0.71412706,-0.04536850,0.12043386,0.13820815,-0.26862780,1.02258770
374,1778602410.8137612,0.80437620,-0.02244033,0.17068069,-0.02183841,-0.17088942,0.84910200
375,1778602410.823721,0.82291390,-0.01707417,0.19165753,-0.10858121,-0.00473420,0.71959870
376,1778602410.833737,0.79754650,-0.00195133,0.19214535,-0.19776747,0.19929464,0.55955213
377,1778602410.8438048,0.79754650,-0.00195133,0.19214535,-0.19776747,0.19929464,0.55955213
378,1778602410.8535,0.78583854,0.02975783,0.19263318,-0.34559676,0.34345870,0.36774060
379,1778602410.863622,0.82291390,0.05171033,0.19458452,-0.42500916,0.34834564,0.31520623
380,1778602410.8734717,0.90877250,0.12634884,0.20970736,-0.55695593,0.37278023,0.26633704
381,1778602410.8835404,0.99219203,0.23952618,0.21556135,-0.73899364,0.33979353,0.23090689
382,1778602410.8935475,1.06926970,0.33562934,0.26824737,-0.93569213,0.24083345,0.23945900
383,1778602410.9035609,1.16439720,0.44490403,0.42874455,-1.17392930,-0.02550360,0.32498005
384,1778602410.9135835,1.16439720,0.44490403,0.42874455,-1.17392930,-0.02550360,0.32498005
385,1778602410.9234483,1.36684810,0.55466646,0.77803320,-1.26067220,-0.60582510,0.65484700
386,1778602410.9338782,1.63418070,0.65369666,0.95267755,-1.06886070,-0.94302250,0.94684040
387,1778602410.9436321,1.86443800,0.69613820,0.99658250,-0.80741054,-1.06030860,1.01037040
388,1778602410.9534686,2.09225600,0.70735836,0.93121284,-0.59482956,-1.01388290,0.85032380
389,1778602410.9636807,2.15469880,0.69321120,0.78535074,-0.44944376,-0.84284070,0.54733485
390,1778602410.9737158,2.15469880,0.69321120,0.78535074,-0.44944376,-0.84284070,0.54733485
391,1778602410.983719,1.79028740,0.71174884,0.35215470,-0.64614224,-0.00839939,-0.16004658
392,1778602410.9935534,1.54100450,0.69808954,0.26288120,-0.96379190,0.44364056,-0.25289800
393,1778602411.0035675,1.38001950,0.65516020,0.25897855,-1.20935950,0.73929910,-0.25289800
394,1778602411.0136132,1.23903570,0.62003620,0.30434700,-1.38895380,0.94454970,-0.23090689
395,1778602411.023629,1.05658600,0.59271750,0.41557303,-1.48669220,1.03007080,-0.18081598
396,1778602411.0337846,0.94975050,0.58003384,0.47313735,-1.41461010,0.94332796,-0.11850777
397,1778602411.0438693,0.94975050,0.58003384,0.47313735,-1.41461010,0.94332796,-0.11850777
398,1778602411.0533786,0.76437390,0.55076385,0.53606784,-1.05053470,0.66843880,0.04031708
399,1778602411.0638433,0.71071220,0.54734900,0.55753250,-0.83062340,0.52916163,0.10629047
400,1778602411.0738358,0.71071220,0.54734900,0.55753250,-0.83062340,0.52916163,0.10629047
401,1778602411.0835142,0.71071220,0.54734900,0.55753250,-0.83062340,0.52916163,0.10629047
402,1778602411.0936987,0.53850704,0.54930030,0.50679785,0.12599087,-0.12935062,0.20525056
403,1778602411.1038773,0.53850704,0.54930030,0.50679785,0.12599087,-0.12935062,0.20525056
404,1778602411.1134448,0.45362400,0.55027600,0.43215933,0.52305300,-0.32971427,0.26755878
405,1778602411.1234317,0.42337835,0.54832470,0.38581520,0.67332570,-0.39324420,0.29932374
406,1778602411.1334853,0.39654753,0.55564220,0.33166570,0.85169820,-0.42745262,0.31031930
407,1778602411.143731,0.39654753,0.55564220,0.33166570,0.85169820,-0.42745262,0.31031930
408,1778602411.1537604,0.40484068,0.56344754,0.29117550,1.01663170,-0.38102690,0.26755878
409,1778602411.1637669,0.41703650,0.56686234,0.28727287,1.07405300,-0.31261006,0.20891576
410,1778602411.1735606,0.42825672,0.56930150,0.29215118,1.13391770,-0.22464553,0.13316852
411,1778602411.1840515,0.42825672,0.56930150,0.29215118,1.13391770,-0.22464553,0.13316852
412,1778602411.193795,0.45362400,0.57466770,0.35654520,1.34772040,-0.03039052,-0.13805544
413,1778602411.2038174,0.44825786,0.57320416,0.37069237,1.45889780,0.06856957,-0.25289800
414,1778602411.213878,0.45069703,0.57271636,0.38093686,1.51631920,0.11743876,-0.30054548
415,1778602411.223843,0.45947802,0.56442320,0.39508402,1.57984900,0.19562945,-0.33719736
416,1778602411.2334542,0.52728680,0.53954360,0.45508754,1.68736120,0.34712392,-0.37018406
417,1778602411.2436502,0.52728680,0.53954360,0.45508754,1.68736120,0.34712392,-0.37018406
418,1778602411.2538662,0.70388250,0.53125054,0.57314324,1.83641220,0.45585784,-0.45081820
419,1778602411.2636442,0.86389184,0.54344630,0.68973535,1.92804190,0.45341438,-0.50090910
420,1778602411.2736592,0.94438434,0.55905706,0.75559290,2.03799770,0.42287114,-0.58398670
421,1778602411.2836854,1.06244000,0.57369200,0.85169610,2.20170930,0.36789330,-0.72448564
422,1778602411.2937865,1.09610060,0.57369200,0.87950253,2.29700420,0.36422813,-0.77946347
423,1778602411.3034253,1.11561390,0.56686234,0.86633104,2.33487800,0.39599308,-0.74769850
424,1778602411.3137045,1.16000680,0.52978700,0.83462190,2.32021710,0.43508843,-0.65729050
425,1778602411.3235273,1.24293840,0.45417285,0.81462070,2.22370050,0.44119710,-0.50335260
426,1778602411.333824,1.32050380,0.39953550,0.81364506,2.08198000,0.34468046,-0.35552330
427,1778602411.3437865,1.37123860,0.38441268,0.80779105,1.93048540,0.20662501,-0.26145010
428,1778602411.35382,1.38782490,0.36977768,0.79705870,1.79976030,0.10888664,-0.23335035
429,1778602411.3638666,1.38782490,0.36977768,0.79705870,1.79976030,0.10888664,-0.23335035
430,1778602411.373747,1.33709030,0.28440684,0.77364266,1.51509740,0.07101303,-0.23701553
431,1778602411.383867,1.24976800,0.19025500,0.72681070,1.26952970,0.26038110,-0.22724170
432,1778602411.393624,1.15317700,0.14586218,0.68680835,1.15835240,0.47540550,-0.20769402
433,1778602411.403639,1.06536700,0.11464083,0.66290450,1.06916610,0.69653857,-0.16493349
434,1778602411.4137306,1.06536700,0.11464083,0.66290450,1.06916610,0.69653857,-0.16493349
435,1778602411.4236712,0.85559875,0.06732100,0.61119420,0.97142774,1.01541000,-0.00855211
436,1778602411.4335063,0.75656850,0.04927117,0.56436217,0.97753640,1.09115720,0.08307761
437,1778602411.4435997,0.65705050,0.03658750,0.50435870,1.01296650,1.08993550,0.16004658
438,1778602411.453486,0.56631350,0.02829433,0.44386740,1.06550090,1.01541000,0.23335035
439,1778602411.463849,0.56631350,0.02829433,0.44386740,1.06550090,1.01541000,0.23335035
440,1778602411.473503,0.50191957,0.02146467,0.38923004,1.14980020,0.76495540,0.36163196
441,1778602411.483407,0.39508402,-0.01024450,0.27263784,1.19744770,0.52549640,0.46303550
442,1778602411.4938042,0.37459502,-0.02634300,0.22873287,1.21577360,0.35934120,0.52290020
443,1778602411.503835,0.36142352,-0.04146583,0.18336436,1.22188220,0.16019928,0.57421290
444,1778602411.5135329,0.36532620,-0.05463734,0.15019170,1.21455190,0.01359174,0.59498227
445,1778602411.523628,0.37020450,-0.06634533,0.11311635,1.17912170,-0.13912445,0.58887360
446,1778602411.5338614,0.37020450,-0.06634533,0.11311635,1.17912170,-0.13912445,0.58887360
447,1778602411.5433743,0.38776654,-0.08927350,0.01213485,0.98242330,-0.27595815,0.51923510
448,1778602411.5535557,0.39020570,-0.09024917,-0.01762298,0.86025035,-0.27229297,0.48136145
449,1778602411.5637562,0.39020570,-0.09024917,-0.01762298,0.86025035,-0.27229297,0.48136145
450,1778602411.5736208,0.40386504,-0.10439634,-0.04542948,0.56581350,-0.20754130,0.40194902
451,1778602411.5836356,0.40923122,-0.10683551,-0.04640514,0.33857182,-0.14889829,0.32986698
452,1778602411.5936782,0.41410953,-0.09707884,-0.02933098,0.15164718,-0.11468986,0.28832817
453,1778602411.6037986,0.43118370,-0.09805451,-0.00591498,-0.04627301,-0.10369430,0.27611090
454,1778602411.613683,0.45996585,-0.09903017,0.01115919,-0.20143266,-0.05482511,0.29077163
455,1778602411.623712,0.50777350,-0.09659100,0.04189269,-0.33826637,0.05390882,0.32131487
456,1778602411.6334522,0.50777350,-0.09659100,0.04189269,-0.33826637,0.05390882,0.32131487
457,1778602411.6435115,0.61265770,-0.03268483,0.17555903,-0.60093820,0.39477137,0.46303550
458,1778602411.6538327,0.69607717,0.04488067,0.24385570,-0.64247704,0.48151416,0.51556987
459,1778602411.6633546,0.69607717,0.04488067,0.24385570,-0.64247704,0.48151416,0.51556987
460,1778602411.6735463,0.97023950,0.20098734,0.28824854,-0.67668545,0.53649200,0.57054770
461,1778602411.683406,1.14439600,0.32831186,0.21507353,-0.85872316,0.34712392,0.52534370
462,1778602411.6936576,1.22781560,0.39465716,0.14482552,-1.20691610,0.16264275,0.47647452
463,1778602411.703607,1.32440650,0.44929450,0.13165402,-1.59664790,0.07101303,0.47525280
464,1778602411.7137873,1.38928840,0.48441850,0.23702602,-2.01936630,0.02825249,0.53145236
465,1778602411.7237725,1.44148660,0.53320190,0.44240385,-2.38955020,0.00992655,0.64507324
466,1778602411.7335558,1.53710190,0.60686470,0.90145504,-2.62656600,0.00992655,0.92484930
467,1778602411.7435877,1.68833030,0.68296670,1.33269980,-2.41642830,-0.02550360,1.04457880
468,1778602411.7536492,1.79175100,0.72979870,1.56734750,-1.81045040,-0.07192933,1.07756540
469,1778602411.763816,1.79175100,0.72979870,1.56734750,-1.81045040,-0.07192933,1.07756540
470,1778602411.7737353,1.80053200,0.73614050,1.56978680,-0.64492047,-0.04871647,0.87720180
471,1778602411.7837524,1.57710420,0.78102120,1.28147720,0.20784675,-0.06459895,0.64262974
472,1778602411.7937837,1.31318630,0.82151130,0.98341100,0.66355187,-0.14034618,0.55466520
473,1778602411.8035321,1.11415030,0.81712085,0.73022550,0.91889334,-0.19288056,0.57421290
474,1778602411.8135033,1.11415030,0.81712085,0.73022550,0.91889334,-0.19288056,0.57421290
475,1778602411.823446,0.87999034,0.77663070,0.42728102,1.05939220,-0.25274530,0.64507324
476,1778602411.8339283,0.81949900,0.75370250,0.34678853,1.04228810,-0.24052800,0.65606880
477,1778602411.843677,0.74876320,0.73760400,0.27019870,0.97264946,-0.18432845,0.64873840
478,1778602411.8535128,0.68778410,0.71809065,0.23214770,0.87368935,-0.07803798,0.64018630
479,1778602411.863858,0.66436803,0.68686940,0.23751387,0.79305520,0.03558287,0.62186030
480,1778602411.8738317,0.63802505,0.64686700,0.28288236,0.73441220,0.21151192,0.54122620
481,1778602411.883379,0.61899954,0.61564570,0.33751968,0.76251197,0.33735007,0.46670070
482,1778602411.8937988,0.57070400,0.59125400,0.37703420,0.86025035,0.45463613,0.36529714
483,1778602411.9037127,0.57070400,0.59125400,0.37703420,0.86025035,0.45463613,0.36529714
484,1778602411.9135118,0.45752668,0.55417866,0.37849770,1.11559180,0.56092656,0.21258095
485,1778602411.9235103,0.45752668,0.55417866,0.37849770,1.11559180,0.56092656,0.21258095
486,1778602411.9335055,0.34825203,0.53612880,0.36971670,1.31962060,0.56459177,0.16737695
487,1778602411.9437573,0.31507936,0.51076150,0.40045020,1.52487120,0.53404856,0.18081598
488,1778602411.9535406,0.33117786,0.49612650,0.43703770,1.66537010,0.49984010,0.18570289
489,1778602411.9635808,0.33117786,0.49612650,0.43703770,1.66537010,0.49984010,0.18570289
490,1778602411.9739225,0.38532734,0.47271052,0.49118720,2.01111960,0.44364056,0.15515965
491,1778602411.9836829,0.44191605,0.44783100,0.52240855,2.26157400,0.42164943,0.14294235
492,1778602411.9935663,0.53655570,0.44344050,0.56436217,2.45216400,0.39110620,0.14172062
493,1778602412.0038054,0.63948850,0.44441620,0.60192540,2.63175820,0.38499752,0.11972950
494,1778602412.013383,0.63948850,0.44441620,0.60192540,2.63175820,0.38499752,0.11972950
495,1778602412.0234926,0.78925335,0.45466065,0.67851520,2.90909080,0.42775807,0.03420843
496,1778602412.0336833,0.91609010,0.46539300,0.77559406,3.04103760,0.40454520,0.00977384
497,1778602412.0436738,0.99804610,0.46002686,0.80779105,3.13388900,0.37400195,-0.00855211
498,1778602412.0538287,1.13073670,0.45514850,0.79998570,3.20719300,0.37644540,-0.03176497
499,1778602412.0637386,1.13073670,0.45514850,0.79998570,3.20719300,0.37644540,-0.03176497
500,1778602412.0737307,1.32440650,0.44295270,0.73754305,3.09601550,0.44364056,-0.08552107
501,1778602412.0837893,1.40733810,0.40636520,0.65900180,2.81013060,0.47784898,-0.12339468
502,1778602412.0939412,1.41709480,0.41953668,0.64241550,2.47293330,0.44364056,-0.13927718
503,1778602412.103559,1.42099750,0.43661085,0.66339236,2.19193550,0.42409286,-0.14172062
504,1778602412.113447,1.42733940,0.42978120,0.70973650,1.94025920,0.42897978,-0.15515965
505,1778602412.123545,1.41709480,0.39124236,0.75364155,1.73378700,0.45830130,-0.19058982
506,1778602412.1335852,1.33806590,0.30538365,0.77022790,1.48699760,0.56214833,-0.24678937
507,1778602412.1434612,1.24781670,0.23367217,0.78144807,1.34772040,0.73807734,-0.24434592
508,1778602412.1535192,1.24781670,0.23367217,0.78144807,1.34772040,0.73807734,-0.24434592
509,1778602412.1635902,1.17073900,0.18049833,0.77315485,1.27686010,0.98120150,-0.19425500
510,1778602412.1735618,1.01121760,0.13366634,0.72534720,1.26219940,1.26219940,-0.07819069
511,1778602412.1835864,0.86437976,0.12830016,0.64826953,1.26342100,1.32572930,0.04031708
512,1778602412.1936152,0.86437976,0.12830016,0.64826953,1.26342100,1.32572930,0.04031708
513,1778602412.2037435,0.72681070,0.09659100,0.55850820,1.30129470,1.11559180,0.17959425
514,1778602412.21338,0.68144220,0.08390734,0.52777470,1.33305970,0.98608845,0.20402883
515,1778602412.2234046,0.63265884,0.06732100,0.48728454,1.36726810,0.85658514,0.21991132
516,1778602412.2338579,0.57363105,0.04000233,0.43703770,1.40880690,0.69898200,0.25045455
517,1778602412.24345,0.57363105,0.04000233,0.43703770,1.40880690,0.69898200,0.25045455
518,1778602412.2538097,0.49167505,-0.01122017,0.34873986,1.43812840,0.54137890,0.30543238
519,1778602412.2635162,0.45752668,-0.03268483,0.29898086,1.43568490,0.51083565,0.33108872
520,1778602412.2734962,0.43850118,-0.05610084,0.26239336,1.41735900,0.49984010,0.35430157
521,1778602412.283659,0.41215820,-0.09220050,0.21604920,1.37337670,0.49861836,0.38240135
522,1778602412.2935913,0.39362052,-0.10537200,0.18921836,1.33428140,0.49984010,0.39461866
523,1778602412.30362,0.37118018,-0.11610434,0.15165520,1.29762950,0.49861836,0.40561423
524,1778602412.3137202,0.37118018,-0.11610434,0.15165520,1.29762950,0.49861836,0.40561423
525,1778602412.3237462,0.35410600,-0.12537317,0.12775135,1.25486900,0.47784898,0.41905323
526,1778602412.3341606,0.35215470,-0.12830016,0.06921136,1.05817060,0.31902415,0.49235702
527,1778602412.3436923,0.37605852,-0.12537317,0.06238169,0.92988890,0.20418155,0.53756100
528,1778602412.353743,0.39362052,-0.10683551,0.05262502,0.82726365,0.13087778,0.58643020
529,1778602412.3633943,0.39362052,-0.10683551,0.05262502,0.82726365,0.13087778,0.58643020
530,1778602412.3738506,0.45655105,-0.07512634,0.10726235,0.60490880,0.00259618,0.75258540
531,1778602412.383366,0.59070520,-0.05024683,0.19214535,0.50228360,-0.04382955,0.89797120
532,1778602412.393734,0.59070520,-0.05024683,0.19214535,0.47296205,-0.03161225,0.97249675
533,1778602412.4036212,0.80486405,0.02927000,0.31800637,0.46196648,-0.04627301,1.03113970
534,1778602412.413678,0.88974696,0.08878566,0.33849534,0.45219266,-0.07070760,1.04335700
535,1778602412.4236453,0.99414340,0.16098501,0.32434818,0.41431904,-0.03283398,0.99326610
536,1778602412.4334772,1.05073200,0.22635466,0.27458918,0.34468046,0.05513055,0.94195350
537,1778602412.443852,1.07073320,0.29074870,0.22336671,0.18585561,0.20906848,0.91018850
538,1778602412.4533675,1.07073320,0.29074870,0.22336671,0.18585561,0.20906848,0.91018850
539,1778602412.4638243,1.17805650,0.39124236,0.25361237,-0.21853687,0.45219266,0.99326610
540,1778602412.473711,1.26001250,0.42929336,0.33556834,-0.40179630,0.46318823,1.02869630
541,1778602412.483731,1.34001720,0.47807667,0.46142936,-0.46776970,0.44119710,1.03602670
542,1778602412.4938166,1.39221540,0.52539650,0.58826610,-0.44944376,0.38377580,1.03236150
543,1778602412.5038617,1.42441240,0.56295970,0.69754070,-0.32360563,0.32391104,1.02625290
544,1778602412.513381,1.42441240,0.56295970,0.69754070,-0.32360563,0.32391104,1.02625290
545,1778602412.5238538,1.44392570,0.63271990,0.82340170,0.07345649,0.33368490,1.00792700
546,1778602412.5338333,1.41660700,0.65369666,0.78583854,0.34223700,0.42409286,1.00059650
547,1778602412.5433776,1.41660700,0.65369666,0.78583854,0.34223700,0.42409286,1.00059650
548,1778602412.5537093,1.29269740,0.68394230,0.64436686,0.65988666,0.56459177,1.03236150
549,1778602412.5635881,1.29269740,0.68394230,0.64436686,0.65988666,0.56459177,1.03236150
550,1778602412.5741727,1.20439950,0.68686940,0.58875390,0.77472925,0.55848310,1.07756540
551,1778602412.5836818,1.13659070,0.66735600,0.55411774,0.85047650,0.49739665,1.06656990
552,1778602412.5938745,1.05121990,0.64784270,0.51070050,0.93111060,0.44730574,1.02136590
553,1778602412.6034148,0.94145733,0.63076854,0.45752668,1.00685790,0.43997535,0.97249675
554,1778602412.6137226,0.86389184,0.61369437,0.41898784,1.04839670,0.45341438,0.94806210
555,1778602412.6235626,0.82340170,0.60296200,0.40142587,1.06794440,0.46685340,0.92851450
556,1778602412.6335483,0.71559054,0.59710800,0.37898555,1.12292220,0.54870930,0.88575390
557,1778602412.6435916,0.71559054,0.59710800,0.37898555,1.12292220,0.54870930,0.88575390
558,1778602412.6538312,0.61948735,0.58003384,0.39849886,1.26219940,0.60857403,0.81489360
559,1778602412.6637318,0.54923934,0.56978930,0.40630420,1.37704190,0.58780460,0.78557210
560,1778602412.6734948,0.51655453,0.55954486,0.41313390,1.51387560,0.54748756,0.76480270
561,1778602412.6835544,0.51655453,0.55954486,0.41313390,1.51387560,0.54748756,0.76480270
562,1778602412.6935735,0.50728570,0.54588550,0.45655105,1.86695550,0.40454520,0.69272065
563,1778602412.7039087,0.51411533,0.54734900,0.45313620,1.98668500,0.35078910,0.64873840
564,1778602412.7136242,0.51411533,0.54734900,0.45313620,1.98668500,0.35078910,0.64873840
565,1778602412.7238367,0.51899370,0.55515440,0.41996354,2.16627930,0.27504188,0.54977830
566,1778602412.7336981,0.50631005,0.56881370,0.35996002,2.35076050,0.23716825,0.34574947
567,1778602412.7434888,0.50631005,0.56881370,0.35996002,2.35076050,0.23716825,0.34574947
568,1778602412.7535567,0.53606784,0.56198400,0.43069590,2.40940330,0.25549420,0.21991132
569,1778602412.7635856,0.53606784,0.56198400,0.43069590,2.40940330,0.25549420,0.21991132
570,1778602412.7742236,0.64387900,0.55856913,0.54240966,2.52913280,0.28970262,0.09407318
571,1778602412.7840657,0.75851980,0.55466646,0.64192766,2.67940570,0.36178467,-0.01832594
572,1778602412.7935722,0.85803780,0.56198400,0.73705520,2.80035690,0.42653632,-0.08185588
573,1778602412.8036919,0.96389776,0.57466770,0.86291620,2.99583360,0.49739665,-0.16371176
574,1778602412.813593,0.96389776,0.57466770,0.86291620,2.99583360,0.49739665,-0.16371176
575,1778602412.8238626,1.06195220,0.59027830,0.94292086,3.39411740,0.55848310,-0.34208430
576,1778602412.8335352,1.09610060,0.59759580,0.88242954,3.59325930,0.61101750,-0.39461866
577,1778602412.8438268,1.09610060,0.59759580,0.88242954,3.59325930,0.61101750,-0.39461866
578,1778602412.853856,1.18195920,0.54588550,0.86925805,3.59325930,0.61101750,-0.39461866
579,1778602412.8636255,1.43172990,0.41075566,0.86925805,3.51506880,0.11377356,-0.19914192
580,1778602412.8734682,1.50295350,0.36977768,0.85998920,3.45764730,0.00748309,-0.21258095
581,1778602412.8837411,1.56003000,0.32879966,0.81803554,3.28049660,-0.19043710,-0.28710645
582,1778602412.8937256,1.53173580,0.31270117,0.76681304,3.06425050,-0.25274530,-0.34941465
583,1778602412.9038506,1.49173340,0.27123535,0.72290800,2.79058310,-0.18432845,-0.37751442
584,1778602412.913667,1.45514580,0.24098967,0.70437040,2.54745900,-0.04627301,-0.37018406
585,1778602412.9238892,1.40782610,0.19025500,0.69510156,2.30922150,0.14920372,-0.34574947
586,1778602412.9340959,1.30879580,0.11171384,0.68680835,2.01356300,0.49373147,-0.30787584
587,1778602412.9433715,1.19171580,0.07268717,0.67022200,1.84252080,0.78816830,-0.28099780
588,1778602412.95359,1.07951410,0.05268600,0.63656150,1.74111740,0.98364500,-0.24923283
589,1778602412.9637468,1.07951410,0.05268600,0.63656150,1.74111740,0.98364500,-0.24923283
590,1778602412.9740193,0.89218620,0.02780650,0.59070520,1.60794880,1.21210850,-0.14660755
591,1778602412.9835296,0.74973890,0.00926883,0.52240855,1.55907960,1.21210850,-0.08307761
592,1778602412.9937057,0.65363574,0.00048783,0.46533203,1.53953200,1.14613510,-0.05864302
593,1778602413.0036879,0.58436340,-0.00878100,0.42728102,1.51754080,1.06427920,-0.03543016
594,1778602413.0138445,0.58436340,-0.00878100,0.42728102,1.51754080,1.06427920,-0.03543016
595,1778602413.0236955,0.49411420,-0.03463617,0.36093570,1.44423710,0.84925480,0.03298670
596,1778602413.0335448,0.42874455,-0.06293050,0.31361586,1.37704190,0.72952527,0.08063415
597,1778602413.0435028,0.38825434,-0.08829784,0.28922418,1.33305970,0.67699087,0.11484258
598,1778602413.05363,0.35459387,-0.10878683,0.26971084,1.30251650,0.66966050,0.13683371
599,1778602413.0635135,0.31410370,-0.12781233,0.24385570,1.26952970,0.68187780,0.16859868
600,1778602413.073624,0.31410370,-0.12781233,0.24385570,1.25486900,0.69531685,0.18936808
601,1778602413.0836244,0.27702835,-0.15952150,0.20824386,1.22432580,0.71975140,0.22357652
602,1778602413.0936272,0.25897855,-0.16781467,0.18043736,1.20355630,0.72586006,0.24068072
603,1778602413.1038013,0.24434352,-0.16830250,0.15458219,1.17179130,0.71119934,0.26022840
604,1778602413.1136954,0.23751387,-0.17025384,0.13165402,1.17179130,0.71119934,0.26022840
605,1778602413.12384,0.23117203,-0.16439983,0.11945819,1.00930130,0.54748756,0.33353218
606,1778602413.1333792,0.23409903,-0.14537434,0.12140953,0.89079356,0.45707956,0.39950556
607,1778602413.1435187,0.26336902,-0.12439750,0.14824036,0.78328140,0.44608400,0.49357873
608,1778602413.1536803,0.31117670,-0.11268950,0.19409668,0.69653857,0.52183120,0.60842130
609,1778602413.1636028,0.31117670,-0.11268950,0.19409668,0.69653857,0.52183120,0.60842130
610,1778602413.1736152,0.46386853,-0.08829784,0.27068650,0.64766940,0.74052083,0.78190690
611,1778602413.1837997,0.63265884,-0.01024450,0.30873755,0.64033900,0.94577140,0.87720180
612,1778602413.1938217,0.76534950,0.08537084,0.32581168,0.59880020,1.08382680,0.94317520
613,1778602413.2038434,0.76534950,0.08537084,0.32581168,0.59880020,1.08382680,0.94317520
614,1778602413.2133534,0.85852570,0.15025267,0.32922652,0.40210176,1.26952970,0.98471403
615,1778602413.2237356,1.12537050,0.34294683,0.35800868,0.27137667,1.28296880,0.97249675
616,1778602413.2341273,1.18732540,0.41807315,0.39947453,0.09789108,1.23898650,0.98104880
617,1778602413.2437613,1.18732540,0.41807315,0.39947453,0.09789108,1.23898650,0.98104880
618,1778602413.253835,1.32928490,0.47075918,0.57119190,-0.10858121,1.19133900,1.18141250
619,1778602413.2635696,1.42050970,0.50393180,0.67314905,-0.10369430,1.16934790,1.29747680
620,1778602413.2734656,1.44685270,0.52832350,0.71705400,-0.05360339,1.15835240,1.34023740
621,1778602413.2836735,1.46295120,0.58100950,0.76388603,0.09178244,1.10703970,1.40254560
622,1778602413.2939475,1.47319570,0.62393886,0.76486170,0.20173809,1.03251420,1.46851900
623,1778602413.3036141,1.49026990,0.65467240,0.75900770,0.28359398,0.98242330,1.52960540
624,1778602413.3136046,1.51027110,0.66296554,0.77900887,0.35078910,0.94577140,1.54548790
625,1778602413.3238115,1.52783310,0.66491680,0.80193704,0.43386670,0.89079356,1.51983150
626,1778602413.333421,1.48734300,0.66589254,0.80096140,0.59513503,0.79916380,1.41842810
627,1778602413.3434432,1.40197200,0.65174530,0.77315485,0.74662950,0.73196870,1.32068970
628,1778602413.3536377,1.30977150,0.63028070,0.73120123,0.85658514,0.68309957,1.25105110
629,1778602413.363498,1.30977150,0.63028070,0.73120123,0.85658514,0.68309957,1.25105110
630,1778602413.3736548,1.13707850,0.60296200,0.65217220,1.05572700,0.64156073,1.16675170
631,1778602413.3834875,0.94487220,0.58247300,0.58387550,1.20844330,0.60979575,1.12765630
632,1778602413.393759,0.83998805,0.57174070,0.54972720,1.32206400,0.56825700,1.11666080
633,1778602413.4038217,0.73315257,0.56881370,0.51655453,1.50776700,0.46318823,1.12887810
634,1778602413.413536,0.73315257,0.56881370,0.51655453,1.50776700,0.46318823,1.12887810
635,1778602413.4238396,0.61460906,0.56832590,0.47118600,1.77288230,0.20051636,1.14353880
636,1778602413.4333854,0.58777820,0.58003384,0.44825786,1.93292890,0.00381790,1.12032600
637,1778602413.4435008,0.59509570,0.58637565,0.42484185,2.07342770,-0.17333288,1.04457880
638,1778602413.4533901,0.60338890,0.57857037,0.39459620,2.19560070,-0.25152358,0.91385370
639,1778602413.4638195,0.59802270,0.56735015,0.36678970,2.26768280,-0.23808455,0.78068520
640,1778602413.4738238,0.56289870,0.55808130,0.33508053,2.33121280,-0.11591160,0.60719960
641,1778602413.4833295,0.51070050,0.54198290,0.31605503,2.37152980,0.09911281,0.46181378
642,1778602413.4936867,0.46630770,0.52149385,0.32142118,2.40207310,0.33124143,0.35552330
643,1778602413.5035398,0.43557420,0.50198050,0.35264254,2.44116830,0.46807513,0.30176720
644,1778602413.5138037,0.43557420,0.50198050,0.35264254,2.44116830,0.46807513,0.30176720
645,1778602413.5241835,0.41801220,0.48636985,0.39362052,2.50958510,0.53893540,0.26633704
646,1778602413.5335069,0.50387090,0.43124464,0.49850470,2.83212180,0.47174034,0.15271619
647,1778602413.5436764,0.57265530,0.42148802,0.53753140,3.02271180,0.35323256,0.03787361
648,1778602413.5537982,0.64436686,0.41563400,0.55997170,3.16443230,0.28115052,-0.06841686
649,1778602413.5633748,0.64436686,0.41563400,0.55997170,3.16443230,0.28115052,-0.06841686
650,1778602413.573626,0.79949784,0.43758650,0.58729035,3.29637900,0.44852746,-0.28466300
651,1778602413.583688,0.90340640,0.46490517,0.67705170,3.27560970,0.65255630,-0.35552330
652,1778602413.5936182,0.95121410,0.48344287,0.76827660,3.26583580,0.86758070,-0.39217520
653,1778602413.6036985,0.99170420,0.48539415,0.83803680,3.28904870,1.03740110,-0.34086254
654,1778602413.613815,1.06048870,0.46783215,0.88535650,3.31226160,1.07038780,-0.23212862
655,1778602413.6233885,1.13463940,0.43417168,0.89608890,3.30248760,1.02274040,-0.13316852
656,1778602413.633867,1.13463940,0.43417168,0.89608890,3.30248760,1.02274040,-0.13316852
657,1778602413.6437166,1.42636370,0.39319370,0.97950834,3.14244100,0.32757625,0.02199113
658,1778602413.6536393,1.50588060,0.40392600,1.00341220,3.05447650,0.09056070,-0.05497783
659,1778602413.6636891,1.54783430,0.37807086,1.01512010,2.97628600,0.00870482,-0.15027274
660,1778602413.6734788,1.55563950,0.32928753,0.99511904,2.89076500,0.03313941,-0.24434592
661,1778602413.6837282,1.52734520,0.26928400,0.96487340,2.78569600,0.23838998,-0.33231044
662,1778602413.693711,1.52734520,0.26928400,0.96487340,2.78569600,0.23838998,-0.33231044
663,1778602413.703418,1.30928360,0.11610434,0.80779105,2.56822820,0.89201530,-0.27000225
664,1778602413.7138307,1.30928360,0.11610434,0.80779105,2.56822820,0.89201530,-0.27000225
665,1778602413.724013,1.09853970,0.10390850,0.72583500,2.36542100,1.09482240,-0.05986475
666,1778602413.73383,0.99560690,0.08683433,0.67461250,2.25668720,0.96287560,0.07330377
667,1778602413.7437925,0.93121284,0.05512517,0.62582920,2.18827030,0.76373370,0.12583815
668,1778602413.7536082,0.87559986,0.02927000,0.58582690,2.12962720,0.58902640,0.13072506
669,1778602413.763767,0.80388840,-0.00000000,0.52923816,2.07953640,0.49984010,0.12095123
670,1778602413.7737932,0.75754420,-0.01804983,0.48435750,2.02578040,0.46563166,0.10140356
671,1778602413.783535,0.65509915,-0.03951450,0.39801103,1.93781580,0.49617493,0.07941242
672,1778602413.793857,0.55460554,-0.04488067,0.33508053,1.82297330,0.59391326,0.07696896
673,1778602413.80338,0.45899022,-0.04146583,0.28873634,1.70324370,0.72463834,0.10262528
674,1778602413.8136842,0.45899022,-0.04146583,0.28873634,1.70324370,0.72463834,0.10262528
675,1778602413.8234355,0.39215705,-0.04244150,0.25605154,1.61405740,0.83337230,0.14416409
676,1778602413.8337579,0.26873520,-0.06097917,0.21507353,1.45034580,0.98731020,0.28344125
677,1778602413.8438005,0.24141651,-0.07902900,0.19604802,1.41735900,0.97997980,0.34086254
678,1778602413.8533993,0.22043969,-0.10049367,0.17263202,1.39292440,0.91278470,0.41050112
679,1778602413.8638945,0.22043969,-0.10049367,0.17263202,1.39292440,0.91278470,0.41050112
680,1778602413.8733943,0.20629252,-0.11756783,0.14287418,1.36115940,0.68187780,0.50701780
681,1778602413.8836563,0.23605035,-0.12293400,0.12482436,1.32572930,0.43997535,0.53878270
682,1778602413.8936727,0.24970970,-0.12293400,0.11018936,1.28174700,0.26526803,0.54489136
683,1778602413.90367,0.27166218,-0.12390967,0.08921252,1.22799090,0.18952079,0.54611313
684,1778602413.9137647,0.27166218,-0.12390967,0.08921252,1.22799090,0.18952079,0.54611313
685,1778602413.924263,0.31264020,-0.11025034,0.08823685,1.04717490,0.18219042,0.57421290
686,1778602413.9334269,0.36435053,-0.11512867,0.11604336,0.90667605,0.29947644,0.60353440
687,1778602413.9435897,0.41313390,-0.12537317,0.14775252,0.82359844,0.46196648,0.61941690
688,1778602413.9537992,0.44679436,-0.12244616,0.16238752,0.78205960,0.61223924,0.62430380
689,1778602413.9635992,0.44679436,-0.12244616,0.16238752,0.78205960,0.61223924,0.62430380
690,1778602413.9736216,0.48874804,-0.11708001,0.18580353,0.75762504,0.81138116,0.63896453
691,1778602413.9835944,0.58387550,-0.03366050,0.18092519,0.75029470,1.09848760,0.68539030
692,1778602413.9936805,0.66973420,0.04195367,0.16189969,0.67332570,1.16079580,0.78801554
693,1778602414.003736,0.78437500,0.11805566,0.14726469,0.54870930,1.14124810,0.93462310
694,1778602414.0137513,0.78437500,0.11805566,0.14726469,0.54870930,1.14124810,0.93462310
695,1778602414.0234628,1.14976230,0.27416235,0.15946053,0.06001746,0.90667605,1.29014650
696,1778602414.0337903,1.50880750,0.45661200,0.33410487,-0.55939940,0.52916163,1.49295350
697,1778602414.043527,1.69467200,0.57222855,0.56045955,-0.85627973,0.34468046,1.56259210
698,1778602414.0535104,1.90785530,0.69125986,0.89218620,-1.02487840,0.24327690,1.60901780
699,1778602414.0640512,2.09225600,0.72735950,1.17903220,-0.95401806,0.28481570,1.58824840
700,1778602414.073564,2.20348220,0.72345686,1.35611570,-0.95401806,0.28481570,1.58824840
701,1778602414.083792,2.24397250,0.67028300,1.43904730,-0.06948587,0.88101970,1.19973840
702,1778602414.0934978,2.24397250,0.67028300,1.43904730,-0.06948587,0.88101970,1.19973840
703,1778602414.1033628,2.24397250,0.67028300,1.43904730,-0.06948587,0.88101970,1.19973840
704,1778602414.1136308,1.78979950,0.66881950,1.14537180,0.81748980,1.46622810,0.88331050
705,1778602414.1236923,1.39709380,0.63174415,0.83169484,1.13636120,1.44668050,0.87231493
706,1778602414.1333637,1.18878890,0.58540004,0.65997756,1.48699760,1.11437010,0.95050560
707,1778602414.1433702,1.06926970,0.54930030,0.57070400,1.61650100,0.88590664,1.00304000
708,1778602414.1537793,0.99755820,0.52003030,0.51021266,1.70202200,0.72341660,1.02380930
709,1778602414.1636758,0.99755820,0.52003030,0.51021266,1.70202200,0.72341660,1.02380930
710,1778602414.173482,0.92779803,0.49222386,0.44630653,1.84252080,0.57558733,0.99693130
711,1778602414.1834993,0.92779803,0.49222386,0.44630653,1.84252080,0.57558733,0.99693130
712,1778602414.1938095,0.65314790,0.41953668,0.24873403,1.85351650,0.66966050,0.97494020
713,1778602414.203937,0.58485120,0.40831652,0.22434235,1.83274710,0.73196870,0.98471403
714,1778602414.2137005,0.51557887,0.40197468,0.22483020,1.83274710,0.73196870,0.98471403
715,1778602414.2234304,0.48972370,0.39807200,0.24970970,1.81197760,0.80893767,1.05068740
716,1778602414.233533,0.46777120,0.39953550,0.29751736,1.89016830,0.74296427,1.08123060
717,1778602414.243552,0.47118600,0.39319370,0.34386152,1.99890230,0.65011287,1.08000900
718,1778602414.2533689,0.48045490,0.38441268,0.37605852,2.18338350,0.50228360,1.04702220
719,1778602414.2634206,0.50874920,0.36538717,0.40581635,2.36053420,0.37766716,0.98960096
720,1778602414.273494,0.52582335,0.35367918,0.40045020,2.55234580,0.26893320,0.90041470
721,1778602414.2833889,0.52289635,0.32489700,0.32922652,2.79424800,0.21517712,0.74281156
722,1778602414.293496,0.50679785,0.30977416,0.27556485,2.88709970,0.23350306,0.64873840
723,1778602414.3036444,0.48143053,0.28587034,0.21556135,2.91764280,0.30558512,0.58276500
724,1778602414.3136716,0.47947920,0.26391783,0.18726702,2.88099100,0.40943210,0.57787806
725,1778602414.3237596,0.47947920,0.26391783,0.18726702,2.88099100,0.40943210,0.57787806
726,1778602414.3333569,0.52777470,0.25123417,0.23117203,2.79547000,0.56703526,0.63407767
727,1778602414.343455,0.61753600,0.24342884,0.32971436,2.79669170,0.64766940,0.66950780
728,1778602414.3535628,0.72681070,0.24196534,0.44484302,2.86388680,0.66599530,0.65973395
729,1778602414.3633394,0.72681070,0.24196534,0.44484302,2.86388680,0.66599530,0.65973395
730,1778602414.3734968,0.82388950,0.24635585,0.53265303,3.15832350,0.66599530,0.63652110
731,1778602414.3838587,0.87023370,0.25464900,0.51216400,3.31837000,0.61223924,0.63652110
732,1778602414.3933706,0.87999034,0.27367450,0.44581872,3.37701320,0.53160506,0.65240360
733,1778602414.4036345,0.89901590,0.31026200,0.38483953,3.28294010,0.35201082,0.73792464
734,1778602414.4136972,0.89901590,0.31026200,0.38483953,3.17420600,0.21395539,0.80878496
735,1778602414.4233367,0.96731250,0.39758417,0.37459502,2.97750760,-0.02794706,0.91385370
736,1778602414.4333522,1.10634500,0.48588200,0.47606438,2.68429260,-0.37614000,1.03358320
737,1778602414.4436753,1.30830800,0.54198290,0.66827070,2.43994670,-0.65469430,1.09589140
738,1778602414.453753,1.30830800,0.54198290,0.66827070,2.43994670,-0.65469430,1.09589140
739,1778602414.4638183,1.50344130,0.57759470,0.87413640,2.32510400,-0.84406240,1.06168290
740,1778602414.4738357,1.63613210,0.59564450,1.00390000,2.33121280,-0.92347485,0.93462310
741,1778602414.4837391,1.87273120,0.53612880,1.12976110,2.49492450,-0.87460566,0.54733485
742,1778602414.4934611,1.84833960,0.48539415,1.02048640,2.57555870,-0.67912894,0.18814635
743,1778602414.5037563,1.74638240,0.47563753,0.90243065,2.53890680,-0.48365217,-0.01466075
744,1778602414.513872,1.74638240,0.47563753,0.90243065,2.53890680,-0.48365217,-0.01466075
745,1778602414.5233705,1.49905090,0.44441620,0.70046770,2.21270500,-0.01450804,-0.31520623
746,1778602414.533633,1.40099640,0.39563283,0.63948850,2.07587120,0.12721258,-0.40561423
747,1778602414.5437696,1.40099640,0.39563283,0.63948850,2.07587120,0.12721258,-0.40561423
748,1778602414.5536432,1.08780730,0.25757600,0.50728570,1.61405740,0.59880020,-0.79045904
749,1778602414.563431,1.08780730,0.25757600,0.50728570,1.61405740,0.59880020,-0.79045904
750,1778602414.5736246,0.78437500,0.17805916,0.40240154,1.33794650,0.83092880,-0.93584484
751,1778602414.5838068,0.64143986,0.13366634,0.37215585,1.18645220,0.93477580,-0.96638810
752,1778602414.593824,0.52045720,0.08878566,0.36044785,1.07527470,0.98242330,-0.97249675
753,1778602414.6034758,0.41752437,0.05171033,0.34581286,1.00807960,1.00563610,-0.94439700
754,1778602414.613731,0.41752437,0.05171033,0.34581286,1.00807960,1.00563610,-0.94439700
755,1778602414.6237519,0.30093220,-0.00878100,0.32629952,0.95310175,0.98608845,-0.86131936
756,1778602414.6338804,0.23751387,-0.05073466,0.31215236,0.94454970,0.94454970,-0.76846790
757,1778602414.6435537,0.20336552,-0.07366284,0.30093220,0.94943660,0.90789780,-0.69149894
758,1778602414.6537585,0.17604686,-0.10439634,0.29654170,0.97020596,0.81138116,-0.54855657
759,1778602414.663697,0.16970502,-0.12390967,0.29556602,0.98853195,0.73929910,-0.47158760
760,1778602414.6733856,0.16970502,-0.12390967,0.29556602,0.98853195,0.73929910,-0.47158760
761,1778602414.683465,0.19604802,-0.14927700,0.29605386,1.08260510,0.47418380,-0.28710645
762,1778602414.6934266,0.21214652,-0.16488767,0.26629603,1.13636120,0.34468046,-0.21746786
763,1778602414.7035565,0.21604920,-0.16439983,0.22775720,1.15346540,0.26038110,-0.13927718
764,1778602414.713397,0.21604920,-0.16439983,0.22775720,1.15346540,0.26038110,-0.13927718
765,1778602414.7234693,0.21604920,-0.16439983,0.22775720,1.15346540,0.26038110,-0.13927718
766,1778602414.7337365,0.32190904,-0.17318083,0.20629252,1.01052310,0.22739442,0.19303326
767,1778602414.7437212,0.32190904,-0.17318083,0.20629252,1.01052310,0.22739442,0.19303326
768,1778602414.7538211,0.51411533,-0.12537317,0.26727170,0.91156300,0.10155627,0.51556987
769,1778602414.7633805,0.51411533,-0.12537317,0.26727170,0.91156300,0.10155627,0.51556987
770,1778602414.7733936,0.72242020,-0.06049134,0.27556485,0.85047650,0.02092212,0.75258540
771,1778602414.7838156,0.88438080,0.00195133,0.25556368,0.71730800,0.10766492,0.89064085
772,1778602414.793736,0.97706926,0.05024683,0.23214770,0.57436560,0.23716825,0.94806210
773,1778602414.8033931,1.06048870,0.12098267,0.17702252,0.25915940,0.54870930,0.97494020
774,1778602414.8134146,1.10390590,0.15708233,0.15360652,0.05268709,0.72463834,0.97494020
775,1778602414.8235123,1.14000550,0.20537783,0.15311868,-0.26007570,0.95310175,0.97860540
776,1778602414.8333995,1.19415510,0.26879618,0.19458452,-0.76342830,1.27808190,1.02136590
777,1778602414.8436298,1.23025470,0.29465136,0.26824737,-1.07863450,1.49921490,1.06779160
778,1778602414.8536408,1.26879360,0.31367683,0.40679200,-1.38284520,1.76555190,1.12032600
779,1778602414.8636763,1.26879360,0.31367683,0.40679200,-1.38284520,1.76555190,1.12032600
780,1778602414.8733406,1.28391650,0.32343350,0.56924057,-1.52212230,2.00989800,1.17286040
781,1778602414.8833754,1.26293960,0.33514150,0.78730210,-1.38773200,2.27134800,1.30236380
782,1778602414.8933957,1.22440080,0.38343700,0.88145393,-1.08107790,2.17727470,1.45630170
783,1778602414.903449,1.17561750,0.43856218,0.93072504,-0.82084954,1.94881140,1.55404000
784,1778602414.9138057,1.11561390,0.48246717,0.93511550,-0.47265664,1.54197540,1.65544350
785,1778602414.9238148,1.07463590,0.51222503,0.90779690,-0.19898920,1.19256080,1.72630380
786,1778602414.9333308,1.07463590,0.51222503,0.90779690,-0.19898920,1.19256080,1.72630380
787,1778602414.9433725,1.07463590,0.51222503,0.90779690,-0.19898920,1.19256080,1.72630380
788,1778602414.9536996,1.01072970,0.56149620,0.80681540,0.59024810,0.35323256,1.86191580
789,1778602414.9637353,1.01072970,0.56149620,0.80681540,0.59024810,0.35323256,1.86191580
790,1778602414.9737098,0.94340870,0.58003384,0.72583500,0.87246764,0.18829907,1.83381600
791,1778602414.9834707,0.92340750,0.58588785,0.67510040,1.35138560,0.04535671,1.74340810
792,1778602414.9936233,0.93413990,0.59174186,0.67363685,1.53464510,0.00626136,1.67376950
793,1778602415.0036466,0.94779920,0.59027830,0.65607490,1.78632130,-0.02794706,1.53449240
794,1778602415.0134149,0.92877364,0.59320533,0.61899954,1.98790670,-0.04749474,1.39032830
795,1778602415.023456,0.88877136,0.58637565,0.55119070,2.16017060,-0.04016436,1.23883380
796,1778602415.0337522,0.80242490,0.56539880,0.43118370,2.34343000,0.03558287,1.02503110
797,1778602415.0437872,0.73998220,0.55125170,0.34776420,2.41306850,0.14798199,0.88941914
798,1778602415.0534868,0.69119890,0.54100716,0.31703070,2.43383800,0.22495095,0.79656770
799,1778602415.0638099,0.69119890,0.54100716,0.31703070,2.43383800,0.22495095,0.79656770
800,1778602415.0735426,0.63948850,0.51368850,0.33020220,2.48515060,0.25915940,0.69638586
801,1778602415.083717,0.61802390,0.48100364,0.35996002,2.64275380,0.19196425,0.57665634
802,1778602415.0935817,0.65509915,0.46539300,0.40288937,2.84067400,0.04169152,0.47280934
803,1778602415.1035492,0.73510385,0.48393068,0.44533083,2.97139900,-0.05604684,0.37995788
804,1778602415.1136384,0.80632750,0.50149270,0.49752906,3.07891130,-0.10735948,0.29321510
805,1778602415.1236908,0.88389300,0.50685880,0.54484886,3.19131040,-0.15500695,0.19669846
806,1778602415.1336527,0.95414100,0.49710217,0.58143634,3.28904870,-0.20876303,0.09040799
807,1778602415.1437128,1.06439140,0.47222266,0.61363333,3.41488700,-0.28695372,-0.05986475
808,1778602415.1534574,1.12098000,0.46197820,0.62729270,3.46619940,-0.31749696,-0.12217296
809,1778602415.16372,1.21366830,0.46002686,0.63851285,3.47963860,-0.33704466,-0.15271619
810,1778602415.1736267,1.21366830,0.46002686,0.63851285,3.47963860,-0.33704466,-0.15271619
811,1778602415.183744,1.39514230,0.45661200,0.63168323,3.34769180,-0.37491825,-0.24678937
812,1778602415.1933467,1.52490600,0.41270700,0.60338890,3.18520160,-0.38957903,-0.40683594
813,1778602415.203525,1.57125020,0.36880200,0.53704350,2.94940780,-0.32482734,-0.64507324
814,1778602415.2135835,1.55027340,0.33806852,0.49021152,2.70384030,-0.18310672,-0.84421515
815,1778602415.2237716,1.55027340,0.33806852,0.49021152,2.70384030,-0.18310672,-0.84421515
816,1778602415.2335556,1.43563260,0.28294334,0.45703888,2.12107520,0.28603745,-1.11421740
817,1778602415.2437325,1.28391650,0.19171850,0.50728570,1.64948760,0.69042990,-1.14109540
818,1778602415.253753,1.22488860,0.14049600,0.55362990,1.45278920,0.87002414,-1.07878720
819,1778602415.263763,1.16439720,0.09122483,0.59607136,1.29885130,1.00807960,-0.95172733
820,1778602415.2734199,1.08390460,0.04829550,0.64485470,1.24020830,1.01907520,-0.82711090
821,1778602415.2835846,1.03414570,0.03512400,0.65461135,1.22799090,0.98486674,-0.72937256
822,1778602415.2936816,0.91999270,0.01219583,0.62631700,1.26952970,0.84925480,-0.52900890
823,1778602415.3037705,0.83462190,0.00097567,0.56533790,1.30007290,0.75395983,-0.42149670
824,1778602415.3138278,0.76144690,-0.00634183,0.51070050,1.30007290,0.71486450,-0.34330600
825,1778602415.3233793,0.68924755,-0.01902550,0.45216054,1.28663400,0.70509064,-0.27000225
826,1778602415.3337057,0.62387790,-0.03512400,0.39801103,1.25120380,0.71975140,-0.19058982
827,1778602415.3437102,0.53606784,-0.05024683,0.32727520,1.16446100,0.76617720,-0.05497783
828,1778602415.3537626,0.49460202,-0.05414950,0.29361472,1.07771810,0.80771595,0.05742129
829,1778602415.3638005,0.44874570,-0.06927233,0.27117437,0.99830574,0.82115495,0.15027274
830,1778602415.3734221,0.44874570,-0.06927233,0.27117437,0.99830574,0.82115495,0.15027274
831,1778602415.3836544,0.41508517,-0.10342067,0.26141770,0.92744550,0.78572480,0.23945900
832,1778602415.3934982,0.38044903,-0.12488534,0.26044202,0.91767160,0.71730800,0.28221953
833,1778602415.4036763,0.38044903,-0.12488534,0.26044202,0.91767160,0.71730800,0.28221953
834,1778602415.4135418,0.38044903,-0.12488534,0.26044202,0.91767160,0.71730800,0.28221953
835,1778602415.4236054,0.33215353,-0.14488651,0.22287886,0.98486674,0.52305300,0.32498005
836,1778602415.4336221,0.28873634,-0.15122834,0.15116736,0.97020596,0.47540550,0.34452772
837,1778602415.4436352,0.25897855,-0.15269183,0.06726002,0.87857630,0.43142325,0.40439248
838,1778602415.453509,0.26873520,-0.15805800,0.04921019,0.75518160,0.37033677,0.47891800
839,1778602415.4638114,0.30483487,-0.17415650,0.03701435,0.64278245,0.32391104,0.54000450
840,1778602415.4734638,0.30483487,-0.17415650,0.03701435,0.64278245,0.32391104,0.54000450
841,1778602415.483574,0.33800754,-0.18098617,0.04140485,0.53282680,0.27748534,0.59131710
842,1778602415.4937277,0.47216170,-0.17025384,0.12970269,0.30314165,0.08567379,0.69272065
843,1778602415.503668,0.53558004,-0.14537434,0.17555903,0.24816382,0.04169152,0.73059430
844,1778602415.5136688,0.62924400,-0.12049483,0.22580586,0.18952079,0.02947422,0.79168075
845,1778602415.5237787,0.62924400,-0.12049483,0.22580586,0.18952079,0.02947422,0.79168075
846,1778602415.5333602,0.80486405,-0.09610317,0.26727170,0.11499529,0.11743876,0.87720180
847,1778602415.5436752,0.88389300,-0.02292817,0.22434235,0.01237001,0.28115052,0.92973620
848,1778602415.5538862,0.91901700,0.03658750,0.22775720,-0.09514219,0.36300638,0.99937480
849,1778602415.563397,0.95658020,0.13025150,0.26434470,-0.23441936,0.31658068,1.11788250
850,1778602415.5735617,1.03756060,0.20781700,0.30483487,-0.23441936,0.31658068,1.11788250
851,1778602415.5835938,1.18195920,0.27513800,0.36630186,-0.43844820,-0.21853687,1.33412870
852,1778602415.5933924,1.45904850,0.35416700,0.44825786,-0.53129965,-0.64614224,1.33168520
853,1778602415.6034148,1.64296160,0.42685416,0.46142936,-0.53129965,-0.64614224,1.33168520
854,1778602415.6134539,1.72443000,0.47758886,0.42435405,-0.73288500,-0.75487614,1.04335700
855,1778602415.623775,1.72443000,0.47758886,0.42435405,-0.73288500,-0.75487614,1.04335700
856,1778602415.6337943,1.69857480,0.52929920,0.28727287,-1.09451700,-0.20509785,0.80389804
857,1778602415.6438158,1.54100450,0.55222730,0.28044320,-1.59664790,0.64766940,0.70982486
858,1778602415.6535099,1.40685030,0.56247187,0.39801103,-1.82755470,1.04106630,0.73425950
859,1778602415.6637976,1.26147600,0.57759470,0.57363105,-1.94972770,1.29640780,0.82466745
860,1778602415.6734877,1.26147600,0.57759470,0.57363105,-1.94972770,1.29640780,0.82466745
861,1778602415.6836302,1.16488500,0.57417990,0.70241904,-1.87886740,1.31717720,0.91996235
862,1778602415.693633,1.03512130,0.58296084,0.96780044,-1.15804700,0.75640330,1.21439920
863,1778602415.7036598,1.05219550,0.60735250,1.03804840,-0.69378966,0.34223700,1.29992020
864,1778602415.713687,1.07219670,0.65076970,1.00926610,-0.04749474,-0.14523310,1.31213760
865,1778602415.723766,1.05658600,0.67516136,0.89608890,0.43386670,-0.41279188,1.25349450
866,1778602415.733692,1.01121760,0.69369900,0.74632406,0.86025035,-0.58261230,1.13743020
867,1778602415.7437322,0.91121167,0.71711504,0.52826256,1.12047870,-0.57528190,0.99082270
868,1778602415.7533963,0.84193933,0.72004200,0.41508517,1.17423490,-0.48243046,0.92729276
869,1778602415.763697,0.84193933,0.72004200,0.41508517,1.17423490,-0.48243046,0.92729276
870,1778602415.7733357,0.76925220,0.70979750,0.30727400,1.17667830,-0.24297146,0.82833266
871,1778602415.7837543,0.66973420,0.70394355,0.25995418,1.08993550,0.17608178,0.65729050
872,1778602415.7937634,0.60046184,0.69467470,0.31068885,1.06183560,0.40210176,0.52656543
873,1778602415.8038638,0.59412000,0.67711270,0.36971670,1.09970930,0.44730574,0.45326167
874,1778602415.813438,0.61704820,0.65613580,0.44825786,1.21210850,0.42531460,0.33964083
875,1778602415.823786,0.61704820,0.65613580,0.44825786,1.21210850,0.42531460,0.33964083
876,1778602415.8338053,0.63851285,0.63564680,0.52387200,1.53220150,0.26648977,0.10262528
877,1778602415.8433335,0.67900300,0.59418100,0.56533790,1.80709080,0.18096869,-0.06230821
878,1778602415.8533454,0.70485820,0.57369200,0.54777586,1.95003310,0.16875139,-0.15760311
879,1778602415.8637776,0.71559054,0.55173950,0.51899370,2.05388020,0.19440772,-0.25411975
880,1778602415.8733835,0.71559054,0.55173950,0.51899370,2.05388020,0.19440772,-0.25411975
881,1778602415.883412,0.72583500,0.52929920,0.50631005,2.07220600,0.23716825,-0.30909760
882,1778602415.893635,0.72583500,0.52929920,0.50631005,2.07220600,0.23716825,-0.30909760
883,1778602415.903648,0.98731370,0.46880785,0.79901004,2.10641460,0.28115052,-0.39339690
884,1778602415.913661,1.08048990,0.41758534,0.88291740,2.20781800,0.24572036,-0.45814860
885,1778602415.9235702,1.14781080,0.36685067,0.92438316,2.34587340,0.23228133,-0.53389580
886,1778602415.9336958,1.19366730,0.31855518,0.91999270,2.48515060,0.24449863,-0.58887360
887,1778602415.9435325,1.26976920,0.25269768,0.82974356,2.60121500,0.20662501,-0.60353440
888,1778602415.953443,1.30050270,0.22879384,0.77266705,2.56578470,0.12721258,-0.60964304
889,1778602415.9639714,1.30782020,0.21464668,0.73120123,2.47049000,0.00992655,-0.62674725
890,1778602415.9734933,1.30782020,0.21464668,0.73120123,2.47049000,0.00992655,-0.62674725
891,1778602415.9834342,1.29269740,0.18635234,0.65363574,2.11741000,-0.19898920,-0.65362530
892,1778602415.9937117,1.26050030,0.15317966,0.64046420,1.83396880,-0.17333288,-0.60231270
893,1778602416.0035245,1.24781670,0.10781116,0.65948970,1.66659190,-0.09392046,-0.52900890
894,1778602416.013494,1.24391400,0.05219817,0.67949086,1.50776700,0.03436114,-0.42638360
895,1778602416.0237124,1.24391400,0.05219817,0.67949086,1.50776700,0.03436114,-0.42638360
896,1778602416.0338085,1.24391400,0.05219817,0.67949086,1.50776700,0.03436114,-0.42638360
897,1778602416.043337,1.04829290,-0.00195133,0.62485350,1.31962060,0.55970484,-0.25045455
898,1778602416.053357,0.93462770,-0.00341483,0.55948380,1.31106850,0.69042990,-0.18814635
899,1778602416.0638795,0.84145150,-0.00731750,0.50435870,1.30862510,0.73319050,-0.13805544
900,1778602416.0738049,0.75217800,-0.02292817,0.44581872,1.30251650,0.73441220,-0.08063415
901,1778602416.083502,0.75217800,-0.02292817,0.44581872,1.30251650,0.73441220,-0.08063415
902,1778602416.0935075,0.67802740,-0.03609967,0.39654753,1.24142990,0.60735230,0.08674280
903,1778602416.1036146,0.50240740,-0.04097800,0.25263670,1.19866940,0.55603970,0.14294235
904,1778602416.11382,0.45069703,-0.04829550,0.21653701,1.14491330,0.51938780,0.20280711
905,1778602416.1238155,0.45069703,-0.04829550,0.21653701,1.14491330,0.51938780,0.20280711
906,1778602416.1333387,0.35849655,-0.08244383,0.15458219,1.01296650,0.51694435,0.33964083
907,1778602416.143396,0.33117786,-0.10195717,0.12872702,0.94210620,0.52916163,0.41783150
908,1778602416.1538024,0.32239684,-0.11220168,0.11604336,0.89323700,0.53527030,0.47769627
909,1778602416.1638172,0.30142003,-0.10488417,0.10482319,0.86025035,0.52916163,0.51923510
910,1778602416.1733322,0.30142003,-0.10488417,0.10482319,0.86025035,0.52916163,0.51923510
911,1778602416.1835883,0.33312920,-0.13220283,0.10092052,0.80893767,0.39843655,0.56566080
912,1778602416.1936743,0.37166804,-0.14635001,0.09604219,0.78083790,0.21517712,0.56932600
913,1778602416.203715,0.37361938,-0.14293517,0.06774786,0.74296427,0.09789108,0.57665634
914,1778602416.2136598,0.37361938,-0.14293517,0.06774786,0.74296427,0.09789108,0.57665634
915,1778602416.2235332,0.37410718,-0.12147050,0.03652652,0.64766940,0.00992655,0.62063860
916,1778602416.2337506,0.43264723,-0.11025034,-0.01176898,0.34590217,0.11499529,0.76724620
917,1778602416.2433405,0.48679670,-0.09220050,0.01262269,0.13087778,0.30680683,0.88331050
918,1778602416.253375,0.58289987,-0.06878450,0.08287069,-0.08903354,0.46440995,1.02136590
919,1778602416.263419,0.69949204,-0.03268483,0.18580353,-0.21975860,0.50961393,1.11177380
920,1778602416.273542,0.80486405,0.02878217,0.28776067,-0.28817546,0.46929687,1.15942130
921,1778602416.2835758,0.89999160,0.08098034,0.37459502,-0.28939718,0.36667160,1.17408220
922,1778602416.2939847,1.03121860,0.14195950,0.46777120,-0.21609342,0.11988221,1.17041700
923,1778602416.303526,1.09366140,0.18001050,0.46728337,-0.16722423,-0.05115993,1.16797340
924,1778602416.3137736,1.18195920,0.22196417,0.43118370,-0.16355905,-0.17333288,1.17408220
925,1778602416.3238344,1.18195920,0.22196417,0.43118370,-0.16355905,-0.17333288,1.17408220
926,1778602416.3334057,1.32196740,0.31270117,0.42191488,-0.30405796,-0.18310672,1.18263420
927,1778602416.3434446,1.40733810,0.38977882,0.44094035,-0.50319990,-0.08659008,1.17530380
928,1778602416.3536706,1.47514700,0.43856218,0.48582100,-0.62659454,-0.01084285,1.15819970
929,1778602416.3637116,1.52636960,0.48100364,0.55216634,-0.74388057,0.09911281,1.10933040
930,1778602416.3737078,1.56149350,0.49856570,0.60436450,-0.77931076,0.18463388,1.05190920
931,1778602416.3836668,1.58881220,0.51856685,0.67705170,-0.75854135,0.25915940,0.98471403
932,1778602416.3937275,1.60295940,0.53320190,0.77510620,-0.64125530,0.30802858,0.87598010
933,1778602416.4037683,1.58686090,0.53417750,0.80974240,-0.51663890,0.28237224,0.81122845
934,1778602416.4137862,1.53954110,0.52637213,0.80681540,-0.32360563,0.22372922,0.72326390
935,1778602416.4238129,1.46685390,0.52051820,0.78632635,-0.15867212,0.16875139,0.65973395
936,1778602416.4333797,1.37465350,0.51905465,0.74534833,-0.00473420,0.10888664,0.62430380
937,1778602416.4434466,1.25610980,0.50734670,0.69168670,0.20295982,0.03802633,0.60719960
938,1778602416.453679,1.18342270,0.49661437,0.64290340,0.36789330,0.00992655,0.58765190
939,1778602416.463777,1.07268450,0.48978466,0.56338650,0.51327914,0.00503963,0.56077385
940,1778602416.473848,1.07268450,0.48978466,0.56338650,0.51327914,0.00503963,0.56077385
941,1778602416.4835207,0.97658140,0.49759000,0.49752906,0.68554300,0.00870482,0.52412200
942,1778602416.4936912,0.90389425,0.50149270,0.42532970,0.76617720,0.05146536,0.47769627
943,1778602416.5036721,0.86779450,0.51466420,0.40093803,0.82604190,0.07834341,0.41050112
944,1778602416.5137794,0.86779450,0.51466420,0.40093803,0.82604190,0.07834341,0.41050112
945,1778602416.5237553,0.86242837,0.52637213,0.40288937,0.89201530,0.07223476,0.32009315
946,1778602416.5337965,0.85657440,0.52783567,0.42093918,0.96898425,0.01481347,0.21380267
947,1778602416.5438035,0.75510510,0.51807904,0.37215585,1.20111290,-0.15500695,-0.12950334
948,1778602416.5534408,0.75510510,0.51807904,0.37215585,1.20111290,-0.15500695,-0.12950334
949,1778602416.5635903,0.63363457,0.50198050,0.29263905,1.27686010,-0.10980295,-0.32986698
950,1778602416.5735066,0.63363457,0.50198050,0.29263905,1.27808190,-0.03283398,-0.37507100
951,1778602416.5835247,0.58924170,0.49271170,0.29117550,1.27930360,0.06368265,-0.41294459
952,1778602416.5934176,0.57314324,0.47124702,0.34971553,1.32817280,0.20051636,-0.47403106
953,1778602416.6035814,0.59119300,0.44831884,0.41508517,1.41613720,0.25305074,-0.52167850
954,1778602416.6134515,0.61168200,0.41660970,0.47850356,1.59817490,0.26282457,-0.59253883
955,1778602416.6238284,0.61168200,0.41660970,0.47850356,1.59817490,0.26282457,-0.59253883
956,1778602416.6334496,0.67558820,0.36392367,0.49899250,2.02211520,0.20051636,-0.74647677
957,1778602416.6434288,0.69656503,0.34928867,0.45801452,2.21270500,0.12721258,-0.84421515
958,1778602416.6534088,0.71851754,0.31904300,0.43459850,2.31288670,0.07345649,-0.90652335
959,1778602416.6638098,0.78778990,0.26050300,0.42923236,2.37641670,0.04535671,-0.96027940
960,1778602416.6738424,0.81608415,0.21903718,0.43801335,2.39474270,0.10399973,-0.98960096
961,1778602416.6833568,0.81608415,0.21903718,0.43801335,2.39596440,0.19074252,-0.99448790
962,1778602416.693585,0.88779570,0.17708350,0.49752906,2.40451650,0.40088000,-0.96760980
963,1778602416.7035205,0.88779570,0.17708350,0.49752906,2.40451650,0.40088000,-0.96760980
964,1778602416.7133389,0.93413990,0.18635234,0.50582220,2.38741230,0.56459177,-0.87720180
965,1778602416.7238858,0.97414220,0.18976717,0.51021266,2.36786460,0.61712617,-0.81000670
966,1778602416.733585,1.09024660,0.17269300,0.50631005,2.23347430,0.55726140,-0.58765190
967,1778602416.743883,1.09024660,0.17269300,0.50631005,2.23347430,0.55726140,-0.58765190
968,1778602416.7537897,1.25318290,0.14927700,0.49118720,1.83519050,-0.06948587,-0.33841908
969,1778602416.763584,1.29660010,0.14342300,0.47606438,1.59695330,-0.31138830,-0.27366742
970,1778602416.7736108,1.29660010,0.14342300,0.47606438,1.59695330,-0.31138830,-0.27366742
971,1778602416.7837572,1.29660010,0.14342300,0.47606438,1.59695330,-0.31138830,-0.27366742
972,1778602416.7937734,1.32196740,0.08439517,0.52533550,0.93233240,-0.26862780,-0.23579380
973,1778602416.8037229,1.28586770,0.05854000,0.52192070,0.79183346,-0.04138609,-0.25778493
974,1778602416.8137455,1.18732540,0.03317267,0.49948034,0.64033900,0.31291547,-0.25656322
975,1778602416.8237722,1.07902630,0.02731867,0.46581987,0.53771370,0.58780460,-0.21258095
976,1778602416.8337371,0.99463123,0.03561183,0.43264723,0.44852746,0.77595097,-0.13439025
977,1778602416.8437026,0.84242725,0.05902783,0.37459502,0.33735007,0.84436786,-0.00733038
978,1778602416.8535345,0.78144807,0.04536850,0.34873986,0.24816382,0.71852970,0.08307761
979,1778602416.8636494,0.73315257,0.03366050,0.30824968,0.17119485,0.51572260,0.14782928
980,1778602416.873509,0.73315257,0.03366050,0.30824968,0.17119485,0.51572260,0.14782928
981,1778602416.8833687,0.73315257,0.03366050,0.30824968,0.17119485,0.51572260,0.14782928
982,1778602416.8935976,0.64875740,0.02390383,0.25897855,0.03069595,0.04046979,0.24923283
983,1778602416.9035916,0.62143870,0.02390383,0.24239218,0.01114828,-0.03405571,0.24068072
984,1778602416.9137907,0.59265655,0.01463500,0.23019636,-0.00839939,-0.09025527,0.21502440
985,1778602416.9234943,0.56094736,0.00341483,0.20629252,-0.02306015,-0.10980295,0.19547673
986,1778602416.9336584,0.53948270,-0.00243917,0.19165753,-0.04138609,-0.11224640,0.18448116
987,1778602416.9436882,0.53948270,-0.00243917,0.19165753,-0.04138609,-0.11224640,0.18448116
988,1778602416.9537303,0.48484537,-0.00292700,0.12384869,-0.12935062,-0.10613775,0.16982041
989,1778602416.9637535,0.49899250,-0.00536617,0.09994486,-0.21242823,-0.09025527,0.15882485
990,1778602416.9736648,0.49899250,-0.00536617,0.09994486,-0.21242823,-0.09025527,0.15882485
991,1778602416.983676,0.53509220,-0.01219583,0.09165169,-0.36758790,-0.09758565,0.10018183
992,1778602416.9936972,0.59655917,-0.02780650,0.11799469,-0.46043932,-0.15500695,0.03543016
993,1778602417.0037944,0.60777940,-0.03366050,0.12189735,-0.52519100,-0.21120650,-0.03176497
994,1778602417.013392,0.60924286,-0.04146583,0.12092169,-0.57650363,-0.23930627,-0.07819069
995,1778602417.0234442,0.62046300,-0.04878334,0.11750685,-0.57650363,-0.23930627,-0.07819069
996,1778602417.0333734,0.62241435,-0.05171033,0.11555553,-0.69134620,-0.25641048,-0.12583815
997,1778602417.0435133,0.64192766,-0.04049017,0.12433653,-0.80008010,-0.23686282,-0.09285145
998,1778602417.0533113,0.69412583,-0.02390383,0.12677568,-0.89293160,-0.19898920,-0.02443459
999,1778602417.0634108,0.75608070,-0.00878100,0.12336086,-1.00044380,-0.16233732,0.05864302
1000,1778602417.0735986,0.75608070,-0.00878100,0.12336086,-1.00044380,-0.16233732,0.05864302
