id,timestamp,acc_x,acc_y,acc_z,gyro_x,gyro_y,gyro_z
1,1778604556.2467053,-0.03372148,-1.01908390,-0.01372031,0.05115993,-0.69638586,0.14798199
2,1778604556.2569442,-0.01713515,-1.05420790,-0.04786865,0.00839939,-0.76724620,0.25549420
3,1778604556.26707,0.01115919,-1.03957280,-0.04689298,0.01695150,-0.61819520,0.33979353
4,1778604556.277001,0.03359952,-1.00298540,-0.03079448,0.00106901,-0.53267410,0.38133234
5,1778604556.287032,0.09018819,-0.92834690,0.02579419,-0.06612612,-0.45203993,0.43508843
6,1778604556.2971208,0.12092169,-0.90249170,0.05457636,-0.11988221,-0.44226610,0.44364056
7,1778604556.3071365,0.16629020,-0.86200150,0.09653002,-0.19929464,-0.43982264,0.40332347
8,1778604556.3171978,0.19019403,-0.84590304,0.10921369,-0.18219042,-0.38973173,0.33001968
9,1778604556.3269672,0.20434119,-0.85175705,0.10238402,-0.08078687,-0.26878050,0.25427246
10,1778604556.3370786,0.20970736,-0.87614870,0.08530986,0.11346813,-0.06963859,0.17119485
11,1778604556.3470936,0.20970736,-0.89907690,0.07067485,0.26618433,0.07452551,0.13332124
12,1778604556.3568163,0.23312336,-0.95908040,0.02579419,0.38835728,0.18081598,0.11743876
13,1778604556.3669035,0.27312570,-1.02591350,-0.03469715,0.42012227,0.21746786,0.09178244
14,1778604556.3769805,0.30337137,-1.07030630,-0.10689648,0.41890052,0.28832817,0.01847866
15,1778604556.3870354,0.30971318,-1.09908850,-0.19714566,0.40790495,0.39461866,-0.05849030
16,1778604556.3970704,0.27800402,-1.08981970,-0.23422100,0.35781404,0.51190466,-0.15745040
17,1778604556.4071205,0.19458452,-1.03859720,-0.21909817,0.25885394,0.49968740,-0.23441936
18,1778604556.4171345,0.11311635,-0.99957050,-0.17860797,0.13179408,0.36163196,-0.27229297
19,1778604556.426999,0.05262502,-0.99957050,-0.13909347,0.01695150,0.18936808,-0.27717990
20,1778604556.4367895,0.03067252,-1.02103520,-0.12006798,-0.04657844,0.09162971,-0.27107126
21,1778604556.4472253,0.01457402,-1.06835500,-0.09713981,-0.09300416,0.06475167,-0.26129740
22,1778604556.4567635,0.01798886,-1.15957990,-0.07030898,-0.13087778,0.11728604,-0.24419320
23,1778604556.4670146,0.03847786,-1.21421720,-0.05372265,-0.18463388,0.22479823,-0.22831070
24,1778604556.4770367,0.05067369,-1.22934000,-0.03469715,-0.26526803,0.32620180,-0.20631959
25,1778604556.4875655,0.05067369,-1.22934000,-0.03469715,-0.26526803,0.32620180,-0.20631959
26,1778604556.4970264,0.06579652,-1.21129020,0.00189035,-0.37766716,0.40072730,-0.16111559
27,1778604556.506902,0.07408969,-1.13518810,0.01213485,-0.35567603,0.40439248,-0.14156792
28,1778604556.516864,0.08726119,-1.07957520,0.00189035,-0.25793764,0.37384924,-0.13545926
29,1778604556.5269985,0.09653002,-1.03420660,-0.03323365,-0.13087778,0.27366742,-0.14523310
30,1778604556.5369556,0.09506652,-0.99518000,-0.08543181,-0.06612612,0.13805544,-0.15745040
31,1778604556.5475514,0.09799352,-0.94444530,-0.14982581,-0.07834341,-0.02076940,-0.16111559
32,1778604556.556824,0.10628670,-0.86297720,-0.21812248,-0.21639885,-0.19303326,-0.15989386
33,1778604556.5668004,0.11262852,-0.76297134,-0.24153848,-0.51450086,-0.27977607,-0.15745040
34,1778604556.576771,0.10384752,-0.66394120,-0.20690231,-0.74907290,-0.26511532,-0.15256348
35,1778604556.5870872,0.08043153,-0.57710683,-0.12445848,-1.01541000,-0.21624613,-0.14156792
36,1778604556.597201,0.06384519,-0.52832350,-0.07226031,-1.13880470,-0.18936808,-0.13179408
37,1778604556.6071131,0.02433069,-0.44441620,0.03359952,-1.28663400,-0.16493349,-0.09514219
38,1778604556.617046,-0.00640281,-0.39026670,0.09506652,-1.31229030,-0.17715079,-0.05849030
39,1778604556.627071,-0.03128231,-0.36002100,0.16824152,-1.25975580,-0.21013749,0.00503963
40,1778604556.6371207,-0.04640514,-0.33465368,0.22629368,-1.11070490,-0.24801110,0.06856957
41,1778604556.6471758,-0.04347815,-0.30879852,0.24190436,-0.92988890,-0.26878050,0.10888664
42,1778604556.657177,-0.01079331,-0.28830950,0.22287886,-0.65499973,-0.28099780,0.14553854
43,1778604556.6672866,0.07213835,-0.34001982,0.15604569,-0.36056295,-0.20647229,0.15531237
44,1778604556.677217,0.17409553,-0.44587967,0.08140719,-0.14309508,-0.10140356,0.10155627
45,1778604556.6871653,0.28824854,-0.61759704,-0.04445382,0.04993819,0.07941242,-0.09025527
46,1778604556.6969051,0.33166570,-0.71857850,-0.13714215,0.11957678,0.24434592,-0.30527967
47,1778604556.706769,0.35800868,-0.91615105,-0.37032646,0.06337722,0.55222180,-0.64247704
48,1778604556.7171273,0.35605735,-1.01322980,-0.59277850,-0.05268709,0.70615970,-0.74388057
49,1778604556.727033,0.35898435,-1.08298990,-0.69912620,-0.36789330,1.01770070,-0.86727530
50,1778604556.7370589,0.35898435,-1.08298990,-0.69912620,-0.36789330,1.01770070,-0.86727530
51,1778604556.7473798,0.11409202,-1.04835380,-0.36300900,-1.28052530,2.28463440,-1.16659900
52,1778604556.7567303,0.11409202,-1.04835380,-0.36300900,-1.39536790,3.18993600,-1.11650810
53,1778604556.7670672,0.11409202,-1.04835380,-0.36300900,-1.39536790,3.18993600,-1.11650810
54,1778604556.7770555,-0.07567514,-1.10933290,0.08238286,-0.55970484,2.82708220,-0.37858346
55,1778604556.7869859,-0.06933331,-1.11665050,0.14628904,-0.27870706,1.85825060,-0.13057235
56,1778604556.797069,-0.06933331,-1.11665050,0.14628904,-0.27870706,1.85825060,-0.13057235
57,1778604556.8068328,0.21507353,-1.44593800,-0.23519666,-0.32635450,0.25778493,-0.16355905
58,1778604556.8171294,0.44679436,-1.69668440,-0.72546920,-0.63300860,0.27611090,-0.32360563
59,1778604556.8271484,0.52582335,-1.74644340,-0.72937185,-0.89568050,0.76724620,-0.43111783
60,1778604556.8371665,0.34825203,-1.43423010,-0.12592198,-0.95432353,1.11543900,-0.37614000
61,1778604556.8467376,0.14092286,-1.09908850,0.26385686,-0.88590664,0.76724620,-0.11224640
62,1778604556.8570719,0.14092286,-1.09908850,0.26385686,-0.88590664,0.76724620,-0.11224640
63,1778604556.8668985,0.26727170,-1.22690090,0.18921836,-0.63545210,-0.64507324,0.51083565
64,1778604556.8772025,0.45996585,-1.50935640,-0.06543065,-0.00870482,-0.37751442,0.63300860
65,1778604556.8869073,0.59655917,-1.81864260,-0.16202165,0.66813340,0.38117963,0.57314390
66,1778604556.8972278,0.54240966,-1.85132750,0.04433186,1.01388290,0.59376055,0.35811950
67,1778604556.9070518,0.39069352,-1.79961720,0.24434352,0.95035290,-0.21624613,0.13942988
68,1778604556.9172277,0.44094035,-2.10304950,-0.07713865,0.72311120,-0.69027720,0.09789108
69,1778604556.9271877,0.44094035,-2.10304950,-0.07713865,0.72311120,-0.69027720,0.09789108
70,1778604556.937136,0.56192300,-2.54405100,-0.09274931,0.88560120,0.61575170,0.27137667
71,1778604556.9470894,0.42240270,-2.37818770,0.10043269,1.17026420,0.45814860,0.52427470
72,1778604556.957104,0.27068650,-1.84059520,-0.15958248,1.26800250,-0.13561198,0.74662950
73,1778604556.9671414,0.23995303,-1.64643740,-0.43813533,1.19225540,-0.40072730,0.84558960
74,1778604556.9771445,0.18336436,-1.48789170,-0.66253865,0.89904020,-0.55710870,0.85902860
75,1778604556.9869742,0.12677568,-1.39422760,-0.65814817,0.57283840,-0.81611530,0.81993324
76,1778604556.9971008,0.12677568,-1.39422760,-0.65814817,0.57283840,-0.81611530,0.81993324
77,1778604557.0068245,-0.00786631,-1.20933890,-0.54594650,-0.01481347,-1.93033270,0.69165164
78,1778604557.0171418,-0.04103898,-1.11567490,-0.51374950,-0.12599087,-2.14291360,0.64644766
79,1778604557.0271616,-0.05079565,-1.02396230,-0.45472166,-0.17486005,-2.10870530,0.63667380
80,1778604557.0371277,-0.04689298,-0.87712437,-0.31910400,-0.20540328,-1.94743690,0.67088220
81,1778604557.0471,-0.00835415,-0.75175120,-0.18885247,-0.19685118,-1.81671190,0.72219490
82,1778604557.0570233,0.02140369,-0.57905820,-0.10982348,-0.13942988,-1.63467420,0.78816830
83,1778604557.0669956,-0.00981765,-0.39221802,-0.11226265,-0.10888664,-1.54182270,0.85047650
84,1778604557.0769832,0.03994136,-0.24538018,-0.10982348,-0.12843432,-1.41720630,0.91644990
85,1778604557.087443,0.08774903,-0.08244383,-0.16982698,-0.17363831,-1.11910430,0.97753640
86,1778604557.0968714,0.08872469,0.01073233,-0.20543882,-0.22739442,-0.75014200,1.00074920
87,1778604557.1071832,0.11360419,0.15513100,-0.20836583,-0.36056295,-0.10751220,1.02884900
88,1778604557.1172326,0.19068186,0.16391200,-0.11762882,-0.47051860,0.15760311,0.97997980
89,1778604557.127159,0.25849068,0.18635234,-0.08055348,-0.58291770,0.27122396,0.84070265
90,1778604557.137183,0.25166103,0.22293983,-0.03616065,-0.64278245,0.33597562,0.69287336
91,1778604557.1472015,0.20531686,0.24733151,-0.05567398,-0.68187780,0.41660980,0.54993100
92,1778604557.1569366,0.14775252,0.26733267,-0.03420931,-0.67210400,0.62308210,0.38133234
93,1778604557.1669133,0.10872585,0.26440567,-0.06152798,-0.66110843,0.75380710,0.30680683
94,1778604557.1770618,0.07506536,0.25269768,-0.14641099,-0.70020380,0.93951005,0.25305074
95,1778604557.1868067,0.07506536,0.25269768,-0.14641099,-0.70020380,0.93951005,0.25305074
96,1778604557.1971183,0.10726235,0.20001167,-0.20787798,-1.00074920,1.48928830,0.18341215
97,1778604557.2069535,0.18190086,0.14976484,-0.26251534,-1.24265170,1.84847680,0.07345649
98,1778604557.2171364,0.22434235,0.10049367,-0.07908998,-1.35749420,2.25164750,-0.10002911
99,1778604557.2269852,0.23312336,0.04195367,0.35996002,-1.07527470,2.13191820,-0.29184064
100,1778604557.2371137,0.21263437,-0.00097567,0.53362870,-0.66966050,1.57480940,-0.41523534
101,1778604557.246896,0.25897855,-0.04731983,0.31215236,-0.27382013,0.99570960,-0.52641270
102,1778604557.2569728,0.35752088,-0.12634884,-0.01323248,-0.01481347,0.90774506,-0.69012450
103,1778604557.2672126,0.41069470,-0.29221216,0.10921369,0.20143266,0.85032380,-1.07619110
104,1778604557.2772124,0.44484302,-0.44392833,0.06384519,0.43478300,0.57787806,-1.47080970
105,1778604557.2872295,0.52045720,-0.73028654,-0.08201698,0.64125530,0.44470957,-1.79823320
106,1778604557.2969143,0.55850820,-1.02688910,-0.53862900,0.70112010,0.63774280,-2.14398260
107,1778604557.307138,0.45996585,-1.42788820,-0.56302065,0.32360563,1.69576060,-2.65100050
108,1778604557.3169339,0.27800402,-1.65765770,-0.18885247,0.06459895,1.91078510,-2.78783420
109,1778604557.3268669,0.24727054,-1.74546780,-0.12006798,-0.06612612,1.87413310,-2.74873880
110,1778604557.336948,0.38093686,-3.57435500,-0.66302650,0.48487392,2.78798680,-2.02425310
111,1778604557.3473353,0.33947104,-4.16170640,-0.52887230,1.52212230,4.21374500,-1.45004020
112,1778604557.3567567,0.53509220,-4.41586730,-0.56448420,0.72677636,3.82645700,-0.53740830
113,1778604557.3671305,0.46923468,-3.96559740,-0.19568215,-0.05024363,2.09648800,-0.06582068
114,1778604557.3767638,0.20043853,-2.63381220,-0.04738082,-0.19929464,-0.32375833,0.32635450
115,1778604557.3867588,0.12677568,-1.86791380,-0.14787449,-0.35445428,-1.54793130,0.74907290
116,1778604557.3971767,0.20336552,-1.69961130,-0.19860914,-0.41065386,-1.89612420,1.02884900
117,1778604557.407108,0.34434935,-1.59667850,0.00823219,-0.31169376,-1.90345470,1.02396210
118,1778604557.416944,0.29800520,-1.58740970,0.11994602,-0.06734784,-1.88879400,0.82726365
119,1778604557.4269698,0.20531686,-1.71083150,0.14872819,0.23564109,-1.79105560,0.76251197
120,1778604557.4371498,0.10043269,-1.82937490,0.19116970,0.48365217,-1.60290920,0.84803300
121,1778604557.4470181,0.06872352,-1.82742370,0.16287535,0.72555465,-1.35489810,0.99097540
122,1778604557.456928,0.02823336,-1.74058930,0.10433535,0.94302250,-1.05068740,1.12170040
123,1778604557.4669695,0.00774435,-1.62155810,0.02725769,1.18981180,-0.54122620,1.36238120
124,1778604557.4769585,0.06726002,-1.51813730,-0.04542948,1.32420220,-0.13683371,1.54197540
125,1778604557.4867544,0.18580353,-1.43423010,-0.08787098,1.40117110,0.11850777,1.60917060
126,1778604557.4968755,0.32629952,-1.35178630,-0.14689882,1.45004020,0.29565856,1.60306190
127,1778604557.5068417,0.51996934,-1.24495070,-0.22739130,1.41705360,0.33964083,1.47233690
128,1778604557.5172064,0.51996934,-1.24495070,-0.22739130,1.41705360,0.33964083,1.47233690
129,1778604557.5270083,0.65168434,-0.99225300,-0.35861850,1.06519540,0.07330377,1.01907520
130,1778604557.5370305,0.65168434,-0.99225300,-0.35861850,1.06519540,0.07330377,1.01907520
131,1778604557.5470352,0.49167505,-0.70638270,-0.32934850,0.72677636,-0.37018406,0.58536120
132,1778604557.5570529,0.30532268,-0.51222503,-0.29666364,0.54351693,-0.64140800,0.37522370
133,1778604557.567148,0.18336436,-0.41417053,-0.22202514,0.40790495,-0.79901110,0.28115052
134,1778604557.5771775,0.07604102,-0.34343470,-0.19812131,0.32116216,-0.87353665,0.24572036
135,1778604557.5868378,-0.02884315,-0.24586800,-0.15909465,0.22953244,-0.84421515,0.27504188
136,1778604557.5971742,-0.10153031,-0.13952033,-0.17616881,0.21364996,-0.64751667,0.35323256
137,1778604557.6071942,-0.10153031,-0.13952033,-0.17616881,0.21364996,-0.64751667,0.35323256
138,1778604557.617123,-0.16933915,0.08634650,-0.31471348,0.24174973,0.13805544,0.56947870
139,1778604557.6268919,-0.15567982,0.15610667,-0.33471465,0.15867212,0.61452997,0.69653857
140,1778604557.6367912,-0.09616415,0.17757133,-0.25275865,0.04260782,0.90163640,0.74785120
141,1778604557.647121,-0.04835648,0.17805916,-0.16641214,-0.06490438,1.08245240,0.74907290
142,1778604557.6570919,0.00725652,0.16781467,-0.02884315,-0.21273366,1.16064310,0.67576915
143,1778604557.667127,0.02140369,0.15415533,0.02774552,-0.30191990,1.08367410,0.61712617
144,1778604557.6771436,0.03262385,0.13122717,0.06579652,-0.36300638,0.95661426,0.57314390
145,1778604557.68717,0.05652769,0.11512867,0.13506886,-0.40088000,0.76358100,0.52060950
146,1778604557.6971865,0.07408969,0.10537200,0.18385220,-0.40088000,0.47280934,0.44974920
147,1778604557.7067475,0.09848136,0.11073817,0.15653352,-0.35201082,-0.05864302,0.33124143
148,1778604557.716807,0.13848369,0.15269183,-0.06835765,-0.32024586,-0.45448340,0.22372922
149,1778604557.727198,0.21165870,0.20635350,-0.25958830,-0.31413722,-0.70860314,0.12232567
150,1778604557.737102,0.31166452,0.23806266,-0.52545744,-0.27992877,-0.85276720,-0.06337722
151,1778604557.7474647,0.37264370,0.22391550,-0.68400335,-0.33612835,-0.72326390,-0.24297146
152,1778604557.756866,0.38825434,0.08537084,-0.25666130,-0.34101525,-0.62186030,-0.49098256
153,1778604557.7671638,0.36630186,-0.04488067,-0.18592548,-0.23594652,-0.64751667,-0.74998920
154,1778604557.7772398,0.31946984,-0.19171850,-0.28154080,-0.25060728,-0.66095567,-0.99555690
155,1778604557.786954,0.21848835,-0.25757600,-0.35325232,-0.36544985,-0.60353440,-1.18614670
156,1778604557.7967708,0.12287302,-0.16927817,-0.00103665,-0.41065386,-0.53023064,-1.33519770
157,1778604557.8068168,0.09116385,-0.13171500,0.00335385,-0.38255405,-0.48747010,-1.51234850
158,1778604557.816818,0.07506536,-0.14195950,-0.04347815,-0.39599308,-0.35430157,-1.61863900
159,1778604557.827019,0.06726002,-0.23172083,-0.19714566,-0.43753190,0.22357652,-1.74203360
160,1778604557.8372464,-0.20056048,-1.06884290,-0.17812014,-0.55115277,1.05190920,-1.58687400
161,1778604557.8469858,-0.57424080,-2.02548400,-0.02981881,-0.61346096,1.50639260,-0.80985400
162,1778604557.8571754,-0.83474380,-3.74802350,0.23068418,-0.60246540,1.84603330,0.88957185
163,1778604557.8669903,-0.91767544,-4.78320600,0.42532970,-0.21517712,1.93521960,2.76248340
164,1778604557.8770545,-0.70107750,-5.05931950,0.66778284,0.50808680,1.22539470,4.11127300
165,1778604557.8872323,-0.28446782,-5.28079600,0.97170300,1.24234630,-0.43127054,4.48756550
166,1778604557.8970773,0.35410600,-4.90370040,1.27415970,1.83244160,-2.66214870,3.72031930
167,1778604557.907094,0.35410600,-4.90370040,1.27415970,1.83244160,-2.66214870,3.72031930
168,1778604557.9172864,0.58729035,-2.39574960,-3.17536830,2.94543720,1.31091580,1.34405520
169,1778604557.926919,0.23214770,-1.81864260,-0.69571130,1.39750590,3.83256550,0.70631240
170,1778604557.9369266,-0.02494048,-1.40203300,-0.18787682,0.29184064,2.15390920,0.38621926
171,1778604557.9467878,-0.16543648,-1.43423010,-0.17177832,0.18555018,-0.00366519,0.38377580
172,1778604557.9571393,-0.34788615,-1.66887780,-0.58936363,-0.12599087,-1.98164530,0.51572260
173,1778604557.9668596,-0.42203683,-1.62692420,-0.69961400,-0.72341660,-2.45567630,0.60735230
174,1778604557.9770687,-0.43423265,-1.58253130,-0.57228947,-1.16812620,-2.21499560,0.65866494
175,1778604557.9873362,-0.46447830,-1.50594150,-0.37959530,-1.26097760,-1.88757220,0.68920820
176,1778604557.9970095,-0.46984450,-1.44935290,-0.27080846,-1.16201760,-1.56014860,0.70142550
177,1778604558.0070138,-0.43130565,-1.34788360,-0.10543298,-0.96776253,-1.20829060,0.73563390
178,1778604558.0169756,-0.41813415,-1.24007240,-0.05323482,-0.89812390,-1.09711310,0.78939000
179,1778604558.027263,-0.37861964,-1.09128320,-0.02152565,-0.83337230,-1.01037040,0.90178910
180,1778604558.0371716,-0.37861964,-1.09128320,-0.02152565,-0.83337230,-1.01037040,0.90178910
181,1778604558.0467381,-0.32886064,-0.96590996,-0.02542831,-0.77717274,-0.90652335,1.01785340
182,1778604558.0568657,-0.22787915,-0.68003964,0.01945235,-0.52427470,-0.35552330,1.22676920
183,1778604558.0669425,-0.13665432,-0.41319484,0.06335735,-0.34834564,0.04886918,1.36482470
184,1778604558.0771499,-0.05469831,-0.21806150,0.06140602,-0.18707734,0.37140578,1.43935010
185,1778604558.0868888,0.01896452,-0.08683433,0.10092052,-0.10033454,0.48258317,1.49554970
186,1778604558.0969033,0.15311868,0.00780533,0.08970036,0.05849030,0.55710870,1.44301530
187,1778604558.10712,0.15311868,0.00780533,0.08970036,0.05849030,0.55710870,1.44301530
188,1778604558.1168883,0.34483720,0.26245433,-0.40398700,0.11224640,1.42087150,0.98486674
189,1778604558.1270037,0.35020337,0.30343235,-0.51277380,-0.11377356,1.97798010,0.79183346
190,1778604558.137124,0.47704002,0.30928633,-0.43862313,-0.45463613,2.31395580,0.50228360
191,1778604558.1469119,0.59607136,0.30343235,-0.29080966,-0.60368710,2.04273180,0.14676027
192,1778604558.156838,0.79949784,0.23562351,-0.03323365,-0.64644766,1.06779160,-0.49098256
193,1778604558.167212,0.71168786,0.18391317,0.06335735,-0.67699087,-0.02932151,-1.18614670
194,1778604558.1769435,0.47021037,0.15269183,0.11262852,-0.69165164,-0.82222400,-1.73103810
195,1778604558.187188,0.34630070,0.14000817,0.09360302,-0.66843880,-1.19607330,-1.98760130
196,1778604558.1968095,0.23995303,0.12342183,0.04286835,-0.63667380,-1.35978500,-2.13420900
197,1778604558.2071269,0.16141187,0.10098150,-0.01274465,-0.58658290,-1.29258990,-2.23194720
198,1778604558.2171655,0.12140953,0.05854000,0.08579769,-0.56825700,-1.20462540,-2.30158570
199,1778604558.2271771,0.09945703,0.02097683,0.15799703,-0.58413947,-1.31091580,-2.36755920
200,1778604558.2371428,0.13067836,-0.00536617,0.15019170,-0.59635675,-1.44652780,-2.43475440
201,1778604558.2468252,0.30873755,-0.11073817,0.06579652,-0.60002196,-1.51860990,-2.55326200
202,1778604558.256958,0.30873755,-0.11073817,0.06579652,-0.58780460,-1.47340580,-2.79149940
203,1778604558.2669678,0.30873755,-0.11073817,0.06579652,-0.58780460,-1.47340580,-2.79149940
204,1778604558.276769,0.40093803,-0.41173133,-0.78205780,-0.82848537,0.51556987,-3.47811130
205,1778604558.286962,0.33361703,-0.50783450,-0.52106696,-0.99219710,2.21499560,-3.82386100
206,1778604558.2970731,0.19946286,-0.73809180,-0.12836114,-0.93233240,2.82097360,-3.95825100
207,1778604558.3071127,0.07506536,-1.16543380,-0.31812832,-0.70997757,3.18138380,-3.82752600
208,1778604558.3170614,0.21604920,-2.22452000,-0.98548430,-0.27015495,4.67555900,-3.49399380
209,1778604558.3270032,0.18434003,-3.50557070,-0.92499300,0.47510007,7.04327100,-2.95154600
210,1778604558.337022,-0.01420815,-4.35830300,-0.33715382,0.69745487,7.31571670,-2.18918660
211,1778604558.3470356,-0.14738666,-4.56904700,-0.12689765,0.18677190,5.80810200,-1.28877200
212,1778604558.357117,-0.34398347,-3.81388100,0.20775603,-0.60246540,2.76721740,-0.43844820
213,1778604558.3667421,-0.43423265,-2.32111100,0.39166918,-0.55237450,0.58887360,0.22861615
214,1778604558.3768287,-0.43374482,-1.64009580,0.33898320,-0.52793986,-0.82711090,0.93966275
215,1778604558.3868446,-0.43472052,-1.16884860,0.26824737,-0.32391104,-1.43797560,1.48211060
216,1778604558.3969114,-0.31129867,-1.03713370,0.18970619,0.03283398,-1.57725290,2.00378920
217,1778604558.4069202,0.25751500,-1.33032160,0.19019403,0.47754353,-1.72386040,2.28967380
218,1778604558.4170392,0.52923816,-1.63765650,0.05945469,0.71700250,-1.83503780,1.95614170
219,1778604558.426815,0.84876900,-2.45185020,-0.26202747,0.71211565,-1.43675400,1.24509510
220,1778604558.4370286,0.85364735,-2.73576930,-0.04640514,0.51663890,-1.31702450,0.59146980
221,1778604558.447171,0.24775836,-2.36208900,-0.12884897,0.46166107,-1.28648130,0.40576693
222,1778604558.4569588,0.24775836,-2.36208900,-0.12884897,0.65347260,-0.75869405,0.65622150
223,1778604558.4668179,0.17263202,-1.85523010,-0.03177015,0.85627973,-0.48258317,1.35016390
224,1778604558.4768562,0.18092519,-1.65229150,-0.04933215,0.86361010,-0.56932600,1.59206630
225,1778604558.4868872,0.15165520,-1.44496240,-0.07567514,0.76831520,-0.79656770,1.76066500
226,1778604558.4969726,0.15165520,-1.44496240,-0.07567514,0.76831520,-0.79656770,1.76066500
227,1778604558.5068412,0.08140719,-1.13518810,-0.02640398,0.51175195,-1.41720630,1.91704640
228,1778604558.5173383,0.08189502,-1.00591240,-0.02445265,0.47143490,-1.64078280,1.91948990
229,1778604558.5268598,0.09409086,-0.90249170,-0.03664848,0.51541716,-1.67743470,1.84862960
230,1778604558.5368314,0.12482436,-0.76784970,-0.04591731,0.61559900,-1.56014860,1.73745210
231,1778604558.5470111,0.14336202,-0.72833520,-0.04981998,0.76465000,-1.32313310,1.56885350
232,1778604558.556898,0.24141651,-0.61564570,-0.07469948,0.93202690,-0.93462310,1.27075150
233,1778604558.5672128,0.26873520,-0.51905465,-0.11567748,1.01266110,-0.50213087,0.91767160
234,1778604558.5771177,0.26873520,-0.51905465,-0.11567748,0.97234404,-0.05497783,0.60124370
235,1778604558.5871224,0.14238635,-0.36441150,-0.19665782,0.85383624,0.30543238,0.42653632
236,1778604558.5971408,0.09018819,-0.30635932,-0.20690231,0.68523760,0.66950780,0.32513280
237,1778604558.6071525,-0.00298798,-0.17171735,-0.26300314,0.42134398,1.20829060,0.29703300
238,1778604558.616733,-0.03323365,-0.05902783,-0.35715497,0.20387612,1.83625950,0.34590217
239,1778604558.6271298,0.00140252,0.04439283,-0.45959997,0.08903354,2.47155880,0.37522370
240,1778604558.6368923,0.10287185,0.17366867,-0.53033584,0.06582068,3.34509560,0.34345870
241,1778604558.6472812,0.19653587,0.22489117,-0.46886880,0.11224640,3.71527960,0.26526803
242,1778604558.6568494,0.30239570,0.22733033,-0.37032646,0.18677190,3.74704460,0.02092212
243,1778604558.6667733,0.42142700,0.05317384,0.34288585,0.27717990,2.62427520,-0.39446592
244,1778604558.6768274,0.41557303,0.01317150,0.47850356,0.39446592,1.59313540,-0.72799810
245,1778604558.6868854,0.38288820,0.01268367,0.48191833,0.57528190,0.36651886,-1.16659900
246,1778604558.697097,0.37947336,0.01170800,0.39703536,0.68035066,-0.25534147,-1.43660130
247,1778604558.7069342,0.37508285,0.02975783,0.17848602,0.80374530,-1.12643470,-1.99126650
248,1778604558.717466,0.31605503,0.05561300,-0.00542715,0.79519325,-1.56503560,-2.40298940
249,1778604558.7270787,0.14287418,0.11708001,-0.41715845,0.63270320,-1.74218630,-2.61801360
250,1778604558.7367465,-0.00201231,0.16000934,-0.65180635,0.12324197,-1.54548790,-2.67665670
251,1778604558.74699,-0.05811315,0.16488767,-0.51862780,-0.28848088,-1.32557650,-2.61434860
252,1778604558.7570062,-0.03225798,0.12000700,-0.19421865,-0.50839220,-1.30725060,-2.52638400
253,1778604558.76698,0.06579652,0.06195483,-0.24641682,-0.57192210,-1.30236380,-2.45918900
254,1778604558.7771463,0.15799703,-0.16196068,-0.55765450,-0.57192210,-1.30236380,-2.45918900
255,1778604558.787169,0.18190086,-0.28196767,-0.40691397,-0.63300860,-0.73670290,-2.49095400
256,1778604558.797198,0.08872469,-0.17562000,0.04872235,-0.47907070,-0.58643020,-2.52516220
257,1778604558.8068867,0.02140369,-0.12098267,0.13019052,-0.20540328,-0.62796897,-2.48973200
258,1778604558.8171058,0.02920902,-0.12927583,0.18190086,-0.02214385,-0.75136370,-2.45185850
259,1778604558.8272803,0.02042802,-0.25464900,0.27605268,0.21364996,-0.98837924,-2.40421100
260,1778604558.8371992,-0.02933098,-0.76492270,0.30678620,0.34193155,-1.17286040,-2.21362110
261,1778604558.8467398,-0.08445615,-1.53667500,0.16775368,0.22953244,-1.40865420,-1.49035740
262,1778604558.8569596,-0.00298798,-3.24897000,-0.27666250,0.09880738,-0.45203993,-0.12935062
263,1778604558.8671336,0.19702369,-4.47391940,0.02725769,0.24174973,1.49173180,1.71423920
264,1778604558.8768413,0.48533320,-5.19347400,0.29800520,0.06948587,1.93399790,3.13511090
265,1778604558.8867552,0.48533320,-5.19347400,0.29800520,0.06948587,1.93399790,3.13511090
266,1778604558.8969247,0.89999160,-5.55886100,0.71071220,0.72799810,1.95354560,4.36050560
267,1778604558.906933,0.95023835,-3.99194000,0.80193704,1.80800700,0.85154550,3.58470730
268,1778604558.9168406,0.61802390,-2.52453760,-0.01079331,2.55081870,-0.39950556,2.69040130
269,1778604558.927013,0.56972840,-1.67131700,-2.40215230,2.43597600,1.62245690,2.23713950
270,1778604558.9369085,0.70144340,-1.66253600,-1.26891550,1.07619110,3.42939500,1.87795100
271,1778604558.9469223,0.60729150,-1.56253020,-0.29227313,-0.18463388,2.09404440,1.32206400
272,1778604558.9569979,0.35898435,-1.45618260,-0.14153264,-1.07893990,-0.56932600,0.49006626
273,1778604558.9669874,0.18092519,-1.43227860,-0.10640865,-1.07283130,-1.86069420,0.07223476
274,1778604558.9772232,0.03359952,-1.41227760,-0.13177599,-0.91400640,-2.68902680,-0.02183841
275,1778604558.9871964,-0.07567514,-1.32739450,-0.21324414,-0.84436786,-2.75377850,0.07223476
276,1778604558.996765,-0.10201815,-1.28690450,-0.24641682,-0.79305520,-2.39947680,0.19196425
277,1778604559.007173,-0.12494631,-1.15421370,-0.23519666,-0.74540776,-1.55404000,0.35201082
278,1778604559.017208,-0.15665549,-1.04249990,-0.14787449,-0.75029470,-0.95294905,0.50472700
279,1778604559.027304,-0.16933915,-0.95273846,-0.04884431,-0.77717274,-0.64262974,0.66110843
280,1778604559.037036,-0.15909465,-0.87078250,0.02140369,-0.82115495,-0.50335260,0.84436786
281,1778604559.0467494,-0.12104365,-0.76833750,0.09799352,-0.86147210,-0.48258317,1.06916610
282,1778604559.057188,-0.09713981,-0.61515784,0.18141302,-0.83459400,-0.58643020,1.27686010
283,1778604559.0669765,-0.10787215,-0.43953782,0.22239104,-0.72097313,-0.74036810,1.49310620
284,1778604559.0769298,-0.10055464,-0.31611600,0.21409786,-0.59269154,-0.86009760,1.67147870
285,1778604559.0870702,-0.03518498,-0.20879267,0.19507235,-0.39721483,-0.91018850,1.81686460
286,1778604559.0971162,0.09165169,-0.10049367,0.19263318,-0.18829907,-0.82344574,1.78143440
287,1778604559.1069605,0.09360302,0.04000233,0.11799469,0.09758565,-0.51434815,1.61405740
288,1778604559.1171646,0.06286953,0.11854350,-0.10689648,0.29428410,0.05986475,1.49677150
289,1778604559.1267707,0.05213719,0.17220518,-0.48301598,0.20265439,1.05435260,1.42591110
290,1778604559.1371667,0.08482202,0.18635234,-0.59863245,-0.12232567,1.97064970,1.37704190
291,1778604559.1468968,0.14141070,0.18244967,-0.54887350,-0.57314390,2.67925290,1.25853420
292,1778604559.1569548,0.24922185,0.13952033,-0.12201932,-1.16812620,2.77454780,0.87979800
293,1778604559.1669786,0.46484417,0.10439634,0.18385220,-1.38803740,2.26019980,0.45463613
294,1778604559.1771278,0.58826610,0.09171267,0.34825203,-1.38925920,1.41842810,-0.32238388
295,1778604559.186935,0.58826610,0.09171267,0.34825203,-1.38925920,1.41842810,-0.32238388
296,1778604559.1968358,0.59265655,0.09073700,0.30532268,-0.96165390,-0.17715079,-2.00104020
297,1778604559.2068608,0.45264837,0.10342067,0.15409435,-0.81871150,-0.59986920,-2.49217560
298,1778604559.2169528,0.33800754,0.12195834,0.03652652,-0.74540776,-0.87475836,-2.83548160
299,1778604559.226806,0.24385570,0.19952384,-0.22446433,-0.82848537,-0.99082270,-3.07616230
300,1778604559.237106,0.20873170,0.33904418,-0.61229180,-1.19744770,-0.66095567,-3.14457920
301,1778604559.2472026,0.14921603,0.44148916,-0.84450054,-1.68736120,0.02809978,-3.04317570
302,1778604559.2568595,0.05652769,0.20635350,-0.49374834,-1.98301980,0.81489360,-2.69009570
303,1778604559.2670329,0.02042802,-0.18391317,-0.40203565,-1.85473820,1.47340580,-2.24905130
304,1778604559.2771962,0.00872002,-0.25172200,0.11311635,-1.07405300,1.77517310,-1.90452360
305,1778604559.2872124,0.02872119,-0.20586567,0.31556720,-0.31291547,1.68843030,-1.75180750
306,1778604559.2971215,0.02969686,-0.18293750,0.29751736,0.17577635,1.50150560,-1.67117330
307,1778604559.3068132,0.04579536,-0.24098967,0.33703187,0.68768100,1.43675400,-1.63696490
308,1778604559.3168433,0.18580353,-0.42636633,-0.11958014,1.21302470,1.81671190,-1.68583400
309,1778604559.3270633,0.49704117,-0.99664350,-2.32312320,1.47936180,4.99443050,-2.06334850
310,1778604559.337066,0.54143405,-1.19470380,0.05652769,1.43049260,6.78915100,-2.50439290
311,1778604559.3471267,0.66339236,-2.54941700,0.85657440,1.35596700,5.47823520,-2.46651940
312,1778604559.3567743,0.85657440,-4.68320040,0.97804487,0.21853687,1.91078510,-1.82511130
313,1778604559.3670828,0.95609240,-6.18816570,-0.22056165,-0.55848310,0.44348782,-0.95890500
314,1778604559.377167,1.00682710,-7.48141200,-0.20739016,1.19714220,3.05065870,0.16508621
315,1778604559.386948,0.43654984,-4.63197760,0.04189269,1.07374750,1.17041700,1.19378240
316,1778604559.3969705,0.13409320,-2.70406030,-0.21909817,0.31138830,-0.82833266,2.08075800
317,1778604559.4070332,0.10921369,-1.48984300,0.02823336,-0.08078687,-2.73300900,2.90053870
318,1778604559.4170794,0.24336785,-1.13518810,0.07262619,-0.00870482,-3.66396700,3.07646780
319,1778604559.4271443,0.45313620,-1.05176870,0.06872352,0.19410229,-3.94007780,2.84189560
320,1778604559.4368598,0.71217570,-1.13957860,-0.02298915,0.38469210,-3.70672750,2.33365600
321,1778604559.4467843,0.73900650,-1.30202720,-0.11226265,0.45066550,-3.24002670,1.65559630
322,1778604559.4570973,0.52923816,-1.51618610,-0.09372498,0.40057456,-2.50821100,0.90423256
323,1778604559.4668458,0.30776188,-1.68643990,-0.03859982,0.32727080,-1.80693800,0.61956960
324,1778604559.4768646,0.16629020,-1.75912690,-0.04103898,0.34681848,-1.27182040,0.67454743
325,1778604559.4868991,0.02823336,-1.64790120,-0.00006098,0.57528190,-0.60353440,0.92255855
326,1778604559.4969249,-0.03372148,-1.45081630,0.05847902,0.80374530,-0.32620180,1.10581790
327,1778604559.5071573,-0.09323715,-1.24348720,0.03018469,0.94180080,-0.35063640,1.35016390
328,1778604559.5172794,-0.12836114,-1.07176980,-0.04933215,0.93202690,-0.44226610,1.57129690
329,1778604559.5272534,-0.13616648,-0.97273970,-0.12397064,0.84894930,-0.40072730,1.76188670
330,1778604559.5368156,-0.06640632,-0.87712437,-0.19714566,0.77320210,-0.25411975,1.84496440
331,1778604559.5470767,0.02920902,-0.80590070,-0.20202398,0.70234180,-0.06841686,1.82297330
332,1778604559.557131,0.16385102,-0.71906640,-0.16885132,0.61804247,0.16493349,1.59817490
333,1778604559.5671499,0.25849068,-0.60979170,-0.11714099,0.58505577,0.27366742,1.35505080
334,1778604559.576778,0.26971084,-0.50393180,-0.11177482,0.54229520,0.35063640,1.03373590
335,1778604559.5869687,0.24434352,-0.37416816,-0.16738781,0.47143490,0.49113527,0.76373370
336,1778604559.5968583,0.19946286,-0.27367450,-0.23129399,0.40301803,0.70982486,0.61712617
337,1778604559.6068645,0.12970269,-0.10195717,-0.41374367,0.29306240,1.14598240,0.49128800
338,1778604559.617211,0.10921369,-0.02146467,-0.38593715,0.14645483,1.59924400,0.40943210
339,1778604559.6270359,0.11214069,0.03756317,-0.23275748,0.05604684,1.72874740,0.34101525
340,1778604559.6368432,0.12970269,0.05658867,-0.10640865,0.05604684,1.72874740,0.34101525
341,1778604559.6472073,0.16824152,0.07854117,-0.03274581,0.02794706,1.32435490,0.10399973
342,1778604559.6571198,0.22873287,0.09512750,0.03750219,0.09392046,1.01525720,-0.09758565
343,1778604559.6667738,0.24336785,0.11415300,0.01262269,0.09392046,1.01525720,-0.09758565
344,1778604559.6768203,0.26288120,0.12927583,-0.01372031,0.17455462,0.58887360,-0.57161670
345,1778604559.6869302,0.30190787,0.11073817,0.01115919,0.16478078,0.38851000,-0.88682294
346,1778604559.6969423,0.31459153,0.08976133,0.07116269,0.15745040,0.23701553,-1.10184730
347,1778604559.7069006,0.29215118,0.06829667,0.14043503,0.17699806,-0.21380267,-1.55633080
348,1778604559.7167711,0.28873634,0.06146700,0.08238286,0.19410229,-0.58765190,-1.91918440
349,1778604559.7270687,0.27897970,0.06732100,-0.04591731,0.17211115,-0.80023290,-2.20873430
350,1778604559.7371593,0.20580468,0.11659218,-0.41276798,0.01572977,-0.77091134,-2.52027540
351,1778604559.7471251,0.14043503,0.16927817,-0.69717485,-0.29703300,-0.43127054,-2.67054820
352,1778604559.7569692,0.12336086,0.16293633,-0.69083300,-0.84436786,0.21868959,-2.76095600
353,1778604559.766815,0.12336086,0.16293633,-0.69083300,-0.84436786,0.21868959,-2.76095600
354,1778604559.776991,0.13848369,-0.17025384,-0.43520832,-1.01052310,0.53633930,-2.74140830
355,1778604559.786784,0.10970152,-0.32636052,-0.13421515,-0.64644766,0.28954992,-2.64611340
356,1778604559.796848,0.05847902,-0.23367217,0.22775720,-0.30191990,0.16249003,-2.61068340
357,1778604559.8068554,-0.02347698,-0.12439750,0.26824737,0.15256348,-0.03420843,-2.55448400
358,1778604559.8171532,-0.01420815,-0.14342300,0.30532268,0.31505352,-0.20280711,-2.53127100
359,1778604559.8272018,-0.00054881,-0.28294334,0.43313503,0.60460340,-0.82344574,-2.52394060
360,1778604559.8368168,-0.04152681,-1.02152300,0.46923468,0.62903804,-1.36955880,-2.31869000
361,1778604559.8473744,-0.08396832,-1.63619300,0.36971670,0.34315330,-2.09160100,-1.77502040
362,1778604559.8568454,-0.15519199,-2.76796630,0.18629137,-0.17486005,-2.37259900,-0.75854135
363,1778604559.8671634,-0.09372498,-4.17390200,0.21409786,-0.96043220,-1.93766310,1.64826580
364,1778604559.8770244,0.20482900,-5.35933730,-0.03762415,-0.38255405,-0.07208204,3.63235470
365,1778604559.887032,0.55070287,-6.19645900,0.35410600,1.52334400,2.87595130,4.41914840
366,1778604559.897181,0.77608186,-5.30616330,0.58241206,2.08900480,2.96147250,4.67326830
367,1778604559.9067855,0.88242954,-3.62850450,0.71217570,2.23439070,1.25471630,4.04896450
368,1778604559.917082,0.93170070,-2.16646770,-0.56058150,2.93322000,0.63774280,3.04103760
369,1778604559.9267886,1.29074600,-1.60887430,-2.64216640,2.74018670,3.08364530,2.65252760
370,1778604559.9369013,1.29074600,-1.60887430,-2.64216640,2.74018670,3.08364530,2.65252760
371,1778604559.9469218,1.23366950,-1.38739800,-0.20299964,-0.28603745,0.51190466,0.82848537
372,1778604559.957039,0.79608303,-1.60204470,-0.49179700,-0.91278470,-2.32372950,0.31169376
373,1778604559.9667444,0.47264950,-1.86010850,-0.47179583,-1.07160950,-3.14839700,0.07223476
374,1778604559.9769912,0.22775720,-1.82742370,-0.30934730,-1.05694880,-3.07509330,-0.04382955
375,1778604559.987046,-0.02396481,-1.68058590,-0.25714916,-0.99708400,-2.81608650,-0.10247257
376,1778604559.9970222,-0.13275166,-1.57228700,-0.24592897,-0.96043220,-2.57784940,-0.06337722
377,1778604560.007034,-0.26105180,-1.33276070,-0.19665782,-0.91278470,-1.97920190,0.15531237
378,1778604560.0173016,-0.29568797,-1.17909320,-0.15080148,-0.96531910,-1.61512650,0.42409286
379,1778604560.027254,-0.34544697,-1.02884050,-0.11421398,-1.02396210,-1.38544130,0.67576915
380,1778604560.0372033,-0.36349680,-0.88395400,-0.01469598,-1.07283130,-1.14353880,1.07283130
381,1778604560.047085,-0.33422682,-0.76345920,0.04921019,-1.06916610,-0.98227054,1.40636350
382,1778604560.0571897,-0.27373550,-0.65711150,0.11897036,-0.94821480,-0.79656770,1.73256530
383,1778604560.0672011,-0.21470766,-0.42636633,0.21653701,-0.73074700,-0.56321734,2.00867600
384,1778604560.0771027,-0.18592548,-0.25952733,0.28776067,-0.48395762,-0.36407542,2.18216180
385,1778604560.0869071,-0.13080032,-0.08146816,0.39166918,-0.15164718,-0.29199335,2.34098650
386,1778604560.096985,-0.06543065,0.01073233,0.43801335,0.12690715,-0.38117963,2.36908630
387,1778604560.1071255,0.02481852,0.07658983,0.38044903,0.46410450,-0.76113750,2.22736570
388,1778604560.1171796,0.05896685,0.16391200,-0.22983049,0.53740830,-0.83321960,2.08564500
389,1778604560.127255,0.09457869,0.27269882,-0.80059550,-0.05879574,0.53267410,1.96102870
390,1778604560.1370058,0.15116736,0.21659799,-0.40593830,-0.64278245,1.21806440,1.78387780
391,1778604560.1468923,0.21751268,0.17903483,-0.16738781,-1.17912170,1.29014650,1.55419270
392,1778604560.1569684,0.39996237,0.14586218,0.05896685,-1.49554970,0.78435040,1.13758290
393,1778604560.1669233,0.61802390,0.14976484,0.19702369,-1.58351420,0.20158538,0.62201303
394,1778604560.1769729,0.78535074,0.18879150,0.34532502,-1.28907740,-0.61452997,-0.24174973
395,1778604560.1869943,0.78583854,0.18196183,0.36386270,-0.84192437,-1.25715970,-0.98089610
396,1778604560.1967816,0.69851637,0.15366750,0.16580236,-0.45585784,-1.74340810,-1.66995160
397,1778604560.2068453,0.52826256,0.19123067,-0.51911570,-0.35689774,-1.74951670,-2.50317120
398,1778604560.216752,0.48289403,0.17171735,-0.45911217,-0.77717274,-0.75502884,-2.98575430
399,1778604560.2271821,0.47606438,0.07073583,0.02237935,-0.90178910,-0.46181378,-3.44878980
400,1778604560.2368805,0.47606438,0.07073583,0.02237935,-0.90178910,-0.46181378,-3.44878980
401,1778604560.2471511,0.15799703,0.02683084,0.12238518,-0.83581570,-0.62430380,-3.92526440
402,1778604560.2571013,0.00042685,0.02927000,0.09409086,-0.80649424,-0.60964304,-3.88494730
403,1778604560.2671015,-0.07762648,-0.01707417,0.02579419,-0.82115495,-0.58765190,-3.68336200
404,1778604560.277002,-0.03469715,-0.11805566,-0.23714797,-0.84681130,-0.23090689,-3.40725110
405,1778604560.2870076,0.00725652,-0.27904066,-0.53423850,-0.84314610,0.95661426,-3.30584740
406,1778604560.297052,0.02140369,-0.34782517,-0.69278430,-0.74540776,1.92055880,-3.32661680
407,1778604560.3070405,0.11848252,-0.58832700,-1.05329320,-0.50228360,4.49352100,-3.52087190
408,1778604560.3169055,-0.03323365,-0.30879852,0.27605268,0.14401138,5.93760600,-3.69069220
409,1778604560.3270674,-0.06884548,-0.23708700,0.47411305,0.76342830,5.73968550,-3.70046620
410,1778604560.3371198,-0.00981765,-0.66150200,0.52582335,1.12750360,5.10927300,-3.65159700
411,1778604560.3471851,0.24775836,-1.92791740,0.67363685,1.15682520,3.31210880,-3.18245270
412,1778604560.3571286,0.87950253,-4.81052500,0.41215820,0.37614000,0.34452772,-1.83855030
413,1778604560.3671522,1.64149820,-7.64044570,-2.43142250,0.48120874,1.16308650,-0.66935510
414,1778604560.3771014,1.51417370,-6.98382230,0.15848486,0.52641270,2.32372950,1.04839670
415,1778604560.3871932,0.88291740,-5.23981760,0.87950253,-0.29214610,-1.91811540,1.98668500
416,1778604560.3967297,0.25995418,-3.34214640,0.42679320,0.03527744,-3.14228840,2.51202870
417,1778604560.4068394,0.05018586,-2.03426500,0.15555786,0.61437726,-3.28645250,3.15099330
418,1778604560.4171681,0.05408852,-1.49667260,0.01847669,0.91003580,-3.11052350,3.53461620
419,1778604560.4269152,0.17848602,-1.17616620,0.07116269,1.20691610,-2.63527060,3.74475380
420,1778604560.4369016,0.40288937,-1.11713830,0.05994253,1.42682740,-2.21866080,3.63968520
421,1778604560.4469473,0.59119300,-1.16640950,-0.05664965,1.45004020,-1.84969850,3.32325720
422,1778604560.456971,0.81608415,-1.25958560,-0.11958014,1.26067220,-1.37200220,2.68551420
423,1778604560.4667287,0.90438205,-1.28397740,-0.04396598,0.93447040,-1.13376500,1.86939900
424,1778604560.4768617,0.80437620,-1.16933640,-0.02835531,0.57039500,-1.26082490,1.29152080
425,1778604560.48688,0.73607950,-1.05664700,-0.09128582,0.38102690,-1.18874290,1.06427920
426,1778604560.4969292,0.70339470,-0.96786135,-0.06494281,0.40546150,-0.74158984,0.94088450
427,1778604560.5069258,0.66875860,-0.93224955,0.05408852,0.68890274,-0.14294235,0.74174255
428,1778604560.517032,0.50289520,-0.86980680,0.02676985,1.05419990,0.19058982,0.39965830
429,1778604560.5270858,0.50289520,-0.86980680,0.02676985,1.05419990,0.19058982,0.39965830
430,1778604560.537088,0.21556135,-0.67174655,-0.27519900,1.18003810,0.91141030,0.13942988
431,1778604560.5471034,0.12043386,-0.56783800,-0.37618050,1.00166550,1.28159430,0.15286891
432,1778604560.5571363,-0.00298798,-0.42392716,-0.49374834,0.61315554,1.71653010,0.25182900
433,1778604560.5669837,-0.08787098,-0.30538365,-0.47521064,0.13912445,2.05983610,0.40210176
434,1778604560.5767777,-0.08787098,-0.30538365,-0.47521064,-0.27626360,2.27486040,0.54504410
435,1778604560.5870109,-0.12787332,-0.11708001,-0.35764283,-0.46196648,2.40558550,0.62323480
436,1778604560.59716,-0.09421282,-0.07219934,-0.24056281,-0.49739665,2.46667200,0.64889110
437,1778604560.6071997,-0.03323365,-0.01804983,-0.06640632,-0.41065386,2.31517740,0.61590440
438,1778604560.6170824,0.04579536,0.00634183,0.02433069,-0.32146758,1.98286710,0.54870930
439,1778604560.627151,0.07994369,0.00390267,0.10092052,-0.26282457,1.52838370,0.43631017
440,1778604560.636837,0.10579886,-0.00000000,0.18092519,-0.22128576,1.13620850,0.32879797
441,1778604560.647084,0.11506769,0.00829317,0.18873052,-0.16264275,0.77702000,0.20784675
442,1778604560.6569834,0.08433419,0.02292817,0.18092519,-0.07834341,0.39950556,0.06368265
443,1778604560.666847,0.07555319,0.04097800,0.15165520,0.01206458,0.09407318,-0.04260782
444,1778604560.6769083,0.13067836,0.04000233,0.11311635,0.09025527,-0.21135922,-0.16844596
445,1778604560.6870532,0.21702486,0.05268600,-0.00298798,0.11468986,-0.44470957,-0.33093598
446,1778604560.697074,0.28239453,0.07463850,-0.12982465,0.04382955,-0.62674725,-0.57894707
447,1778604560.707128,0.31068885,0.11268950,-0.31764048,-0.22739442,-0.79290247,-1.04931300
448,1778604560.7172093,0.31068885,0.11268950,-0.31764048,-0.22739442,-0.79290247,-1.04931300
449,1778604560.7268324,0.17848602,0.15757017,-0.48301598,-1.10093100,-0.68416860,-1.59420430
450,1778604560.7369967,0.14677685,0.14683785,-0.37569264,-1.39170270,-0.62186030,-1.74081200
451,1778604560.7469451,0.13458103,0.13366634,-0.26495448,-1.59450980,-0.60109097,-1.89108470
452,1778604560.7570643,0.15311868,0.09854234,-0.15909465,-1.62016610,-0.60353440,-2.02425310
453,1778604560.7667997,0.18531570,-0.03219700,-0.25763696,-1.54319720,-0.52534370,-2.14886950
454,1778604560.777007,0.15897270,-0.28147984,-0.39179114,-1.45767600,-0.35307986,-2.22583840
455,1778604560.7867935,0.07213835,-0.26879618,-0.10494515,-1.15102200,-0.05864302,-2.29059030
456,1778604560.7972114,0.01359835,-0.20147517,0.00628085,-0.81015940,0.17104214,-2.29792050
457,1778604560.807203,-0.02445265,-0.18586451,0.07896802,-0.30558512,0.52412200,-2.28203820
458,1778604560.816888,-0.02445265,-0.18586451,0.07896802,-0.30558512,0.52412200,-2.28203820
459,1778604560.8271494,-0.00152448,-0.19171850,0.26971084,0.64736396,1.36467200,-2.24782970
460,1778604560.8367565,-0.05177132,-0.74150670,0.40971902,0.86238840,1.07390020,-2.12932180
461,1778604560.8470774,0.05311285,-1.87620700,0.49069935,0.93447040,0.21502440,-1.61986060
462,1778604560.8570263,0.56436217,-4.28415250,0.62924400,0.43966994,-1.23028170,-0.12935062
463,1778604560.8667688,1.12683400,-6.40817900,0.55021500,0.11591160,-1.62245690,1.73134350
464,1778604560.8768182,1.70491650,-7.29896200,0.45167267,1.53311790,0.70249450,2.75148770
465,1778604560.8870382,2.06688880,-7.26432660,0.83559750,2.55448400,1.95232380,2.63053660
466,1778604560.896914,1.86297460,-6.21548460,0.72778636,2.78661250,1.41720630,2.02089330
467,1778604560.9069302,0.55265420,-3.04798270,-0.40935317,3.25086980,1.83870300,1.83763400
468,1778604560.9170423,0.02920902,-1.64790120,-2.59679800,3.29363010,5.35484080,2.27623490
469,1778604560.9272156,0.03555085,-1.22885220,-2.77339340,1.72859470,8.40672100,2.75270940
470,1778604560.9369743,0.44679436,-1.13079760,-0.54058030,-0.22617269,5.96937100,2.55478930
471,1778604560.946993,0.44679436,-1.13079760,-0.54058030,-0.22617269,5.96937100,2.55478930
472,1778604560.957,0.20434119,-1.20104580,0.39362052,-0.89079356,-4.53261660,1.18278700
473,1778604560.967188,-0.04396598,-1.18982550,0.02676985,-1.08627030,-6.32611560,0.80649424
474,1778604560.9771004,-0.17031482,-1.11713830,-0.26202747,-1.18889560,-6.37742850,0.81748980
475,1778604560.9868317,-0.17031482,-1.11713830,-0.26202747,-1.18889560,-6.37742850,0.81748980
476,1778604560.9971228,-0.12006798,-1.00640020,-0.41569500,-0.77595097,-3.45993800,1.27808190
477,1778604561.0067823,0.04872235,-1.00640020,-0.05908882,-0.61834790,-2.27608230,1.41735900
478,1778604561.0168521,0.07262619,-0.87858784,0.11457986,-0.52427470,-1.83992470,1.54441890
479,1778604561.0268853,0.10189619,-0.73223790,0.17555903,-0.42775807,-1.76906440,1.67025700
480,1778604561.036888,0.14043503,-0.60003500,0.21214652,-0.30802858,-1.77883830,1.75944330
481,1778604561.0469089,0.13897152,-0.49027252,0.18970619,-0.12965605,-1.74462990,1.81808630
482,1778604561.0569339,0.22922069,-0.28782168,0.10775018,0.14523310,-1.45874510,1.81930800
483,1778604561.067389,0.33800754,-0.15854584,-0.00250015,0.46532625,-0.73425950,1.61650100
484,1778604561.0770957,0.44337955,-0.02829433,-0.27471116,0.57161670,0.05131264,1.34405520
485,1778604561.0869012,0.44337955,-0.02829433,-0.27471116,0.57161670,0.05131264,1.34405520
486,1778604561.0969393,0.42776886,0.08049250,-0.54301953,0.25274530,1.90589810,0.83703744
487,1778604561.1069555,0.72876203,0.08098034,-0.12494631,-0.28970262,2.94681170,-0.03405571
488,1778604561.1171439,0.80144920,0.08927350,0.12287302,-0.39110620,2.97002460,-0.98089610
489,1778604561.1270545,0.67412466,0.09366400,0.19214535,-0.37033677,2.65115300,-1.72248600
490,1778604561.1373062,0.45850238,0.10293283,0.11360419,-0.33124143,2.15879600,-2.42742400
491,1778604561.1471233,0.29507820,0.13317850,-0.16202165,-0.38499752,1.88635040,-2.79516460
492,1778604561.157091,0.15214302,0.14732568,-0.20885365,-0.64766940,1.75073850,-3.05661460
493,1778604561.1671057,0.05750336,0.12098267,0.03311169,-0.79427695,1.34756770,-3.18978300
494,1778604561.1772904,0.00481735,0.10049367,0.12677568,-0.78450310,0.72815084,-3.21299600
495,1778604561.1871915,0.00481735,0.10049367,0.12677568,-0.78450310,0.72815084,-3.21299600
496,1778604561.1971643,-0.12397064,0.15903367,0.10384752,-0.73929910,-0.32375833,-3.05294940
497,1778604561.2069833,-0.16836348,0.31416467,0.17702252,-0.74785120,-1.01403560,-2.83425970
498,1778604561.2170033,-0.16885132,0.47075918,0.22970851,-0.68065610,-1.82159880,-2.50072770
499,1778604561.2271795,-0.20641449,0.52929920,0.24727054,-0.57925254,-2.61938800,-2.09267000
500,1778604561.2370563,-0.25763696,0.52686000,0.25361237,-0.39965830,-3.23636150,-1.57099150
501,1778604561.2469141,-0.25763696,0.52686000,0.25361237,-0.39965830,-3.23636150,-1.57099150
502,1778604561.2570014,-0.01372031,0.15366750,0.13214186,0.17211115,-3.61021100,-0.96257020
503,1778604561.267001,0.04774669,0.03512400,0.05018586,0.37369654,-3.54423740,-0.95279634
504,1778604561.2767344,0.04774669,0.03512400,0.05018586,0.37369654,-3.54423740,-0.95279634
505,1778604561.2870848,0.54972720,-0.60247420,-2.37727280,-0.46440995,1.97309330,-1.57710020
506,1778604561.2975807,0.26385686,-0.29904184,-0.11128698,-0.66110843,3.75315330,-1.87764560
507,1778604561.306733,0.38825434,-0.33123884,0.25702720,-0.43142325,3.32310440,-2.17452600
508,1778604561.3167691,0.38825434,-0.33123884,0.25702720,-0.43142325,3.32310440,-2.17452600
509,1778604561.3269157,0.50435870,-0.57857037,0.82828003,0.20143266,1.50394900,-2.42131520
510,1778604561.3371506,0.90828470,-2.00158020,0.78144807,0.69623315,0.08796453,-1.85931970
511,1778604561.3467853,1.56149350,-3.35629340,0.59265655,0.51541716,-1.09222630,-1.06275200
512,1778604561.3568175,2.57179640,-5.41690160,0.61216986,0.11713332,-1.83137260,0.21639885
513,1778604561.3670087,3.21768760,-6.98089500,-0.28739482,1.38895380,1.58947010,0.93966275
514,1778604561.3768663,2.50203630,-6.38378700,0.41020685,2.44941500,4.44953900,1.17179130
515,1778604561.3867447,1.21318050,-4.45196700,0.16629020,1.99370990,3.58577630,1.62871830
516,1778604561.3970492,0.31703070,-3.15628170,-1.10988190,1.32664560,3.72871850,2.17605300
517,1778604561.4071076,-0.43032995,-1.68790330,-1.64113220,-0.44608400,4.39333960,3.04836800
518,1778604561.416767,-0.04640514,-1.48154990,0.38288820,-1.15224370,1.77761650,3.39045210
519,1778604561.4272501,0.20190202,-1.36203070,0.78778990,-0.68187780,-1.13132150,3.24995330
520,1778604561.437131,0.30727400,-1.33032160,0.81023020,-0.19685118,-3.13862320,2.98117280
521,1778604561.4469256,0.30727400,-1.33032160,0.81023020,-0.19685118,-3.13862320,2.98117280
522,1778604561.4571283,0.32629952,-1.22836430,0.50045604,0.73044160,-5.67982050,2.30311300
523,1778604561.4667647,0.25458800,-1.09908850,0.15507002,1.17270770,-5.85086300,1.98301980
524,1778604561.476895,0.21556135,-0.99615570,-0.10055464,1.48302700,-5.27054100,1.84129920
525,1778604561.4870305,0.26922303,-0.84102464,-0.50399286,1.80312010,-3.63098030,1.75455640
526,1778604561.4969034,0.36581403,-0.78394820,-0.64009830,1.78845930,-2.01341030,1.64948760
527,1778604561.5069282,0.46338070,-0.70687050,-0.44252580,1.42071880,-0.53756100,1.38925920
528,1778604561.5171955,0.39069352,-0.63711035,-0.20690231,0.96623534,-0.01343903,1.09115720
529,1778604561.527126,0.32434818,-0.57076500,-0.09860332,0.55695593,-0.01343903,0.84070265
530,1778604561.5369928,0.22580586,-0.49124816,-0.06347931,0.27595815,-0.13683371,0.70020380
531,1778604561.5470026,0.13604453,-0.40538952,-0.05567398,0.03283398,-0.23579380,0.63423040
532,1778604561.5574582,-0.00006098,-0.26684484,-0.13811780,-0.23472479,-0.22724170,0.64522594
533,1778604561.5667634,-0.08348048,-0.16049717,-0.22690348,-0.49495320,0.05009091,0.75029470
534,1778604561.5769124,-0.10982348,-0.07854117,-0.23617230,-0.73074700,0.48136145,0.89812390
535,1778604561.5868134,-0.10738432,-0.04146583,-0.20934150,-0.86513720,0.84177166,1.00441440
536,1778604561.5971267,-0.08835881,0.00829317,-0.16299730,-0.95188004,1.19973840,1.08382680
537,1778604561.6069102,-0.06640632,0.03658750,-0.10787215,-1.00197100,1.57236600,1.13025260
538,1778604561.616937,-0.06250364,0.04000233,-0.05957664,-0.99830574,1.88146350,1.14735670
539,1778604561.6270099,-0.04786865,0.03805100,-0.03908765,-0.98486674,2.07083150,1.15346540
540,1778604561.6370573,-0.04786865,0.03805100,-0.03908765,-0.98486674,2.07083150,1.15346540
541,1778604561.6471622,-0.04786865,0.03805100,-0.03908765,-0.98486674,2.07083150,1.15346540
542,1778604561.6570294,-0.01030548,0.09707884,0.02920902,-0.72097313,2.24798250,1.09237900
543,1778604561.6672175,0.02189152,0.10585984,0.00286602,-0.47051860,2.09648800,1.02518380
544,1778604561.6771986,0.06189385,0.13415417,-0.11567748,-0.36544985,1.90589810,0.94821480
545,1778604561.6871843,0.14921603,0.14195950,-0.22543997,-0.39965830,1.63956100,0.78205960
546,1778604561.6968265,0.21653701,0.12390967,-0.16689998,-0.49617493,1.35001110,0.55970484
547,1778604561.7068694,0.39020570,0.09073700,-0.10494515,-0.59269154,0.90041470,0.13209951
548,1778604561.7172003,0.55606910,0.09756667,-0.31129867,-0.69653857,0.49113527,-0.46288280
549,1778604561.727092,0.63704940,0.00634183,-0.88791770,-0.97997980,0.26511532,-1.15926860
550,1778604561.7370672,0.23068418,-0.20049950,-0.70156530,-1.30618170,0.12461641,-1.53556130
551,1778604561.7469566,0.03018469,-0.22733033,-0.17616881,-1.26952970,-0.19914192,-1.62230410
552,1778604561.756966,-0.02347698,-0.18098617,0.21556135,-0.96654080,-0.47525280,-1.67728200
553,1778604561.7669964,0.02189152,-0.19269417,0.19702369,-0.73807734,-0.62063860,-1.83366330
554,1778604561.77714,0.07555319,-0.28879735,0.16482669,-0.60368710,-0.67561644,-2.00714900
555,1778604561.7869778,0.13458103,-0.50149270,-0.16836348,-0.44608400,-0.43371400,-2.22828200
556,1778604561.7970695,0.19946286,-0.80443716,-0.65717250,-0.08078687,0.63163420,-2.50927970
557,1778604561.8070633,0.23117203,-0.64198870,0.04677102,0.84039724,2.20888700,-2.88557240
558,1778604561.8170269,-0.03030665,-1.19470380,0.34483720,1.03587400,1.85458550,-2.97842380
559,1778604561.8267934,-0.36203334,-2.73869660,0.26141770,0.57039500,0.54489136,-2.03647040
560,1778604561.8369322,-0.32788497,-4.64027070,0.39362052,-0.43508843,-0.54733485,-0.40790495
561,1778604561.846943,-0.27178416,-5.65545200,0.61314553,-0.82726365,-0.87475836,1.22188220
562,1778604561.8570616,-0.27178416,-5.65545200,0.61314553,-0.82726365,-0.87475836,1.22188220
563,1778604561.8670404,-0.27178416,-5.65545200,0.61314553,-0.82726365,-0.87475836,1.22188220
564,1778604561.8771083,-0.27178416,-5.65545200,0.61314553,-0.82726365,-0.87475836,1.22188220
565,1778604561.887177,-0.06543065,-2.49526740,0.04579536,2.79516460,-1.85092030,2.92741680
566,1778604561.8972125,-0.19714566,-1.64448620,-1.43916930,3.45612030,0.12828161,2.88832140
567,1778604561.906887,0.41459736,-1.56204240,-2.06652300,2.28570320,4.97610430,2.58411070
568,1778604561.9171212,0.68583274,-1.59326360,-0.94548200,0.93080520,4.37990050,1.76066500
569,1778604561.926969,0.70485820,-1.56204240,-0.72546920,0.00595593,0.89552780,0.40943210
570,1778604561.9369664,0.70485820,-1.56204240,-0.72546920,0.00595593,0.89552780,0.40943210
571,1778604561.946951,0.22580586,-1.45569470,-0.95914130,-0.64889110,-1.58458330,-0.10002911
572,1778604561.9571526,-0.10787215,-1.41276540,-0.38203448,-1.58962290,-2.27486040,0.14676027
573,1778604561.9669538,-0.14982581,-1.31275950,-0.10640865,-1.45889780,-1.53449240,0.32391104
574,1778604561.9771097,-0.15616766,-1.20446050,-0.01420815,-1.28907740,-1.07023510,0.40943210
575,1778604561.9867861,-0.17812014,-1.07469680,0.02335502,-1.22188220,-0.93951005,0.48151416
576,1778604561.9967442,-0.20348747,-0.92590770,0.08335852,-1.18523040,-0.88453220,0.60124370
577,1778604562.0068362,-0.18641332,-0.74345803,0.17214419,-1.11559180,-0.92118406,0.87491107
578,1778604562.0168483,-0.13421515,-0.62198750,0.24288003,-1.03007080,-1.01892240,1.04961840
579,1778604562.0269287,-0.10396948,-0.46051466,0.28678500,-0.87613280,-1.26815530,1.24631690
580,1778604562.0369499,-0.03859982,-0.31367683,0.29410252,-0.75029470,-1.49051010,1.39414610
581,1778604562.0469482,0.07457753,-0.14293517,0.20531686,-0.58169600,-1.68354330,1.46744990
582,1778604562.0571394,0.15116736,-0.03366050,0.10238402,-0.45341438,-1.59557880,1.38681580
583,1778604562.0667453,0.25214887,0.08927350,-0.03372148,-0.40576693,-1.29625510,1.16446100
584,1778604562.0767922,0.26483253,0.12683667,-0.14104481,-0.45952302,-0.95417076,0.94088450
585,1778604562.0868077,0.31312802,0.13756900,-0.16641214,-0.61346096,-0.40805766,0.61101750
586,1778604562.0970192,0.32678735,0.13366634,-0.14299615,-0.76373370,0.00855211,0.29703300
587,1778604562.1070378,0.28239453,0.14391084,-0.09616415,-0.96898425,0.39095345,-0.08903354
588,1778604562.1172469,0.24629487,0.14391084,-0.06543065,-1.16201760,0.63285590,-0.44211337
589,1778604562.1267571,0.19312102,0.15952150,-0.10543298,-1.29885130,0.84788030,-0.68035066
590,1778604562.1370113,0.12970269,0.20049950,-0.24983165,-1.46744990,1.21928610,-0.89048815
591,1778604562.1470327,0.11262852,0.24635585,-0.40349916,-1.61527920,1.65544350,-0.99800030
592,1778604562.156767,0.18824269,0.27416235,-0.41179234,-1.83030350,2.32128620,-1.17637290
593,1778604562.1668568,0.42972020,0.16537550,0.25117320,-1.76310850,2.27486040,-1.44881860
594,1778604562.1769505,0.93804260,0.08049250,0.69412583,-1.31106850,1.59435710,-2.19040850
595,1778604562.1869519,1.39172760,0.03902667,0.86437976,-0.81138116,0.80267630,-3.23743060
596,1778604562.196956,1.07170890,0.05707650,0.74632406,-0.27259842,0.04031708,-4.40418240
597,1778604562.2068753,0.21751268,0.14537434,0.19556019,0.15867212,-0.61330825,-4.62775900
598,1778604562.2169535,0.00286602,-0.03024567,-0.88547850,0.06093376,-0.42027497,-4.25757460
599,1778604562.2269976,-0.14641099,-0.38538834,-1.05475660,-0.38133234,0.52167850,-3.67358800
600,1778604562.2373962,-0.12836114,-0.37904653,-0.46642965,-0.46318823,1.29258990,-3.51109810
601,1778604562.247018,-0.08348048,-0.31660384,-0.02396481,-0.18096869,1.63589580,-3.45978550
602,1778604562.2567563,-0.01762298,-0.33758068,-0.02933098,0.31871870,2.02440600,-3.42924210
603,1778604562.2669535,0.09653002,-0.50149270,-0.56350850,0.87094045,3.13251450,-3.51476300
604,1778604562.2768152,0.07896802,-0.38002217,0.05701552,1.33153250,4.15021500,-3.62960580
605,1778604562.2868154,0.07896802,-0.38002217,0.05701552,1.33153250,4.15021500,-3.62960580
606,1778604562.2969537,0.37020450,-1.03420660,0.55167854,2.13665220,3.32676960,-3.58806700
607,1778604562.3072157,1.38245870,-2.66991190,0.25605154,1.96683190,1.68720850,-3.37304260
608,1778604562.3167367,2.66936300,-5.25006250,-2.20555570,-0.27748534,2.72445700,-3.40602920
609,1778604562.3268025,1.73906480,-6.01986360,0.09701785,-1.63727030,3.54301570,-2.06579200
610,1778604562.3368354,1.38245870,-5.89497800,0.91511434,-0.47784898,4.19419770,0.12354740
611,1778604562.3471653,1.09512480,-4.90955500,0.91169960,0.66080296,1.88635040,1.70446550
612,1778604562.3571205,0.48045490,-2.53575780,0.39410836,0.66568990,-2.83685610,2.89565180
613,1778604562.3669934,0.27166218,-1.69961130,0.26239336,0.66568990,-2.83685610,2.89565180
614,1778604562.3772113,0.15555786,-1.28105030,-0.02054998,0.88682294,-5.78855470,3.51506880
615,1778604562.386904,0.15555786,-1.28105030,-0.02054998,0.88682294,-5.78855470,3.51506880
616,1778604562.3970299,0.26629603,-1.10689390,-0.32983630,1.17515110,-4.84415770,3.50407310
617,1778604562.4068813,0.52387200,-1.32202840,-0.26641798,1.13361230,-3.21192700,3.04836800
618,1778604562.4168346,0.54436100,-1.39861810,-0.15470415,0.96134850,-2.22232600,2.59266280
619,1778604562.426895,0.47704002,-1.41910720,-0.00347581,0.68645930,-1.34756770,2.07709300
620,1778604562.4371343,0.40288937,-1.39715470,0.05360069,0.43844820,-0.76724620,1.69469170
621,1778604562.4472556,0.32337250,-1.34007820,0.02920902,0.28695372,-0.35063640,1.47111510
622,1778604562.456831,0.28922418,-1.24299930,-0.07226031,0.11957678,0.25411975,1.23898650
623,1778604562.4671373,0.31556720,-1.02152300,-0.14738666,0.00962112,0.96394460,1.00563610
624,1778604562.4769208,0.31361586,-0.87517300,-0.14299615,0.02794706,1.48928830,0.83581570
625,1778604562.4869633,0.30922535,-0.70735836,-0.10543298,0.20387612,1.99874960,0.65744320
626,1778604562.4970546,0.29849303,-0.60247420,-0.06445498,0.42867437,2.16857000,0.52793986
627,1778604562.50715,0.26044202,-0.49563867,-0.04591731,0.67424200,1.88512870,0.37644540
628,1778604562.5171046,0.21653701,-0.44539183,-0.09323715,0.68523760,1.44041920,0.30436337
629,1778604562.5270042,0.21653701,-0.44539183,-0.09323715,0.68523760,1.44041920,0.30436337
630,1778604562.5369961,0.08482202,-0.29904184,-0.18055932,0.38835728,0.62796897,0.28115052
631,1778604562.5469966,0.03457519,-0.22586684,-0.23031832,0.22708899,0.51679160,0.33124143
632,1778604562.557065,0.01457402,-0.11561650,-0.31910400,0.03039052,0.67072950,0.42287114
633,1778604562.5668201,0.00872002,-0.03805100,-0.28934616,-0.12354740,0.94806210,0.50350530
634,1778604562.5768628,0.02189152,0.00097567,-0.17909582,-0.20173809,1.07634380,0.54993100
635,1778604562.5870845,0.04872235,0.00829317,-0.04250248,-0.22250749,1.05190920,0.57436560
636,1778604562.5967796,0.05945469,0.00926883,0.10238402,-0.16508621,0.87598010,0.56214833
637,1778604562.6071026,0.08774903,0.01902550,0.20141420,-0.00992655,0.54000450,0.49495320
638,1778604562.6171312,0.09604219,0.03414834,0.21556135,0.13790272,0.24556763,0.41920596
639,1778604562.6276448,0.07262619,0.05561300,0.15067953,0.35292712,-0.09896009,0.29825473
640,1778604562.6368284,0.10335968,0.06244267,0.06482086,0.45066550,-0.20280711,0.21151192
641,1778604562.64701,0.16921718,0.10342067,-0.32739717,0.40546150,-0.00366519,0.08567379
642,1778604562.6568944,0.30629835,0.25074634,-1.06109860,-0.15164718,1.19485150,-0.15012002
643,1778604562.666886,0.38288820,0.32587266,-1.03817030,-0.84925480,2.48866320,-0.50442160
644,1778604562.677014,0.39069352,0.31172550,-0.48057684,-1.11559180,3.00423300,-0.87338394
645,1778604562.686937,0.32044550,0.27074748,0.09896919,-0.84925480,2.79287390,-1.30465450
646,1778604562.6970437,0.29117550,0.22001283,0.29068770,-0.39354962,2.17467860,-1.56976970
647,1778604562.7070575,0.31703070,0.14732568,0.39166918,0.13790272,1.22295130,-1.85198930
648,1778604562.71695,0.22775720,0.02195250,0.40874338,0.56917330,0.21135922,-2.07678750
649,1778604562.7270834,0.15019170,-0.14878917,0.21995185,0.80618880,-0.73181600,-2.17086080
650,1778604562.7372115,0.07408969,-0.18440100,0.19409668,0.87094045,-1.37566750,-2.22583840
651,1778604562.7469487,0.04921019,-0.16879034,0.16531453,0.85017100,-1.68476510,-2.24782970
652,1778604562.7570293,0.04774669,-0.18488884,0.18677919,0.73532850,-2.28341250,-2.31135960
653,1778604562.7670438,0.09311519,-0.23952618,0.27263784,0.62415110,-2.80875640,-2.39199380
654,1778604562.7770815,0.27702835,-0.89907690,0.40386504,0.53252137,-3.38174750,-2.41887190
655,1778604562.7868845,0.41752437,-1.65277930,0.37508285,0.27595815,-3.99016880,-2.28325990
656,1778604562.796989,0.58582690,-2.80406600,0.08238286,-0.70020380,-4.53383830,-1.58320880
657,1778604562.807081,1.04195110,-5.08956530,-1.71381950,-1.45278920,-0.48747010,-0.34315330
658,1778604562.8171778,0.63607370,-5.31835900,-0.41423148,-1.10093100,6.23204230,0.85536340
659,1778604562.8271685,0.75656850,-5.01980500,0.38532734,-1.17423490,7.87771220,1.97446760
660,1778604562.8368902,0.86828244,-4.39976900,0.85267170,-0.99708400,7.50997160,2.31410860
661,1778604562.8469946,0.86828244,-4.39976900,0.85267170,-0.99708400,7.50997160,2.31410860
662,1778604562.8571165,0.48533320,-1.92938090,1.01121760,1.89841500,4.85759700,2.26890440
663,1778604562.866844,0.39410836,-1.37715350,0.73022550,2.91855930,2.84296460,2.50714180
664,1778604562.8770227,0.38971785,-1.21616850,-0.51618860,3.33761240,0.60597783,2.77225700
665,1778604562.8870316,1.21708320,-1.72253950,-2.92657330,1.32175860,1.17041700,2.54745900
666,1778604562.8972096,1.31172290,-1.70546530,-0.11665315,-0.75395983,-0.70860314,1.74356080
667,1778604562.9067712,0.82437736,-1.76742020,0.03018469,-1.25975580,-4.66334150,0.60246540
668,1778604562.9168136,0.60485240,-1.78839710,-0.37764397,-1.21210850,-4.88325300,0.31535894
669,1778604562.9269137,0.60485240,-1.78839710,-0.37764397,-1.21210850,-4.88325300,0.31535894
670,1778604562.9369361,0.29166338,-1.54789520,-0.25763696,-1.02396210,-2.69880060,0.51327914
671,1778604562.9469683,0.19751152,-1.44496240,-0.09762765,-0.94210620,-2.08427070,0.68798643
672,1778604562.9570742,0.17360769,-1.36690900,-0.07323598,-0.87124590,-1.56381380,0.81748980
673,1778604562.9670804,0.10726235,-1.18641070,-0.06689414,-0.85536340,-1.19118630,0.90911950
674,1778604562.9771411,0.04042919,-1.00347320,-0.04738082,-0.85780686,-1.05923950,0.99464060
675,1778604562.9869015,0.04042919,-1.00347320,-0.04738082,-0.85780686,-1.05923950,0.99464060
676,1778604562.996936,-0.02103781,-0.74492150,0.03555085,-0.83948094,-1.10566520,1.23898650
677,1778604563.0070643,-0.00347581,-0.58100950,0.12580003,-0.73441220,-1.45019290,1.45523260
678,1778604563.0173109,0.02628202,-0.47612533,0.15750920,-0.61956960,-1.65422180,1.53708850
679,1778604563.0268598,0.04091702,-0.34831300,0.18531570,-0.42042768,-1.80327280,1.57862730
680,1778604563.0369134,0.02286719,-0.21415883,0.22873287,-0.21273366,-1.83137260,1.58840120
681,1778604563.0469363,0.01457402,-0.11415300,0.28776067,0.05726858,-1.82037700,1.59328810
682,1778604563.057004,0.04384402,-0.02048900,0.29215118,0.46166107,-1.73119080,1.55785790
683,1778604563.066911,0.00384169,0.10146933,0.01115919,0.83062340,-1.25105110,1.45278920
684,1778604563.077063,-0.03079448,0.15854584,-0.45277032,0.78786284,-0.40683594,1.45401080
685,1778604563.0870216,0.01067136,0.15269183,-0.47862550,0.49831295,0.54244790,1.46378470
686,1778604563.0970535,0.06872352,0.13220283,-0.33764166,0.13423753,1.21806440,1.41858080
687,1778604563.1071544,0.13311753,0.10878683,-0.13958131,-0.38499752,1.51983150,1.22066060
688,1778604563.1172023,0.24483135,0.09024917,-0.05762531,-0.67576915,1.37444580,0.99586230
689,1778604563.1268878,0.39264485,0.08488300,0.04921019,-0.95798870,1.07390020,0.54748756
690,1778604563.13687,0.46533203,0.09171267,0.11945819,-1.06794440,0.74158984,0.06123919
691,1778604563.146993,0.55753250,0.08829784,0.13311753,-1.10703970,0.28832817,-0.64980740
692,1778604563.1569986,0.56924057,0.10439634,0.05750336,-1.10337450,-0.07330377,-1.39261900
693,1778604563.1669405,0.52143290,0.11659218,0.03213602,-1.04717490,-0.22601996,-1.94972770
694,1778604563.1771045,0.42386620,0.12195834,0.04091702,-0.88101970,-0.29321510,-2.53371430
695,1778604563.1870599,0.42386620,0.12195834,0.04091702,-0.88101970,-0.29321510,-2.53371430
696,1778604563.1971922,0.15507002,0.20440216,-0.15372847,-0.63423040,-0.23335035,-3.12014460
697,1778604563.207237,0.15507002,0.20440216,-0.15372847,-0.63545210,-0.06597339,-3.12625310
698,1778604563.2167883,0.15507002,0.20440216,-0.15372847,-0.63545210,-0.06597339,-3.12625310
699,1778604563.2271166,-0.06884548,0.01170800,-0.09274931,-0.74174255,-0.06108648,-2.61190500
700,1778604563.236942,0.00237819,-0.12537317,0.03262385,-0.68065610,-0.06475167,-2.51538850
701,1778604563.2471392,0.04189269,-0.14098383,0.07457753,-0.49250972,-0.02565632,-2.51050160
702,1778604563.2567403,0.12189735,-0.18293750,0.08189502,-0.16142102,0.09040799,-2.58014000
703,1778604563.2671196,0.25897855,-0.29074870,0.00628085,0.09147700,0.27855435,-2.70475650
704,1778604563.2769916,0.49996820,-0.49271170,-0.06738198,0.54473865,1.15331270,-3.01629760
705,1778604563.286805,0.62339000,-0.58735140,0.06872352,0.98211783,2.04151000,-3.34616450
706,1778604563.2971206,0.71705400,-0.65174530,0.19409668,1.32664560,2.43124180,-3.64304470
707,1778604563.3071344,0.83218270,-1.45910950,0.43167153,1.67972540,2.14902230,-3.74567000
708,1778604563.3169203,1.42880280,-2.91334080,0.48679670,1.57710020,0.84421515,-3.08349280
709,1778604563.327097,2.26007100,-4.95004500,-0.29227313,0.94546600,0.33475390,-1.85321100
710,1778604563.3369274,2.38788320,-6.09450200,-0.71668816,0.43966994,3.82890030,-0.53007793
711,1778604563.3468125,2.38788320,-6.09450200,-0.71668816,0.43966994,3.82890030,-0.53007793
712,1778604563.356866,0.84974470,-4.27634700,-0.41423148,-0.18952079,4.68044600,1.43568490
713,1778604563.3670936,0.05067369,-2.39526180,-0.57180166,-0.17486005,4.84293600,2.03311060
714,1778604563.3771193,-0.12104365,-1.63814430,-0.15665549,-0.09056070,3.29989150,2.34465170
715,1778604563.3869839,-0.00396365,-1.32251620,0.51801800,0.10858121,-0.32498005,2.48148540
716,1778604563.3971045,-0.00250015,-1.25080470,0.54680020,0.16233732,-2.83441260,2.52180240
717,1778604563.4071755,0.02481852,-1.24543860,0.41947567,0.13057235,-4.84171440,2.57433700
718,1778604563.4168687,0.04725886,-1.26251270,0.33312920,0.14278965,-5.87774100,2.59877160
719,1778604563.4269767,0.04823452,-1.28641650,0.28239453,0.19410229,-6.23692940,2.61709740
720,1778604563.4371274,0.07701669,-1.32885800,0.18970619,0.29184064,-6.31512000,2.67451880
721,1778604563.4471753,0.07701669,-1.32885800,0.18970619,0.29184064,-6.31512000,2.67451880
722,1778604563.4567292,0.24970970,-1.43471790,-0.01811081,0.58749920,-5.73968550,2.61709740
723,1778604563.4667382,0.39459620,-1.38593450,-0.27080846,1.13605580,-4.03781600,2.18338350
724,1778604563.4771285,0.42240270,-1.23812100,-0.28739482,1.39750590,-2.70246580,1.82175150
725,1778604563.4870975,0.42240270,-1.23812100,-0.28739482,1.39750590,-2.70246580,1.82175150
726,1778604563.4968667,0.42240270,-1.23812100,-0.28739482,1.39750590,-2.70246580,1.82175150
727,1778604563.5069172,0.42240270,-1.23812100,-0.28739482,1.39750590,-2.70246580,1.82175150
728,1778604563.516976,0.45216054,-0.72296900,-0.35422800,0.86483180,0.32742350,0.69042990
729,1778604563.5271387,0.40484068,-0.58052164,-0.48984566,0.56184286,1.13865200,0.50594880
730,1778604563.5367723,0.40484068,-0.58052164,-0.48984566,0.56184286,1.13865200,0.50594880
731,1778604563.5472946,0.25263670,-0.41807315,-0.17031482,-0.08445205,2.38359430,0.15653410
732,1778604563.5571606,0.14628904,-0.33026317,-0.06055231,-0.30680683,2.41535930,0.03558287
733,1778604563.567027,0.05799119,-0.23757485,-0.07567514,-0.46196648,2.34572080,0.00015272
734,1778604563.57741,-0.07469948,-0.08000467,-0.19275515,-0.57192210,2.47888920,0.06368265
735,1778604563.5868666,-0.12787332,0.01561067,-0.17860797,-0.59635675,2.67436600,0.15897755
736,1778604563.5970984,-0.13470298,0.07854117,-0.08982231,-0.54015720,2.78187820,0.24694209
737,1778604563.607118,-0.08201698,0.12000700,0.04774669,-0.31169376,2.63038370,0.30558512
738,1778604563.6168249,-0.04981998,0.12293400,0.09116385,-0.11255184,2.36160330,0.28970262
739,1778604563.6268792,-0.01030548,0.13512984,0.15653352,0.10369430,2.01096680,0.23838998
740,1778604563.6368752,0.00628085,0.13269067,0.20629252,0.47265664,1.47584930,0.15897755
741,1778604563.6469424,0.00774435,0.10634767,0.17165637,0.75609785,1.06901340,0.11621703
742,1778604563.6569915,0.02433069,0.08683433,0.04091702,0.87460566,0.61330825,0.08200860
743,1778604563.6667206,0.05701552,0.12976366,-0.28349215,0.82451475,0.28344125,0.02703077
744,1778604563.6771393,0.11897036,0.22293983,-0.88694197,0.30161450,0.44226610,-0.06459895
745,1778604563.6872575,0.14433768,0.24440451,-0.90450394,-0.48517936,0.79901110,-0.20754130
746,1778604563.6969419,0.20141420,0.21708584,-0.50155365,-0.86758070,0.85765415,-0.36514443
747,1778604563.7070312,0.28873634,0.15074050,-0.02201348,-0.91767160,0.59009540,-0.63025975
748,1778604563.7173128,0.32581168,0.09463967,0.13604453,-0.73563390,0.14294235,-0.93813556
749,1778604563.7271981,0.29946870,0.00682967,0.19848719,-0.53404856,-0.26145010,-1.15926860
750,1778604563.7371666,0.26385686,-0.10683551,0.17994952,-0.33735007,-0.66828610,-1.34497150
751,1778604563.7472045,0.20970736,-0.19562118,0.03555085,-0.16997312,-0.99570960,-1.54289170
752,1778604563.756921,0.10579886,-0.18391317,0.08384635,-0.03069595,-1.06412650,-1.67483850
753,1778604563.766919,0.07652886,-0.15317966,0.13409320,0.03405571,-1.28525950,-1.78845930
754,1778604563.7771537,0.08091935,-0.16683900,0.18434003,0.04627301,-1.49173180,-1.84343720
755,1778604563.7871473,0.09799352,-0.37758300,0.26141770,0.07070760,-1.95721080,-1.93751040
756,1778604563.7971756,0.08726119,-0.85956240,0.30093220,-0.05635228,-2.59251020,-1.84221540
757,1778604563.807046,0.08726119,-0.85956240,0.30093220,-0.05635228,-2.59251020,-1.84221540
758,1778604563.8168385,0.39703536,-4.67929740,-0.65766037,-0.98608845,-2.24676060,-0.02428187
759,1778604563.8271217,0.43996470,-5.72326100,0.00530519,0.20754130,2.14047030,1.00685790
760,1778604563.8374252,0.54484886,-5.72472430,0.36386270,0.18310672,2.74766970,1.85840330
761,1778604563.8469281,0.64778167,-5.51398040,0.56094736,-0.00015272,2.39581160,2.37275150
762,1778604563.8572388,0.39752320,-3.92022900,0.58094853,0.50930850,1.49417520,2.38496880
763,1778604563.866951,0.20678036,-2.39867640,0.50094384,1.57954360,0.96150120,2.32510400
764,1778604563.8772204,0.18677919,-1.88889060,0.40630420,2.26371220,0.33475390,2.28356530
765,1778604563.8869507,0.16580236,-1.56301800,0.19458452,2.77683850,-0.51434815,2.20537450
766,1778604563.8971198,0.20824386,-1.40349660,-0.78400916,2.93810680,-0.44348782,2.13573600
767,1778604563.9069514,0.71120000,-1.82791150,-2.31775740,1.72370770,2.93459440,1.58595760
768,1778604563.916976,0.66241670,-1.82205760,-0.88108800,-0.25305074,3.11418870,0.60613060
769,1778604563.926906,0.38093686,-1.69912350,-0.33764166,-1.12414400,0.67072950,-0.32971427
770,1778604563.9371288,0.38093686,-1.69912350,-0.33764166,-1.12414400,0.67072950,-0.32971427
771,1778604563.9468303,-0.21568331,-1.46350000,-0.19812131,-1.19622600,-2.28341250,-0.59727305
772,1778604563.9567697,-0.38544932,-1.28105030,-0.18251066,-1.35871600,-2.68902680,-0.20387612
773,1778604563.9672105,-0.37276566,-1.19421600,-0.12006798,-1.41491560,-2.45934150,0.17608178
774,1778604563.9769711,-0.28397998,-1.08640480,-0.06786981,-1.43690670,-2.09770970,0.60979575
775,1778604563.987206,-0.21568331,-0.99225300,-0.00445148,-1.43568490,-1.87168970,0.87979800
776,1778604563.996897,-0.15714332,-0.88785666,0.03945352,-1.41247210,-1.72508220,1.10093100
777,1778604564.007012,-0.14445965,-0.72248120,0.11701902,-1.29885130,-1.53571400,1.40514170
778,1778604564.0170345,-0.14299615,-0.55466646,0.19360885,-1.08260510,-1.36955880,1.66414830
779,1778604564.027188,-0.08982231,-0.35416700,0.27654052,-0.83092880,-1.17041700,1.85962510
780,1778604564.03678,-0.08982231,-0.35416700,0.27654052,-0.83092880,-1.17041700,1.85962510
781,1778604564.0469782,-0.08982231,-0.35416700,0.27654052,-0.83092880,-1.17041700,1.85962510
782,1778604564.057026,0.16287535,0.02195250,0.37996120,0.31261006,-0.49480048,1.88650310
783,1778604564.067089,0.15409435,0.09268834,0.18043736,0.57161670,-0.45814860,1.65681800
784,1778604564.0770576,0.12384869,0.22147635,-0.61424315,0.55084730,0.02687805,1.51265400
785,1778604564.0868227,0.21117085,0.26391783,-0.86986780,-0.05146536,1.67499130,1.36115940
786,1778604564.0970972,0.21117085,0.26391783,-0.86986780,-0.05146536,1.67499130,1.36115940
787,1778604564.1068947,0.57119190,0.19757250,-0.05469831,-1.19866940,2.38603780,0.55603970
788,1778604564.1171274,0.80437620,0.21708584,0.19995070,-1.30984680,1.65788700,-0.32604910
789,1778604564.1271284,0.82242600,0.31026200,0.29410252,-1.00685790,0.61941690,-1.32175860
790,1778604564.1368256,0.66631940,0.34148335,0.24678269,-0.63300860,-0.26389357,-1.98637950
791,1778604564.1471388,0.46435636,0.34001982,0.15946053,-0.35811950,-1.01892240,-2.43108920
792,1778604564.1569314,0.22970851,0.28489465,0.14433768,-0.19929464,-1.72386040,-2.69742600
793,1778604564.167119,0.07506536,0.19562118,0.19751152,-0.23350306,-2.29074290,-2.77073000
794,1778604564.1771717,0.00432952,0.16244850,0.21800053,-0.33001968,-2.81730840,-2.73774310
795,1778604564.18715,-0.02006215,0.10537200,0.18970619,-0.41554075,-3.28278730,-2.69009570
796,1778604564.1972544,-0.01518381,0.09122483,0.16531453,-0.46685340,-3.45382950,-2.67421320
797,1778604564.2068787,-0.03762415,0.09317617,0.11506769,-0.53527030,-3.61143260,-2.63267450
798,1778604564.2167773,-0.04445382,0.09610317,0.07750452,-0.56703526,-3.58088920,-2.57036640
799,1778604564.2267773,-0.04445382,0.09610317,0.07750452,-0.56703526,-3.58088920,-2.57036640
800,1778604564.2368057,0.00969569,-0.07561417,-0.09860332,-0.64889110,-2.66337040,-2.35412030
801,1778604564.2470071,0.05164935,-0.17318083,-0.26300314,-0.65377800,-1.96209760,-2.34923320
802,1778604564.2570891,0.05164935,-0.17318083,-0.26300314,-0.65377800,-1.96209760,-2.34923320
803,1778604564.266737,0.14384985,-0.37270468,-0.62546330,-1.00807960,5.14959000,-2.85991620
804,1778604564.2767758,0.05018586,-0.27367450,0.15653352,-0.71852970,6.31389860,-3.08227090
805,1778604564.2868211,0.01750102,-0.25855166,0.37752202,-0.42409286,6.27235940,-3.16046170
806,1778604564.2967265,0.01652535,-0.46295384,0.46777120,-0.08445205,5.90706250,-3.17512250
807,1778604564.307123,0.28776067,-1.78888490,0.61704820,0.20998476,4.63402030,-2.74996040
808,1778604564.317214,1.00585140,-3.66362860,0.83413410,-0.08811724,2.82952570,-1.89841500
809,1778604564.3274062,2.10494000,-6.31988100,0.90096720,0.38591382,2.13436150,-0.43356127
810,1778604564.336999,2.59374880,-7.52092700,0.97023950,2.94543720,4.56316000,0.46563166
811,1778604564.3470228,2.30300020,-7.12431800,0.29312685,3.58928870,3.62975860,0.87857630
812,1778604564.3569462,1.22976680,-5.65593960,-4.40373300,3.58928870,3.62975860,0.87857630
813,1778604564.3667436,0.49069935,-2.70210890,-0.18641332,-1.48211060,4.10501150,1.10948310
814,1778604564.376979,0.08970036,-1.79864160,1.05951310,-1.90849420,-0.82955440,1.34039010
815,1778604564.3870456,-0.01274465,-1.33959040,0.74486053,-1.27319490,-3.11174500,1.51631920
816,1778604564.397291,-0.14982581,-1.11713830,0.43801335,-0.74907290,-4.38356540,1.76188670
817,1778604564.4070983,-0.20007265,-0.99615570,0.29946870,-0.33368490,-4.86859230,2.19682240
818,1778604564.4169729,-0.14006914,-0.97420317,0.45801452,0.29794928,-4.48863460,2.77714400
819,1778604564.426801,-0.01128115,-1.08445360,0.43167153,0.72677636,-4.19175430,3.03248550
820,1778604564.4370418,0.10970152,-1.10396680,0.36239920,1.12872540,-3.93274740,3.14121940
821,1778604564.447171,0.16287535,-1.10055200,0.34337372,1.31565000,-3.81668300,3.12655850
822,1778604564.4570725,0.22190319,-1.04981730,0.32825086,1.59176090,-3.66641040,2.99461200
823,1778604564.467108,0.36044785,-0.94883580,0.41313390,1.91185400,-3.75804020,2.65741440
824,1778604564.4770415,0.39362052,-0.88053924,0.40971902,2.19529530,-4.13433270,2.24447000
825,1778604564.4868321,0.38191253,-0.78394820,0.24190436,2.35045500,-4.41166540,1.90116390
826,1778604564.4967208,0.45069703,-0.62540233,-0.61180395,2.43719770,-4.11722850,1.55419270
827,1778604564.5069366,0.62875617,-0.35563052,-1.57283570,1.66750810,1.63589580,1.12047870
828,1778604564.517234,0.49362640,-0.34392250,-0.57082600,1.05908680,3.64564100,0.78450310
829,1778604564.527158,0.27361350,-0.29709050,-0.04542948,0.58994263,4.06469440,0.51694435
830,1778604564.53718,0.21068303,-0.25708818,0.04921019,0.35659233,3.85700000,0.38744098
831,1778604564.546758,0.16726585,-0.17318083,-0.07274815,0.13301581,3.65174960,0.27504188
832,1778604564.5568519,0.12726352,-0.05171033,-0.38252230,-0.30558512,3.89365220,0.11010838
833,1778604564.5670989,0.11604336,0.03170917,-0.50448066,-0.61101750,4.38234400,-0.01572977
834,1778604564.5771198,0.11457986,0.14732568,-0.52984804,-0.83337230,5.06284700,-0.21731515
835,1778604564.58713,0.12580003,0.22098850,-0.43667180,-0.84070265,5.37072320,-0.38591382
836,1778604564.5971446,0.22726935,0.23903833,0.20434119,-0.72586006,5.19723750,-0.57039500
837,1778604564.6071534,0.22726935,0.23903833,0.20434119,-0.31047200,4.03170800,-0.82573646
838,1778604564.6172147,0.24288003,0.21025616,0.34337372,0.20143266,2.56685380,-1.00410900
839,1778604564.6272159,0.19702369,0.16976601,0.32727520,0.51419544,1.34634600,-1.12628200
840,1778604564.6368937,0.12823918,0.14195950,0.21409786,0.70967215,0.07330377,-1.23868110
841,1778604564.6472466,0.09750569,0.14293517,0.06384519,0.73410670,-0.72204214,-1.30831970
842,1778604564.6572075,0.06335735,0.17318083,-0.23470882,0.61193377,-1.56014860,-1.39261900
843,1778604564.6666987,-0.01176898,0.19464551,-0.45862433,0.29428410,-2.22232600,-1.44515340
844,1778604564.6767373,-0.04689298,0.17952266,-0.43081784,0.01084285,-2.46422860,-1.42194040
845,1778604564.686999,-0.04689298,0.17952266,-0.43081784,0.01084285,-2.46422860,-1.42194040
846,1778604564.696874,-0.04152681,0.01170800,0.00920785,-0.12476913,-2.33594680,-1.28021990
847,1778604564.706892,-0.02445265,-0.04585633,0.06140602,-0.04780017,-2.27363870,-1.20447270
848,1778604564.7169323,-0.00250015,-0.05512517,0.04921019,0.00473420,-2.31151220,-1.18125980
849,1778604564.726741,0.00481735,-0.06341834,0.05945469,0.05604684,-2.32739470,-1.17026420
850,1778604564.7370803,0.02872119,-0.12830016,0.10043269,0.10858121,-2.35671640,-1.16049040
851,1778604564.7471194,0.07701669,-0.36928985,0.18726702,0.15012002,-2.54241920,-1.12506020
852,1778604564.7570894,0.07701669,-0.36928985,0.18726702,0.15012002,-2.54241920,-1.12506020
853,1778604564.7667084,0.17994952,-2.55380750,0.22043969,-0.66966050,-3.80202250,-0.17699806
854,1778604564.7771242,0.80827886,-5.61349800,-0.42301250,-0.86025035,-1.95598900,1.15468720
855,1778604564.7871015,1.34148070,-6.70283030,-0.26300314,-0.26648977,1.41231940,1.69346990
856,1778604564.7969475,1.36099400,-6.55891940,0.07799236,0.02306015,3.00056800,1.77654760
857,1778604564.8071513,0.88535650,-5.39446100,0.33215353,-0.02947422,3.58821960,1.64704420
858,1778604564.8170383,0.88535650,-5.39446100,0.33215353,-0.02947422,3.58821960,1.64704420
859,1778604564.8271005,-0.03811198,-2.23622820,0.41801220,0.67179850,3.17771860,1.80586900
860,1778604564.837187,-0.17763232,-1.51228340,0.34630070,1.16537730,2.24309540,2.08564500
861,1778604564.8468878,-0.21324414,-1.28495300,0.22385453,1.41461010,1.37200220,2.26035240
862,1778604564.857086,-0.24641682,-1.07713600,-0.03469715,1.49402250,0.53878270,2.34953860
863,1778604564.8670053,-0.32056746,-1.01566900,-0.97328850,1.22646380,-0.10873393,2.31166500
864,1778604564.877176,-0.30593250,-1.09079530,-1.42307080,0.44089165,0.16249003,2.14306640
865,1778604564.88683,-0.12055582,-1.10640610,-0.70741934,-0.84803300,-0.10995566,1.71057420
866,1778604564.8967967,-0.09031015,-1.05274430,-0.22592781,-1.52975810,-0.92484930,1.27808190
867,1778604564.9071193,-0.14738666,-0.97713020,0.04872235,-1.89016830,-1.89856770,0.86513720
868,1778604564.916872,-0.17519315,-0.86200150,0.18336436,-1.83030350,-2.40069870,0.69898200
869,1778604564.9270856,-0.22690348,-0.69418687,0.18629137,-1.55785790,-2.39703350,0.71852970
870,1778604564.937192,-0.16641214,-0.59954715,0.16238752,-1.10093100,-2.05494900,0.92011505
871,1778604564.9467518,-0.12397064,-0.49173600,0.15994836,-0.73563390,-1.71164310,1.12903080
872,1778604564.9570007,-0.07274815,-0.40734085,0.09994486,-0.39721483,-1.39155000,1.38315060
873,1778604564.9670212,0.08872469,-0.32197002,-0.04835648,-0.23228133,-1.14720400,1.55297100
874,1778604564.9773922,0.22726935,-0.21708584,-0.29422447,-0.26282457,-0.71471180,1.57618380
875,1778604564.9868662,0.32483602,-0.14635001,-0.38496150,-0.44608400,-0.19425500,1.48699760
876,1778604564.9968233,0.41996354,-0.10488417,-0.29422447,-0.69165164,0.26755878,1.27441670
877,1778604565.006942,0.41215820,-0.01414717,-0.18153499,-1.03251420,0.62430380,0.78572480
878,1778604565.0169432,0.32532385,0.05219817,-0.13714215,-1.20233460,0.76602440,0.47662723
879,1778604565.0271385,0.20775603,0.13025150,-0.13031249,-1.33794650,0.89186260,0.18219042
880,1778604565.0371964,0.14580119,0.17415650,-0.09323715,-1.36726810,0.96394460,-0.01084285
881,1778604565.047183,0.13897152,0.18586451,-0.02981881,-1.32572930,0.92851450,-0.13668099
882,1778604565.056703,0.13848369,0.19464551,0.06335735,-1.15713060,0.66095567,-0.32238388
883,1778604565.0667522,0.12921485,0.19610901,0.10189619,-0.98853195,0.33719736,-0.42867437
884,1778604565.0770988,0.12921485,0.19610901,0.10189619,-0.98853195,0.33719736,-0.42867437
885,1778604565.0871704,0.14775252,0.13464200,0.12823918,-0.82970710,-0.44348782,-0.67179850
886,1778604565.0971313,0.16629020,0.09512750,0.18580353,-0.81993324,-0.72937256,-0.81107570
887,1778604565.107105,0.23702602,0.04975900,0.24092870,-0.79916380,-1.08611760,-1.05542160
888,1778604565.1171403,0.23702602,0.04975900,0.24092870,-0.79916380,-1.08611760,-1.05542160
889,1778604565.1268454,0.47460085,-0.00195133,0.23605035,-0.74785120,-1.92911100,-1.86542830
890,1778604565.1367562,0.48874804,-0.02780650,0.21751268,-0.71486450,-2.22476960,-2.30891600
891,1778604565.1471767,0.41362170,-0.04341717,0.18531570,-0.67454743,-2.42391130,-2.70109130
892,1778604565.1568792,0.35605735,-0.11756783,0.10287185,-0.63911730,-2.45445470,-3.06638840
893,1778604565.1668925,0.38825434,-0.24733151,0.05213719,-0.62201303,-2.25042580,-3.43535100
894,1778604565.1772063,0.30581054,-0.32197002,-0.06055231,-0.61834790,-1.85702900,-3.77010460
895,1778604565.1867106,0.41850004,-0.56442320,-1.26891550,-0.83092880,-0.25656322,-4.09752850
896,1778604565.1969216,0.41703650,-0.64345220,-1.36648210,-1.25731240,2.70979620,-4.47992940
897,1778604565.2071986,0.11311635,-0.85809880,0.06823569,-1.16079580,4.86614900,-4.75481900
898,1778604565.2172825,0.11311635,-0.85809880,0.06823569,-1.16079580,4.86614900,-4.75481900
899,1778604565.2268023,0.10921369,-2.32647730,0.43069590,-0.75762504,5.23877600,-3.77865670
900,1778604565.2371747,0.32239684,-4.01438100,0.38581520,0.36758790,6.55091400,-2.42864560
901,1778604565.2467484,0.36874104,-4.77637620,0.96194637,1.80312010,7.61381860,-0.76342830
902,1778604565.25707,0.74388486,-6.29939200,0.22483020,2.49217560,6.08543500,1.42591110
903,1778604565.26714,1.45026760,-6.49501280,-3.27244700,1.98637950,4.36157460,2.35076050
904,1778604565.2768009,1.01707160,-3.78168420,0.41703650,-0.95310175,-1.95843240,1.86573370
905,1778604565.2868366,0.30385920,-2.20647030,0.92096840,-1.23287790,-5.18135500,1.85962510
906,1778604565.2967494,0.15604569,-1.57911650,0.33995885,-0.62323480,-6.04756100,2.04044100
907,1778604565.3069026,0.21361004,-1.33471200,-0.17714448,0.86361010,-4.17464970,2.18460510
908,1778604565.3169312,0.35947220,-1.45618260,-0.27227200,1.16049040,-2.88939050,2.15894900
909,1778604565.3268647,0.37118018,-1.53423580,-0.32837284,0.95279634,-1.58213970,1.90727260
910,1778604565.3369114,0.26824737,-1.49374570,-0.20348747,0.65958124,-0.68783370,1.69957850
911,1778604565.3468106,0.26824737,-1.49374570,-0.20348747,0.65958124,-0.68783370,1.69957850
912,1778604565.3569434,0.04628318,-1.31617430,0.07652886,0.15500695,0.22601996,1.47355850
913,1778604565.367222,-0.01225681,-1.21080230,0.12823918,0.19043710,0.15882485,1.47478030
914,1778604565.3768122,-0.03079448,-1.09323450,0.12580003,0.34804020,0.04276054,1.47233690
915,1778604565.3868654,0.02140369,-0.97078830,0.13262970,0.60704690,-0.18203771,1.46744990
916,1778604565.397007,0.06091819,-0.89029586,0.10482319,0.74143714,-0.39095345,1.45645440
917,1778604565.4067333,0.16531453,-0.77711850,-0.03713631,0.89537510,-0.74892020,1.42224600
918,1778604565.4168494,0.23946518,-0.71467584,-0.18543765,0.90392715,-0.81978050,1.34405520
919,1778604565.427116,0.26922303,-0.57613117,-0.35520366,0.80130190,-0.64629495,1.26586450
920,1778604565.436754,0.25068536,-0.44636750,-0.38496150,0.57650363,-0.28344125,1.17667830
921,1778604565.4470294,0.21702486,-0.33953202,-0.38105880,0.38224864,0.03665189,1.10703970
922,1778604565.4568243,0.19848719,-0.22635466,-0.34008083,0.19043710,0.54855657,1.02274040
923,1778604565.4670336,0.16580236,-0.10390850,-0.29422447,0.08170316,1.07512200,0.91889334
924,1778604565.4771478,0.16580236,-0.10390850,-0.29422447,0.08170316,1.07512200,0.91889334
925,1778604565.4868426,0.15848486,0.05707650,-0.11275049,0.08903354,1.82526400,0.69287336
926,1778604565.4971964,0.15165520,0.07658983,-0.09031015,0.11346813,1.95598900,0.56825700
927,1778604565.5069394,0.17311986,0.07707766,0.09896919,0.14523310,1.83992470,0.37522370
928,1778604565.5168037,0.17263202,0.05805217,0.21263437,0.20021093,1.50761430,0.17363831
929,1778604565.5273356,0.20336552,0.04731983,0.24678269,0.29550585,1.09344790,-0.06459895
930,1778604565.5368297,0.24873403,0.03512400,0.20970736,0.37003133,0.74769850,-0.29184064
931,1778604565.5470898,0.28483367,0.03122133,0.17263202,0.43233955,0.41416633,-0.56550807
932,1778604565.5571008,0.29849303,0.02780650,0.13897152,0.50442160,0.03787361,-0.93813556
933,1778604565.567168,0.28044320,0.02585517,0.10043269,0.57528190,-0.34941465,-1.37551470
934,1778604565.5773096,0.21458568,0.02536733,0.05262502,0.60216000,-0.55833040,-1.63207790
935,1778604565.5867796,0.05847902,0.09903017,-0.39764515,0.54473865,-0.59131710,-1.83244160
936,1778604565.5971522,-0.03274581,0.17220518,-0.73229880,0.23197590,-0.18325943,-1.84221540
937,1778604565.6071591,-0.12640981,0.21318316,-0.87962455,-0.65499973,0.73303770,-1.72004250
938,1778604565.616765,-0.09713981,0.18781583,-0.57863134,-1.30618170,1.23883380,-1.58809570
939,1778604565.6268108,-0.05664965,0.16293633,-0.33812950,-1.56030130,1.28403770,-1.53311790
940,1778604565.6369908,0.01994019,0.12927583,-0.17909582,-1.58840120,1.06046130,-1.51479200
941,1778604565.6470098,0.14141070,0.04000233,-0.15519199,-1.46500650,0.78679380,-1.54044830
942,1778604565.6569228,0.22726935,-0.23172083,-0.18494982,-1.11803530,0.34086254,-1.60031300
943,1778604565.666982,0.23165986,-0.27416235,0.09116385,-0.42775807,0.03054324,-1.71515560
944,1778604565.6770072,0.26727170,-0.25123417,0.15311868,0.14889829,-0.08429934,-1.88008900
945,1778604565.6869571,0.30532268,-0.29074870,0.16970502,0.49464774,-0.16004658,-2.07434420
946,1778604565.696768,0.38923004,-0.38343700,0.17458336,0.70600694,-0.37140578,-2.33701590
947,1778604565.7068887,0.49850470,-0.52539650,0.20043853,0.67790717,-0.84299340,-2.80860350
948,1778604565.7170045,0.66973420,-0.72150550,-0.12055582,0.89659680,-0.33719736,-3.10548380
949,1778604565.7271056,0.56045955,-2.00353170,-0.11470181,1.02976520,0.60231270,-3.02607130
950,1778604565.7369845,0.67510040,-3.65777420,0.03262385,0.53007793,0.98837924,-1.89719330
951,1778604565.7467108,0.85511080,-4.93784900,0.22629368,0.01817323,1.27915080,-0.33337945
952,1778604565.7568045,1.63661990,-6.66185240,0.41801220,-0.11743876,2.07327500,1.55907960
953,1778604565.7671509,1.71955160,-6.92040400,0.64143986,0.70845044,3.09586260,2.39229920
954,1778604565.777152,1.01414450,-5.03834250,0.62534136,1.28877200,2.90649460,2.49981140
955,1778604565.787156,0.25312454,-2.81918880,0.35996002,1.62963450,1.76051240,2.75393100
956,1778604565.7968886,0.02676985,-2.09134150,0.05262502,1.82633290,1.15942130,2.92863850
957,1778604565.8069377,-0.22397648,-1.37276300,-0.80010766,1.93873210,1.01159200,3.16321060
958,1778604565.8170955,-0.15958248,-0.94054264,-1.05963490,0.81840610,1.03847010,3.33791780
959,1778604565.8269522,0.03457519,-0.95810470,-0.45423386,-0.17363831,-0.41416633,3.08257630
960,1778604565.8370295,0.19751152,-1.01615690,-0.17763232,-0.58902640,-1.92178060,2.61954100
961,1778604565.8472397,0.31995770,-1.11762620,-0.27910164,-0.79672040,-3.02500250,2.01478480
962,1778604565.8567483,0.49167505,-1.49764840,-0.67034400,-0.93355410,-3.18016200,1.17301310
963,1778604565.866759,0.37849770,-1.57179900,-0.53033584,-0.99464060,-2.11359210,0.51694435
964,1778604565.8769193,0.13945936,-1.39178860,-0.21080498,-1.00441440,-1.49539700,0.47540550
965,1778604565.8867495,0.06530869,-1.24885330,-0.06640632,-1.02518380,-1.21195570,0.66966050
966,1778604565.8967865,0.08726119,-1.13518810,0.01701319,-1.02884900,-1.14353880,0.87979800
967,1778604565.9068186,0.06579652,-0.91127270,0.08189502,-1.01174470,-1.19973840,1.09604420
968,1778604565.917256,0.05457636,-0.77321590,0.17311986,-0.99464060,-1.44041920,1.21088670
969,1778604565.926943,0.05457636,-0.77321590,0.17311986,-0.99464060,-1.44041920,1.21088670
970,1778604565.9368176,0.11409202,-0.46588080,0.34434935,-0.79183346,-2.24187370,1.44179360
971,1778604565.9471776,0.15799703,-0.37807086,0.37996120,-0.60979575,-2.54974960,1.45034580
972,1778604565.956873,0.20531686,-0.22976951,0.35410600,-0.38988444,-2.75500000,1.39781130
973,1778604565.96678,0.20531686,-0.22976951,0.35410600,-0.38988444,-2.75500000,1.39781130
974,1778604565.9771104,0.25019753,0.04829550,-0.00250015,0.24908010,-2.05494900,0.84925480
975,1778604565.9870691,0.14726469,0.13171500,-0.24007498,0.31383178,-0.99937480,0.61956960
976,1778604565.9971235,0.13165402,0.14049600,-0.27958950,0.22464553,-0.35063640,0.52427470
977,1778604566.0070064,0.12677568,0.14098383,-0.17909582,-0.13820815,0.49357873,0.33124143
978,1778604566.0168486,0.10189619,0.13708118,-0.05372265,-0.47296205,0.70615970,0.16019928
979,1778604566.0270815,0.06579652,0.13659334,-0.02542831,-0.79183346,0.64262974,0.01603520
980,1778604566.0371132,0.02335502,0.13220283,0.01408619,-1.01663170,0.52534370,-0.06582068
981,1778604566.0475118,-0.00054881,0.14878917,0.00872002,-1.19378240,0.42271844,-0.12202024
982,1778604566.0569954,-0.01664731,0.13903250,-0.08055348,-1.39292440,0.41538805,-0.16355905
983,1778604566.0670848,-0.02591615,0.15415533,-0.31812832,-1.64704420,0.66950780,-0.17821980
984,1778604566.0768945,0.04042919,0.10781116,0.01945235,-1.85107300,0.97616190,-0.22098033
985,1778604566.0869725,0.11848252,0.08878566,0.16677801,-1.83030350,0.87964530,-0.33826637
986,1778604566.096818,0.22824502,0.09415183,0.29117550,-1.71301760,0.66828610,-0.54351693
987,1778604566.1068528,0.56631350,0.26440567,0.43264723,-1.31717720,0.13927718,-1.14338610
988,1778604566.117146,0.87608767,0.31562817,0.50289520,-0.87124590,-0.49357873,-2.00837060
989,1778604566.1268713,0.68388140,0.28830950,0.52875036,-0.47907070,-1.03969180,-2.72063900
990,1778604566.137092,0.68388140,0.28830950,0.52875036,-0.47907070,-1.03969180,-2.72063900
991,1778604566.147143,0.46142936,-0.32489700,-1.57527480,-0.08567379,0.65118190,-3.17512250
992,1778604566.156774,0.31020102,-0.47075918,-0.54594650,0.06337722,2.77454780,-3.35471650
993,1778604566.1667767,0.15409435,-0.33075100,0.14043503,0.36758790,2.86495600,-3.51476300
994,1778604566.1770313,0.21458568,-0.35904533,0.14043503,0.61926420,2.60717080,-3.63571450
995,1778604566.1870031,0.47118600,-0.62052400,-0.52350616,0.84772760,2.81608650,-3.90938190
996,1778604566.196802,0.64485470,-0.90737003,-1.62698510,0.99677860,5.50267000,-4.39685200
997,1778604566.207038,0.40435287,-0.58052164,0.27702835,1.38406680,6.46417100,-4.83300920
998,1778604566.2169514,0.37752202,-0.96542215,0.60826720,1.71026860,5.04329970,-4.82201400
999,1778604566.226753,0.64192766,-2.50648780,0.89804020,1.60275650,2.60106230,-3.97413350
1000,1778604566.2369359,1.07024540,-4.00364830,1.13366380,0.90759236,0.24312419,-2.63267450
