id,timestamp,acc_x,acc_y,acc_z,gyro_x,gyro_y,gyro_z
1,1778602526.9315877,0.39801103,-1.66399940,-0.49082130,2.11130140,-1.33275430,1.03602670
2,1778602526.9820435,0.18482786,-1.03567020,0.07994369,1.34039010,-0.22708899,0.62796897
3,1778602527.0319023,0.09213952,-0.98347200,-0.08055348,0.98120150,-1.25212010,0.69027720
4,1778602527.082038,0.21751268,-0.84736650,-0.37422916,1.29885130,1.08138330,0.66584260
5,1778602527.1320417,0.53167737,-0.55856913,-0.40008432,0.31291547,1.02029690,0.16126831
6,1778602527.1819894,0.30873755,-0.41807315,-0.34691048,-0.62048590,-0.61804247,-0.80878496
7,1778602527.2316964,0.02237935,-0.80980330,-0.13080032,-1.58320880,-0.79152805,-1.38055440
8,1778602527.2816424,0.00676869,-2.02841100,0.06189385,-1.43660130,0.43875363,-2.57540580
9,1778602527.332121,-0.32739717,-2.11670900,0.22141537,-1.05664340,-0.12935062,-0.80267630
10,1778602527.3817463,0.40045020,-1.19909430,0.10482319,-0.39690940,-0.14767656,-1.43308880
11,1778602527.4318123,-0.11958014,-0.69321120,0.07262619,0.20784675,-0.57772535,-0.56688250
12,1778602527.4816368,-0.22348866,-0.33904418,-0.04445382,0.52060950,-0.15012002,0.25534147
13,1778602527.531946,-0.38788850,0.12634884,-0.32398233,0.68676470,-0.83428860,1.34756770
14,1778602527.5819912,-0.21812248,-0.43709868,0.72827417,-0.14401138,2.86510850,-0.72082040
15,1778602527.632106,0.00628085,-0.96054390,0.48533320,-1.02610020,-0.79030630,0.52045680
16,1778602527.6821384,-0.34642264,-2.66503360,0.55411774,-0.40423977,0.06123919,1.30969400
17,1778602527.7319946,0.16580236,-1.50740500,0.52192070,2.03555420,-0.93569213,0.53633930
18,1778602527.7819228,0.42435405,-1.30690550,-0.98402080,0.75029470,7.35618640,0.79534596
19,1778602527.8318243,0.31361586,-0.89956470,-0.77620380,0.47296205,-3.00285860,0.94195350
20,1778602527.8820388,0.43264723,-0.73370135,-0.19031598,0.11621703,0.15775582,0.67439470
21,1778602527.9321904,0.57704586,-0.14147167,-0.42837867,-0.20265439,0.06734784,-0.11850777
22,1778602527.9818943,0.06335735,-0.15561883,-0.07372381,-1.83121990,-2.73774310,-0.54000450
23,1778602528.0319135,0.35947220,-1.43910840,-0.01713515,-2.58502700,-1.85809790,-1.62245690
24,1778602528.081634,0.30678620,-2.97334430,0.21848835,-1.70660350,-0.83062340,-2.77943470
25,1778602528.1318805,-0.08396832,-1.03615810,0.06969919,0.20784675,0.73807734,-0.62674725
26,1778602528.181927,0.21751268,-0.89858900,0.21946402,0.12354740,-1.33764110,-0.48013970
27,1778602528.2319252,0.37996120,-0.75614170,0.25166103,1.35505080,-3.66259240,-0.05253437
28,1778602528.2820659,0.05506419,-0.47027132,0.15263085,1.89872050,-5.27649740,0.16615522
29,1778602528.3320813,0.23507468,-0.30148100,-0.86791650,-0.14278965,-1.88008900,-0.05131264
30,1778602528.3817527,-0.28056514,-0.78785086,0.48435750,-0.12446370,-2.47629300,-0.74525505
31,1778602528.432061,-0.19275515,-1.67863450,0.19751152,-0.40057456,-1.50746150,0.44715303
32,1778602528.4819536,-0.04250248,-2.01621500,0.57167970,0.15286891,-1.44026650,0.39950556
33,1778602528.5316632,0.13116619,-1.23373060,0.38142470,2.58166720,-3.80797840,0.26267186
34,1778602528.5818665,0.38435167,-0.89419854,0.03603869,-0.46532625,-0.55695593,0.25411975
35,1778602528.63179,0.42240270,-0.87956345,0.00920785,0.50106186,-3.45856360,-0.10384701
36,1778602528.68203,0.44240385,-0.66052634,-0.30739596,-0.56428635,-1.60886510,-0.57665634
37,1778602528.7320697,0.31361586,-0.51905465,-0.03469715,-0.17944153,-2.69131760,-0.67072950
38,1778602528.7819595,0.03750219,-0.90980920,0.11799469,-0.93691385,-3.28874330,-1.94010650
39,1778602528.831855,-0.14738666,-1.37764140,0.39801103,-0.66691160,-3.91915560,-0.90163640
40,1778602528.8817103,0.05750336,-2.01328830,0.50728570,0.58047426,-2.73896500,-0.67561644
41,1778602528.9320576,0.73217684,-1.25617090,-0.27178416,1.84862960,1.89505530,-1.76051240
42,1778602528.981861,0.02530635,-1.11177220,0.01798886,1.31106850,-3.61616680,-0.87964530
43,1778602529.0316982,-0.27617463,-0.65955067,-0.05713748,1.03862290,-4.64852800,-0.00733038
44,1778602529.0820136,-0.25373432,-0.23172083,-0.05469831,0.67210400,-1.41216660,0.77457654
45,1778602529.131915,0.08970036,-0.46051466,-0.07567514,-0.34315330,-0.04871647,0.41783150
46,1778602529.1819165,-0.07811432,-0.76541054,0.19360885,0.22128576,-2.61679200,1.11910430
47,1778602529.2317502,0.26288120,-1.78790930,0.08579769,0.09300416,-2.70109130,0.21868959
48,1778602529.2822835,0.14384985,-1.59570290,0.19312102,0.15775582,-0.54840386,0.28832817
49,1778602529.3316042,-0.09957898,-1.22934000,0.13945936,0.28970262,-1.47203140,0.10506874
50,1778602529.381919,-0.07079682,-0.94103056,0.16677801,0.85780686,-1.39628420,0.60597783
51,1778602529.431769,0.21361004,-0.97420317,0.16092403,0.94088450,-1.43415770,0.79168075
52,1778602529.482081,0.64875740,-0.72833520,-0.41276798,0.24083345,1.97080250,-0.19425500
53,1778602529.5317683,0.45996585,-0.36587500,-0.14982581,-0.04382955,-3.33150390,-0.85887590
54,1778602529.5819972,-0.03079448,-0.89712550,-0.08640748,-0.88315773,-0.80008010,-1.02503110
55,1778602529.631605,-0.01615948,-1.52594270,0.11555553,-0.92103136,-0.63270320,-1.00792700
56,1778602529.6820788,-0.22641563,-2.15134500,0.11165286,-0.06582068,0.68187780,-0.93828833
57,1778602529.7316926,0.22239104,-1.33129720,0.01896452,-0.22098033,-0.87704910,-1.23639040
58,1778602529.7817245,0.26775953,-0.92639550,0.07262619,0.08933897,-1.01510450,-0.99815303
59,1778602529.8319278,-0.06933331,-0.55808130,0.03750219,0.31413722,-0.58016884,-0.27000225
60,1778602529.8821485,-0.22251299,-0.18001050,-0.02054998,0.54748756,-0.40301803,0.12705988
61,1778602529.9320238,0.27946752,-0.24294100,-0.47618634,-0.17455462,1.21455190,-0.41172287
62,1778602529.9820669,-0.43423265,-0.83321940,0.36678970,-0.44577858,3.91579600,0.06597339
63,1778602530.0320332,-0.09128582,-2.15963820,0.20043853,-0.17577635,-0.18921536,0.68783370
64,1778602530.0818934,0.01115919,-1.28348960,0.29068770,0.32757625,-0.46288280,0.68783370
65,1778602530.131631,0.36435053,-1.49472140,0.11604336,0.57070040,0.64156073,1.21562090
66,1778602530.1818366,0.15555786,-1.07762380,0.02823336,1.19622600,0.34956738,0.78190690
67,1778602530.231794,0.21165870,-0.95078720,-0.23129399,0.69776030,2.86755200,0.56077385
68,1778602530.2817485,0.31849420,-0.56881370,-0.19470648,0.26282457,2.02700200,0.37018406
69,1778602530.331839,0.39020570,-0.43222034,-0.33520250,-0.51786060,1.80220380,-0.59864750
70,1778602530.381638,-0.00396365,-0.43026900,-0.24105065,-1.13239060,2.21514840,-1.11055220
71,1778602530.4316409,-0.16494864,-1.04249990,-0.18251066,-1.49646600,1.56763170,-1.56870080
72,1778602530.4817276,-0.08591965,-2.68601040,-0.28349215,-1.89474990,2.69528820,-1.46241030
73,1778602530.5319018,0.36288702,-1.43325440,-0.02152565,-1.13239060,0.44974920,-0.15027274
74,1778602530.581935,0.12482436,-1.09616150,-0.00737848,-0.30039275,1.40269830,-0.52534370
75,1778602530.6320477,-0.10884781,-0.66442900,0.01750102,-0.22586726,0.37155850,0.58520850
76,1778602530.6817162,-0.04494165,-0.30001750,0.13848369,-0.05849030,0.49250972,1.33657220
77,1778602530.7320147,0.86096490,-0.25757600,-0.66839266,-0.01328631,2.75270940,0.33719736
78,1778602530.7816749,-0.02006215,-0.42490283,-1.01621780,-0.73777190,1.52731470,-1.27426400
79,1778602530.8319907,0.04042919,-1.34056600,0.32727520,-1.35596700,-1.90941060,0.61575170
80,1778602530.8819165,0.14336202,-2.17037060,0.51948154,-0.37736170,-1.88497600,1.49539700
81,1778602530.931844,0.50728570,-0.97273970,-0.58985150,2.35809090,-0.96257020,0.90652335
82,1778602530.9821157,0.22287886,-0.89858900,-0.04347815,0.87246764,-0.46410450,0.37140578
83,1778602531.0316281,0.45118487,-0.88053924,-0.22348866,0.19440772,-1.54044830,0.50946120
84,1778602531.0818715,0.43215933,-0.58003384,-0.60204730,-0.22831070,-0.56306463,0.09162971
85,1778602531.1319795,0.07018703,-0.54783684,-0.14153264,-1.31320660,-2.75973440,-0.60719960
86,1778602531.1816144,0.06530869,-0.86639196,0.11457986,-1.63696490,-2.01325750,-0.54733485
87,1778602531.2317908,0.25458800,-2.35916200,0.51948154,-0.98578304,-2.62778760,-1.77150790
88,1778602531.2823539,0.53265303,-1.81766700,0.81462070,1.75455640,-4.04132840,-1.25105110
89,1778602531.3318377,0.50728570,-0.96444654,-0.15763116,1.52975810,1.46500650,-1.67010430
90,1778602531.3819654,-0.18446198,-1.05811060,0.26629603,1.08016170,-0.42256570,-0.89308430
91,1778602531.4319296,-0.47862550,-0.34489816,-0.11714099,0.92622370,-4.04743700,0.72326390
92,1778602531.482182,-0.04933215,-0.06390616,-0.40545050,0.21029020,-3.18856140,1.02747450
93,1778602531.5317647,0.23117203,-0.64540350,1.36684810,-1.06886070,1.06550090,-1.87413310
94,1778602531.582037,-0.12445848,-0.97566670,0.14384985,0.06001746,-1.02732180,0.77946347
95,1778602531.631789,-0.18251066,-2.52697660,0.37020450,-0.84039724,-3.29363010,1.09711310
96,1778602531.681866,0.21848835,-1.52496710,0.01798886,2.14917500,-3.57951500,0.46547896
97,1778602531.731673,0.02286719,-0.86297720,-0.04494165,1.02884900,-0.22098033,0.77213305
98,1778602531.7816715,0.02237935,-1.02493790,-0.28739482,1.09237900,1.43079800,0.60842130
99,1778602531.8320181,0.42386620,-0.79224133,-0.14299615,0.56581350,-0.23930627,0.79778940
100,1778602531.8817837,0.52338420,-0.38392484,-0.61034050,-0.42623090,-1.71759900,-0.37018406
101,1778602531.9317129,0.19214535,-0.56539880,-0.16494864,-1.19347700,-2.04502250,-0.99937480
102,1778602531.9818225,0.11994602,-1.24641420,-0.02494048,-2.05479650,-0.38835728,-1.35001110
103,1778602532.0319452,0.11945819,-2.30013420,0.26824737,-1.72737290,-0.48609564,-2.43368530
104,1778602532.0817866,0.19799936,-1.63619300,0.41215820,0.61101750,-2.23805600,-0.96272290
105,1778602532.1317637,0.56582570,-1.02298650,-0.09372498,1.54808400,0.57558733,-1.94377170
106,1778602532.1819386,-0.00542715,-0.61467000,0.16580236,1.10581790,-1.62108240,-0.47891800
107,1778602532.2316375,-0.26056397,-0.30196884,0.26385686,1.15224370,-6.11704730,0.94439700
108,1778602532.2819319,0.15750920,0.01024450,-1.24110900,0.21395539,-2.96131970,1.18507770
109,1778602532.3317747,-0.39959648,-0.62832934,0.65314790,-1.29365890,0.45097092,-0.86009760
110,1778602532.381835,-0.12836114,-1.23373060,0.30873755,-0.10247257,-0.07437278,0.68661200
111,1778602532.431869,-0.21373199,-2.11963580,0.48533320,-0.63759010,-2.32724210,0.73914640
112,1778602532.4817467,0.44094035,-1.51569820,0.43557420,2.13817950,-3.95825100,0.52290020
113,1778602532.5321221,0.26385686,-1.10299120,-0.45862433,0.84925480,0.91156300,0.38606653
114,1778602532.5818102,-0.13860564,-0.92883470,-0.32886064,0.61468270,-2.47384950,0.67439470
115,1778602532.6316316,0.49801686,-0.82102350,-0.43715966,-0.31871870,-0.38713557,0.26633704
116,1778602532.682046,0.75120234,-0.47222266,-0.27715030,-0.51419544,-1.19714220,-0.71837700
117,1778602532.7317789,0.13311753,-0.22733033,0.06043036,-1.60397820,-3.15679650,-1.20340360
118,1778602532.7818058,0.32532385,-1.39325200,0.31264020,-1.43415770,-3.62716250,-1.88390700
119,1778602532.8318322,0.07701669,-2.71771960,0.31312802,-0.77564555,-2.49584080,-1.56503560
120,1778602532.8815773,0.61216986,-1.81717920,0.32483602,1.15224370,0.57558733,-1.61390470
121,1778602532.931862,0.29459035,-1.13177340,0.10092052,1.33672490,0.94821480,-1.21439920
122,1778602532.9816847,-0.17080265,-0.83126800,0.13555670,0.49861836,-6.02541730,0.27000225
123,1778602533.0319102,-0.23909931,-0.32831186,0.25410020,0.88957185,-4.30522200,0.92607100
124,1778602533.0816104,-0.12592198,0.18927933,-0.42642733,0.72097313,-1.95583630,1.10810880
125,1778602533.1320646,-0.10689648,-0.31855518,0.73510385,-0.04627301,1.23654300,-0.76113750
126,1778602533.1819406,-0.23080614,-1.61472830,0.03067252,0.30925030,-3.01874110,0.44837475
127,1778602533.2319455,-0.06201581,-2.56161280,0.36727753,-0.88071430,-2.09511350,1.25349450
128,1778602533.2816615,0.29849303,-1.20397270,0.07018703,1.91826810,-4.84400500,0.50579600
129,1778602533.331594,0.09945703,-1.21031450,-0.24836816,1.45278920,-0.55206907,0.04886918
130,1778602533.3821187,-0.13275166,-0.98981386,-0.19080381,0.82359844,0.07345649,0.61208653
131,1778602533.4319086,0.44094035,-0.75223905,-0.28446782,0.39721483,-0.06459895,0.20402883
132,1778602533.48162,0.42825672,-0.38636400,-0.23519666,0.52183120,-1.05053470,-1.00304000
133,1778602533.531824,0.12140953,-0.07219934,-0.24202631,-0.28328854,-1.54044830,-1.61634810
134,1778602533.5819576,-0.08201698,-1.43081520,-0.01664731,-1.28632860,-1.50257470,-1.86435930
135,1778602533.6319125,0.09848136,-3.09627820,0.32142118,-0.70845044,0.76373370,-0.95905770
136,1778602533.6817243,0.15116736,-1.27324500,-0.03616065,0.07467822,0.93721926,-1.62856550
137,1778602533.7319205,0.05262502,-0.82395060,0.10238402,0.14798199,-1.14582960,-0.55710870
138,1778602533.7819626,-0.08689531,-0.40490165,-0.00542715,0.28481570,-1.31320660,0.75869405
139,1778602533.8317337,-0.03079448,0.00048783,0.05652769,0.67576915,-1.54655700,1.18385590
140,1778602533.8817215,0.27995536,-0.38538834,0.51411533,-0.94668770,2.66596650,-1.16308650
141,1778602533.9320326,-0.05908882,-0.77760637,0.11457986,-0.13057235,-0.67790717,0.66339916
142,1778602533.9816947,-0.25080732,-2.67966870,0.17019285,-0.78664110,-1.21424650,0.78435040
143,1778602534.0319393,0.11897036,-1.47715940,0.51021266,0.71852970,-1.67239500,0.77702000
144,1778602534.0816622,0.08482202,-1.20543620,0.21263437,2.54990220,-2.85625100,0.53756100
145,1778602534.1320813,-0.03030665,-0.98786247,-1.40989940,2.72827480,3.43199100,0.67195123
146,1778602534.181778,0.64241550,-0.81907210,-0.54009247,1.62749650,2.78203080,0.49235702
147,1778602534.2320647,0.75315370,-0.40051118,-0.41715845,-0.18921536,-0.95401806,-1.44774950
148,1778602534.2820604,-0.02542831,-0.16635117,-0.21275632,-0.88560120,-0.03772090,-1.86313760
149,1778602534.3319075,-0.15811898,-1.37081170,-0.24202631,-1.39506240,1.39048100,-1.49906220
150,1778602534.3817935,-0.32544583,-3.74997470,0.08970036,-1.75913790,0.91644990,-1.26815530
151,1778602534.4319837,0.22434235,-1.26251270,0.12238518,-0.88437950,0.35201082,-0.96760980
152,1778602534.4818916,0.09067602,-0.82834107,0.17994952,-0.56795150,0.88712835,-0.53023064
153,1778602534.532166,-0.19373082,-0.46392953,0.09799352,-0.38957903,-0.16722423,0.86987144
154,1778602534.581617,-0.35617930,-0.12683667,0.07311402,0.53282680,1.62383130,1.63467420
155,1778602534.6319737,0.91218740,-0.15903367,-1.92358780,-0.69501140,4.29331000,0.60719960
156,1778602534.6817138,0.02676985,-0.60784036,0.12531220,-0.29672757,-1.21180300,-2.12703100
157,1778602534.7316873,0.02433069,-2.39916420,0.23409903,-0.03283398,2.73071840,0.18448116
158,1778602534.7816193,-0.00493931,-2.02743530,0.40727988,-0.38835728,1.19133900,0.51434815
159,1778602534.8317556,-0.26153967,-1.08981970,0.00091469,0.04046979,0.26404630,0.72570735
160,1778602534.8818724,-0.06689414,-1.02005960,0.22531801,-0.12079851,0.66721710,1.22417310
161,1778602534.931772,0.14189851,-0.89566200,-0.81181570,0.75518160,3.77774050,0.39950556
162,1778602534.9816759,0.04725886,-0.39563283,0.21068303,-1.10551250,2.47904200,-0.13927718
163,1778602535.0316677,0.01359835,-0.58344870,0.10043269,-1.69682970,1.96835900,-0.30787584
164,1778602535.081715,0.19312102,-1.02347430,-0.21568331,-1.56610450,5.56024400,-0.90163640
165,1778602535.1316202,-0.38740066,-1.56106670,-0.13714215,-0.12324197,7.04464530,-1.06656990
166,1778602535.1819768,-0.22641563,-1.72400300,0.20921952,-1.43660130,2.16017060,0.84054995
167,1778602535.2318413,0.23507468,-1.27714770,0.01798886,-0.45921760,1.84985130,0.90652335
168,1778602535.2819893,-0.04835648,-0.80980330,0.09848136,-0.02916879,1.85473820,1.17774720
169,1778602535.3319712,-0.09372498,-0.40051118,0.49362640,1.17912170,3.23529270,1.48317970
170,1778602535.3821094,0.38386387,-0.24830718,0.53362870,1.14857850,2.51080700,0.47647452
171,1778602535.4319468,0.52582335,-0.49563867,0.36386270,0.65866494,1.46500650,-0.72570735
172,1778602535.4816303,0.73315257,-1.51716170,-0.12299499,0.75273810,7.68849700,-2.16734810
173,1778602535.5316772,-0.05079565,-1.94694280,0.20531686,0.33612835,4.58286050,-0.50335260
174,1778602535.5817273,0.16141187,-1.30690550,0.27312570,-0.47021317,-0.47265664,0.33475390
175,1778602535.631957,0.30581054,-1.28592860,0.11214069,0.21273366,-0.21731515,0.38606653
176,1778602535.6818411,0.23214770,-1.15323800,-0.00396365,0.54504410,2.52546760,-0.07574723
177,1778602535.7317753,0.22141537,-0.77516717,-0.01859865,0.88101970,4.37638800,0.24190246
178,1778602535.7819028,0.57899720,-0.33514150,-0.26885715,-0.26007570,2.18460510,-0.11484258
179,1778602535.8319862,0.08482202,-0.38587618,-0.31471348,-1.12994710,0.62445650,-0.99326610
180,1778602535.8815682,0.19409668,-1.39520340,-0.14933798,-1.99004470,1.27686010,-1.58824840
181,1778602535.931604,-0.01567165,-2.96992920,-0.14738666,-2.66321780,2.53157640,-2.31517740
182,1778602535.9816535,-0.36447248,-1.73327180,0.36825320,-2.21606470,2.05510190,-0.71959870
183,1778602536.0320678,0.13409320,-1.00640020,0.28093103,-0.50319990,-0.60826860,-0.19181155
184,1778602536.081821,0.22726935,-0.57613117,0.07750452,0.11866048,1.74844770,-0.11239912
185,1778602536.1318498,0.21409786,-0.10488417,0.04872235,0.71364280,0.88101970,0.49113527
186,1778602536.1815805,0.75949556,-0.11025034,-0.10104248,-0.94790940,-0.20143266,0.34330600
187,1778602536.2318795,-0.20982932,-0.21025616,-0.07908998,0.01237001,-1.27166770,-0.13072506
188,1778602536.2815573,-0.14494748,-1.44203530,0.22385453,-1.01510450,2.95185140,1.47340580
189,1778602536.3320296,-0.32690930,-2.17963930,0.55997170,-0.57039500,-0.72066770,0.26878050
190,1778602536.3816118,0.21409786,-1.52594270,0.43313503,1.77166060,-4.27712250,0.65118190
191,1778602536.4316788,0.01359835,-1.15226230,-0.95426303,1.92315510,2.30066940,0.89308430
192,1778602536.4817474,0.00481735,-1.13762740,0.16287535,1.40514170,1.36848990,0.70615970
193,1778602536.5318286,0.33947104,-1.10982080,-0.34008083,0.62934345,0.45219266,0.77946347
194,1778602536.5819287,0.45362400,-0.51905465,-0.15031365,0.44119710,-0.28939718,0.26878050
195,1778602536.631948,0.35166687,-0.01122017,-0.00835415,-1.01388290,-0.77442384,-1.11788250
196,1778602536.6816776,-0.06006448,-0.34831300,-0.14689882,-1.46592270,-2.29669880,-1.25471630
197,1778602536.731804,0.02530635,-2.10304950,-0.06689414,-2.49461910,0.79061174,-1.73852120
198,1778602536.7815864,-0.46008780,-1.85571810,0.18434003,-0.53863000,1.93903760,-0.81245020
199,1778602536.832132,0.09848136,-1.11177220,0.23897736,-0.90881410,-1.22279860,-0.47036588
200,1778602536.881842,0.08579769,-0.72443250,0.08823685,0.30680683,-0.44333512,0.05986475
