id,timestamp,acc_x,acc_y,acc_z,gyro_x,gyro_y,gyro_z
1,1778317276.940467,-0.7780332,-1.3484933,-0.20354846,-2.7930286,-1.5958854,2.2617285
2,1778317276.940477,-0.7780332,-1.3484933,-0.20354846,-2.7930286,-1.5958854,2.2617285
3,1778317276.950355,-0.70089453,-1.2447067,-0.15958248,-2.3290765,-1.0389291,2.3124304
4,1778317276.9600723,-0.52375007,-0.9844477,-0.07110171,-1.5454891,-0.19792034,1.7640262
5,1778317276.9700227,-0.3927668,-0.63150024,0.0011586042,-0.9850202,0.30634892,1.3213016
6,1778317276.9798582,-0.34026375,-0.36837515,0.078114316,0.90484416,1.3443617,-0.11453723
7,1778317276.9899633,-0.35721594,-0.31806734,0.078785084,1.0638218,1.381319,-0.24174993
8,1778317276.9999793,-0.3536182,-0.2853825,0.0014635,1.6067283,1.4385877,-0.6589709
9,1778317277.0099604,-0.3536182,-0.2853825,0.0014635,2.033876,1.2780828,-1.0057896
10,1778317277.0201695,-0.32581168,-0.21763465,-0.094212815,2.1033618,0.2733622,-1.1420126
11,1778317277.0301263,-0.28489465,-0.17714448,-0.09799352,2.0331123,-0.4260785,-0.9277516
12,1778317277.0400133,-0.28489465,-0.17714448,-0.09799352,2.0331123,-0.4260785,-0.9277516
13,1778317277.04997,-0.12964171,-0.13512984,-0.08890763,2.1250474,-1.7227927,-0.30283645
14,1778317277.0601075,-0.1062867,-0.128788,-0.087566085,2.1546745,-1.8553505,-0.22892176
15,1778317277.070414,0.13519081,-0.13372731,-0.17000991,2.2699752,-3.0330987,0.08200866
16,1778317277.0798414,0.3117255,-0.053966567,-0.20604862,2.3134995,-3.4384077,-0.064446285
17,1778317277.090059,0.3117255,-0.053966567,-0.20604862,2.2018638,-3.8336375,-0.39706242
18,1778317277.099791,0.34813008,-0.11207971,-0.44569677,1.8332067,-3.801109,-0.7118107
19,1778317277.110013,0.2698938,-0.181474,-0.5362508,1.3871223,-3.3264668,-0.8680395
20,1778317277.1201646,0.25373432,-0.20452413,-0.55167854,0.6452264,-1.979967,-0.89949906
21,1778317277.1301777,0.12860507,-0.25294158,-0.7959001,-0.23640485,0.2761111,-0.8231409
22,1778317277.1398094,0.047929626,-0.30422506,-0.8856005,-0.23640485,0.2761111,-0.8231409
23,1778317277.149785,0.014208145,-0.34197116,-0.9106019,-1.1362094,3.0857859,-0.69913524
24,1778317277.159886,-0.28032124,-0.53490925,-1.1607994,-2.356871,5.426469,-0.7704538
25,1778317277.1698632,-0.64400095,-0.68022263,-1.768152,-2.356871,5.426469,-0.7704538
26,1778317277.1798007,-1.1658607,-0.8848077,-1.5625912,-2.4217753,2.6137397,-0.89827734
27,1778317277.1899204,-0.872368,-0.61082834,0.15958248,-1.5490016,-2.1259637,-0.8400924
28,1778317277.2000134,-0.47722298,-0.58289987,0.9712152,-0.25335637,-2.9868257,-0.82787514
29,1778317277.2103798,-0.51131034,-0.7038825,0.98920405,0.0571159,-1.7492126,-0.8677341
30,1778317277.2201061,-0.50094384,-0.87877077,0.8148646,0.12965615,-1.4251486,-0.8721629
31,1778317277.2301953,-0.4786255,-1.0281088,0.59881544,0.13698652,0.13087788,-0.83199847
32,1778317277.2401414,-0.4786255,-1.0281088,0.59881544,0.13698652,0.13087788,-0.83199847
33,1778317277.2500737,-0.49435812,-1.1551894,0.57247245,-0.23839016,0.08170322,-0.73655075
34,1778317277.26011,-0.5188717,-1.3176379,0.6741857,-0.5439755,-0.040317107,-0.5737552
35,1778317277.269808,-0.4797231,-1.3709947,0.7271766,-0.6250679,-0.087201014,-0.4653266
36,1778317277.2799582,-0.62284124,-1.5285648,0.7408359,-0.5725334,-0.034055736,-0.30573806
37,1778317277.2898529,-0.8430979,-1.6578407,0.6802836,-0.3239113,0.15347989,-0.07803804
38,1778317277.29995,-0.8430979,-1.6578407,0.6802836,0.5716171,0.87949324,0.66416323
39,1778317277.309965,-0.86736774,-1.6622921,0.58820504,0.5716171,0.87949324,0.66416323
40,1778317277.3198614,-0.7123586,-1.6182652,0.5294821,3.0518827,-1.5940529,0.8483391
41,1778317277.3299158,-0.81803554,-1.8569375,0.30953026,5.499925,-5.25115,0.5233588
42,1778317277.3402243,-0.8609039,-1.9862745,0.0851879,6.514725,-6.9490504,0.03848451
43,1778317277.3500106,-0.8609039,-1.9862745,0.0851879,6.514725,-6.9490504,0.03848451
44,1778317277.3601284,-1.7849213,-1.8540715,-2.6097863,3.8913643,-2.2951734,-0.77213365
45,1778317277.3701663,-1.7849213,-1.8540715,-2.6097863,3.8913643,-2.2951734,-0.77213365
46,1778317277.380437,-1.4220343,-1.6282657,-1.621985,1.3510813,1.7935003,-0.61743206
47,1778317277.3898442,-1.2961732,-1.3166012,-0.20653644,0.18005253,1.0910053,-0.8246681
48,1778317277.399782,-1.3576401,-1.1600677,-0.15433827,0.7805331,-0.7461719,-0.50625455
49,1778317277.4099133,-1.3778853,-1.0521346,-0.22781818,1.2890784,-1.7999145,-0.21655174
50,1778317277.420105,-1.264403,-0.84102464,-0.5841804,1.4052955,-1.9640845,-0.1479821
51,1778317277.43009,-1.2190956,-0.8061446,-0.7001628,1.7059939,-2.1531472,0.087201014
52,1778317277.4400141,-0.8023639,-0.68680835,-0.88877136,1.1294898,0.19120082,0.2750421
53,1778317277.4501622,-0.76821554,-0.6808324,-0.86401385,1.021214,0.43493605,0.27947086
54,1778317277.4600258,-0.5545445,-0.7380918,-0.49429715,0.36209038,1.0227411,0.53878313
55,1778317277.4702187,-0.52521354,-0.74229944,-0.45972195,0.36209038,1.0227411,0.53878313
56,1778317277.4798903,-0.45417285,-0.74260426,-0.34916672,0.22937989,0.7443393,0.65102965
57,1778317277.4898398,-0.45417285,-0.74260426,-0.34916672,-0.057268616,0.15699236,0.817185
58,1778317277.499817,-0.18592548,-0.53436047,-0.22489117,-0.9427178,-0.31016684,0.88361657
59,1778317277.5099788,-0.08366342,-0.29672462,-0.23806266,-0.9427178,-0.31016684,0.88361657
60,1778317277.5202456,-0.0064028124,-0.18257163,-0.17324181,-1.78617,0.3397938,1.1388055
61,1778317277.5298486,-0.0064028124,-0.18257163,-0.17324181,-2.006845,0.91797775,1.237613
62,1778317277.539997,0.04164877,-0.104945146,-0.09781059,-2.006845,0.91797775,1.237613
63,1778317277.550275,0.19336495,0.01536675,0.100005835,-2.0144808,1.466382,1.2521211
64,1778317277.559841,0.19336495,0.01536675,0.100005835,-1.8971947,1.8715384,1.1736249
65,1778317277.5701087,0.23300138,0.041526813,0.14415476,-1.6818647,2.2676845,0.9954049
66,1778317277.5804355,0.2534904,0.04841746,0.15476513,-1.4524848,2.5332582,0.75777835
67,1778317277.5898385,0.26757658,0.041099958,0.1542773,-1.1415545,2.7548494,0.3032946
68,1778317277.6004407,0.187328,-0.13805683,0.073845774,-1.1114693,2.7714956,0.2443461
69,1778317277.6098676,0.10299382,-0.22757424,0.0482955,-0.90224797,2.9014573,-0.052381694
70,1778317277.6202886,0.10299382,-0.22757424,0.0482955,-0.90224797,2.9014573,-0.052381694
71,1778317277.6298008,0.027623562,-0.38038805,-0.030855458,-0.852157,3.1801646,-0.10552697
72,1778317277.639904,-0.1349469,-1.0850023,-0.27904066,-0.93599826,4.413043,-0.12935072
73,1778317277.6500876,-0.17812014,-1.8099227,-0.491736,-1.0670289,4.802623,-0.4277584
74,1778317277.660082,-0.27940655,-2.8163228,-0.8207796,-1.0694723,4.2713227,-1.1458305
75,1778317277.6700761,-0.5403364,-3.707838,-1.0590862,-1.0479393,3.2583551,-1.6879734
76,1778317277.6801627,-0.5403364,-3.707838,-1.0590862,-1.0945178,2.3657284,-2.0430388
77,1778317277.6902766,-0.7885216,-4.056883,-1.13842,-1.2913691,1.0451905,-2.482098
78,1778317277.7002013,-1.7796769,-3.6222847,-0.63503706,-2.0040963,-0.788627,-2.5618162
79,1778317277.7099626,-1.7488825,-2.634056,-0.40325522,-2.5764768,-1.7493653,0.019547688
80,1778317277.7198877,-1.2869045,-1.9145628,-0.10366459,-2.4623978,-1.4923438,1.3585643
81,1778317277.7300625,-0.91316307,-1.3965448,0.063967146,-2.195755,-0.8933904,1.984243
82,1778317277.7400825,-0.6801007,-1.0953687,0.13830076,-1.7270688,0.09972375,2.261576
83,1778317277.7499764,-0.4777108,-0.7982173,0.19665782,-1.104139,1.1085677,2.0865629
84,1778317277.759985,-0.4777108,-0.74455565,0.18982814,-0.95905846,1.2944235,2.006387
85,1778317277.769789,-0.3506912,-0.59674215,0.17543708,0.32513303,1.9289597,1.1623238
86,1778317277.7797568,-0.28727287,-0.40063316,0.0714066,0.48670688,1.8503108,1.0516045
87,1778317277.7898753,-0.22385453,-0.21940304,-0.14513041,0.91339624,1.4193454,0.7182248
88,1778317277.7998195,-0.23105007,-0.1759249,-0.13470298,1.4480561,0.3820962,0.23548855
89,1778317277.810139,-0.23105007,-0.16446081,-0.024086772,2.0474675,-1.3295482,-0.12690726
90,1778317277.820133,-0.23105007,-0.16446081,-0.024086772,2.314874,-1.6534595,-0.064446285
91,1778317277.8299007,-0.12086072,-0.14238635,0.14671588,2.4944682,-1.7592919,-0.024740042
92,1778317277.8401575,-0.023598937,-0.14055698,0.1314101,2.5940392,-1.9617938,-0.062308256
93,1778317277.8501973,0.05433244,-0.15342359,0.03518498,2.3907738,-2.4863744,-0.20158553
94,1778317277.8601828,0.105493955,-0.16037522,-0.055552024,2.022575,-3.0402763,-0.3643811
95,1778317277.8702486,0.105493955,-0.16037522,-0.055552024,1.9097174,-3.1708488,-0.40698898
96,1778317277.8803294,0.10701844,-0.14610608,-0.04494165,1.2968669,-3.6528215,-0.60903263
97,1778317277.8902938,0.1042134,-0.12793429,-0.02555027,0.68371093,-3.8313468,-0.7646506
98,1778317277.9000964,0.07713865,-0.11494574,0.020732917,0.37323865,-3.7765217,-0.8181013
99,1778317277.9098344,0.070065066,0.0048783333,-0.87718534,-0.93752545,-1.977218,-0.75411314
100,1778317277.9202328,-0.045917314,0.0453685,-1.0445122,-2.4275784,0.99021256,-0.5465717
101,1778317277.929844,-0.24580702,0.033843435,-1.2479386,-3.5451565,2.9393308,-0.28130344
102,1778317277.939989,-0.24580702,0.033843435,-1.2479386,-3.5451565,2.9393308,-0.28130344
103,1778317277.9500737,-0.3031884,-0.39557186,-0.5978397,-4.9541173,4.344474,0.12293663
104,1778317277.959961,-0.07091877,-0.34245902,0.24562408,-2.856406,-1.244027,0.36987892
105,1778317277.9701002,0.01597654,-0.37124115,0.5612523,-1.4527903,-3.611588,0.24572055
106,1778317277.9800038,0.01597654,-0.37124115,0.5612523,-1.662317,-3.3250923,0.2687807
107,1778317277.9903903,0.07488242,-0.44953844,0.6972968,-0.8373435,-4.171446,0.18219055
108,1778317277.9999526,0.07488242,-0.44953844,0.6972968,0.1255328,-4.067752,0.08170322
109,1778317278.0102859,0.12982465,-1.1427495,0.79102176,0.9775371,-3.3162346,-0.111941054
110,1778317278.0200672,0.12872702,-1.498807,0.92968833,2.0485365,-2.149024,-0.4813618
111,1778317278.0303113,0.076528855,-1.9587729,0.8434029,2.1406245,-2.4556782,-0.86101454
112,1778317278.0402563,-0.15525296,-2.3752606,0.7532757,1.5586227,-3.4600935,-1.4398094
113,1778317278.0499787,-0.2564174,-2.5244765,0.7848629,0.8020661,-3.7869065,-1.7909042
114,1778317278.0601425,-0.28556544,-2.552588,0.8090106,0.62598413,-3.7140608,-1.8477147
115,1778317278.0698903,-0.5413121,-2.543014,0.8514522,-0.04352415,-2.4958427,-1.9536998
116,1778317278.07992,-1.0134128,-2.3782487,0.7883387,-0.24724771,-0.6214027,-1.644602
117,1778317278.0900118,-1.0134128,-2.3782487,0.7883387,-0.1366811,0.5198463,-1.2666291
118,1778317278.100382,-1.077136,-2.191652,0.64619625,0.3051272,2.1131356,-0.6200282
119,1778317278.1099188,-0.94206715,-1.9871283,0.7941317,3.9022071,0.66920286,-1.2124147
120,1778317278.120165,-1.1544576,-1.7498581,0.23775777,5.5889587,-1.5538884,-1.8726074
121,1778317278.1303446,-1.2837944,-1.7026603,0.13525179,6.3190956,-2.9068022,-2.1212296
122,1778317278.139885,-1.322882,-1.6901597,0.10207913,6.4455447,-3.1835241,-2.15498
123,1778317278.1497886,-1.6538769,-1.4975873,-1.1234192,6.743494,-4.4987173,-2.2224805
124,1778317278.1598911,-1.7297959,-0.87950253,-2.3716626,2.935513,-5.515044,-1.4407257
125,1778317278.1702034,-1.8773046,-0.9088945,-2.8530324,-1.3406965,-4.6815186,-0.23793201
126,1778317278.1801577,-1.2186687,-0.81419384,-1.0523175,-2.2992969,-4.084856,0.30573806
127,1778317278.1902668,-0.8624893,-0.8613307,-0.2273913,-2.211485,-3.6668713,0.54550266
128,1778317278.199889,-0.75973946,-0.916334,0.032318957,-1.4873042,-2.3585508,0.784351
129,1778317278.2098217,-0.46399048,-0.7653495,-0.010427438,-0.3996586,0.41920626,0.8584184
130,1778317278.2203083,-0.365875,-0.6952235,-0.42039037,-0.29642236,1.8446603,0.8373435
131,1778317278.2298002,-0.365875,-0.6952235,-0.42039037,-0.29642236,1.8446603,0.8373435
132,1778317278.2400994,-0.41404852,-0.60832816,-0.42581752,-0.6226244,2.594192,0.8356637
133,1778317278.2502382,-0.44722122,-0.5599717,-0.34270293,-1.5053247,2.7939448,0.98440933
134,1778317278.2598321,-0.45319718,-0.5082004,-0.26940596,-1.870622,2.3469443,1.2053899
135,1778317278.2698298,-0.39154723,-0.43252525,-0.19104773,-2.1820107,1.8026633,1.4790574
136,1778317278.2802794,-0.39154723,-0.43252525,-0.19104773,-2.1820107,1.8026633,1.4790574
137,1778317278.2900372,-0.31221333,-0.3752658,-0.08335852,-2.4544566,1.5042557,1.7061466
138,1778317278.2997844,-0.12781233,-0.26458862,0.12811723,-2.6471846,1.7122552,1.8420641
139,1778317278.310339,-0.1009815,-0.24989262,0.14159364,-2.6471846,1.7122552,1.8420641
140,1778317278.3201456,-0.1009815,-0.24989262,0.14159364,-2.6471846,1.7122552,1.8420641
141,1778317278.3301702,0.04268542,-0.10500612,0.27733323,-2.4523184,2.263103,1.6632334
142,1778317278.3403795,0.13019052,-0.03207504,0.23464784,-2.0477731,2.70934,1.2927436
143,1778317278.349866,0.13689823,-0.02628202,0.22190319,-2.0477731,2.70934,1.2927436
144,1778317278.3599732,0.15763116,-0.025672229,0.1676927,-1.8538233,2.6355782,0.9616546
145,1778317278.3700242,0.08976133,-0.12793429,0.12567806,-1.8538233,2.6355782,0.9616546
146,1778317278.3799138,0.035124,-0.26910108,0.1185435,-1.7423404,2.4912612,0.8564331
147,1778317278.3899653,-0.020610958,-0.47136897,0.09085896,-0.9447031,2.1351268,0.63545257
148,1778317278.3998213,-0.08067544,-0.9477992,-0.122629106,-1.1140655,2.191479,0.6742425
149,1778317278.409802,-0.37282664,-2.2212272,-0.9160901,0.49327368,1.9381227,-0.05497787
150,1778317278.4199662,-0.48893097,-2.75449,-1.0139006,0.24419338,1.967597,-0.73273283
151,1778317278.4299257,-0.78815573,-3.3063517,-0.81608415,-0.50579643,1.528843,-1.5189165
152,1778317278.440303,-1.09482,-3.5839896,-0.5728993,-1.077719,1.0684034,-1.975691
153,1778317278.4499702,-1.1818373,-3.6389928,-0.54936135,-1.5642731,0.6748534,-1.8081611
154,1778317278.459842,-1.6077157,-3.5147173,-0.36983865,-1.6618589,0.72250086,-0.64904433
155,1778317278.4700892,-1.3826417,-2.0682304,-0.16525355,-1.5027285,0.86498517,0.71975195
156,1778317278.4801815,-0.9164559,-1.6173505,-0.110555224,-1.2936599,0.9550878,1.413084
157,1778317278.49011,-0.8146207,-1.5386873,-0.09183463,-1.2293663,0.9787588,1.5103643
158,1778317278.49977,-0.4235003,-1.200558,-0.033172667,-0.82634795,1.1377366,1.6441438
159,1778317278.5098245,-0.19549921,-0.89096665,-0.019879209,0.106137834,1.4295774,1.1893547
160,1778317278.519778,-0.21421981,-0.77132547,-0.09531044,0.7912232,1.282817,0.9092729
161,1778317278.529971,-0.21025616,-0.69632107,-0.20025559,1.4463762,0.74067414,0.75625116
162,1778317278.5398395,-0.21025616,-0.69632107,-0.20025559,1.4463762,0.74067414,0.75625116
163,1778317278.5503283,-0.11433593,-0.61088926,-0.436184,2.1577287,-1.0874928,0.71685034
164,1778317278.5601904,-0.023964813,-0.5515566,-0.46466127,2.170557,-2.2061398,0.68661255
165,1778317278.569826,-0.023964813,-0.5515566,-0.46466127,2.0292943,-3.167947,0.59437186
166,1778317278.5802503,0.184401,-0.38855925,-0.2409287,1.8423696,-3.9231293,0.38133264
167,1778317278.58997,0.23751387,-0.27843088,-0.11744587,1.8423696,-3.9231293,0.38133264
168,1778317278.5997605,0.24781933,-0.2587956,-0.096651986,1.7450893,-4.288427,0.1928807
169,1778317278.6097963,0.25391725,-0.20379238,-0.0453685,1.4999796,-4.850728,-0.16264287
170,1778317278.6200156,0.16586334,-0.16885132,0.07311402,0.6563747,-5.196936,-0.732122
171,1778317278.6302688,0.13006857,-0.13049541,0.11049425,0.25289822,-4.8478265,-0.87949324
172,1778317278.6400568,0.15293576,-0.104701236,0.10342067,-0.08674286,-4.4096837,-0.9944886
173,1778317278.6498804,0.1293978,-0.057320416,-0.053478733,-0.34422258,-4.033238,-1.043816
174,1778317278.660379,0.042075627,0.09494456,-0.83974415,-1.3394748,-1.8319849,-0.98364574
175,1778317278.67002,0.042075627,0.09494456,-0.83974415,-1.3394748,-1.8319849,-0.98364574
176,1778317278.6801932,-0.017196124,0.13634941,-0.93938404,-3.662137,3.5547776,-0.710589
177,1778317278.690015,-0.0009756667,0.14421573,-0.54192185,-3.9393172,4.6158504,-0.7556403
178,1778317278.7002442,0.051710334,0.19799936,-0.065369666,-3.6642752,4.529871,-0.8597928
179,1778317278.70993,0.08232188,0.15500905,0.16555844,-3.557221,4.423733,-0.8904888
180,1778317278.7201893,0.13323948,-0.09238344,0.27556485,-2.1577287,2.5488353,-1.1772901
181,1778317278.730203,0.08640748,-0.29977357,0.28495565,-1.366811,1.4776831,-1.3629931
182,1778317278.7398305,0.08640748,-0.29977357,0.28495565,-1.366811,1.4776831,-1.3629931
183,1778317278.7500503,0.0011586042,-0.5375314,0.29227313,-0.6907359,0.6133087,-1.400714
184,1778317278.760295,0.0011586042,-0.5375314,0.29227313,-0.23090707,-0.118966006,-1.333977
185,1778317278.770218,-0.017744938,-0.9141387,0.26233238,0.17715092,-1.0635164,-1.1336132
186,1778317278.780056,-0.0714066,-1.44045,0.4165487,0.4998405,-1.9726366,-0.9059132
187,1778317278.7901297,-0.15378946,-1.8730361,0.56911856,0.9618073,-3.2598825,-0.7519751
188,1778317278.7999794,-0.438989,-2.390871,0.7437629,1.2967142,-4.5254426,-0.6426302
189,1778317278.810018,-0.438989,-2.390871,0.7437629,1.2967142,-4.5254426,-0.6426302
190,1778317278.8201122,-0.438989,-2.390871,0.7437629,1.2967142,-4.5254426,-0.6426302
191,1778317278.8299992,-0.9476772,-2.534721,0.5957055,1.7716619,-6.319401,0.21731532
192,1778317278.8400502,-1.0177423,-2.1359782,0.4173414,1.5244142,-4.202753,0.70646566
193,1778317278.8498282,-1.0193888,-1.9899333,0.3494716,1.3833044,-2.5407412,0.46792278
194,1778317278.860099,-1.0723796,-1.9249904,0.35087416,1.4230106,-1.372156,-0.17913623
195,1778317278.8698702,-1.071404,-1.9015133,0.35087416,1.4230106,-1.372156,-0.17913623
196,1778317278.8797889,-1.2195834,-1.747785,0.2549539,3.0170634,-3.9107592,-1.9579759
197,1778317278.8901815,-1.3908739,-1.6597309,0.11909231,3.2253685,-4.456109,-2.0850358
198,1778317278.9001255,-1.3908739,-1.6597309,0.11909231,3.2253685,-4.456109,-2.0850358
199,1778317278.9100106,-1.3908739,-1.6597309,0.11909231,3.2253685,-4.456109,-2.0850358
200,1778317278.9202673,-1.3908739,-1.6597309,0.11909231,3.2253685,-4.456109,-2.0850358
201,1778317278.9302588,-1.3908739,-1.6597309,0.11909231,3.2253685,-4.456109,-2.0850358
202,1778317278.9400141,-2.054693,-1.5319797,-1.0940273,4.0634756,-8.464455,-2.4010057
203,1778317278.9501925,-0.89133245,-1.0230476,-0.70467526,-2.46759,-6.78656,0.18906279
204,1778317278.960255,-0.62826836,-1.0328041,0.073845774,-0.3950771,1.9049833,0.02275473
205,1778317278.9703329,-0.62826836,-1.0328041,0.073845774,-0.3950771,1.9049833,0.02275473
206,1778317278.9802592,-0.48405263,-0.8404149,-0.15031365,0.34468073,5.785505,0.070249505
207,1778317278.9897733,-0.39404738,-0.74187255,-0.3902667,0.36774087,5.478698,0.1133155
208,1778317278.9997668,-0.3795953,-0.72754246,-0.43283013,0.36774087,5.478698,0.1133155
209,1778317279.010686,-0.3594722,-0.720225,-0.5114323,0.36774087,5.478698,0.1133155
210,1778317279.019773,-0.4003892,-0.62851226,-0.29544407,-0.55924714,3.0286698,0.064751714
211,1778317279.0300975,-0.41697556,-0.43106174,-0.110006414,-1.9058995,0.84864455,0.35155296
212,1778317279.0401988,-0.40404797,-0.39551088,-0.047868647,-2.44621,0.495259,0.52534413
213,1778317279.0498416,-0.31471348,-0.3117255,0.0035367915,-2.5654814,0.4578435,0.5740606
214,1778317279.0600548,-0.21385394,-0.23440392,0.03738023,-3.3186781,0.68401635,0.8918633
215,1778317279.069864,-0.11586042,-0.184401,0.07482144,-3.5315647,0.95249164,0.9592112
216,1778317279.0801957,-0.11586042,-0.184401,0.07482144,-3.5315647,0.95249164,0.9592112
217,1778317279.0898693,0.006219875,-0.074577525,0.15281379,-3.571271,1.4446963,0.93386024
218,1778317279.1002514,0.0778704,-0.020732917,0.17372964,-3.476434,1.5636623,0.8518516
219,1778317279.1101832,0.0778704,-0.020732917,0.17372964,-3.476434,1.5636623,0.8518516
220,1778317279.1200602,0.1484233,-0.004573438,0.18025441,-3.2594242,1.6513215,0.6348417
221,1778317279.1299655,0.19647488,-0.015061854,0.15196009,-2.9509373,1.698969,0.23014349
222,1778317279.1398602,0.2613567,-0.05506419,0.07500438,-2.79929,1.6022996,-0.0664316
223,1778317279.1501236,0.17946169,-0.22922069,-0.052807957,-2.620612,1.3547463,-0.29871312
224,1778317279.160255,0.16799761,-0.2842239,-0.105067104,-2.4376578,1.1432343,-0.4382958
225,1778317279.1698186,0.10622571,-0.8601721,-0.70266294,-2.2879958,1.0987939,-0.51251596
226,1778317279.1801467,0.10622571,-0.8601721,-0.70266294,-2.2368357,1.1000156,-0.52503866
227,1778317279.19007,0.048112564,-1.1051254,-0.83004844,-1.6907222,1.2009611,-0.5093089
228,1778317279.2000933,-0.10433535,-1.522345,-0.8051689,-1.6136005,1.2350168,-0.49648073
229,1778317279.2101352,-0.10433535,-1.522345,-0.8051689,-1.370018,1.2536482,-0.41722095
230,1778317279.2200859,-0.48521125,-2.5128295,-0.63082945,-0.6426302,0.6620252,-0.006414085
231,1778317279.229913,-0.9642026,-3.0954854,-0.60113263,-0.34804046,0.46914452,0.39278635
232,1778317279.2403533,-1.1992164,-3.3292189,-0.6711367,-0.38255435,0.19593503,1.2508993
233,1778317279.2497678,-0.9588974,-2.6847298,-0.42947626,-0.42821655,0.41218132,1.1314751
234,1778317279.2600942,-0.75858086,-1.964139,-0.35130098,-0.321926,0.9505063,0.8749117
235,1778317279.2699053,-0.70443135,-1.8077885,-0.3339829,-0.27931812,1.0940597,0.82253003
236,1778317279.2800138,-0.3406906,-0.96828824,-0.29019985,0.29092458,1.8048013,0.514654
237,1778317279.2901595,-0.3406906,-0.96828824,-0.29019985,0.29092458,1.8048013,0.514654
238,1778317279.3000438,-0.20739016,-0.76791066,-0.32605562,0.9439395,1.3652838,0.39522982
239,1778317279.3098102,-0.22153732,-0.7830335,-0.32398233,1.2660183,0.96944314,0.44180828
240,1778317279.3198042,-0.22251299,-0.77766734,-0.32501897,1.2660183,0.96944314,0.44180828
241,1778317279.3299134,-0.20007265,-0.80736417,-0.31507936,1.4714217,0.54473907,0.55878896
242,1778317279.3400042,-0.07408969,-0.842854,-0.20092636,1.761888,-0.070554934,0.8206975
243,1778317279.3500211,0.06683317,-0.8128523,-0.23903833,2.2982278,-1.4796684,1.4556919
244,1778317279.359925,0.10134738,-0.80462015,-0.25281963,2.2982278,-1.4796684,1.4556919
245,1778317279.3698902,0.21946402,-0.7238837,-0.29465136,2.2777638,-2.5269969,1.538006
246,1778317279.3801446,0.31879908,-0.62381685,-0.29660267,2.1856759,-3.4336736,1.4940237
247,1778317279.3901463,0.36410663,-0.48612595,-0.2977003,2.0317378,-4.5152106,1.3448198
248,1778317279.3998456,0.44368443,-0.3389832,-0.25696623,1.8454239,-5.415626,1.0957395
249,1778317279.409943,0.44892865,-0.1823277,-0.19665782,1.6606371,-5.950591,0.8266534
250,1778317279.4198399,0.40240154,-0.12933682,-0.16135088,1.3202325,-6.3169575,0.41813725
251,1778317279.430214,0.24519724,-0.07280912,-0.18092519,0.47876564,-5.7630553,-0.19853121
252,1778317279.4400043,0.24519724,-0.07280912,-0.18092519,-0.35460728,-4.395328,-0.37751472
253,1778317279.4498708,0.15421632,0.0024391667,-0.64320827,-0.35460728,-4.395328,-0.37751472
254,1778317279.459982,0.06543065,0.066223375,-0.8244384,-1.6907222,-2.0430388,-0.3735441
255,1778317279.4702444,0.069638215,0.03664848,-0.17208321,-2.8927524,-0.02565634,-0.32589662
256,1778317279.4801285,0.07036996,0.042929336,-0.10671354,-3.401145,0.8051204,-0.3904956
257,1778317279.4899628,0.08524887,0.06256463,0.069638215,-3.0822732,0.7716755,-0.6956228
258,1778317279.4999092,0.15037462,0.043905,0.27843088,-2.988811,0.70921457,-0.7535023
259,1778317279.5100627,0.15903367,-0.112567544,0.40148684,-2.4856107,0.41508293,-1.0230466
260,1778317279.5198603,0.046953958,-0.3061764,0.27391842,-1.7823521,0.17440203,-1.3136657
261,1778317279.5301259,0.0018903542,-0.45734373,0.22970851,-1.2299771,-0.024892759,-1.3918564
262,1778317279.5400493,-0.08384635,-1.1401275,0.19001108,-0.18692477,-0.52656585,-1.2441798
263,1778317279.5498085,-0.11921428,-1.5552737,0.16872935,0.13958271,-1.0386237,-1.2521211
264,1778317279.5599656,-0.11921428,-1.5552737,0.16872935,0.13958271,-1.0386237,-1.2521211
265,1778317279.570258,-0.17177832,-1.8865125,0.2180615,0.1695151,-2.2627976,-1.438435
266,1778317279.5798857,-0.3111767,-2.2573268,0.32886064,0.019700404,-3.5127807,-1.6395624
267,1778317279.589981,-0.7065656,-2.5417337,0.42398816,-0.5739079,-4.8580585,-1.7137824
268,1778317279.6000915,-0.8756608,-2.4594119,0.4599049,-0.6243043,-4.7201557,-1.4584408
269,1778317279.6099088,-0.8756608,-2.4594119,0.4599049,-0.6243043,-4.7201557,-1.4584408
270,1778317279.6201606,-1.0232304,-2.2373257,0.521006,-0.2133447,-4.575686,-1.0566442
271,1778317279.630161,-1.091649,-1.9717004,0.5250916,0.4783075,-4.639369,-0.8206975
272,1778317279.6400898,-1.1509818,-1.6050937,0.3577038,1.5306755,-3.4910948,-0.39950588
273,1778317279.6502278,-1.1509818,-1.6050937,0.3577038,1.5306755,-3.4910948,-0.39950588
274,1778317279.660272,-1.0442072,-1.3835564,0.26117378,1.3129021,-1.158964,-0.4279111
275,1778317279.6702201,-1.0442072,-1.3835564,0.26117378,1.3129021,-1.158964,-0.4279111
276,1778317279.680066,-1.0259135,-1.2711717,0.19885308,1.5134187,-0.64904433,-0.9786061
277,1778317279.6899896,-1.0995153,-1.1394567,0.021037813,1.9520199,-1.7728837,-1.2351695
278,1778317279.699899,-1.1307976,-1.1318953,-0.017013188,2.0865629,-2.1642957,-1.2939653
279,1778317279.7099683,-1.2876362,-1.1168944,-0.2787358,2.5966353,-4.116163,-1.4686728
280,1778317279.7199838,-1.3036127,-1.0587202,-1.431303,2.4161248,-6.880328,-1.3794864
281,1778317279.7302504,-0.97200793,-1.0733553,-1.9528577,0.47815478,-8.444601,-1.084744
282,1778317279.740302,-0.89060074,-1.0317065,-0.7607151,-2.300824,-6.507089,0.0777326
283,1778317279.749785,-0.8352316,-1.0179253,-0.20531686,-2.038152,-4.275904,0.8202393
284,1778317279.7599304,-0.79803437,-1.0171325,-0.15470415,-2.038152,-4.275904,0.8202393
285,1778317279.7697856,-0.6621728,-0.9709713,-0.02555027,-1.1146764,-0.25427267,1.0604621
286,1778317279.780067,-0.49368733,-0.85413516,-0.0033538544,-1.1146764,-0.25427267,1.0604621
287,1778317279.789949,-0.40447482,-0.7507755,-0.09457869,-0.8046622,1.2142473,0.9242391
288,1778317279.799991,-0.3673385,-0.62034106,-0.31312802,-0.6253733,3.0390546,0.8689558
289,1778317279.8098128,-0.3673385,-0.62034106,-0.31312802,-0.6253733,3.0390546,0.8689558
290,1778317279.8202674,-0.31709167,-0.5374094,-0.4065481,-0.84803367,3.1517591,0.95172805
291,1778317279.829913,-0.22415942,-0.44722122,-0.418622,-1.1826351,2.9048169,1.0173961
292,1778317279.8401217,-0.16171674,-0.38014415,-0.38947394,-1.5468636,2.4591908,1.0401508
293,1778317279.8499818,-0.0336605,-0.29940772,-0.27330863,-2.2201898,1.835192,0.9335548
294,1778317279.8599267,0.021647604,-0.2505634,-0.19184047,-2.4911084,1.6982054,0.81596327
295,1778317279.8697734,0.06006448,-0.21769562,-0.09213952,-2.7575984,1.5694655,0.6407976
296,1778317279.880081,0.06006448,-0.21769562,-0.09213952,-2.7575984,1.5694655,0.6407976
297,1778317279.8902242,0.09012721,-0.16470474,0.10738432,-2.8996246,1.4892895,0.4437936
298,1778317279.8998597,0.09384694,-0.1349469,0.18086421,-2.8389962,1.2082914,0.089949906
299,1778317279.909781,0.09384694,-0.1349469,0.18086421,-2.8389962,1.2082914,0.089949906
300,1778317279.919767,0.0807974,-0.10024975,0.1864743,-2.745992,1.0713049,-0.0065668016
301,1778317279.930393,0.06713806,-0.11439692,0.18171792,-2.499966,0.67057735,-0.18478674
302,1778317279.9400122,0.03146525,-0.16336319,0.16165577,-2.3916903,0.46318856,-0.21013765
303,1778317279.9503255,-0.22964753,-0.6259512,0.042197585,-1.9062049,-0.26710084,0.19792034
304,1778317279.9597702,-0.30806676,-0.9238344,-0.05353971,-1.8350391,-0.33383787,0.26145032
305,1778317279.970163,-0.39508402,-1.2627566,-0.21525647,-1.0885619,-0.68875057,0.7089091
306,1778317279.98011,-0.42411014,-1.3534327,-0.27355254,-0.97600996,-0.70325863,0.75228053
307,1778317279.9902148,-0.7644348,-2.4980726,-1.0888441,-0.38026363,-0.36957347,1.0002918
308,1778317280.0002975,-0.7644348,-2.4980726,-1.0888441,-0.38026363,-0.36957347,1.0002918
309,1778317280.0102882,-0.910419,-3.296229,-0.8466348,-1.2417363,0.18035796,0.30665436
310,1778317280.0200007,-0.9387134,-3.3283038,-0.74681187,-1.3074044,0.14676037,0.18127427
311,1778317280.0299647,-1.0966494,-3.2364693,-0.36227724,-1.3942999,-0.021380283,-0.3031419
312,1778317280.039816,-1.3355048,-2.6632042,-0.20641449,-1.271516,0.15057829,-0.25457808
313,1778317280.0503018,-1.0746968,-1.8709018,-0.21080498,-1.1267409,0.6085745,0.41157046
314,1778317280.0602674,-0.41234115,-1.1062231,-0.17440042,-1.1433871,0.8312349,0.59773165
315,1778317280.0701559,-0.41234115,-1.1062231,-0.17440042,-1.1433871,0.8312349,0.59773165
316,1778317280.0798385,-0.24958774,-0.96590996,-0.14208147,-0.7012733,0.3950771,0.19226983
317,1778317280.0903323,-0.16586334,-0.9185901,-0.1372641,-0.7012733,0.3950771,0.19226983
318,1778317280.099764,-0.14086188,-0.8865761,-0.10049367,-0.366061,0.0065668016,0.02321288
319,1778317280.1101568,-0.15098442,-0.8610868,-0.077260606,0.61208695,-0.84788096,0.030085113
320,1778317280.1202152,-0.12622687,-0.83139,-0.09555435,1.0948232,-1.4272866,0.19501872
321,1778317280.1298783,-0.12622687,-0.83139,-0.09555435,1.0948232,-1.4272866,0.19501872
322,1778317280.139946,-0.070735835,-0.8036444,-0.10122541,1.4124732,-1.9920316,0.33292156
323,1778317280.150015,0.06713806,-0.6649168,-0.084029295,1.8252654,-3.6361754,0.50976706
324,1778317280.1602826,0.16074108,-0.57094795,-0.047319833,1.8495473,-4.407698,0.46563202
325,1778317280.1699443,0.16074108,-0.57094795,-0.047319833,1.738828,-4.9301405,0.28405234
326,1778317280.179882,0.28922418,-0.42026842,-0.06921136,1.738828,-4.9301405,0.28405234
327,1778317280.1900601,0.37227783,-0.3187381,-0.22769623,0.93294394,-4.7436743,-0.2405282
328,1778317280.2000191,0.36989963,-0.29891986,-0.33855635,0.08811731,-3.9516873,-0.54504454
329,1778317280.210057,0.32751912,-0.29751736,-0.34825203,-0.70096785,-3.0202706,-0.7602218
330,1778317280.220292,0.26355198,-0.27952853,-0.2862972,-1.5859588,-1.7768543,-0.9505063
331,1778317280.2299132,0.26355198,-0.27952853,-0.2862972,-1.5859588,-1.7768543,-0.9505063
332,1778317280.2398655,0.17769329,-0.28257746,-0.2294646,-2.2640193,-0.73532903,-1.0456486
333,1778317280.2501223,0.15464316,-0.16994894,-0.17757133,-3.000723,0.48762318,-1.171945
334,1778317280.2602746,0.22153732,0.09049308,-0.3825223,-3.0712776,0.9466884,-1.2289082
335,1778317280.27025,0.2344649,0.26617405,-0.46533203,-2.4937046,0.77839506,-1.1997393
336,1778317280.2798803,0.22440335,0.26153967,-0.4311227,-1.7212656,-0.19318613,-1.2437216
337,1778317280.2901585,0.21763465,0.21525647,-0.4122192,-1.5387696,-0.4981606,-1.2800682
338,1778317280.2997804,0.117689796,-0.032501895,-0.30142003,-0.98639464,-1.7142406,-1.4818064
339,1778317280.309766,-0.1167751,-0.45697787,-0.10659158,-0.5891795,-2.9509373,-1.6826283
340,1778317280.32015,-0.46234405,-1.0024366,0.40935317,-0.116217114,-4.1190643,-1.5635096
341,1778317280.329799,-0.46234405,-1.0024366,0.40935317,-0.116217114,-4.1190643,-1.5635096
342,1778317280.3398826,-0.56869173,-1.3020881,0.506371,-0.25259277,-4.0898957,-1.3585643
343,1778317280.3502054,-0.6356468,-1.6744269,0.6068037,-0.6236934,-3.7458258,-1.0667235
344,1778317280.360018,-0.59881544,-2.312452,0.7879728,-0.9636399,-3.5786014,-0.83169305
345,1778317280.3699956,-0.6491842,-2.9157188,1.0495124,-1.1878275,-3.391982,-0.7994699
346,1778317280.3799102,-0.752361,-3.2178707,1.2144002,-1.1641564,-2.9303205,-0.83001316
347,1778317280.3900428,-0.9096872,-3.1488423,1.1551894,-0.8733846,-1.9289597,-0.8416196
348,1778317280.4001179,-1.0589032,-2.5774064,0.8713923,-0.44929138,-0.8417723,-0.50686544
349,1778317280.4101458,-0.83078015,-1.6397907,0.36111864,0.1826487,-0.032528576,0.26725355
350,1778317280.4203176,-0.58320475,-1.2122048,0.046283185,1.3920091,-2.9304733,0.06841691
351,1778317280.4300263,-0.58320475,-1.2122048,0.046283185,1.3920091,-2.9304733,0.06841691
352,1778317280.4400861,-0.49106526,-1.0728675,-0.1539724,1.8904753,-4.8693595,-0.18692477
353,1778317280.4500835,-0.4179512,-1.0071929,-0.4941142,1.8319849,-6.859253,-0.45830166
354,1778317280.460121,-0.6708928,-1.0152422,-0.46521008,-0.03359759,-7.585572,-0.43982297
355,1778317280.4702792,-0.6854668,-1.0498173,-0.22397648,-0.8217665,-6.728528,-0.18707748
356,1778317280.4800708,-0.6721124,-1.0514638,-0.17714448,-0.9857838,-6.4686046,-0.121256754
357,1778317280.490266,-0.54869056,-1.0381093,0.015183813,-1.8034269,-4.426788,0.2125811
358,1778317280.4998014,-0.54869056,-1.0381093,0.015183813,-1.8532125,-4.2390995,0.22052236
359,1778317280.510248,-0.49698022,-0.91743153,0.027806502,-1.8738291,-3.4012976,-0.10644327
360,1778317280.5200202,-0.49551672,-0.8988939,0.028172374,-1.8449658,-3.356552,-0.16798794
361,1778317280.530109,-0.5003341,-0.837366,0.02628202,-1.7047722,-3.1496212,-0.4120286
362,1778317280.5399203,-0.49258974,-0.7774234,0.0131715005,-1.5815301,-2.8171577,-0.6591236
363,1778317280.549823,-0.48246717,-0.7356527,-0.02426971,-1.545031,-2.3399193,-0.75228053
364,1778317280.5598469,-0.4131339,-0.63918364,-0.21092694,-1.7519615,-0.94042706,-0.61712664
365,1778317280.569774,-0.34904477,-0.5582033,-0.37410718,-1.9533943,-0.5364924,-0.5138904
366,1778317280.5799372,-0.27879676,-0.47624728,-0.45679495,-2.2708917,-0.3407101,-0.39660427
367,1778317280.590293,-0.21653701,-0.43423265,-0.45191658,-2.5978572,-0.56428677,-0.31398472
368,1778317280.600339,-0.14269125,-0.42404914,-0.38191253,-2.8545732,-0.96486163,-0.2677117
369,1778317280.6097767,-0.12415359,-0.424415,-0.36044785,-2.9119947,-1.0926852,-0.2556471
370,1778317280.6201036,-0.042380523,-0.38807142,-0.24727054,-3.4445164,-2.3031147,-0.19272798
371,1778317280.6300533,-0.04256346,-0.36514327,-0.17622979,-3.6731327,-2.6586382,-0.16264287
372,1778317280.639753,-0.047380816,-0.36117962,-0.16354613,-3.726889,-2.733011,-0.15470162
373,1778317280.6498802,-0.034880083,-0.32605562,-0.08921252,-3.8626537,-2.9277244,-0.13576481
374,1778317280.6602614,0.009939604,-0.18403512,0.13848369,-3.9619193,-3.333339,-0.112399206
375,1778317280.6697898,0.022318374,-0.099822894,0.16757075,-3.830278,-3.3286047,-0.13530666
376,1778317280.680157,0.03963646,-0.03237994,0.10604277,-3.7374263,-3.232546,-0.15714508
377,1778317280.6898143,0.042990312,-0.02561125,0.09482261,-3.780034,-2.846632,-0.21868975
378,1778317280.7003314,0.034636166,-0.07524829,-0.030672522,-3.780034,-2.846632,-0.21868975
379,1778317280.7102995,-0.19135264,-0.32739717,-0.15470415,-3.974442,-2.1771238,-0.37125334
380,1778317280.7201045,-0.5380192,-0.7866922,-0.37447307,-4.1372375,-2.0922134,-0.4538729
381,1778317280.7301745,-0.5380192,-0.7866922,-0.37447307,-4.1372375,-2.0922134,-0.4538729
382,1778317280.7400527,-0.9854843,-1.2567806,-0.14567922,-3.4753652,-3.6796994,-0.13316862
383,1778317280.7498698,-1.1102476,-1.4713663,-0.041404855,-2.6798658,-4.616767,0.13805555
384,1778317280.7598379,-1.1401885,-1.8405342,-0.2816018,-1.4158329,-5.3016996,0.45921794
385,1778317280.7702813,-1.1524453,-2.3260505,-0.69412583,-0.5348125,-3.5999815,0.21319197
386,1778317280.780266,-1.5254549,-2.154211,-0.7916316,0.27305678,0.4454735,-0.3303254
387,1778317280.7902324,-1.3578231,-1.7558951,-0.8007784,0.41401392,1.4979943,-0.13805555
388,1778317280.7999008,-1.0545127,-1.2710497,-0.7063827,0.3726278,2.0245602,0.12644911
389,1778317280.809852,-1.0545127,-1.2710497,-0.7063827,0.3726278,2.0245602,0.12644911
390,1778317280.8200698,-0.6998579,-0.9104799,-0.42593947,0.2910773,1.2356277,0.47815478
391,1778317280.8298807,-0.47704002,-0.8601112,-0.32922652,0.39736784,0.34132096,0.48808134
392,1778317280.8402576,-0.5145422,-0.86358696,-0.33593425,0.42623124,0.14996742,0.4654793
393,1778317280.8503065,-0.2534904,-0.85133016,-0.39173016,0.7101309,-1.4133894,0.031001411
394,1778317280.8597958,-0.2534904,-0.85133016,-0.39173016,0.7101309,-1.4133894,0.031001411
395,1778317280.8706617,-0.11012838,-0.91523635,-0.5359459,0.8689558,-2.3890939,-0.6113234
396,1778317280.8801258,-0.03878275,-0.9446283,-0.47002742,0.9787588,-2.352442,-0.795652
397,1778317280.8897657,0.045673396,-0.95347023,-0.39307174,1.1343768,-2.1922426,-0.9137017
398,1778317280.8998635,0.15202107,-0.97792286,-0.3199577,1.3720033,-1.8982637,-1.0462594
399,1778317280.9100711,0.20915854,-0.9947531,-0.27507702,1.6085609,-1.5735888,-1.1582005
400,1778317280.920223,0.25391725,-0.9786547,-0.28068712,1.7844901,-1.3362677,-1.1798862
401,1778317280.930158,0.25971028,-0.9568241,-0.29599288,1.9720258,-1.1582005,-1.1183416
402,1778317280.9397967,0.2728208,-0.9197487,-0.30946928,2.1343632,-1.0296134,-0.98654735
403,1778317280.949917,0.2728208,-0.9197487,-0.30946928,2.1343632,-1.0296134,-0.98654735
404,1778317280.9599254,0.31215236,-0.78425306,-0.34319076,2.1728477,-0.89812464,-0.77091193
405,1778317280.9698472,0.35666716,-0.6866255,-0.4230125,1.8956676,-0.79809546,-0.7892379
406,1778317280.98017,0.31715265,-0.59991306,-0.45331916,1.3550519,-0.7838928,-0.90224797
407,1778317280.990218,0.27794304,-0.5459465,-0.4106947,0.8582657,-0.7673995,-1.052368
408,1778317281.0000923,0.27166218,-0.5302748,-0.40886533,0.28130344,-0.75502944,-1.3069462
409,1778317281.010062,0.19806033,-0.4538679,-0.21952501,-0.21288654,-0.88040954,-1.5688547
410,1778317281.0201914,0.12872702,-0.36935082,-0.060918186,-0.56306505,-1.1861476,-1.790446
411,1778317281.030125,0.032684833,-0.32062846,0.000365875,-0.7648033,-1.6143641,-1.9230038
412,1778317281.0402262,0.011281146,-0.31032297,0.004268542,-0.80664754,-1.7362317,-1.9428569
413,1778317281.0500972,-0.10342067,-0.2973954,0.037075333,-0.9857838,-2.1774292,-1.9653062
414,1778317281.060214,-0.304469,-0.38361996,0.1411058,-1.235475,-3.0106494,-1.7223345
415,1778317281.0698385,-0.44600162,-0.4622221,0.28294334,-1.2899947,-3.3790011,-1.5893186
416,1778317281.0799873,-0.44600162,-0.4622221,0.28294334,-1.2899947,-3.3790011,-1.5893186
417,1778317281.0901337,-0.82949966,-0.758154,0.65229416,-1.0103711,-3.4507778,-1.0780244
418,1778317281.1002,-0.92974937,-0.85224485,0.6721733,-1.0103711,-3.4507778,-1.0780244
419,1778317281.109846,-0.9445673,-0.91554123,0.6229632,-0.7664832,-2.534938,-0.46486846
420,1778317281.1197999,-0.8893812,-0.9825573,0.44624552,-0.66752297,-1.8226691,-0.09330966
421,1778317281.1302538,-0.86456263,-1.0383532,0.3451421,-0.73364913,-0.77625704,0.33399057
422,1778317281.1400807,-0.86456263,-1.0383532,0.3451421,-0.73364913,-0.77625704,0.33399057
423,1778317281.1499522,-0.90297955,-1.1376274,0.24836816,-0.66966105,-1.1345295,0.30955598
424,1778317281.1603394,-0.94322574,-1.2186077,0.17537609,-0.2883284,-2.632982,0.1591304
425,1778317281.1700764,-1.0015829,-1.3046492,0.08152915,0.3199407,-4.9335003,-0.03756821
426,1778317281.180011,-1.1878742,-1.5405777,-0.09683492,1.1754575,-9.186649,-0.10415252
427,1778317281.1902971,-1.0650622,-1.5508223,-0.16677801,1.0242683,-9.360746,0.12034045
428,1778317281.200236,-0.8949912,-1.4677685,-0.23068418,0.47525316,-8.099004,0.44180828
429,1778317281.210297,-0.8949912,-1.4677685,-0.23068418,0.47525316,-8.099004,0.44180828
430,1778317281.2204998,-0.6384519,-1.3373951,-0.2209885,-0.9271407,-3.372587,0.77839506
431,1778317281.229856,-0.54808074,-1.3793488,-0.13012955,-1.3622295,-1.0916162,0.77366084
432,1778317281.240178,-0.50185853,-1.4513652,-0.013659334,-1.0740538,-0.38820487,0.6339254
433,1778317281.2500231,-0.50185853,-1.4513652,-0.013659334,-1.0740538,-0.38820487,0.6339254
434,1778317281.260274,-0.44405028,-1.5102102,0.1027499,-0.31108314,-0.8518516,0.36850446
435,1778317281.269857,-0.43874508,-1.4974045,0.19824328,0.72616607,-1.7424932,-0.21594086
436,1778317281.2800758,-0.5711919,-1.4325836,0.1683025,1.3852897,-1.9416351,-0.71944654
437,1778317281.2898798,-0.7418116,-1.2637932,0.06457694,1.5731307,-1.5836681,-0.9816604
438,1778317281.299763,-0.8713923,-1.1937891,0.01603752,1.5387696,-1.1430815,-1.0876455
439,1778317281.309881,-0.8713923,-1.1937891,0.01603752,1.449736,-0.7475463,-1.1575897
440,1778317281.3200839,-1.1907402,-1.1012228,-0.2697718,1.4608842,-1.4517213,-1.1615603
441,1778317281.3300743,-1.1907402,-1.1012228,-0.2697718,1.449736,-1.596649,-1.1498011
442,1778317281.3400254,-1.3894103,-1.0570738,-0.5511297,1.2014192,-2.0792327,-0.9549351
443,1778317281.3497934,-1.5069171,-0.97395927,-0.8451103,0.57344973,-1.9084958,-0.5311473
444,1778317281.3603957,-1.4559996,-0.86938,-0.91188246,0.0009162979,-1.4075862,-0.10430524
445,1778317281.3698635,-1.2108023,-0.72016394,-0.9305421,-0.37827832,-1.0389291,0.23518312
446,1778317281.3801296,-0.87870985,-0.6064988,-1.0023755,-0.69898254,-0.5145013,0.5160284
447,1778317281.3899415,-0.5071027,-0.61308455,-1.0309138,-0.69898254,-0.5145013,0.5160284
448,1778317281.3999808,-0.28965104,-0.67638093,-0.91584617,-0.8874345,-0.0038179078,0.52687126
449,1778317281.409776,-0.18403512,-0.7539464,-0.67156357,-1.2040154,0.71883565,0.52290064
450,1778317281.4200804,-0.17494924,-0.763947,-0.4730154,-1.5141822,1.3429873,0.5558874
451,1778317281.4297829,-0.16086306,-0.70327276,-0.37008256,-1.7172949,1.674687,0.6032294
452,1778317281.440224,-0.134642,-0.5630816,-0.054576356,-2.1401663,2.8011227,0.67256266
453,1778317281.4500349,-0.134642,-0.5630816,-0.054576356,-2.1401663,2.8011227,0.67256266
454,1778317281.460252,-0.17147341,-0.50807846,0.07829725,-2.2440135,3.444669,0.7031059
455,1778317281.4697888,-0.18537667,-0.46283188,0.12384869,-2.2884538,3.7823248,0.7322747
456,1778317281.4799476,-0.14793546,-0.32215294,0.21202457,-2.3655756,4.3053784,0.77671516
457,1778317281.4902422,-0.07817529,-0.25891754,0.2537953,-2.3693936,4.675257,0.68203104
458,1778317281.5003407,-0.021098793,-0.22903776,0.27641857,-2.2826507,4.656015,0.5224425
459,1778317281.5101333,-0.018171793,-0.22952558,0.27788207,-2.2826507,4.656015,0.5224425
460,1778317281.5200925,-0.10848194,-0.39770615,0.23245259,-2.1838431,4.062559,0.2910773
461,1778317281.5303142,-0.15958248,-0.5293601,0.2579419,-2.1838431,4.062559,0.2910773
462,1778317281.5397916,-0.15958248,-0.5293601,0.2579419,-2.300213,2.9055805,0.12614368
463,1778317281.5499501,-0.2531855,-0.8130962,0.25044146,-2.3324363,2.7262917,0.09773844
464,1778317281.5597525,-0.30282256,-1.0984178,0.29166338,-2.5213463,1.589624,-0.110872045
465,1778317281.5699778,-0.34654462,-1.4534385,0.36313096,-2.6225972,0.7457138,-0.2750421
466,1778317281.5799809,-0.91871214,-3.1079862,-0.6518673,-1.1209377,-3.098614,-0.38896844
467,1778317281.5901577,-1.349408,-3.2862892,-1.2262301,-0.89965177,-3.448487,0.051923547
468,1778317281.6002007,-1.4061186,-2.897974,-0.8884055,-1.1253664,-2.0873265,0.9789116
469,1778317281.6101677,-1.16208,-2.1373808,-0.59058326,-1.1253664,-2.0873265,0.9789116
470,1778317281.6200316,-0.7791918,-1.601191,-0.32995826,-1.284955,-0.33017266,2.355191
471,1778317281.6299868,-0.48838213,-1.2986124,-0.18452296,-1.2733486,-0.18982637,2.3973405
472,1778317281.6401038,-0.43325698,-1.2354989,-0.15439926,-1.2156218,0.18661933,2.3791673
473,1778317281.6500828,-0.257515,-1.018596,-0.051466417,-0.96486163,0.7800749,1.9869919
474,1778317281.6600006,-0.15391143,-0.80577874,0.022379354,-0.42210788,1.4862351,1.2460123
475,1778317281.669788,-0.1460451,-0.69632107,0.032745812,0.13713925,1.9824104,0.65286225
476,1778317281.6803322,-0.18305947,-0.6032669,0.0034148335,1.0725267,2.4173465,0.0627664
477,1778317281.6898015,-0.19214535,-0.53838503,-0.08976133,1.0725267,2.4173465,0.0627664
478,1778317281.7002978,-0.19177948,-0.45539245,-0.24348982,1.5777122,2.2638667,-0.124311075
479,1778317281.7102602,-0.18744996,-0.45008725,-0.25672227,2.3338106,1.5483906,-0.101098195
480,1778317281.719988,-0.16257046,-0.45978296,-0.23867247,2.7221682,1.1867584,-0.022143865
481,1778317281.7299168,-0.16257046,-0.45978296,-0.23867247,2.7221682,1.1867584,-0.022143865
482,1778317281.7400303,-0.11598238,-0.45356306,-0.26367393,3.1268666,0.90117896,-0.06719518
483,1778317281.7498713,-0.09713981,-0.46063665,-0.29294392,3.3672419,0.5859725,-0.2078469
484,1778317281.7601502,-0.102810875,-0.52112794,-0.36520424,3.3421965,-0.66905016,-0.8868236
485,1778317281.770153,-0.102810875,-0.52112794,-0.36520424,3.3421965,-0.66905016,-0.8868236
486,1778317281.7801301,-0.15738723,-0.5431415,-0.3770952,3.0246992,-1.022283,-1.1388055
487,1778317281.7898045,-0.25239277,-0.5469831,-0.52173775,2.4161248,-0.93477654,-1.2298244
488,1778317281.7999103,-0.40776768,-0.47844255,-1.0384753,-0.103847094,2.3663392,-0.47678033
489,1778317281.8101401,-0.3966085,-0.38892514,-0.93962806,-1.4558446,4.3208027,0.10064005
490,1778317281.8197806,-0.22653762,-0.4191098,-0.7646788,-1.6600263,4.5478916,0.18768835
491,1778317281.8298242,-0.22653762,-0.4191098,-0.7646788,-2.2368357,4.9221992,0.39492437
492,1778317281.840009,-0.07366284,-0.46362463,-0.37929043,-2.27868,3.1236594,0.37201694
493,1778317281.8500946,-0.07366284,-0.46362463,-0.37929043,-2.27868,3.1236594,0.37201694
494,1778317281.860055,-0.043722063,-0.38569325,-0.10579886,-1.95034,1.0332786,0.26160303
495,1778317281.8699539,-0.0102445,-0.28050417,0.3202016,-1.3454307,-1.6210836,0.1704314
496,1778317281.880318,0.03731925,-0.2367821,0.5172863,-0.75701475,-3.7895026,0.06856962
497,1778317281.890206,0.057564333,-0.25922245,0.5993643,-0.3032946,-5.48725,-0.6588182
498,1778317281.9002166,0.057564333,-0.25922245,0.5993643,-0.344528,-4.3730316,-1.0114402
499,1778317281.9101555,-0.040612124,-0.52545744,0.6546724,-0.344528,-4.3730316,-1.0114402
500,1778317281.9199736,-0.040612124,-0.52545744,0.6546724,-0.591623,-0.5839872,-1.3098478
501,1778317281.9301877,-0.24635585,-0.90541863,0.62473154,-0.6533204,1.5551102,-1.159575
502,1778317281.9404256,-0.34733734,-1.1272609,0.5953396,-0.65011334,2.820823,-0.97127575
503,1778317281.950236,-0.43453756,-1.3522741,0.600096,-0.65011334,2.820823,-0.97127575
504,1778317281.960074,-0.45356306,-1.4055088,0.6024742,-0.5459608,3.852269,-0.61468315
505,1778317281.9700603,-0.58540004,-1.6382053,0.62985384,-0.3998113,4.1847324,-0.40439278
506,1778317281.9798815,-0.71059024,-1.8221796,0.6333906,-0.2003638,4.344168,-0.20570888
507,1778317281.9898064,-0.88242954,-2.048656,0.6408301,2.1073325,2.1073325,0.041996986
508,1778317281.9998195,-1.042195,-2.160065,0.3907545,2.1073325,2.1073325,0.041996986
509,1778317282.0102832,-1.042195,-2.160065,0.3907545,4.4984117,-0.46410486,-0.28053987
510,1778317282.0201588,-1.0445732,-2.0060925,-0.43569615,5.879425,-2.0030272,-0.6400341
511,1778317282.0301085,-1.0902466,-1.8913299,-1.8296189,5.212513,-1.5525141,-0.7593055
512,1778317282.0402226,-1.0412803,-2.0750601,-1.3849589,3.4794884,0.3005457,-0.49464813
513,1778317282.0498576,-0.9071261,-2.0362163,-0.71430993,2.5196664,1.4135422,-0.22632557
514,1778317282.0599265,-0.7179687,-1.8679138,-0.18769388,1.9785925,1.9836322,0.15958855
515,1778317282.0699563,-0.6336955,-1.7812625,-0.072870106,1.8299996,1.9811887,0.36850446
516,1778317282.080031,-0.5055173,-1.5850925,0.0746385,1.6525432,1.6821702,0.7087564
517,1778317282.0898833,-0.45063603,-1.4089236,0.13421515,1.7921259,0.4886922,0.8361218
518,1778317282.100193,-0.43100074,-1.2170222,0.14354497,1.7921259,0.4886922,0.8361218
519,1778317282.1101983,-0.4267932,-1.1031132,0.08463909,2.07572,-0.29932398,0.6889033
520,1778317282.1202571,-0.60314494,-0.6829667,-1.8906592,2.4538457,-1.3545936,0.007788532
521,1778317282.1301363,-0.60314494,-0.6829667,-1.8906592,2.249664,-1.086882,-0.07422013
522,1778317282.1401608,-0.57796055,-0.7001018,-1.9023061,2.249664,-1.086882,-0.07422013
523,1778317282.1499536,-0.55667883,-0.7584589,-1.2409871,1.3345878,0.21181752,-0.3979787
524,1778317282.1598935,-0.365875,-0.88877136,-0.6107064,0.7170031,1.4702,-0.2706133
525,1778317282.1698625,-0.14409378,-0.87755126,-0.5205182,0.72250086,1.2334896,-0.13133603
526,1778317282.1799428,0.013903251,-0.7336404,-0.46240503,0.25610524,0.68875057,-0.17959438
527,1778317282.1898062,0.032014064,-0.600096,-0.3405077,-0.32253686,0.5323691,-0.30268374
528,1778317282.1999934,0.03158721,-0.47106406,-0.23757485,-0.78969604,0.603993,-0.41386122
529,1778317282.2100973,0.03158721,-0.47106406,-0.23757485,-0.78969604,0.603993,-0.41386122
530,1778317282.2202535,-0.021037813,-0.38502246,-0.14537434,-1.120785,0.7901542,-0.47647488
531,1778317282.2299573,-0.021037813,-0.38502246,-0.14537434,-1.120785,0.7901542,-0.47647488
532,1778317282.240074,-0.114153,-0.13452004,0.010061563,-1.9004018,2.154827,-0.30711251
533,1778317282.25019,-0.114153,-0.13452004,0.010061563,-1.9004018,2.154827,-0.30711251
534,1778317282.2599573,-0.114153,-0.13452004,0.010061563,-1.9004018,2.154827,-0.30711251
535,1778317282.2699327,-0.09616415,0.0034758127,0.21098791,-2.0949624,3.0327933,-0.20250183
536,1778317282.2800233,-0.08524887,0.052076213,0.25647837,-2.0949624,3.0327933,-0.20250183
537,1778317282.2900846,-0.094517715,0.08183405,0.24598998,-2.0949624,3.0327933,-0.20250183
538,1778317282.299951,-0.094517715,0.08183405,0.24598998,-2.064419,3.0984612,-0.21762075
539,1778317282.3097937,-0.30776188,-0.2209885,0.14525238,-2.0680842,3.5387423,-0.1414153
540,1778317282.3198721,-0.30776188,-0.2209885,0.14525238,-2.0680842,3.5387423,-0.1414153
541,1778317282.3298674,-0.30776188,-0.2209885,0.14525238,-2.0680842,3.5387423,-0.1414153
542,1778317282.3402908,-0.45002624,-0.38703477,0.12872702,-2.0680842,3.5387423,-0.1414153
543,1778317282.3500965,-0.73986024,-0.9289566,0.12451946,-1.8912388,3.4322991,0.68752885
544,1778317282.3600137,-1.0282917,-1.6521086,0.028477272,-1.1904236,1.6514742,0.851088
545,1778317282.3698123,-1.1925696,-2.2183611,-0.19043794,-0.11026118,-1.5267049,1.0813842
546,1778317282.3801048,-1.4538043,-3.328426,-1.1729952,0.07941248,-4.0596576,1.1391109
547,1778317282.3900225,-1.4538043,-3.328426,-1.1729952,-0.39446622,-4.8563786,1.1079569
548,1778317282.400011,-1.5387483,-3.5227056,-0.8587086,-1.4792101,-4.4086146,1.1307116
549,1778317282.409963,-1.645035,-3.0571296,-0.28385803,-1.9685133,-2.2043073,1.5818355
550,1778317282.420105,-0.9652392,-1.814862,0.009024917,-1.2330315,2.0056233,2.8170052
551,1778317282.4301279,-0.45838037,-1.4275833,0.03683142,-1.1296426,2.3212879,2.8602238
552,1778317282.4398003,-0.17824212,-1.2413529,0.08805392,-0.27962357,3.5935676,2.2847888
553,1778317282.4503458,-0.17824212,-1.2413529,0.08805392,-0.27962357,3.5935676,2.2847888
554,1778317282.4600868,0.0073175007,-1.0915881,0.2294646,0.7502952,3.3961053,1.2272283
555,1778317282.4700484,0.010732334,-1.0789044,0.22836697,0.8874345,3.3576207,1.1200215
556,1778317282.480267,0.010732334,-1.0789044,0.22836697,0.8874345,3.3576207,1.1200215
557,1778317282.490163,-0.033294626,-1.097808,0.1671439,2.636189,3.0955596,0.34972036
558,1778317282.49997,-0.033294626,-1.097808,0.1671439,2.636189,3.0955596,0.34972036
559,1778317282.5102198,0.026221042,-1.0371337,-0.03731925,3.1401527,2.3058636,0.12660182
560,1778317282.5198448,0.025733208,-1.0181081,-0.036953375,3.142138,2.1546745,0.10399981
561,1778317282.5302858,0.05372265,-0.7764478,0.10903075,3.1603115,0.91858864,-0.00870483
562,1778317282.540166,0.06500379,-0.7485803,0.1185435,3.181997,0.8038987,-0.023060163
563,1778317282.5500984,0.108298995,-0.66570956,0.10177423,3.2357533,0.36361754,-0.10934488
564,1778317282.5598612,0.13415417,-0.5950957,-0.0037197291,3.1592424,-0.20616703,-0.26633725
565,1778317282.5700223,0.12738548,-0.52112794,-0.1203119,2.8470902,-0.7796168,-0.42317688
566,1778317282.5802183,0.12738548,-0.52112794,-0.1203119,2.8470902,-0.7796168,-0.42317688
567,1778317282.5902028,0.07805333,-0.3987428,-0.30696914,1.845882,-1.3593279,-0.47540587
568,1778317282.5999615,0.07805333,-0.3987428,-0.30696914,1.2356277,-1.2078333,-0.44929138
569,1778317282.6099038,0.36398467,-0.055613004,-1.3188574,-0.20830505,0.2875648,-0.5027421
570,1778317282.6199648,0.4603317,0.03731925,-1.4480113,-1.9057468,2.6051877,-0.6236934
571,1778317282.629814,0.4603317,0.03731925,-1.4480113,-1.9057468,2.6051877,-0.6236934
572,1778317282.6401465,0.14043503,0.08915155,-1.2852579,-3.2365167,3.1041117,-0.1910481
573,1778317282.6504138,0.14043503,0.08915155,-1.2852579,-3.2365167,3.1041117,-0.1910481
574,1778317282.6600888,-0.12866604,0.08366342,-0.93048114,-2.4414756,1.5108224,-0.035124753
575,1778317282.6699915,-0.36788732,0.0012805625,-0.5371655,-1.8999436,-0.23823744,-0.115453534
576,1778317282.6799314,-0.4256346,-0.24916087,0.23891638,-1.4746287,-2.3948972,-0.30589077
577,1778317282.6900027,-0.26117378,-0.43947688,0.96383667,-1.1494957,-3.1936035,-0.61346143
578,1778317282.7002547,-0.27404037,-0.6173531,1.170495,-0.9784534,-2.461787,-0.9117164
579,1778317282.709895,-0.4853332,-1.1040888,1.3213576,-0.5842926,0.6412558,-1.3831517
580,1778317282.719772,-0.588327,-1.3130645,1.162141,-0.5374087,1.0323622,-1.3927728
581,1778317282.7302506,-0.7018092,-1.4638659,0.9312738,-0.15943582,3.9619193,-1.0398453
582,1778317282.740051,-0.7018092,-1.4638659,0.9312738,-0.12293663,4.1610613,-0.94791013
583,1778317282.7499192,-0.72077376,-1.5532004,0.70711446,0.124311075,4.8461466,-0.15378532
584,1778317282.7603586,-0.72077376,-1.5532004,0.70711446,0.124311075,4.8461466,-0.15378532
585,1778317282.7699206,-0.72077376,-1.5532004,0.70711446,0.124311075,4.8461466,-0.15378532
586,1778317282.7798848,-0.72077376,-1.5532004,0.70711446,0.124311075,4.8461466,-0.15378532
587,1778317282.7900772,-0.72077376,-1.5532004,0.70711446,0.124311075,4.8461466,-0.15378532
588,1778317282.799858,-0.84407365,-1.5878365,0.31788442,2.2343924,-0.19165897,0.9934196
589,1778317282.8099492,-0.84407365,-1.5878365,0.31788442,2.2343924,-0.19165897,0.9934196
590,1778317282.8198884,-0.69034517,-1.393069,0.16342416,4.9035683,-3.8536434,1.3523029
591,1778317282.830311,-0.5540567,-1.4746592,-0.14945993,5.4238725,-4.1796927,1.2809844
592,1778317282.8399358,-0.5540567,-1.4746592,-0.14945993,5.6752434,-4.03843,1.0658071
593,1778317282.8498547,-0.40154782,-1.8302287,-0.8603551,5.0897293,-3.414126,0.8533788
594,1778317282.8602498,-0.3123353,-2.0258498,-0.67083186,3.4935384,-1.5383114,0.6215554
595,1778317282.8701963,-0.31550622,-2.0386555,-0.61363333,2.2742512,0.20662516,0.5225952
596,1778317282.880013,-0.37764397,-1.9777373,-0.2476364,1.0506883,2.3451116,0.43386704
597,1778317282.8900638,-0.38691282,-1.9533455,-0.251722,1.0810788,2.3667974,0.409127
598,1778317282.9000883,-0.4475871,-1.8094349,-0.34819105,1.4969252,2.0002782,0.24083363
599,1778317282.9099684,-0.42148802,-1.5243572,-0.6688805,2.1203132,1.1128438,-0.0033597588
600,1778317282.919833,-0.35989904,-1.3534936,-0.97755706,2.156507,0.7987063,-0.17088956
601,1778317282.9298322,-0.18092519,-0.9843867,-1.0518907,1.1751521,1.455081,-0.56092703
602,1778317282.9401805,-0.18092519,-0.9843867,-1.0518907,1.1751521,1.455081,-0.56092703
603,1778317282.9501855,-0.31593305,-0.92981035,-0.7637031,0.7651087,1.5932893,-0.73532903
604,1778317282.9600575,-0.36630186,-0.9267614,-0.59381515,0.06352998,1.4537066,-0.45631635
605,1778317282.969791,-0.36630186,-0.9267614,-0.59381515,0.06352998,1.4537066,-0.45631635
606,1778317282.980219,-0.36630186,-0.9267614,-0.59381515,0.06352998,1.4537066,-0.45631635
607,1778317282.9900422,-0.31971377,-0.8340121,-0.5175302,0.06352998,1.4537066,-0.45631635
608,1778317283.0002034,-0.17812014,-0.51948154,-0.3445323,-1.0366384,-0.8034405,-0.009162978
609,1778317283.0099819,-0.22537899,-0.43246427,-0.2499536,-1.2748758,-1.0821478,0.027947085
610,1778317283.0197632,-0.25105122,-0.34227607,-0.12079973,-1.5864171,-1.0641272,0.1777618
611,1778317283.0300245,-0.25105122,-0.34227607,-0.12079973,-1.5864171,-1.0641272,0.1777618
612,1778317283.0401807,-0.21293926,-0.07823627,0.10061563,-1.9036088,0.36987892,0.59605175
613,1778317283.0500576,-0.2004995,-0.014330104,0.16696097,-1.8481728,0.9334021,0.7325801
614,1778317283.060054,-0.2004995,-0.014330104,0.16696097,-1.8481728,0.9334021,0.7325801
615,1778317283.070023,-0.17299789,0.024025792,0.21440275,-1.7180585,1.5019649,0.8782715
616,1778317283.0799289,-0.17299789,0.024025792,0.21440275,-1.7180585,1.5019649,0.8782715
617,1778317283.0901697,-0.17299789,0.024025792,0.21440275,-1.7180585,1.5019649,0.8782715
618,1778317283.0998952,-0.1348859,0.038172957,0.13275166,-1.1702651,3.213762,1.1418599
619,1778317283.1098673,-0.13799585,-0.13793488,0.009146876,-1.0622946,3.5743253,1.1418599
620,1778317283.1199973,-0.2001946,-0.28318727,-0.18574256,-1.3561208,4.334089,1.2206615
621,1778317283.1297712,-0.41179234,-1.1114674,-0.85431814,-1.6239853,4.70351,1.2487613
622,1778317283.1402829,-0.41179234,-1.1114674,-0.85431814,-1.8671097,4.425108,1.1255192
623,1778317283.1500757,-0.38746163,-1.837851,-0.98030114,-1.869095,4.183511,1.0569496
624,1778317283.1601074,-0.31300604,-2.4589849,-0.7608371,-1.5784758,2.1284072,0.47051895
625,1778317283.1698096,-0.304469,-3.693996,-0.40459678,-1.6102408,-1.9749273,-1.0595458
626,1778317283.1801045,-0.47283247,-4.0873117,-0.22720838,-1.8219056,-2.2602015,-1.565953
627,1778317283.1902566,-0.47283247,-4.0873117,-0.22720838,-1.8219056,-2.2602015,-1.6088663
628,1778317283.200122,-0.9875576,-3.0195665,-0.02262327,-1.9906571,-0.091477074,-0.021533
629,1778317283.210053,-0.5899125,-2.1110377,-0.024757542,-1.9543107,0.73532903,1.2663237
630,1778317283.2198486,-0.5899125,-2.1110377,-0.024757542,-1.8871155,1.0545062,1.7256943
631,1778317283.2298284,-0.28879735,-1.4758788,-0.023659917,-1.67316,1.1108584,1.577254
632,1778317283.2401779,-0.152204,-1.1173213,0.00951275,-1.4008667,1.0845913,1.2478449
633,1778317283.2501435,-0.076528855,-0.7467509,0.016403396,-0.9465357,1.0111347,0.76831573
634,1778317283.2603836,-0.083053626,-0.6038767,0.05780825,-0.8361218,1.0057896,0.68310004
635,1778317283.2702756,-0.12811723,-0.48893097,0.08976133,-0.34972036,1.0076222,0.38652498
636,1778317283.2801716,-0.16519257,-0.43734258,0.06896744,0.2771801,0.9427178,0.13836098
637,1778317283.2900648,-0.2336112,-0.37337545,-0.018659625,0.74281216,0.7725918,0.049480084
638,1778317283.3000727,-0.2336112,-0.37337545,-0.018659625,1.5021176,0.112399206,0.16310102
639,1778317283.309911,-0.18757193,-0.33569032,-0.07268717,1.5558738,0.017562376,0.18280143
640,1778317283.3198717,-0.04530752,-0.27952853,-0.14513041,1.8510745,-0.93584555,0.3275765
641,1778317283.3302166,0.030428605,-0.2505634,-0.19135264,1.9262109,-1.475545,0.36041048
642,1778317283.3401825,0.030428605,-0.2505634,-0.19135264,1.9262109,-1.475545,0.36041048
643,1778317283.3502343,0.110006414,-0.2215983,-0.242941,1.9230038,-1.9179641,0.3368922
644,1778317283.3600745,0.2552588,-0.15013072,-0.4364889,1.555721,-2.065488,0.064446285
645,1778317283.3698392,0.26532036,-0.13366634,-0.4658808,1.555721,-2.065488,0.064446285
646,1778317283.3802438,0.26532036,-0.13366634,-0.4658808,1.555721,-2.065488,0.064446285
647,1778317283.3900537,0.26532036,-0.13366634,-0.4658808,1.555721,-2.065488,0.064446285
648,1778317283.3999965,0.26532036,-0.13366634,-0.4658808,1.555721,-2.065488,0.064446285
649,1778317283.4097955,0.22854991,-0.068479605,-0.65845305,1.0955868,-1.572978,-0.1601994
650,1778317283.4200037,-0.068174705,0.010915271,-1.2427554,-1.2872458,2.6062565,-0.37293324
651,1778317283.430294,-0.068174705,0.010915271,-1.2427554,-1.2872458,2.6062565,-0.37293324
652,1778317283.440237,-0.068174705,0.010915271,-1.2427554,-1.2872458,2.6062565,-0.37293324
653,1778317283.4500003,-0.20074342,-0.05110054,-1.6347295,-3.8518107,1.9625573,-0.45204028
654,1778317283.4601524,-0.31715265,-0.3831321,1.2957463,-0.8042041,-4.4806967,-0.88712907
655,1778317283.4699824,-0.24781933,-0.62302417,1.2753793,0.20631973,-4.026671,-0.9014844
656,1778317283.479839,-0.24739249,-0.6831496,1.2616589,0.37858373,-3.768733,-0.93691456
657,1778317283.489961,-0.2561735,-0.9068212,1.1769589,0.82436264,-2.8962648,-1.1029172
658,1778317283.4999425,-0.3527645,-1.636437,0.971825,1.6062702,-0.5719226,-1.3367258
659,1778317283.509944,-0.3527645,-1.636437,0.99274087,1.6062702,-0.5719226,-1.3367258
660,1778317283.520046,-0.27166218,-2.1764073,0.9242613,1.479363,-0.4071417,-1.5251778
661,1778317283.5299063,-0.34867886,-2.4899623,0.83065826,1.1678216,-0.636827,-1.6665931
662,1778317283.5397608,-0.620707,-2.3221476,0.7954123,0.81596327,-0.6817256,-0.9998337
663,1778317283.5504167,-0.61674327,-1.9808472,0.6426595,1.0054842,-0.006872234,-0.09758572
664,1778317283.5599287,-0.55484945,-1.7068679,0.5029562,1.3066407,0.78542,0.68707067
665,1778317283.5697641,-0.5330189,-1.6460106,0.47710103,1.3066407,0.78542,0.68707067
666,1778317283.5801835,-0.3052617,-0.959934,0.03164819,2.237294,2.1888828,1.4234687
667,1778317283.5897553,-0.3052617,-0.959934,0.03164819,4.725043,2.479044,0.7498371
668,1778317283.6003296,-0.070187025,-0.822609,-0.78400916,4.725043,2.479044,0.7498371
669,1778317283.6101918,0.0069516255,-0.907553,-1.1713488,5.393024,2.2573,0.13881913
670,1778317283.6202059,-0.20336552,-1.3239797,-1.2478777,5.025283,1.8664987,-0.9851729
671,1778317283.6298864,-0.20336552,-1.3239797,-1.2478777,5.025283,1.8664987,-0.9851729
672,1778317283.6399076,-1.2272058,-2.0850608,-0.34648362,2.1778872,-1.6895006,-0.43295074
673,1778317283.6501074,-1.194399,-1.9498698,-0.20165811,1.4573717,-2.9594893,0.3275765
674,1778317283.659968,-1.1348833,-1.7089411,-0.3196528,1.1290317,-3.662137,0.8211556
675,1778317283.6700094,-1.1499451,-1.4030697,-0.8242554,1.0722213,-3.800498,0.91889405
676,1778317283.6798995,-1.1499451,-1.4030697,-0.8242554,0.9257663,-4.236503,1.1837041
677,1778317283.6898193,-1.009876,-0.9695687,-1.3652626,0.7118107,-4.2649083,1.3087788
678,1778317283.7004347,-0.9418842,-0.94170123,-1.2802577,0.20677789,-3.306308,1.1982121
679,1778317283.7098596,-0.54326344,-0.8850516,-0.5693625,-0.08323039,-0.84223044,0.8051204
680,1778317283.7199433,-0.5100298,-0.87950253,-0.5402144,-0.06582073,-0.593761,0.7890852
681,1778317283.7299457,-0.1911087,-0.93023723,-0.36203334,0.049632803,0.88361657,0.91828316
682,1778317283.740236,-0.15507002,-0.9233466,-0.3489838,0.027794369,0.9799806,0.93492925
683,1778317283.7500427,-0.047258858,-0.7570564,-0.30648127,-0.4972443,1.43141,1.0057896
684,1778317283.7600245,-0.08409027,-0.65003794,-0.29306588,-0.8706357,1.4926492,1.0444268
685,1778317283.7701297,-0.088419795,-0.620707,-0.2883705,-0.96684694,1.5050193,1.0596985
686,1778317283.7803476,-0.08439517,-0.50972486,-0.26336902,-1.32909,1.549307,1.1203269
687,1778317283.7898893,-0.03195308,-0.3653262,-0.19623096,-1.7241671,1.6924021,1.1624765
688,1778317283.8001418,0.021098793,-0.2719061,-0.09750569,-1.9451476,1.9080375,1.1369729
689,1778317283.809774,0.06591848,-0.17604686,0.014391083,-2.0809124,2.2534819,1.0261009
690,1778317283.82029,0.15281379,-0.032440916,0.1765347,-2.0766363,2.5111144,0.9024007
691,1778317283.8302717,0.20312162,0.018110814,0.22141537,-1.767844,2.9205468,0.4689918
692,1778317283.8397567,0.25275865,0.03420931,0.22464725,-1.5537357,3.006526,0.17363845
693,1778317283.8501017,0.25275865,0.03420931,0.22464725,-1.5114334,3.0062206,0.10980303
694,1778317283.8600128,0.2110489,-0.09610317,0.15348457,-1.257008,2.605951,-0.42455134
695,1778317283.8698442,0.2110489,-0.09610317,0.15348457,-1.257008,2.605951,-0.42455134
696,1778317283.8802342,0.119946025,-0.19623096,0.1387886,-1.1888965,2.3408356,-0.56673026
697,1778317283.889986,0.032562874,-0.377583,0.10811607,-1.1305588,2.2382102,-0.5936083
698,1778317283.8998585,-0.06866254,-1.38441,-0.45069703,-1.1737776,3.368311,-0.7101309
699,1778317283.909805,-0.06866254,-1.38441,-0.45069703,-1.206917,3.5143077,-0.7535023
700,1778317283.9201176,-0.2602591,-2.838946,-0.5411291,-1.2565498,3.774231,-0.91599244
701,1778317283.9302762,-0.40032822,-3.4854472,-0.55076385,-1.20371,3.4309247,-1.3049608
702,1778317283.939863,-0.40032822,-3.4854472,-0.55076385,-1.2479976,2.0360138,-1.7457001
703,1778317283.9503334,-1.0131079,-3.6396635,-0.33611718,-1.5949692,-1.2359331,-1.632232
704,1778317283.9599826,-1.2014115,-2.883522,-0.2177566,-1.7198911,-2.0839667,-0.50900346
705,1778317283.9700687,-1.1627508,-2.7213173,-0.19806033,-1.7253889,-2.1325307,-0.25045475
706,1778317283.9800172,-0.9752399,-2.128173,-0.12427554,-1.7085901,-2.0117319,0.68233645
707,1778317283.9899716,-0.7211396,-1.7190636,-0.045856334,-1.6036739,-1.318858,1.5410603
708,1778317283.9998987,-0.37538776,-1.3667871,0.08451713,-1.3466524,-0.38728857,1.9324722
709,1778317284.009994,-0.1408009,-1.1435424,0.18818171,-1.0279335,0.2780964,1.9640845
710,1778317284.02007,-0.042746395,-1.0285357,0.23397705,-0.61911196,0.81077087,1.8329011
711,1778317284.0299625,0.06774786,-0.74394584,0.07604102,0.5186246,1.4292719,1.1647673
712,1778317284.039827,0.06774786,-0.74394584,0.07604102,0.5186246,1.4292719,1.1647673
713,1778317284.0501306,0.070248,-0.5924126,-0.04994194,1.0977248,1.1113166,0.77366084
714,1778317284.0602334,0.082626775,-0.40624323,-0.25373432,2.3426683,-0.5363397,0.35078937
715,1778317284.0701807,0.096895896,-0.34770322,-0.34587383,2.7736337,-1.3701707,0.3277292
716,1778317284.0800827,0.096895896,-0.34770322,-0.34587383,2.7736337,-1.3701707,0.3277292
717,1778317284.090262,0.17927876,-0.21263437,-0.4441113,2.92467,-2.4509442,0.32727104
718,1778317284.1001716,0.18165694,-0.2063535,-0.45831943,2.891378,-2.5740335,0.31215215
719,1778317284.1101925,0.19787739,-0.15830192,-0.4211831,2.6629143,-3.0618093,0.22159137
720,1778317284.1200879,0.18049833,-0.1624485,-0.38794947,2.405282,-3.39244,0.12568553
721,1778317284.1299481,0.14275223,-0.18708408,-0.34081256,1.675298,-3.8817432,-0.086437434
722,1778317284.1397662,0.08463909,-0.108055085,-0.9734714,-0.14889841,-3.3547192,-0.3471242
723,1778317284.1497693,0.08463909,-0.108055085,-0.9734714,-0.14889841,-3.3547192,-0.3471242
724,1778317284.1598372,0.08463909,-0.108055085,-0.9734714,-0.14889841,-3.3547192,-0.3471242
725,1778317284.169978,0.026160065,-0.058418043,-1.0064002,-3.4655912,1.5097535,-0.31887165
726,1778317284.1798892,0.0041465834,-0.075675145,-0.57058203,-4.8650837,3.395189,-0.3746131
727,1778317284.1899147,-0.07408969,0.34008083,-0.14665489,-4.851492,2.437047,-0.6649268
728,1778317284.199821,-0.07408969,0.34008083,-0.14665489,-4.6340237,1.8872682,-0.7087564
729,1778317284.2102768,-0.09116385,0.2678205,0.32367742,-3.5446982,-0.61315596,-0.8746063
730,1778317284.219821,-0.07573613,-0.14360595,0.5763751,-1.4618006,-3.8944187,-0.923781
731,1778317284.229904,-0.07573613,-0.14360595,0.5763751,-1.5997033,-3.809203,-0.9381363
732,1778317284.2400432,-0.13799585,-0.48399165,0.63851285,-0.48502702,-4.048815,-0.75777835
733,1778317284.2503445,-0.15305771,-0.5429585,0.6570505,-0.35048392,-4.010941,-0.7281514
734,1778317284.2599216,-0.030672522,-1.4862453,0.9728616,1.003957,-3.5833356,-0.6087272
735,1778317284.2699566,0.008841979,-2.3436124,1.1297611,1.1696543,-3.6067011,-0.6525568
736,1778317284.2801023,-0.03969744,-2.9761493,1.2476337,2.1888828,-4.4246497,-1.5467108
737,1778317284.2898939,-0.038172957,-3.082924,1.2752573,2.1888828,-4.4246497,-1.5467108
738,1778317284.2998016,-0.34508112,-3.606979,1.1573236,1.9938642,-4.034918,-2.2557726
739,1778317284.309865,-0.52381104,-3.258178,0.9473723,1.7125608,-2.576935,-1.9346102
740,1778317284.3202124,-0.5565569,-3.1632333,0.9004184,1.7125608,-2.576935,-1.9346102
741,1778317284.3299944,-0.5454587,-2.2200074,0.4993584,1.6006197,-1.5916094,-1.5667167
742,1778317284.3400207,-0.55460554,-1.9401742,0.36026493,1.727985,0.59773165,-0.44150287
743,1778317284.350004,-0.57936305,-1.6432056,0.21867129,1.8640553,1.1459832,0.02367103
744,1778317284.360099,-0.57936305,-1.6432056,0.21867129,1.8640553,1.1459832,0.02367103
745,1778317284.3699994,-0.6563188,-1.1593969,-0.56759405,3.8860192,-2.324495,-0.33261612
746,1778317284.3798034,-1.7408333,-1.3414807,-2.619482,2.2166772,-8.370075,-0.64660084
747,1778317284.389859,-1.346725,-1.340627,-1.4540482,-0.63163465,-8.368396,0.093767814
748,1778317284.3999467,-1.0162178,-1.3073324,-0.50039506,-1.6656768,-7.3645916,0.42302418
749,1778317284.4102938,-0.9693858,-1.2854408,-0.36160645,-1.7589865,-7.039,0.45998153
750,1778317284.420014,-0.80876666,-1.0950029,-0.03945352,-1.5144876,-5.3679786,0.3463606
751,1778317284.4297483,-0.7641909,-0.9301152,0.01975725,-0.9459248,-4.308585,0.06246097
752,1778317284.4400098,-0.76699597,-0.7177858,-0.22763525,-0.004428773,-2.355191,-0.49357912
753,1778317284.4497585,-0.6976017,-0.6249145,-0.5133836,0.13683382,0.5369505,-0.77656245
754,1778317284.4601483,-0.5714358,-0.71083415,-0.35203275,-0.33429602,3.7218492,-0.37186423
755,1778317284.4700758,-0.42203683,-0.8140109,-0.21013421,-0.33429602,3.7218492,-0.37186423
756,1778317284.48016,-0.4089263,-0.81455976,-0.22678153,-0.74021596,3.7487273,0.062308256
757,1778317284.489845,-0.41575596,-0.8116327,-0.22726935,-0.74021596,3.7487273,0.062308256
758,1778317284.4998083,-0.3697167,-0.7029069,-0.16958307,-1.4590516,2.0700696,0.27672195
759,1778317284.5097837,-0.3697167,-0.7029069,-0.16958307,-1.4590516,2.0700696,0.27672195
760,1778317284.520022,-0.3269093,-0.60223025,-0.0714066,-1.8932241,1.2932017,0.3407101
761,1778317284.530158,-0.30026144,-0.5216768,0.0020732917,-2.1806362,0.86452705,0.35430184
762,1778317284.5401251,-0.21476863,-0.2804432,0.16696097,-2.501035,0.4896085,0.3727805
763,1778317284.5498126,-0.16354613,-0.15976542,0.17671762,-2.5523477,0.4335616,0.37094793
764,1778317284.5598936,-0.14897211,-0.14220342,0.17799819,-2.591596,0.35063666,0.36178493
765,1778317284.5701444,-0.06061329,-0.019147458,0.112994395,-2.591596,0.35063666,0.36178493
766,1778317284.580059,-0.0036587503,0.027623562,0.09988388,-2.6717718,0.11407909,0.3119994
767,1778317284.5898676,0.0075004376,0.03591673,0.09829842,-2.6755898,0.07009678,0.30008754
768,1778317284.6002548,0.048905294,0.040429186,0.11232363,-2.6794076,-0.4689918,0.19990565
769,1778317284.6101992,0.048905294,0.040429186,0.11232363,-2.6328292,-0.9419542,0.1518
770,1778317284.6199222,0.08055348,0.013598354,0.120738745,-2.6184738,-1.0395399,0.14355333
771,1778317284.6302648,0.10482319,-0.021647604,0.102445,-2.5497515,-1.440573,0.09987647
772,1778317284.6399953,0.14177656,-0.7704108,-0.7107122,-2.4396431,-2.104736,0.09254608
773,1778317284.6499152,0.14177656,-0.7704108,-0.7107122,-2.4396431,-2.104736,0.09254608
774,1778317284.6602812,0.14738666,-1.4505115,-0.7818749,-1.1748465,-0.99097615,0.0061086523
775,1778317284.6699224,0.09573729,-1.7074167,-0.6384519,-0.3576616,-0.6102544,-0.036193766
776,1778317284.6797755,-0.075675145,-2.1034765,-0.50496846,0.50869805,-0.6792821,-0.11453723
777,1778317284.6898937,-0.36227724,-2.4603875,-0.44661143,1.0177015,-1.3390167,-0.17073683
778,1778317284.7000065,-0.7135782,-2.7257078,-0.40776768,1.0177015,-1.3390167,-0.17073683
779,1778317284.7101629,-0.8114498,-2.7764425,-0.41307288,0.75915277,-2.2808182,0.056963183
780,1778317284.7198784,-1.2179369,-2.7847357,-0.34965453,0.29642236,-2.214081,0.3921755
781,1778317284.7298791,-1.2179369,-2.7847357,-0.34965453,0.29642236,-2.214081,0.3921755
782,1778317284.739833,-1.0675623,-2.0070074,-0.3459348,-0.12599096,-1.0129673,1.0031935
783,1778317284.750212,-1.0675623,-2.0070074,-0.3459348,-0.12599096,-1.0129673,1.0031935
784,1778317284.7601392,-0.8281581,-1.5526515,-0.2950782,-0.11071932,-0.40301836,1.1273518
785,1778317284.7700956,-0.6637582,-1.3091007,-0.22361061,0.17867808,0.25244007,1.1566733
786,1778317284.7798789,-0.41721946,-0.9645685,-0.08909056,1.1792754,0.7476991,1.1407908
787,1778317284.7898052,-0.2804432,-0.82937765,-0.09476163,1.1792754,0.7476991,1.1407908
788,1778317284.799908,-0.15269183,-0.73754305,-0.15665549,2.2592852,-0.0842994,1.0367911
789,1778317284.8098445,-0.011342125,-0.6663194,-0.23409903,2.574339,-1.1036807,0.90392786
790,1778317284.819986,-0.011342125,-0.6663194,-0.23409903,2.6018279,-1.3208433,0.88040954
791,1778317284.8301504,0.30117613,-0.5354581,-0.45374596,2.6122124,-2.170557,0.77931136
792,1778317284.8401563,0.33800754,-0.5161886,-0.4905774,2.384207,-2.9217684,0.64965516
793,1778317284.849924,0.55015403,-0.5032611,-0.60430354,0.86651236,-3.7143662,0.1611157
794,1778317284.8603163,0.5886929,-0.518201,-0.5716187,0.14355333,-3.4994943,-0.053297993
795,1778317284.8702738,0.6046084,-0.5142983,-0.4941142,-0.656222,-3.011871,-0.32253686
796,1778317284.880278,0.53667766,-0.45008725,-0.45929506,-1.2405146,-2.4656048,-0.51007247
797,1778317284.8901615,0.53667766,-0.45008725,-0.45929506,-1.6427693,-1.7869335,-0.5500842
798,1778317284.900012,0.48801628,-0.34520307,-0.46874684,-1.9272798,-1.0969613,-0.50762904
799,1778317284.9101665,0.4103288,-0.1247024,-0.5789362,-1.9272798,-1.0969613,-0.50762904
800,1778317284.9199257,0.3485569,-0.00951275,-0.5923516,-2.3533583,-0.75823647,-0.56169057
801,1778317284.9299843,0.29959065,0.039758418,-0.44331855,-2.3533583,-0.75823647,-0.56169057
802,1778317284.940002,0.2654423,0.020123126,-0.23190376,-2.4324653,-0.926988,-0.6608035
803,1778317284.950113,0.15647253,-0.06866254,0.24361177,-2.3075435,-1.2388347,-0.88147855
804,1778317284.9597514,-0.08280971,-0.12836114,0.521189,-1.895973,-1.3019066,-1.024421
805,1778317284.9699743,-0.18891345,-0.22665958,0.41234115,-1.1232284,-0.6763805,-0.8584184
806,1778317284.9802701,-0.18891345,-0.22665958,0.41234115,-0.93584555,-0.19929479,-0.70524395
807,1778317284.9900298,-0.25397822,-0.5193596,0.37026548,-0.90041536,0.087659165,-0.59299743
808,1778317285.0002747,-0.25160006,-0.56917953,0.36672872,-0.90377516,0.1414153,-0.5676465
809,1778317285.010049,-0.25178298,-0.81638914,0.34849593,-1.0083858,0.11988231,-0.5019785
810,1778317285.019985,-0.24562408,-1.2039117,0.36837515,-1.2762502,-0.5494733,-0.60231316
811,1778317285.0297658,-0.26910108,-2.17159,0.6027791,-1.609019,-2.606562,-0.9451612
812,1778317285.0402913,-0.2045851,-2.4136164,0.708334,-1.6380352,-3.3689218,-1.0893254
813,1778317285.0500636,-0.41874394,-3.134878,1.1491524,-1.0424415,-5.902638,-1.6238326
814,1778317285.0597734,-0.46094155,-3.1565256,1.1937891,-1.0424415,-5.902638,-1.6238326
815,1778317285.0699425,-0.91822433,-2.6943645,1.1455547,0.6826419,-4.448626,-1.1323915
816,1778317285.0798738,-0.86694086,-2.3231232,0.78376526,1.5746579,-3.1563408,-0.4625777
817,1778317285.090343,-0.71016335,-1.9784081,0.40185273,1.9318613,-2.3342688,-0.03924809
818,1778317285.0997772,-0.71016335,-1.9784081,0.40185273,1.9318613,-2.3342688,-0.03924809
819,1778317285.1101992,-0.6100356,-1.7363819,0.2306232,1.7481437,-2.2250767,-0.13897185
820,1778317285.120188,-0.53466535,-1.486977,0.068174705,1.7481437,-2.2250767,-0.13897185
821,1778317285.1301398,-0.53466535,-1.486977,0.068174705,1.7481437,-2.2250767,-0.13897185
822,1778317285.140307,-0.53466535,-1.486977,0.068174705,1.7481437,-2.2250767,-0.13897185
823,1778317285.1502075,-0.59863245,-1.276355,-0.374717,1.8023579,-4.4719915,-0.6301075
824,1778317285.1601517,-1.0046318,-1.182691,-0.55302006,-0.5163339,-11.215944,-0.6113234
825,1778317285.170105,-0.89962566,-1.0142665,-0.2432459,-1.7967074,-10.504592,0.15775596
826,1778317285.1799805,-0.89962566,-1.0142665,-0.2432459,-2.5094345,-9.199478,0.7858781
827,1778317285.190029,-0.8212065,-0.87029463,-0.25129515,-2.9466612,-6.810842,1.3116804
828,1778317285.1998158,-0.57735074,-0.69266236,-0.257515,-2.8087585,-4.5817947,1.2044735
829,1778317285.2102587,-0.4600878,-0.7356527,-0.25257573,-2.6624563,-2.8225029,0.9784534
830,1778317285.2202733,-0.39215705,-0.81791353,-0.28532153,-2.6038132,-1.1685852,0.8268061
831,1778317285.230174,-0.38544932,-0.83071923,-0.31160355,-2.620612,-0.8006916,0.81046546
832,1778317285.2402112,-0.31678677,-0.85206187,-0.28032124,-2.779895,0.3801109,0.8399397
833,1778317285.2501442,-0.2886144,-0.8655993,-0.17933974,-2.9492574,1.0422888,0.91981035
834,1778317285.260205,-0.28666306,-0.8097424,-0.07000408,-3.200781,1.1991285,1.0624474
835,1778317285.2699683,-0.1261659,-0.65546507,0.23733091,-3.4955237,0.5148067,1.1360567
836,1778317285.280158,-0.17836407,-0.55253226,0.29959065,-3.4148893,0.013744468,1.075581
837,1778317285.2903523,-0.19184047,-0.447892,0.32861674,-3.3428073,-0.04596761,1.0877982
838,1778317285.299975,-0.21440275,-0.28093103,0.4806378,-3.3428073,-0.04596761,1.0877982
839,1778317285.310121,-0.14378887,-0.11128698,0.5919248,-2.8634307,-0.45433104,1.100321
840,1778317285.3197794,-0.08585867,-0.026403978,0.5833877,-2.521041,-0.6571383,1.0319041
841,1778317285.330134,-0.039270584,0.105372004,0.42569554,-2.2244658,-0.8019133,0.86926126
842,1778317285.339889,0.040002335,0.16019227,0.29343176,-2.2244658,-0.8019133,0.86926126
843,1778317285.3501103,0.040002335,0.16019227,0.29343176,-2.2093468,-0.86666507,0.61254513
844,1778317285.3597584,0.03225798,0.24288003,-0.06713806,-3.0860913,-0.33414328,-0.14950927
845,1778317285.3701253,0.03195308,0.21001224,-0.24934383,-3.923893,0.16584991,-0.6093381
846,1778317285.3798892,-0.03164819,0.031709168,-0.42252466,-4.8646255,0.54260105,-1.0862712
847,1778317285.3900275,-0.25019753,-0.28465074,-0.73437214,-5.5652876,0.27366763,-1.3205379
848,1778317285.3998306,-0.63802505,-0.86486757,-1.0092661,-5.9815927,-1.9905044,-1.1943942
849,1778317285.4101214,-0.85663533,-1.1506159,-0.42136607,-4.4614544,-5.9939623,-0.7779369
850,1778317285.4199736,-0.97834975,-1.3389806,-0.17196125,-2.3483188,-7.3172493,-0.5873469
851,1778317285.4297931,-0.97834975,-1.3389806,-0.17196125,-2.3483188,-7.3172493,-0.5873469
852,1778317285.439887,-1.1075037,-1.5680792,-0.43045196,-0.98792183,-6.0266438,-0.659429
853,1778317285.450121,-1.2303767,-1.7281495,-0.5807656,-0.079870634,-3.4055738,-0.7461719
854,1778317285.4597657,-1.4014843,-1.8502908,-0.7526659,0.9596693,1.7696766,-0.54275376
855,1778317285.4702005,-1.4044112,-1.7151,-0.9975582,0.9231701,1.8591684,-0.21624629
856,1778317285.4797976,-1.3707508,-1.692111,-0.9884723,0.8167268,0.960891,-0.053450707
857,1778317285.4898374,-0.9070041,-1.2504388,-0.9200537,0.7806858,-0.10308351,-0.10552697
858,1778317285.5002778,-0.60015696,-0.98030114,-0.8875518,0.83260936,-0.7312057,-0.22876903
859,1778317285.5099132,-0.3784367,-0.87651455,-0.83273154,0.92057395,-1.2990049,-0.43585235
860,1778317285.5202456,-0.2748331,-0.86608714,-0.7271766,1.0384709,-1.6824756,-0.59986967
861,1778317285.5299964,-0.12836114,-0.8893202,-0.6072915,1.1768318,-1.8267925,-0.6942484
862,1778317285.5401485,-0.044453815,-0.90115017,-0.53960466,1.3871223,-1.9494237,-0.8061894
863,1778317285.5502667,0.006341833,-0.9013331,-0.49777296,1.3432927,-1.9248364,-0.7816021
864,1778317285.5599377,0.098054506,-0.92596865,-0.4431356,1.5520558,-2.100002,-0.92271197
865,1778317285.5700717,0.2133661,-0.9096872,-0.33379996,1.8930714,-2.639396,-1.2831224
866,1778317285.579839,0.19934091,-0.8845638,-0.30562758,1.9459113,-2.844494,-1.3645202
867,1778317285.589967,0.19409668,-0.8757219,-0.2930049,1.9469802,-2.9019153,-1.3752104
868,1778317285.6002355,0.114153,-0.73662835,-0.22751327,1.7550159,-3.3023374,-1.3243558
869,1778317285.609887,0.069638215,-0.6405862,-0.17836407,1.5760323,-3.1838295,-1.2773192
870,1778317285.6202168,-0.004024625,-0.5089321,-0.13281263,1.2389874,-2.700788,-1.2177598
871,1778317285.6300032,-0.016647313,-0.485943,-0.12610492,1.1560625,-2.5679247,-1.2093605
872,1778317285.6399357,-0.077382565,-0.4004502,-0.12512925,0.44501534,-1.3927728,-1.1714869
873,1778317285.6498575,-0.25123417,-0.27062553,-0.28959006,-0.59605175,0.0022907446,-1.0398453
874,1778317285.6599665,-0.2891632,-0.2520269,-0.28379703,-0.44394633,-0.17837265,-1.0693196
875,1778317285.669849,-0.35319135,-0.18415709,-0.1348859,-1.5544994,0.9098838,-0.6908886
876,1778317285.6801536,-0.31196943,-0.10366459,-0.06774786,-1.6554449,0.68630713,-0.59742624
877,1778317285.6899323,-0.30946928,-0.08744413,-0.04884431,-1.6470454,0.55955255,-0.5859725
878,1778317285.6999092,-0.15958248,0.05860098,0.048783336,-1.5054774,-0.24358252,-0.606131
879,1778317285.710149,-0.15476513,0.04994194,0.14738666,-0.68875057,-2.731484,-0.9795224
880,1778317285.7202144,-0.21147576,-0.012073875,0.21867129,-0.6001751,-2.9158125,-1.0280862
881,1778317285.7302942,-0.2672717,-0.18159597,0.27904066,0.048716504,-3.310737,-1.2209669
882,1778317285.7398322,-0.3096522,-0.43770844,0.30635932,0.048716504,-3.310737,-1.2209669
883,1778317285.7503016,-0.29550505,-0.38014415,0.30635932,0.2948952,-3.0242412,-1.1601858
884,1778317285.7602785,-0.36044785,-0.6077184,0.29111454,0.37400225,-2.8652635,-1.0661125
885,1778317285.7698867,-0.43959883,-0.83870745,0.35642326,0.42394048,-2.6676486,-0.782213
886,1778317285.780157,-0.51509106,-1.2643421,0.29379764,0.24297164,-2.3348796,-0.5563455
887,1778317285.7902327,-0.51509106,-1.2643421,0.29379764,-0.5016731,-2.090381,-0.23854288
888,1778317285.7998278,-0.6261951,-2.066523,0.37014353,-1.0645854,-2.208125,-0.20647246
889,1778317285.8099787,-0.66991717,-2.4542286,0.44520888,-1.5039502,-2.3157902,-0.3231477
890,1778317285.8199303,-0.66991717,-2.4542286,0.44520888,-1.5039502,-2.3157902,-0.3231477
891,1778317285.830107,-0.9083457,-2.5867972,0.4677102,0.00290161,-5.137071,-0.77014834
892,1778317285.8398583,-0.9083457,-2.5867972,0.4677102,0.00290161,-5.137071,-0.77014834
893,1778317285.8502262,-0.9604219,-2.2458627,0.4170365,0.9486737,-5.6066737,-0.75640386
894,1778317285.8599296,-0.94359165,-1.9539555,0.32367742,1.5138768,-5.029559,-0.5729916
895,1778317285.8702505,-0.7484583,-1.2669642,-0.36367974,1.5470163,-3.0114129,-0.2649628
896,1778317285.880282,-0.6395495,-1.0412803,-0.4167926,1.0711522,-1.6679676,-0.15470162
897,1778317285.8900776,-0.6395495,-1.0412803,-0.4167926,1.0711522,-1.6679676,-0.15470162
898,1778317285.9003084,-0.53265303,-0.9478602,-0.22842796,0.6937902,-0.7272351,-0.17302758
899,1778317285.9098268,-0.43356186,-1.0810996,0.09183463,0.60063326,0.15409076,-0.5707009
900,1778317285.9200604,-0.43356186,-1.0810996,0.09183463,0.60063326,0.15409076,-0.5707009
901,1778317285.9302976,-0.5251526,-1.3395293,0.22269592,0.8677341,0.3378085,-0.8032878
902,1778317285.939965,-0.5605205,-1.4300225,0.27025968,1.1942415,0.24953845,-0.8929323
903,1778317285.9501731,-0.59838855,-1.4669149,0.29885888,1.462106,0.07223482,-0.9718866
904,1778317285.960064,-0.59838855,-1.4669149,0.29885888,1.462106,0.07223482,-0.9718866
905,1778317285.970006,-0.76382506,-1.3750192,0.16098501,1.873371,-0.3294091,-1.0789407
906,1778317285.9798932,-0.9427989,-1.2650129,-0.29550505,2.7360654,-2.2272146,-1.1385001
907,1778317285.9901643,-0.9427989,-1.2650129,-0.29550505,2.7360654,-2.2272146,-1.1385001
908,1778317285.9999096,-0.9427989,-1.2650129,-0.29550505,2.7360654,-2.2272146,-1.1385001
909,1778317286.0097787,-1.2663544,-1.1451888,-1.3517252,2.499508,-3.8571558,-1.0961977
910,1778317286.020277,-1.1990943,-0.9849965,-0.65253806,-1.1849259,-3.4475708,-0.050396383
911,1778317286.0301538,-1.1990943,-0.9849965,-0.65253806,-1.257008,-2.5260806,0.2574797
912,1778317286.0400274,-0.7812041,-0.755227,-0.120067984,-0.94225967,-1.7944167,0.4025602
913,1778317286.050285,-0.7812041,-0.755227,-0.120067984,-0.94225967,-1.7944167,0.4025602
914,1778317286.06016,-0.6890646,-0.67839324,-0.09299323,-0.592692,-0.9779953,0.4454735
915,1778317286.0701663,-0.5698503,-0.5508858,-0.23025733,-0.47448957,-0.44409904,0.47876564
916,1778317286.079816,-0.38825434,-0.20757309,-0.83169484,-1.0283916,1.0100657,0.7626653
917,1778317286.0901423,-0.33319017,-0.14653294,-0.8229748,-1.7676913,1.5448782,0.9285152
918,1778317286.1002614,-0.23025733,-0.13226382,-0.41258505,-2.2047653,1.794264,1.0473285
919,1778317286.1103413,-0.16354613,-0.14665489,-0.059942525,-2.4036021,2.199573,1.1566733
920,1778317286.1202822,-0.16354613,-0.14665489,-0.059942525,-2.4036021,2.199573,1.1566733
921,1778317286.1297557,-0.12634884,-0.13598356,0.2359284,-2.3367124,2.6590965,1.2153164
922,1778317286.1401925,-0.12634884,-0.13598356,0.2359284,-2.1676552,3.3576207,1.3014483
923,1778317286.1499624,-0.105920814,-0.12238518,0.23239161,-2.0392208,4.011094,1.3868169
924,1778317286.1598184,-0.06360127,-0.10726235,0.22684251,-1.9662225,4.3890667,1.434617
925,1778317286.169833,-0.0043295207,-0.10994543,0.19598705,-1.9046779,4.6900706,1.4450017
926,1778317286.179885,0.037807085,-0.26239336,0.17311986,-1.8839084,4.8032336,1.4100296
927,1778317286.189989,-0.011951917,-0.40740183,0.17427845,-1.9423988,4.7638326,1.103528
928,1778317286.2000873,-0.058783915,-0.5549714,0.15348457,-2.1276436,4.5640798,0.8669705
929,1778317286.210168,-0.17019285,-0.86437976,0.096469045,-2.370768,4.180151,0.59635717
930,1778317286.2198377,-0.17019285,-0.86437976,0.096469045,-2.5549438,3.4665074,0.42348233
931,1778317286.2299228,-0.31666481,-1.4977703,-0.16494864,-2.5549438,3.4665074,0.42348233
932,1778317286.2397907,-0.4378914,-2.2968414,-0.52124995,-2.6158776,1.2820535,0.21426098
933,1778317286.2499046,-0.49027252,-2.9289515,-0.73315257,-2.549446,-1.7540996,0.030390546
934,1778317286.2599552,-0.5688137,-3.5233762,-0.6896134,-2.5732698,-3.770413,-0.15302174
935,1778317286.269999,-1.1780565,-3.7776597,-0.31325,-2.4656048,-3.9811616,0.08109236
936,1778317286.2800128,-1.217693,-2.9962723,-0.1378739,-2.0434968,-1.8692477,1.1082623
937,1778317286.290083,-0.8705996,-2.3174522,-0.09140777,-1.6769779,-0.16982053,1.9848539
938,1778317286.3001077,-0.7449825,-2.1636627,-0.09134679,-1.6769779,-0.16982053,1.9848539
939,1778317286.3100557,-0.044331856,-1.1623849,-0.0075004376,-1.2826643,1.0370965,1.7195857
940,1778317286.320027,0.018903542,-0.86809945,0.0570765,-0.8219192,1.4317154,1.0383182
941,1778317286.3298807,0.0030489585,-0.68339354,0.07378479,-0.3811799,1.6803375,0.6366743
942,1778317286.3399045,-0.06780884,-0.50899315,0.083907336,0.14202617,1.9208658,0.3277292
943,1778317286.3502932,-0.07207738,-0.3876446,-0.024757542,0.84223044,2.0653355,0.047494773
944,1778317286.3602104,-0.07207738,-0.3876446,-0.024757542,0.84223044,2.0653355,0.047494773
945,1778317286.369924,-0.03652652,-0.24800226,-0.26001516,1.8319849,1.3070989,-0.38560867
946,1778317286.379921,-0.03652652,-0.24800226,-0.26001516,1.8319849,1.3070989,-0.38560867
947,1778317286.3902614,-0.08835881,-0.22208612,-0.32447016,2.2120957,0.61407226,-0.5374087
948,1778317286.3999145,-0.14147167,-0.2783089,-0.3405077,2.670703,-0.3368922,-0.5858198
949,1778317286.4102247,-0.11720196,-0.31355488,-0.35203275,2.7940977,-0.72356987,-0.6666067
950,1778317286.41995,-0.11720196,-0.31355488,-0.35203275,2.7940977,-0.72356987,-0.6666067
951,1778317286.430069,-0.06774786,-0.29745638,-0.28056514,2.537076,-1.6479617,-1.0716103
952,1778317286.4400055,-0.0831146,-0.27904066,-0.22842796,2.3047945,-1.8486309,-1.2478449
953,1778317286.4499936,-0.10927467,-0.26964986,-0.20799993,1.8762726,-1.7919732,-1.4132367
954,1778317286.460203,-0.12153149,-0.2697718,-0.22354963,1.5170839,-1.6178766,-1.462106
955,1778317286.4698029,-0.13573962,-0.25428313,-0.24702659,1.2400564,-1.450805,-1.4697418
956,1778317286.480178,-0.14378887,-0.20860973,-0.44100136,0.59757894,-1.0323622,-1.415222
957,1778317286.4899354,-0.18257163,-0.110311314,-0.65235513,-0.82527894,0.3827071,-1.2336423
958,1778317286.5000567,-0.20281671,-0.10634767,-0.2528806,-2.8828259,2.3990204,-0.7831292
959,1778317286.5100648,-0.19897503,-0.09939604,-0.16122891,-2.9862146,2.4541512,-0.7338019
960,1778317286.520224,-0.22208612,-0.089517415,0.24897793,-2.5631905,1.1430815,-0.24297164
961,1778317286.530281,-0.22586684,-0.07854117,0.5118591,-2.5631905,1.1430815,-0.24297164
962,1778317286.5402017,-0.16025324,-0.096347086,0.48697963,-1.7153096,-0.70921457,0.02031127
963,1778317286.5501184,-0.10567689,-0.29135844,0.30190787,-0.64461553,-2.803108,0.23319781
964,1778317286.5600827,-0.10079856,-0.4376475,0.32739717,-0.37950003,-2.8712194,0.26740626
965,1778317286.5698037,-0.09988388,-0.40356013,0.31294507,-0.051618114,-2.7359128,0.3173445
966,1778317286.580247,-0.11927526,-0.6712587,0.37252176,-0.12018774,-2.7650816,0.3031419
967,1778317286.590079,-0.19403571,-1.2131195,0.38587618,0.56306505,-2.4526238,0.48716503
968,1778317286.5997977,-0.22354963,-1.8784631,0.40349916,0.70539665,-2.421317,0.41157046
969,1778317286.6101952,-0.24598998,-2.391664,0.47557652,0.70066243,-2.5508206,0.12950343
970,1778317286.6198494,-0.3228847,-2.8528495,0.6571115,0.680962,-2.6093109,-0.56138515
971,1778317286.6302698,-0.3228847,-2.8528495,0.6571115,0.85811293,-1.9897408,-1.3423764
972,1778317286.6401217,-0.46899077,-3.0396895,0.75736123,0.85811293,-1.9897408,-1.3423764
973,1778317286.6501763,-0.86968493,-2.7175364,0.6480866,1.2895365,0.47357327,-1.5906931
974,1778317286.6601508,-0.834256,-2.2179344,0.66680723,1.675298,1.5636623,-1.1701124
975,1778317286.6700885,-0.85547674,-2.32416,0.6251584,1.8752036,1.728596,-1.0816896
976,1778317286.680227,-0.7311402,-1.8552911,0.7297987,3.3078353,1.6766723,-0.86742866
977,1778317286.6901617,-0.69241846,-1.5139298,0.04189269,6.5947485,-0.6075055,-0.9460775
978,1778317286.6997817,-0.9786547,-1.2516584,-2.1174405,6.47563,-1.2953397,-1.0764973
979,1778317286.7098198,-0.9786547,-1.2516584,-2.1174405,6.47563,-1.2953397,-1.0764973
980,1778317286.719886,-1.0600618,-1.1523234,-1.4706346,0.91538155,0.65209866,-0.3669773
981,1778317286.729901,-0.9823744,-1.1392128,-1.1689707,-0.052687127,0.88621277,-0.20448714
982,1778317286.740179,-0.8111449,-1.1265901,-0.4811866,-0.08200866,0.7912232,-0.19272798
983,1778317286.7502303,-0.78626543,-1.0936004,-0.1214705,0.0729984,-0.066737026,-0.19685133
984,1778317286.7598853,-0.81675494,-1.0045708,-0.33227548,1.2432635,-3.1036537,-0.21487185
985,1778317286.7701793,-0.73986024,-0.91212636,-0.6843692,1.2148583,-3.0311134,-0.09758572
986,1778317286.779898,-0.73986024,-0.91212636,-0.6843692,1.2148583,-3.0311134,-0.09758572
987,1778317286.7898881,-0.6302197,-0.8714533,-0.8902349,0.64751714,-1.8406897,0.07376198
988,1778317286.8000047,-0.5173473,-0.787546,-0.6638192,-0.085673854,-0.19898935,0.33460143
989,1778317286.8102713,-0.17366867,-0.6227802,-0.53405553,-0.816116,1.1232284,0.5479461
990,1778317286.8198612,-0.15592372,-0.5468002,-0.49508983,-1.0984885,1.2315043,0.48548517
991,1778317286.829771,-0.24172144,-0.49167505,-0.42508578,-1.4882205,1.0975721,0.47739118
992,1778317286.8398857,-0.30489585,-0.43130565,-0.30392018,-1.4882205,1.0975721,0.47739118
993,1778317286.850219,-0.31959182,-0.4019137,-0.21043912,-2.112372,0.7495316,0.70814556
994,1778317286.860056,-0.30599347,-0.35587442,-0.11177482,-2.1682663,0.7313584,0.7415904
995,1778317286.8699107,-0.24172144,-0.30245668,0.0023172083,-2.392912,0.7128797,0.9130908
996,1778317286.879991,-0.25397822,-0.31135964,-0.017135147,-2.470339,0.77320266,1.0111347
997,1778317286.8902185,-0.13945936,-0.16793664,0.124031626,-2.4165828,1.2095132,1.2521211
998,1778317286.899769,-0.1042134,-0.11549455,0.16354613,-2.301893,1.4914275,1.3480269
999,1778317286.910225,-0.039941356,-0.06073525,0.17421748,-2.1606305,1.8254181,1.4054482
1000,1778317286.9201717,0.017927876,-0.027623562,0.16165577,-2.1606305,1.8254181,1.4054482
