id,timestamp,acc_x,acc_y,acc_z,gyro_x,gyro_y,gyro_z
1,1778317905.8662431,-0.3331292,-3.946267,-2.3812973,0.5216789,-2.7747025,-0.95462966
2,1778317905.8662598,-0.3331292,-3.946267,-2.3812973,0.5216789,-2.7747025,-0.95462966
3,1778317905.87622,-0.2215983,-3.380807,0.34550798,1.2215778,2.3666446,-0.2657264
4,1778317905.8863647,-0.2215983,-3.380807,0.34550798,1.276403,3.6402986,-0.2012801
5,1778317905.8964174,-0.009573729,-2.1271362,0.012012896,1.074512,4.1813726,-0.19165897
6,1778317905.9059794,-0.0071955416,-2.028777,-0.020915855,1.0294607,4.194812,-0.18173242
7,1778317905.916,0.032562874,-1.6808907,-0.2172078,0.7675522,4.011705,-0.0580322
8,1778317905.9263706,0.14055698,-1.419778,-0.38563228,0.571159,3.7867537,0.016340645
9,1778317905.936408,0.29306588,-1.2193395,-0.48746744,0.2657264,3.5359936,0.035430185
10,1778317905.9465024,0.32233587,-1.0901246,-0.35867947,0.18829921,3.4639113,-0.014049901
11,1778317905.9559362,0.26123476,-0.9896309,-0.22074458,0.3294091,3.389233,-0.076816306
12,1778317905.9661756,0.15006974,-0.90328443,-0.16165577,0.52015173,3.1583261,-0.1563815
13,1778317905.975844,0.024757542,-0.8185843,-0.134642,0.6417139,2.8206704,-0.16905695
14,1778317905.9863803,-0.14976484,-0.51271284,-0.26086888,0.61376685,1.8471038,0.030390546
15,1778317905.9958203,-0.16293633,-0.38246134,-0.2798334,0.6575964,2.0210476,-0.021991149
16,1778317906.0058656,-0.16196068,-0.34928867,-0.28446782,0.51144695,1.504103,0.14294247
17,1778317906.0162296,-0.14220342,-0.24257512,-0.23556253,0.38591412,1.1488848,0.24449882
18,1778317906.0262718,-0.13506886,-0.15135029,-0.16793664,0.2724459,0.75716746,0.3388775
19,1778317906.0360284,-0.10110346,-0.041465834,-0.09031015,0.1479821,0.2753475,0.43860126
20,1778317906.0460708,-0.076406896,0.0570765,-0.02274523,0.05131268,-0.20555615,0.5015204
21,1778317906.0562952,-0.04927117,0.08591965,0.059881546,0.01038471,-0.9850202,0.57650405
22,1778317906.0660112,-0.021403689,0.09049308,0.0910419,0.0346666,-1.1884383,0.5920811
23,1778317906.0764048,-0.021403689,0.09049308,0.0910419,0.0346666,-1.1884383,0.5920811
24,1778317906.0863757,0.021830542,0.098725274,0.084029295,0.10140363,-1.3384057,0.5716171
25,1778317906.095838,0.017988855,0.09921311,0.08451713,0.17058411,-1.385137,0.50900346
26,1778317906.106273,0.024635585,0.099518,0.04841746,0.21762075,-1.3768903,0.4437936
27,1778317906.1158772,0.024635585,0.099518,0.04841746,0.21762075,-1.3768903,0.4437936
28,1778317906.12592,0.022135438,0.09890821,0.031831127,0.2209805,-1.2956452,0.38224894
29,1778317906.1362798,0.02207446,0.11098208,0.014695979,0.063224554,-0.7796168,0.24602598
30,1778317906.146204,0.029087063,0.09079798,0.063113436,0.004886922,-0.31322116,0.18295415
31,1778317906.1558158,0.03146525,0.099518,0.055247124,-0.038789943,0.29810223,0.11789699
32,1778317906.1665149,0.009695687,0.09268834,-0.023233064,-0.18203785,1.4732542,0.00290161
33,1778317906.1760385,-0.0052442085,0.09116385,-0.11146992,-0.18203785,1.4732542,0.00290161
34,1778317906.1862419,-0.0052442085,0.09116385,-0.11146992,-0.37690386,1.9885191,-0.03634648
35,1778317906.1958683,-0.01097625,0.09006623,-0.20702426,-0.6391178,2.3480134,-0.05497787
36,1778317906.2063098,0.00798827,0.09323715,-0.3246531,-1.133155,2.8440359,-0.086132
37,1778317906.216067,0.054210484,0.09695688,-0.4306349,-1.9252945,3.4348953,-0.16737708
38,1778317906.2260008,0.10445731,0.070248,-0.40374306,-2.4996605,3.6952765,-0.27779096
39,1778317906.236193,0.15946053,0.020549979,-0.38983983,-2.900999,3.7922513,-0.40546182
40,1778317906.2461164,0.15061855,-0.14616705,-0.49545574,-3.5271358,3.93947,-0.73273283
41,1778317906.2562401,-0.014635001,-0.46703944,-0.29178533,-5.736025,3.8990002,-1.2098186
42,1778317906.266224,-0.014635001,-0.46703944,-0.29178533,-5.736025,3.8990002,-1.2098186
43,1778317906.2763035,-0.11104306,-0.5481417,0.16171674,-3.682143,-1.4162911,-0.66782844
44,1778317906.2862592,0.09854234,-1.0312797,-0.72059083,-3.682143,-1.4162911,-0.66782844
45,1778317906.2959778,0.7841921,-2.3169644,-1.7858969,-3.0747902,-2.1887302,-0.6078109
46,1778317906.305831,0.79461956,-2.3169644,-1.7858969,0.0777326,1.6105462,-1.4077389
47,1778317906.3160274,0.5886319,-1.9182826,-0.44155017,1.9486601,2.9698741,-1.9970711
48,1778317906.325915,0.4788694,-1.6881473,0.040917024,2.984535,2.0760255,-2.2670736
49,1778317906.336118,0.3851444,-1.7191248,0.31599405,3.5396585,0.44028112,-2.3431263
50,1778317906.3463132,0.14500846,-2.4954505,0.3811808,4.505284,-5.0019174,-1.4795157
51,1778317906.356288,0.20812188,-3.2954364,0.35367918,4.5168905,-6.808704,-0.5421429
52,1778317906.365941,0.68589365,-4.4350758,-0.40978,3.879758,-5.6624155,0.27229318
53,1778317906.3760312,0.68589365,-4.4350758,-0.40978,3.879758,-5.6624155,0.27229318
54,1778317906.3858707,0.9589584,-5.1508493,-0.17055872,2.5966353,-2.207056,0.81138176
55,1778317906.3958902,1.0534151,-5.245184,0.20799993,1.4596626,-0.5355761,1.1406381
56,1778317906.4062424,0.46380752,-4.186525,0.19891405,0.24037547,-0.4427246,1.520749
57,1778317906.415819,0.3451421,-4.186525,0.19891405,0.24037547,-0.4427246,1.520749
58,1778317906.4259586,-0.22556195,-2.9370618,0.015915563,-0.08093964,0.37751472,2.6810875
59,1778317906.4359732,-0.33690992,-2.5735648,-0.020123126,-0.04596761,1.3246613,3.4336736
60,1778317906.4458332,-0.33690992,-2.5735648,-0.020123126,-0.04596761,1.3246613,3.4336736
61,1778317906.455967,-0.33690992,-2.5735648,-0.020123126,-0.077579886,0.99189246,3.180928
62,1778317906.4659717,-0.12842213,-0.27641857,-1.1157968,1.5367843,1.5242615,6.2679358
63,1778317906.4758825,-0.12842213,-0.27641857,-1.1157968,0.94714653,0.28008172,6.1967697
64,1778317906.4859548,0.086834334,-0.04847844,-0.87840486,0.7706065,0.008246681,6.145304
65,1778317906.4959092,0.086834334,-0.04847844,-0.87840486,0.00870483,-0.9567677,5.8413987
66,1778317906.5059204,0.14336202,-0.043661084,-0.50496846,-1.0349585,-1.9194913,5.2603135
67,1778317906.5163422,0.11226265,0.07390675,-0.056954544,-1.64674,-2.4857633,4.364938
68,1778317906.5262249,0.11226265,0.07390675,-0.056954544,-1.64674,-2.4857633,4.364938
69,1778317906.5360217,0.04414892,0.11110405,-0.047319833,-1.7151569,-2.5674667,3.881285
70,1778317906.5460184,0.0078053335,0.1536675,-0.032440916,-1.7176003,-2.6036603,3.723529
71,1778317906.5560524,-0.02853825,0.17000991,0.005061271,-1.6664404,-2.681393,3.5413384
72,1778317906.5659673,0.015610667,0.13573962,-0.012805625,-1.6664404,-2.681393,3.5413384
73,1778317906.5762365,0.015610667,0.13573962,-0.012805625,-1.6586518,-2.997974,3.3470833
74,1778317906.5862536,0.08640748,0.097017854,0.044880666,-1.6803375,-3.2129984,3.2491922
75,1778317906.5960686,0.11762882,0.06591848,0.0714066,-1.4998269,-3.1555772,3.0508137
76,1778317906.6058648,0.1340932,0.047258858,0.054393414,-1.3674219,-3.220787,2.9622383
77,1778317906.6162329,0.1340932,0.047258858,0.054393414,-1.3674219,-3.220787,2.9622383
78,1778317906.626083,0.15256988,0.055552024,0.055308107,-1.2118039,-3.3113477,2.8820622
79,1778317906.6358488,0.16226557,0.07549221,0.042441502,-1.1049025,-3.3411274,2.810591
80,1778317906.6462426,0.15927759,0.10171325,0.017379062,-1.0432051,-3.3573153,2.7394252
81,1778317906.6560576,0.18988912,0.1475086,0.005732042,-1.0485502,-3.374725,2.685669
82,1778317906.6658268,0.2374529,0.28879735,-0.04610025,-1.0917689,-3.3470833,2.6148088
83,1778317906.6759503,0.27684543,0.2570272,-0.045978293,-1.2600623,-3.121674,2.5926647
84,1778317906.686271,0.27684543,0.2570272,-0.045978293,-1.8406897,-1.9466748,2.6088529
85,1778317906.6960645,0.29105356,0.14592315,-0.010549396,-2.101682,-1.2124147,2.5187502
86,1778317906.7058687,0.29105356,0.14592315,-0.010549396,-2.101682,-1.2124147,2.5187502
87,1778317906.7163558,0.3077009,0.08171208,0.030367626,-2.2266037,-0.6733262,2.361605
88,1778317906.72615,0.32965338,0.03738023,0.04768571,-2.198504,-0.3857614,2.1397083
89,1778317906.7363973,0.33495858,-0.0042075627,0.03433127,-2.1636846,-0.34376442,2.0463986
90,1778317906.7458675,0.34697145,-0.048783336,0.014147166,-2.026698,-0.29535335,1.7479908
91,1778317906.75612,0.34288585,-0.11488476,-0.020489,-1.9286543,-0.20693061,1.427592
92,1778317906.765931,0.33886123,-0.1507405,-0.05433244,-1.8423696,0.024587326,0.9940305
93,1778317906.7759502,-0.0049393126,-0.24885598,-0.21531744,-1.6551393,1.0031935,0.3652974
94,1778317906.7863364,-1.323187,-0.468442,-0.56545985,-1.0323622,5.099503,-0.9492846
95,1778317906.7962055,-1.6493036,-0.44709927,-0.8346219,-0.05787948,13.099394,-2.5175283
96,1778317906.8061287,-0.5793021,-0.28782168,-0.6186337,0.7985536,19.672915,-3.0857859
97,1778317906.8160446,-0.08299265,-0.39813298,-0.5867415,1.5850426,22.140657,-3.3754885
98,1778317906.826238,-1.3695922,-1.7974219,-1.7951658,5.6566124,12.664763,-3.9646683
99,1778317906.8360505,-1.3695922,-1.7974219,-1.7951658,8.187427,1.5161675,-4.1949644
100,1778317906.8461778,-1.1600068,-1.586495,-1.1737881,8.718422,-3.396716,-4.411516
101,1778317906.8558216,-0.9070651,-1.4622804,-0.9762155,8.718422,-3.396716,-4.411516
102,1778317906.8658402,-0.5643012,-1.6607677,-0.30184686,7.0189943,-5.7375517,-5.7468677
103,1778317906.8762283,-1.727113,-2.8061395,0.34995946,1.4208726,-10.231076,-9.443519
104,1778317906.88611,-2.5625277,-3.667104,1.0663427,-0.024740042,-9.824241,-8.010123
105,1778317906.8961945,-2.8471782,-4.492884,1.87639,-0.3631594,-6.9612675,-4.9165487
106,1778317906.9058418,-2.75449,-4.8932123,2.1225019,0.2866485,-2.624888,-1.8924606
107,1778317906.9158409,-1.9329177,-5.0045605,1.3825197,1.1174252,3.0992248,1.3709344
108,1778317906.92595,-1.04189,-4.1514616,0.35727695,1.0722213,7.3558865,2.8615983
109,1778317906.9358432,-0.42032942,-2.3813584,-0.20379238,1.5654949,9.872346,3.2108605
110,1778317906.9463205,0.008781,-1.6264364,-0.7994369,2.9394836,7.6067996,3.0153835
111,1778317906.956161,0.20525588,-1.1971431,-0.9962167,3.2578971,5.8681245,2.8225029
112,1778317906.9659758,0.41782925,-0.6448547,-1.2094609,3.1810808,2.9307787,2.400395
113,1778317906.9758537,0.43075684,-0.16379005,-1.1110405,1.8845193,-0.22831088,1.21608
114,1778317906.9862316,0.43075684,-0.16379005,-1.1110405,1.6572775,-0.32635477,1.0673343
115,1778317906.9960756,0.28696796,0.5136885,-1.3892884,-0.62949663,-1.8614591,0.90285885
116,1778317907.006171,0.45209953,0.7112,-0.5657647,-3.8722749,-2.0124955,0.8352055
117,1778317907.0159562,0.553325,0.73754305,-0.32764107,-4.6404376,-3.4649804,0.95829487
118,1778317907.0260658,0.5464953,0.75388545,-0.22043969,-4.9897,-4.060116,1.0635164
119,1778317907.0359547,0.4928946,0.9751788,-0.04481969,-4.9897,-4.060116,1.0635164
120,1778317907.0458202,0.544361,0.9421281,0.29135844,-4.794681,-4.0621014,1.1725558
121,1778317907.0561235,0.60235226,0.88053924,0.66388017,-3.549585,-3.5263724,1.1930199
122,1778317907.0660417,0.39221802,0.96969074,0.7768746,-1.7658587,-2.4349089,1.0972667
123,1778317907.076285,0.5462514,0.46374658,0.6909549,1.161713,0.8445212,1.0206031
124,1778317907.0858684,0.5500321,0.42898846,0.68046653,1.3736832,1.1397219,0.89919364
125,1778317907.096124,0.48460147,0.20397532,0.5324701,2.1271856,2.0529654,0.39095375
126,1778317907.105887,0.3139817,0.09939604,0.35556954,2.962391,2.580142,-1.2072225
127,1778317907.1158948,0.3139817,0.09939604,0.35556954,2.962391,2.580142,-1.2072225
128,1778317907.1259835,0.013354438,-0.011159187,0.15848486,2.748588,2.2676845,-1.9973767
129,1778317907.1363087,-0.05469831,-0.28587034,-0.1334834,1.7444785,1.999362,-2.8440359
130,1778317907.146241,-0.05469831,-0.28587034,-0.1334834,1.7444785,1.999362,-2.8440359
131,1778317907.1562748,-0.10848194,-0.28434587,-0.1972676,1.322676,2.0847304,-3.0804408
132,1778317907.1662478,-0.15830192,-0.2338551,-0.25166103,0.6160576,2.2731824,-3.22995
133,1778317907.1763675,-0.15830192,-0.2338551,-0.25166103,-0.07360926,2.559678,-3.2601879
134,1778317907.1860046,-0.45094094,-0.77547204,-1.6031423,-0.07360926,2.559678,-3.2601879
135,1778317907.1958323,-0.77522814,-0.9943263,-1.8593767,-1.864208,6.670343,-2.8044822
136,1778317907.2061112,-0.8846248,-1.0160959,-1.8404733,-1.8498527,5.7925296,-2.666885
137,1778317907.2158372,-0.673088,-1.2631835,-1.8332777,-1.869095,0.14446963,-2.339461
138,1778317907.225902,-0.3738023,-1.4934407,-1.3249553,-1.869095,0.14446963,-2.339461
139,1778317907.2361963,0.22915971,-1.9551141,-0.415634,-1.9982929,-2.3457224,-2.990949
140,1778317907.245957,0.5605815,-2.4247756,-0.08463909,-2.0176878,-3.0740266,-3.837608
141,1778317907.25595,0.8435248,-3.160855,-0.03500204,-1.7482964,-1.3935363,-4.8887544
142,1778317907.2658334,0.73528683,-3.647713,0.1039085,-0.9628763,3.0303497,-5.564677
143,1778317907.2759182,0.73528683,-3.647713,0.1039085,-0.9628763,3.0303497,-5.564677
144,1778317907.2863176,0.73528683,-3.647713,0.1039085,-0.9628763,3.0303497,-5.564677
145,1778317907.2959404,-0.16513158,-2.7616246,-0.5669233,2.1763601,5.539173,-2.0732768
146,1778317907.3059413,-0.32105532,-2.1794565,-1.1722635,2.2692118,3.1764994,-0.2759584
147,1778317907.3158147,-0.27245492,-1.9804815,-1.2079973,1.5486962,0.6188065,1.212873
148,1778317907.325977,-0.1589727,-2.0064585,-0.825597,0.46578476,-1.3842206,1.8128953
149,1778317907.335922,-0.1589727,-2.0064585,-0.825597,0.3324634,-2.1835377,1.7734945
150,1778317907.3459396,0.009268833,-2.1032934,-0.614548,0.32696563,-2.355649,1.7266107
151,1778317907.3558931,0.15153323,-2.2883651,-0.3814247,0.3811799,-2.7661505,1.5312865
152,1778317907.3660862,0.2906877,-2.5118537,-0.27904066,0.6337727,-3.083037,1.0823005
153,1778317907.3763363,0.15256988,-2.7243662,-0.22885482,0.8575021,-2.9277244,0.74372846
154,1778317907.386306,-0.013110521,-2.7415624,-0.16982698,1.0128145,-2.3486242,0.83169305
155,1778317907.3960898,-0.20184104,-2.2958047,-0.102445,1.2409728,-1.3116804,1.7612772
156,1778317907.4059246,-0.18458393,-1.8345582,-0.124336526,1.5192219,-1.2191343,2.2375994
157,1778317907.4158566,-0.18458393,-1.8345582,-0.124336526,1.5192219,-1.2191343,2.2375994
158,1778317907.4261873,-0.21982989,-1.273367,-0.25471,1.7062993,-1.3509285,2.4561365
159,1778317907.4359126,-0.22617173,-1.214888,-0.27416235,1.8113682,-1.6688838,2.6968174
160,1778317907.4461179,-0.21135378,-0.82992643,-0.3886812,1.7145461,-1.9700404,2.8677068
161,1778317907.4558392,-0.20793895,-0.72553015,-0.40703595,1.4839444,-2.1792617,2.928946
162,1778317907.466191,-0.2089756,-0.5904613,-0.43289113,1.2945762,-2.2704334,2.9353602
163,1778317907.4761944,-0.22135438,-0.32379937,-0.42112213,0.8604037,-2.4094052,2.8799243
164,1778317907.4863367,-0.21568331,-0.14324006,-0.36343583,-0.10125092,-2.366492,2.6140451
165,1778317907.4961026,-0.18751094,0.00219525,-0.2874558,-0.10125092,-2.366492,2.6140451
166,1778317907.5063038,-0.15763116,0.059576645,-0.24452646,-0.44898596,-2.2817345,2.4785857
167,1778317907.5159428,-0.002500146,0.039209604,-0.13939838,-1.1664472,-2.335185,2.2226331
168,1778317907.5259194,0.09890821,0.047746688,-0.10061563,-1.4199562,-2.518292,2.1491766
169,1778317907.5359054,0.09890821,0.047746688,-0.10061563,-1.4199562,-2.518292,2.1491766
170,1778317907.546518,0.16122891,0.034148335,-0.08652944,-1.6349808,-2.4740043,1.9692768
171,1778317907.5558243,0.12915388,0.09079798,-0.08933448,-1.6519324,-2.2841778,1.9365956
172,1778317907.5663455,0.107201375,0.2116587,-0.12427554,-1.7695239,-1.1067351,2.0098994
173,1778317907.5760064,0.056161813,0.3637407,-0.0062808543,-2.0448713,1.2415836,2.2828035
174,1778317907.5863926,0.08494398,0.41142645,-0.11397006,-1.8283197,4.893794,2.6245825
175,1778317907.5959418,0.35630128,0.6471719,-0.42508578,-1.3035865,5.5246654,2.6219864
176,1778317907.6062655,0.35630128,0.6471719,-0.42508578,-1.3035865,5.5246654,2.6219864
177,1778317907.615892,0.47002742,0.39673045,-0.18543765,-0.8910997,-0.20937407,1.7273742
178,1778317907.6262603,0.49771196,0.21537842,-0.05933273,-1.1615603,-2.0013473,1.3228287
179,1778317907.636128,0.49582162,0.17598589,-0.031709168,-1.1615603,-2.0013473,1.3228287
180,1778317907.6462407,0.4693567,-0.01841571,0.18684018,-1.4178182,-3.727958,0.3491095
181,1778317907.656171,0.4693567,-0.01841571,0.18684018,-1.4178182,-3.727958,0.3491095
182,1778317907.6662695,0.4413672,-0.052259143,0.2373919,-1.4810427,-4.0237694,-0.057726767
183,1778317907.6762822,0.4323423,-0.10653061,0.30367625,-1.5150986,-3.9293907,-0.39202276
184,1778317907.686158,0.4223417,-0.15494807,0.36453345,-1.3865114,-2.8516717,-0.71868294
185,1778317907.6960611,0.38587618,-0.21293926,0.3840468,-1.1009319,-0.79519385,-0.97142845
186,1778317907.706325,0.32032356,-0.3983159,0.32892162,-0.17088956,4.140903,-1.512655
187,1778317907.715855,0.32032356,-0.3983159,0.32892162,-0.17088956,4.140903,-1.512655
188,1778317907.7260728,0.29465136,-0.47575948,0.35691106,0.3622431,5.1289773,-1.9365956
189,1778317907.7358682,0.24928285,-0.94023776,0.40575537,3.172376,7.853589,-3.2517884
190,1778317907.7460861,0.24928285,-0.94023776,0.40575537,3.172376,7.853589,-3.2517884
191,1778317907.756048,0.21312219,-1.1448839,0.166839,4.9855766,7.4618716,-3.8666244
192,1778317907.7659252,0.08890763,-1.4338032,-0.05079565,6.2205935,5.9548674,-4.1751113
193,1778317907.7758763,-0.17586392,-2.4632535,-1.1856179,6.743036,5.1454706,-4.208556
194,1778317907.7860148,-0.92724925,-3.7096066,-4.519776,4.1775546,3.3217325,-4.1706824
195,1778317907.7959228,-0.9885943,-3.9901109,-3.3195229,0.56001073,1.1192578,-3.5052974
196,1778317907.8059955,-0.93883526,-3.9612067,-1.4442916,-1.4552337,-2.5999951,-2.653904
197,1778317907.8163588,-0.611682,-3.7575362,-0.03286777,-1.689806,-7.61413,-0.691194
198,1778317907.8263068,-0.611682,-3.7575362,-0.03286777,-1.689806,-7.61413,-0.691194
199,1778317907.836458,-0.82870686,-2.3290992,0.31867713,-0.08689558,-5.7273197,0.72387534
200,1778317907.8458283,-0.82870686,-2.3290992,0.31867713,-0.08689558,-5.7273197,0.72387534
201,1778317907.8563223,-0.7460191,-1.7781526,0.3500814,0.40607268,-4.074166,1.1876748
202,1778317907.8659708,-0.6302197,-1.4011183,0.2924561,0.68554354,-2.258827,1.640784
203,1778317907.8758192,-0.57478964,-1.2251325,0.25105122,0.73471814,-1.3950635,1.8577939
204,1778317907.8861327,-0.50185853,-0.9969484,0.20976834,0.7325801,-0.30283645,2.1742222
205,1778317907.8962097,-0.32014063,-0.6876011,0.108055085,0.73792523,0.47952923,2.4323127
206,1778317907.9061372,-0.2666619,-0.56826484,0.067077085,0.9120218,1.3836098,2.6875017
207,1778317907.916112,-0.2666619,-0.56826484,0.067077085,0.9120218,1.3836098,2.6875017
208,1778317907.9258578,-0.190255,-0.4589292,0.064637914,1.1152872,1.5690074,2.7256808
209,1778317907.9358153,-0.08463909,-0.38727868,0.049759,1.4140003,1.5661057,2.6590965
210,1778317907.9461286,0.064089105,-0.34752026,0.011586042,1.6021469,1.4031575,2.5326474
211,1778317907.956046,0.46490517,-0.3026396,-0.36861908,2.0082195,0.6930266,1.9219347
212,1778317907.9662144,0.49338245,-0.29178533,-0.42246366,2.079538,0.4156938,1.542282
213,1778317907.9762616,0.5391778,-0.26221043,-0.5374094,1.8335121,0.2012801,0.8535315
214,1778317907.9859722,0.49484593,-0.18769388,-0.5617401,1.3428345,0.3109304,0.35185838
215,1778317907.995832,0.33910516,-0.10939662,-0.4619782,0.02076942,0.6649268,-0.33200526
216,1778317908.0059912,0.04927117,-0.12811723,-0.1958041,-0.39813143,0.6423248,-0.50671273
217,1778317908.0158503,0.04927117,-0.12811723,-0.1958041,-0.5871942,0.52839845,-0.6151413
218,1778317908.02602,-0.15799703,-0.23165986,-0.054637335,-0.5871942,0.52839845,-0.6151413
219,1778317908.0362453,-0.25471,-0.30904242,-0.021159772,-0.6754643,0.18417588,-0.7622071
220,1778317908.0458999,-0.25471,-0.30904242,-0.021159772,-0.6429357,-0.12415836,-0.77320266
221,1778317908.0559285,-0.31160355,-0.39477912,0.010305479,-0.43325618,-0.8405506,-0.50915617
222,1778317908.0662825,-0.32416525,-0.50838333,0.038477857,-0.36942077,-1.0083858,-0.4364632
223,1778317908.0758364,-0.3032494,-0.6801007,0.06213777,-0.36942077,-1.0083858,-0.4364632
224,1778317908.0863168,-0.29599288,-0.7542513,0.06896744,-0.34498614,-1.059393,-0.42287147
225,1778317908.0963078,-0.30489585,-0.8813319,0.050429773,-0.30482176,-0.86116725,-0.48288897
226,1778317908.1063025,-0.3887422,-1.2432432,-0.28184572,-0.19028452,-0.30024028,-0.6258314
227,1778317908.115813,-0.42203683,-1.2998929,-0.43844023,0.010537425,0.75808376,-0.91354895
228,1778317908.1260862,-0.9606658,-1.7701643,-1.8718776,-0.2948952,2.5798366,-1.1334605
229,1778317908.136084,-0.95584846,-1.7638835,-1.8865734,-2.342821,4.7484083,-0.9016371
230,1778317908.146083,-0.9126752,-1.6628408,-1.808886,-2.5566237,4.539187,-0.8698721
231,1778317908.1560214,-0.5880221,-1.1608604,-0.9351765,-3.1603115,2.8110492,-0.7672467
232,1778317908.1663933,-0.39142528,-0.7908998,-0.40221858,-3.104417,1.0705414,-0.6404922
233,1778317908.175857,-0.1838522,-0.5325311,0.08323657,-2.9000828,-0.16676621,-0.49739704
234,1778317908.186156,-0.08470006,-0.5493003,0.29385862,-2.2093468,-1.6997325,-0.25060746
235,1778317908.1965652,-0.089822315,-1.0376825,0.19549921,-0.23808473,-0.29917124,-0.64996064
236,1778317908.2060046,-0.14037405,-1.0729284,0.10024975,0.10705414,1.0071641,-0.796721
237,1778317908.215895,-0.8241945,-1.1683608,-0.74144566,0.07941248,1.1815661,-0.7716755
238,1778317908.2262404,-0.99024075,-1.1995212,-0.65162337,-0.6017023,1.0882565,-0.04886922
239,1778317908.236144,-0.99024075,-1.1995212,-0.65162337,-0.6088799,0.21273382,0.4841107
240,1778317908.2461557,-0.9501164,-1.2101315,-0.48136955,-0.6088799,0.21273382,0.4841107
241,1778317908.2561772,-0.8824905,-1.1704341,-0.37252176,-0.4166101,-0.36178493,0.8393288
242,1778317908.266118,-0.7262619,-1.1034181,-0.2675156,-0.21029036,-0.95371336,1.127199
243,1778317908.2763894,-0.7262619,-1.1034181,-0.2675156,-0.21029036,-0.95371336,1.127199
244,1778317908.285968,-0.49155307,-0.9412134,-0.015061854,-0.14767668,-1.2748758,1.2287555
245,1778317908.296249,-0.40465775,-0.9110898,0.047929626,-0.0917825,-1.024421,1.1330023
246,1778317908.306365,-0.28666306,-0.883893,0.102566965,0.034513887,0.728915,0.70524395
247,1778317908.3160622,-0.28666306,-0.883893,0.102566965,0.034513887,0.728915,0.70524395
248,1778317908.3261988,-0.35928926,-0.74864125,-0.055795938,0.18555032,2.7172813,0.24556783
249,1778317908.3359783,-0.4446601,-0.7175419,-0.2294646,0.38728857,3.528205,0.14004086
250,1778317908.346137,-0.32922652,-0.73687226,-0.43154958,0.5545129,3.7430768,0.24083363
251,1778317908.355974,-0.091529734,-0.76906925,-0.72107863,0.5545129,3.7430768,0.24083363
252,1778317908.3658576,-0.034819108,-0.75717837,-0.7671789,0.59696805,3.1740558,0.49037206
253,1778317908.3758802,0.15653352,-0.676259,-0.86383086,0.50610185,2.815936,0.49648073
254,1778317908.385807,0.22909874,-0.64302534,-0.85444015,0.105832405,1.8942931,0.36132678
255,1778317908.3958774,0.26617405,-0.61338943,-0.7147368,-0.37323865,1.0088439,0.16065755
256,1778317908.4058099,0.28507763,-0.65320885,-0.6100966,-0.59941155,0.52473325,0.045662176
257,1778317908.4160588,0.28788266,-0.684857,-0.515213,-0.8332202,-0.27947086,-0.19990565
258,1778317908.4263444,0.16805859,-0.68705225,-0.5554592,-0.874759,-0.40210205,-0.3481932
259,1778317908.4358811,0.06652827,-0.7264448,-0.6188166,-0.88346386,-0.40943244,-0.37140608
260,1778317908.4459455,0.04896627,-0.74803144,-0.6313173,-0.91446525,-0.40866885,-0.4373795
261,1778317908.4561317,0.018049834,-1.0206083,-0.6594897,-0.96852684,-0.68600166,-0.6020077
262,1778317908.466085,-0.002866021,-1.0922589,-0.6340614,-0.9790643,-0.8228355,-0.66981375
263,1778317908.4761786,-0.062442668,-1.2215956,-0.55350786,-0.9808969,-0.9645562,-0.73639804
264,1778317908.4859736,-0.062442668,-1.2215956,-0.55350786,-0.9808969,-0.9645562,-0.73639804
265,1778317908.4961677,-0.27330863,-1.4237416,-0.33203158,-0.8197812,-1.510517,-0.96837413
266,1778317908.5062668,-0.4867967,-1.4886844,-0.18525472,-0.49403727,-1.578934,-0.98715824
267,1778317908.5161734,-0.63082945,-1.5154543,-0.18519373,-0.10888673,-1.5033394,-0.9410379
268,1778317908.5260541,-0.53875095,-1.6085085,-0.37398523,0.60139686,-1.1757629,-0.8943067
269,1778317908.5359623,-0.48143053,-1.7098559,-0.4953338,0.7368562,-0.7851145,-0.9766208
270,1778317908.5459118,-0.48143053,-1.7098559,-0.4953338,0.7368562,-0.7851145,-0.9766208
271,1778317908.5559812,-0.46228305,-1.712295,-0.57588726,1.0838276,-0.52473325,-0.9995282
272,1778317908.565907,-0.44124526,-1.7567489,-0.65461135,1.0838276,-0.52473325,-0.9995282
273,1778317908.5759237,-0.45740473,-1.7700424,-0.67107576,1.3536774,-0.5726862,-0.8356637
274,1778317908.586221,-0.40825552,-1.8285823,-0.6619289,1.5318973,-0.50732356,-0.68294734
275,1778317908.5958502,-0.37069237,-1.8626087,-0.6344882,1.6586518,-0.3315471,-0.5891795
276,1778317908.6060665,-0.37069237,-1.8626087,-0.6344882,1.6586518,-0.3315471,-0.5891795
277,1778317908.616261,-0.17501022,-1.8432784,-0.50771254,1.8457294,0.5357288,-0.39752057
278,1778317908.6261563,0.14903308,-1.6991845,-0.6392446,1.9063578,1.2483032,-0.42455134
279,1778317908.6358626,0.14903308,-1.6991845,-0.6392446,1.8509218,1.8017471,-0.6042985
280,1778317908.6460402,0.03000175,-1.3914226,-0.7704718,1.4332426,1.5454891,-0.7180721
281,1778317908.656248,0.03000175,-1.3914226,-0.7704718,1.1968378,0.7162395,-0.65500027
282,1778317908.6658926,-0.07421165,-1.3087958,-0.6782103,1.1968378,0.7162395,-0.65500027
283,1778317908.675812,-0.14708175,-1.0173764,-0.46112445,1.0152581,-0.41263947,-0.5468771
284,1778317908.6860518,-0.14708175,-1.0173764,-0.46112445,0.86467975,-1.2890784,-0.42913285
285,1778317908.6960595,-0.122324206,-0.9226148,-0.3769732,0.7334964,-1.9784398,-0.36743546
286,1778317908.706276,-0.11043327,-0.7574832,-0.35819164,0.49434268,-2.6241243,-0.38744128
287,1778317908.7161179,-0.11043327,-0.7574832,-0.35819164,0.16798794,-3.0392072,-0.34422258
288,1778317908.726328,-0.16909523,-0.5552153,-0.33855635,0.16798794,-3.0392072,-0.34422258
289,1778317908.7364016,-0.29215118,0.20440216,-0.20678036,-0.6942484,-3.221245,0.1684461
290,1778317908.7460275,-0.29410252,0.39002275,-0.11933623,-0.889878,-3.2365167,0.48059824
291,1778317908.7562006,-0.2534294,0.5428975,0.044331856,-1.0564915,-3.1680999,0.71975195
292,1778317908.7661486,-0.2534294,0.5428975,0.044331856,-1.0735956,-3.0914364,0.7147123
293,1778317908.7762933,-0.21647604,0.59381515,0.15122834,-1.067487,-3.0586023,0.70463306
294,1778317908.7862291,-0.14506944,0.6038767,0.35245958,-0.97585726,-2.905275,0.67149365
295,1778317908.7960129,-0.062076796,0.5232013,0.418683,-0.9025534,-2.857933,0.6623306
296,1778317908.8061597,0.14220342,0.25160006,0.5597278,-0.68493265,-2.8501446,0.5386304
297,1778317908.8163033,0.10518907,0.15330163,0.69174767,-0.44715336,-2.796541,0.31902438
298,1778317908.826055,0.10518907,0.15330163,0.69174767,-0.21151209,-2.3171647,0.21624629
299,1778317908.8360581,0.040795065,0.07604102,0.8943815,0.38728857,-0.36636642,0.052534413
300,1778317908.8461769,0.052625023,0.063967146,0.9217611,0.5537493,0.18280143,0.002443461
301,1778317908.85625,-0.016464375,0.0693943,0.6921136,1.2363913,2.4022276,-0.26465738
302,1778317908.8663876,-0.08646846,0.064637914,0.4821013,1.5790867,3.7389534,-0.42012256
303,1778317908.8758867,-0.08646846,0.064637914,0.4821013,1.5790867,3.7389534,-0.42012256
304,1778317908.8864157,-0.02628202,-0.058783915,0.11262852,1.7296649,4.7190866,-0.5590944
305,1778317908.896178,0.032562874,-0.24409962,-0.31105474,1.7460055,5.5981216,-0.6553057
306,1778317908.905857,0.08695629,-0.3530694,-0.5596668,1.6427693,5.9078307,-0.6450737
307,1778317908.9161777,0.20312162,-0.49045542,-1.044756,1.2805263,6.089563,-0.61941737
308,1778317908.9260943,0.26044202,-0.50588316,-1.4062406,0.68859786,5.624236,-0.6563747
309,1778317908.936033,0.36142352,-0.44240385,-1.9381008,-0.50411654,4.814229,-0.95462966
310,1778317908.946107,0.36142352,-0.44240385,-1.9381008,-0.6230826,4.7774243,-1.0149527
311,1778317908.956388,0.3810588,-0.46624672,-2.0018852,-1.1879802,3.5114062,-1.5351044
312,1778317908.9661138,0.5119201,-0.743397,-1.5020999,-1.1766791,3.1783319,-1.6094772
313,1778317908.976114,0.4607586,-1.0137177,-1.4746592,-1.5134187,1.3814718,-2.0465512
314,1778317908.9861665,0.307335,-1.4624634,-1.3388586,-2.9173398,-1.3190107,-2.4750733
315,1778317908.9961793,0.20885365,-1.627595,-0.8979183,-4.084703,-3.436117,-2.71102
316,1778317909.0058272,0.11549455,-1.8884639,-0.14366692,-4.691903,-4.9932127,-2.7792842
317,1778317909.0161116,0.26684484,-2.3986764,0.6392446,-4.867527,-6.9568386,-2.6963592
318,1778317909.02587,0.53436047,-3.0374334,1.4032526,-3.0973923,-4.567898,-2.3958135
319,1778317909.035894,0.53436047,-3.0374334,1.4032526,-3.0973923,-4.567898,-2.3958135
320,1778317909.0463922,-0.122507155,-3.2062237,0.15964346,1.0085385,5.5903335,-2.6513078
321,1778317909.0558307,-0.7356527,-2.914926,-0.36111864,1.0737484,6.4267607,-2.757293
322,1778317909.0659204,-1.1593969,-2.6670458,-0.63174415,1.5318973,5.2144985,-2.4874432
323,1778317909.0758455,-1.0475612,-2.4480696,-0.90285754,1.6569719,0.81413066,-0.5421429
324,1778317909.0858848,-0.95456785,-2.456302,-0.89133245,1.587486,0.4792238,-0.28802297
325,1778317909.0961032,-0.69680893,-2.468071,-0.80352247,1.3764321,-0.26190847,0.55756724
326,1778317909.105967,-0.20836583,-2.4721565,-0.58259493,1.3321444,-0.3080288,1.0204504
327,1778317909.115937,0.11799469,-2.452887,-0.38294917,1.3797919,-0.042913284,1.6319265
328,1778317909.1261423,0.36050883,-2.4012377,-0.2336112,1.5080736,0.030695979,1.9709567
329,1778317909.136279,0.4874065,-2.321172,-0.14817938,1.8813123,-0.13775012,1.9291124
330,1778317909.1463132,0.19379179,-2.2031162,-0.33617815,2.670703,-0.37232238,1.8912388
331,1778317909.15603,0.23922127,-2.2253737,-0.29318783,2.7539332,-0.45860708,1.9352211
332,1778317909.165865,0.045673396,-2.0446925,-0.53015286,2.9675834,-1.0896308,2.219579
333,1778317909.1762264,-0.06073525,-1.7872993,-0.755227,2.7785206,-1.6565138,2.355649
334,1778317909.1858366,-0.1232389,-1.5403337,-0.8505375,2.0328069,-2.501035,2.2504275
335,1778317909.1959748,-0.18501079,-1.2422066,-0.88669807,1.564426,-2.9454396,2.0609066
336,1778317909.2062213,-0.304469,-0.9474943,-0.7646788,0.9634872,-3.397327,1.8012888
337,1778317909.2163963,-0.4686249,-0.6082062,-0.62778056,0.27687466,-3.7436876,1.6639969
338,1778317909.2263947,-0.55600804,-0.4056944,-0.4885651,-0.44822237,-4.1157045,1.7547104
339,1778317909.2358997,-0.58972955,-0.10665256,-0.22336671,-0.9812023,-4.1664066,2.0212004
340,1778317909.245992,-0.58972955,-0.10665256,-0.22336671,-1.295798,-3.9985712,2.395508
341,1778317909.2560792,-0.5307017,0.025489293,-0.10104248,-1.3471106,-3.1035008,3.2162056
342,1778317909.2658532,-0.4358791,0.10659158,-0.0086590415,-1.3471106,-3.1035008,3.2162056
343,1778317909.2760386,-0.14885014,0.23013538,0.08640748,-1.0954341,-1.858863,3.8154643
344,1778317909.2862685,-0.14885014,0.23013538,0.08640748,-1.0954341,-1.858863,3.8154643
345,1778317909.2962162,-0.14885014,0.23013538,0.08640748,-1.0954341,-1.858863,3.8154643
346,1778317909.3063314,-0.14885014,0.23013538,0.08640748,-1.0954341,-1.858863,3.8154643
347,1778317909.3162959,0.16415593,0.24775836,0.107506275,-1.0968086,-0.8350528,4.108985
348,1778317909.326355,0.30672523,0.16293633,0.13220283,-1.0917689,-0.73624533,4.1109705
349,1778317909.335882,0.5109445,-0.04853942,0.13476396,-0.9644035,-0.70173144,3.9753582
350,1778317909.3461757,0.7851068,-0.2655643,0.10451829,-0.6762278,-0.39935315,3.5842519
351,1778317909.3563094,1.0438414,-0.3782538,-0.02695279,-0.34208453,0.40439278,2.8735101
352,1778317909.366327,1.0141445,-0.3383734,-0.043722063,-0.05665775,1.2463179,1.9807305
353,1778317909.3763509,0.59905934,0.06366225,-0.3389222,0.20693061,1.8897116,1.3359623
354,1778317909.3858697,0.54631233,0.09903017,-0.38880318,0.37782016,2.4882069,0.70554936
355,1778317909.396062,0.34800813,0.19306004,-0.58320475,0.11056661,2.6392434,0.20723604
356,1778317909.4063363,0.13775194,0.25519782,-0.7232129,-0.5035057,2.341141,-0.22556199
357,1778317909.4162657,0.07646788,0.263491,-0.72656673,-0.79809546,2.1137464,-0.38789943
358,1778317909.4259527,-0.0831146,0.304347,-0.6084501,-1.667204,1.215011,-0.8211556
359,1778317909.4359334,-0.0831146,0.304347,-0.6084501,-2.1846068,0.28787026,-1.0961977
360,1778317909.4459758,-0.18488884,0.27696738,-0.38996178,-2.4367414,-0.8741482,-1.2848023
361,1778317909.4560564,-0.26757658,0.09134679,0.2110489,-2.4483478,-1.7968601,-1.3610078
362,1778317909.4660242,-0.2654423,0.06683317,0.27269882,-2.4254405,-1.9857702,-1.3649784
363,1778317909.4759793,-0.2654423,0.06683317,0.27269882,-1.7895297,-2.3745859,-1.3180945
364,1778317909.4863088,-0.23159887,-0.35989904,0.9752399,-1.293049,-1.8753563,-1.324814
365,1778317909.4963553,-0.10317675,-0.96725154,1.0647572,0.26725355,-0.06093381,-1.3822353
366,1778317909.5058107,0.075126335,-1.5569811,0.62326807,2.2893703,2.7908907,-1.2860241
367,1778317909.5159354,0.33831242,-2.002129,-0.05713748,3.5288157,6.3821673,-1.3147347
368,1778317909.5258262,0.8012663,-2.6558259,-0.5580813,4.162436,9.156106,-1.5438092
369,1778317909.5358498,0.7965709,-4.115972,-4.001087,2.24325,7.5884733,-3.68535
370,1778317909.5463662,-0.9122484,-3.132195,-3.2284203,-0.3222314,-0.40698898,-3.278361
371,1778317909.5559692,-1.1933013,-2.0621326,-1.4931359,-1.6019942,-4.8478265,-2.4071145
372,1778317909.5659454,-0.57033813,-2.3295872,-0.36428955,-1.6019942,-4.8478265,-2.4071145
373,1778317909.5761173,-0.57033813,-2.3295872,-0.36428955,-2.0738876,-7.327634,-1.8232801
374,1778317909.5865858,-0.49472398,-2.5249643,0.16574138,-0.5007568,-7.062824,-1.8438967
375,1778317909.5959916,-0.5526542,-2.7466238,0.55186146,-0.5007568,-7.062824,-1.8438967
376,1778317909.605853,-0.62845135,-2.8121154,0.4622221,1.9048306,-2.8411343,-2.3330472
377,1778317909.6159146,-0.84206134,-2.7686372,-0.0102445,2.0532708,-1.8086193,-2.4381158
378,1778317909.625856,-0.9851795,-2.686742,-0.26910108,1.9384282,-0.25137106,-2.4303274
379,1778317909.6361363,-1.0937223,-2.494536,-0.5336897,1.1731668,2.2514966,-2.0169244
380,1778317909.6463027,-0.87810004,-1.6521086,-0.4109996,0.48838675,4.022242,-0.17379116
381,1778317909.6560557,-0.8215113,-1.5841779,-0.39941353,0.54199016,3.912439,0.0062613687
382,1778317909.6662118,-0.8215113,-1.5841779,-0.39941353,0.54199016,3.912439,0.0062613687
383,1778317909.6762698,-0.38020512,-1.1059792,-0.3477642,1.3203852,0.35002577,1.2903001
384,1778317909.6861598,-0.2833702,-0.80279076,-0.27702835,1.3203852,0.35002577,1.2903001
385,1778317909.6960754,-0.26775953,-0.77839905,-0.27525997,1.2928963,-1.3581061,1.529912
386,1778317909.7058978,-0.23056222,-0.6478427,-0.2426361,1.0684034,-2.1864395,1.5464053
387,1778317909.7162926,-0.2215983,-0.5216768,-0.2089756,0.6666067,-3.1048753,1.5593863
388,1778317909.7261744,-0.1835473,-0.37880257,-0.08860273,0.42577308,-3.507741,1.5946637
389,1778317909.7362618,-0.11354321,-0.16092403,0.08768804,0.25702155,-3.9678752,1.6676621
390,1778317909.7462192,-0.015183813,0.5100907,0.11622629,0.38652498,-4.1018076,1.7004961
391,1778317909.7562788,0.005183229,0.56417924,0.10360361,0.5311473,-3.90068,1.7220291
392,1778317909.766502,0.08707825,0.7535805,0.10500612,0.6301075,-3.389844,1.8081611
393,1778317909.7758977,0.24202631,0.86267227,0.14287418,0.9016371,-2.1621575,1.9498819
394,1778317909.7861443,0.4177683,0.85907453,0.047380816,1.2921327,0.5902485,2.222786
395,1778317909.7960043,0.73034745,0.57253337,-0.09268834,1.2921327,0.5902485,2.222786
396,1778317909.805835,0.68132025,0.62826836,-0.07591906,1.1296426,1.0372492,1.9549215
397,1778317909.815811,0.92023665,0.40051118,-0.031343292,0.8732319,1.2166909,1.0844386
398,1778317909.8259385,0.9509091,0.34581286,-0.030062728,0.7823657,1.2038627,0.5025894
399,1778317909.835825,0.8502936,0.34117845,0.0078053335,0.69043046,1.0045679,-0.3315471
400,1778317909.845971,0.49862665,0.32233587,0.026708877,0.6452264,0.817185,-0.9764681
401,1778317909.8559244,0.10500612,0.06768687,-0.038355898,0.6105598,0.745561,-1.845882
402,1778317909.8662348,0.10500612,0.06768687,-0.038355898,0.6105598,0.745561,-1.845882
403,1778317909.8761075,-0.13677627,-0.11951917,-0.23550156,0.54260105,1.0835222,-2.2030854
404,1778317909.8859518,-0.13677627,-0.11951917,-0.23550156,0.43692136,1.6504052,-2.399784
405,1778317909.8960032,-0.24489233,-0.23403804,-0.35489875,0.26984972,2.4599543,-2.526386
406,1778317909.906477,-0.29172435,-0.33934906,-0.4862479,-0.28115073,4.426635,-2.7895162
407,1778317909.9160748,-0.39386442,-0.47801572,-0.57619214,-0.5288566,4.912578,-2.8478537
408,1778317909.9260707,-0.39057156,-0.5605815,-0.5780825,-0.75961095,5.0866747,-2.8962648
409,1778317909.9360027,-0.40642616,-0.61156005,-0.5332628,-1.0496192,4.743216,-2.893974
410,1778317909.945942,-0.41167036,-0.632293,-0.49307755,-1.2324207,4.134947,-2.7284296
411,1778317909.9561565,-0.2950172,-0.6474768,-0.41764635,-1.2728904,3.4017558,-2.445599
412,1778317909.965824,-0.10622571,-0.7449825,-0.3905106,-1.4624114,2.7246118,-2.1794145
413,1778317909.9758837,0.017074168,-0.8210845,-0.22050068,-1.752267,2.6316075,-2.0572414
414,1778317909.9859676,0.064820856,-0.92798096,-0.057381395,-1.6843082,1.8979583,-2.3086126
415,1778317909.9961872,0.21092694,-1.1651899,0.113299295,-1.6143641,1.7221818,-2.3803892
416,1778317910.0060759,0.3489838,-1.4995997,0.13104422,-0.0065668016,0.91782504,-3.6109772
417,1778317910.0158367,0.7016873,-2.418007,-0.085004956,-0.0065668016,0.91782504,-3.6109772
418,1778317910.026315,1.0350604,-2.7469897,-0.37160707,0.7076874,1.9355265,-4.1783185
419,1778317910.0362546,1.3797756,-3.0337746,-0.8449273,1.3745996,4.5578184,-4.999016
420,1778317910.045856,0.9978021,-3.2420185,-1.5181373,1.4804319,7.81877,-6.0225205
421,1778317910.0561547,0.03091644,-3.1855516,-1.6671704,1.052979,6.129575,-5.6984563
422,1778317910.0659802,-0.7163223,-2.857362,-1.451853,0.7173085,2.2264512,-4.2384887
423,1778317910.0762677,-0.845842,-2.347515,-0.9752399,0.04444045,-0.8539896,-2.300824
424,1778317910.0861092,-0.54009247,-2.2283006,-0.48265013,-0.40882155,-2.3069327,-0.3895793
425,1778317910.096185,0.09677394,-2.222142,-0.027989438,-0.046883907,-1.8784106,0.258396
426,1778317910.1059995,0.39703536,-2.2004333,0.100432694,-0.046883907,-1.8784106,0.258396
427,1778317910.1159813,0.52222556,-2.1495767,0.11634825,0.37323865,-0.97585726,0.9231701
428,1778317910.12639,0.62381685,-2.0322526,0.072870106,0.77274454,-0.22739458,1.4873042
429,1778317910.1361217,0.8213284,-1.9029769,0.05585692,1.5885551,0.8061894,2.3043363
430,1778317910.146019,1.0884781,-1.967005,-0.16763173,2.6991081,0.08552113,2.509129
431,1778317910.155984,0.80876666,-2.1616507,-0.46319774,2.940247,-0.29092458,2.3333526
432,1778317910.1659386,0.59296143,-2.288609,-0.6315613,2.940247,-0.29092458,2.3333526
433,1778317910.176278,0.3272752,-2.3614793,-0.7382138,2.2056818,-0.7136433,1.8272507
434,1778317910.1860905,0.3272752,-2.3614793,-0.7382138,2.2056818,-0.7136433,1.8272507
435,1778317910.196122,0.12805626,-2.3761141,-0.67083186,1.4573717,-1.2832751,1.6337591
436,1778317910.2062967,0.0065857503,-2.3136108,-0.52179873,0.8147415,-2.1591032,1.6016886
437,1778317910.216215,-0.0006707709,-2.2279959,-0.41118255,0.43004912,-2.8431196,1.7284433
438,1778317910.2262783,0.067503944,-1.8918786,-0.22111045,0.01450805,-3.6129625,2.1629212
439,1778317910.2362409,0.067503944,-1.8918786,-0.22111045,-0.09560041,-3.8166862,2.3335052
440,1778317910.2462802,0.13299556,-1.4204488,-0.10610375,-0.31688634,-4.286136,2.7188084
441,1778317910.256031,0.12927583,-1.1630557,-0.09287128,-0.64965516,-4.874399,3.4235942
442,1778317910.2661283,0.12927583,-1.1630557,-0.09287128,-0.64965516,-4.874399,3.4235942
443,1778317910.2763937,0.11537258,-0.83986604,-0.09323715,-0.7495316,-5.020549,3.6537378
444,1778317910.286106,0.17751035,-0.3579477,-0.088114895,-0.93126404,-4.9913797,3.8492146
445,1778317910.2962618,0.17751035,-0.3579477,-0.088114895,-1.244638,-5.1170654,3.766137
446,1778317910.3059354,0.16086306,-0.06786981,-0.16385102,-1.244638,-5.1170654,3.766137
447,1778317910.3162725,0.16086306,-0.06786981,-0.16385102,-1.244638,-5.1170654,3.766137
448,1778317910.3258173,0.16086306,-0.06786981,-0.16385102,-1.244638,-5.1170654,3.766137
449,1778317910.336218,0.23135497,0.68003964,0.059820563,-3.1068606,-5.1648655,3.093727
450,1778317910.3462393,0.35166687,0.7572393,0.07415067,-3.6639698,-3.7598755,3.2921054
451,1778317910.356171,0.5447269,0.7007726,0.4180122,-4.3036985,-1.5525141,3.380681
452,1778317910.3659496,0.7216275,0.70187026,0.59613234,-4.1975603,0.21548271,3.179401
453,1778317910.3760164,0.6957723,0.6385738,0.7001018,-3.6642752,1.7802141,2.8221974
454,1778317910.3863108,0.56076443,0.57338715,0.6544894,-2.40742,3.3140967,2.2308798
455,1778317910.3958216,0.53576297,0.55558115,0.61857265,-1.2229522,3.6467128,1.6639969
456,1778317910.4061766,0.42026842,0.45039213,0.42606148,-0.3231477,3.28111,1.0509937
457,1778317910.41595,-0.0075004376,0.24842913,0.13177599,0.37048978,2.8512135,0.47143525
458,1778317910.425969,-0.0075004376,0.24842913,0.13177599,0.8032878,2.6844473,0.08170322
459,1778317910.4361622,-0.09988388,0.18348631,0.050002918,1.104139,2.6426032,-0.18784106
460,1778317910.4460351,-0.21598822,0.10726235,-0.12525122,1.2310462,2.649017,-0.36483926
461,1778317910.4562001,-0.33361703,0.046953958,-0.55625194,0.63224554,1.7440202,-0.58200186
462,1778317910.465856,-0.38069293,-0.18921836,-0.3817296,-0.1207986,0.8361218,-0.6818783
463,1778317910.4761195,-0.38069293,-0.18921836,-0.3817296,-0.36117408,1.4758505,-0.46089783
464,1778317910.4862518,-0.35209373,-0.339593,-0.3773391,-0.36117408,1.4758505,-0.46089783
465,1778317910.4958634,-0.35209373,-0.339593,-0.3773391,-0.44868052,1.761888,-0.2929099
466,1778317910.5058854,-0.34026375,-0.42691517,-0.44301364,-0.68523806,2.2336287,0.16508633
467,1778317910.5158777,-0.31989673,-0.46508813,-0.45941702,-0.68523806,2.2336287,0.16508633
468,1778317910.525888,-0.2470876,-0.5404583,-0.4804549,-0.8313876,2.1870503,0.56505036
469,1778317910.5363166,-0.12738548,-0.5834487,-0.47844255,-0.9288206,1.9106338,0.8179486
470,1778317910.5460644,0.21751268,-0.6372933,-0.48612595,-1.0412198,1.863139,0.81504697
471,1778317910.5559042,0.3413004,-0.6653437,-0.4364889,-1.2603678,2.1809416,0.50533825
472,1778317910.566044,0.48258913,-0.6377811,-0.16866837,-1.2360858,3.4324517,-0.5862779
473,1778317910.5762143,0.63942754,-0.6653437,0.11604336,-1.2360858,3.4324517,-0.5862779
474,1778317910.5859013,0.7621176,-0.8104131,0.26416174,-0.66248333,4.460996,-1.1746938
475,1778317910.5959935,1.1200044,-1.2425725,0.043600105,2.0318906,9.220247,-3.1914654
476,1778317910.6060867,1.5803971,-2.6227138,-2.159516,2.3047945,9.987952,-3.5958583
477,1778317910.6160023,1.0225596,-3.6099057,-4.0271864,2.1148155,8.558222,-5.0877438
478,1778317910.6263237,0.053600688,-3.4080038,-2.4865475,0.2875648,3.580892,-5.494122
479,1778317910.635816,-0.42270756,-2.7854674,-1.1861668,-0.28955013,-0.44241914,-4.6476154
480,1778317910.646126,-0.5996082,-2.482096,-0.24166043,-0.39400807,-3.061504,-3.8854084
481,1778317910.6559756,-0.67503935,-2.5219154,0.09488358,0.073303826,-6.4930396,-2.0923662
482,1778317910.6661277,-0.59021735,-2.7413795,0.06262561,0.54367006,-6.4670777,-1.0713049
483,1778317910.6762648,-0.47484478,-2.9218779,-0.13775194,1.2217305,-3.704745,-0.06841691
484,1778317910.6863406,-0.3030055,-2.941757,-0.33800754,1.7163786,-0.33567044,0.46273044
485,1778317910.695834,-0.04183171,-2.4303246,-0.44179407,2.041359,2.2059872,0.48640144
486,1778317910.7059507,-0.007927292,-2.0615227,-0.41819513,2.189341,1.8241963,0.4335616
487,1778317910.7159774,-0.018049834,-2.0009093,-0.41081664,2.2014055,1.6901114,0.42180246
488,1778317910.7259958,-0.12537317,-1.7413212,-0.28763872,2.1488712,0.44776422,0.50656
489,1778317910.7363951,-0.12537317,-1.7413212,-0.28763872,2.1488712,0.44776422,0.50656
490,1778317910.7463892,-0.14891112,-1.6199116,-0.23525764,2.2246184,0.09850202,0.5726862
491,1778317910.755898,-0.16141187,-1.4884405,-0.21525647,2.2881484,0.029168816,0.6030767
492,1778317910.7663383,-0.07390675,-1.217388,-0.27349156,2.5427265,-0.059406646,0.68645984
493,1778317910.7761917,-0.0041465834,-0.9700566,-0.38130274,2.8399124,-0.18341228,0.7733554
494,1778317910.785841,0.04170975,-0.7460191,-0.6225363,3.1151073,-0.43508878,0.8903361
495,1778317910.796391,0.068479605,-0.58064365,-0.8745022,3.223536,-0.8738427,1.1059716
496,1778317910.8063612,0.068479605,-0.58064365,-0.8745022,3.223536,-0.8738427,1.1059716
497,1778317910.8159223,0.068479605,-0.58064365,-0.8745022,3.223536,-0.8738427,1.1059716
498,1778317910.826264,0.21092694,-0.15110639,-0.96530026,1.6523905,-2.1523838,1.5903877
499,1778317910.8359838,0.23434295,0.012866604,-0.75040966,1.1679744,-2.2585216,1.4996742
500,1778317910.846103,0.2388554,0.14403279,-0.6250365,0.5369505,-2.3133466,1.2125676
501,1778317910.8559978,0.1583629,0.26129574,-0.4539899,0.15806139,-2.3765712,0.9998337
502,1778317910.8660178,0.07524829,0.3070301,-0.333678,-0.56245416,-2.5228734,0.68310004
503,1778317910.876158,0.073723815,0.4101459,-0.0061588963,-1.3878858,-2.785851,0.41157046
504,1778317910.88587,0.10512808,0.5041757,0.2672717,-1.449125,-2.8127291,0.38881573
505,1778317910.895892,0.10512808,0.5041757,0.2672717,-1.572978,-2.7107146,0.3119994
506,1778317910.906084,0.14897211,0.5354581,0.74595815,-1.1438452,-1.4987578,0.3023783
507,1778317910.9158435,0.2145247,0.5389339,0.8291947,-1.1438452,-1.4987578,0.3023783
508,1778317910.926118,0.22184221,0.5438122,0.8340121,-0.52290064,-1.0409144,0.29260445
509,1778317910.9362054,0.27093044,0.532714,0.7027849,1.4179709,0.1001819,0.14065172
510,1778317910.9459724,0.27093044,0.532714,0.7027849,1.4179709,0.1001819,0.14065172
511,1778317910.9561994,0.31709167,0.4021576,0.59729093,1.9365956,0.5525276,0.006872234
512,1778317910.9660025,0.187328,-0.104945146,0.0017683958,2.2420282,1.8319849,-1.0645854
513,1778317910.9761784,0.18104716,-0.18116911,-0.08159013,1.6187929,1.9483547,-1.4810427
514,1778317910.9863877,0.18738899,-0.18988912,-0.079089984,1.4631749,2.0112739,-1.5647314
515,1778317910.9959533,0.102688916,-0.1870231,-0.09012721,0.2556471,2.713769,-2.0086777
516,1778317911.0059745,0.102688916,-0.1870231,-0.09012721,0.2556471,2.713769,-2.0086777
517,1778317911.0160131,-0.11195775,-0.31831124,-0.08921252,-0.6704246,3.565315,-2.573728
518,1778317911.026283,-0.14214244,-0.47825962,-0.29190728,-0.6704246,3.565315,-2.573728
519,1778317911.0361092,-0.13122717,-0.5282015,-0.47008842,-0.8362745,4.9189925,-2.8130345
520,1778317911.0458875,-0.07183346,-0.8281581,-1.4163022,-1.1209377,6.827183,-3.0531044
521,1778317911.0561764,-0.06518673,-1.121346,-2.1502473,-1.3987287,8.037917,-3.375336
522,1778317911.0660274,0.066894144,-1.5044781,-1.817545,-1.6453656,6.8742194,-3.6264014
523,1778317911.076258,0.066894144,-1.5044781,-1.817545,-1.6453656,6.8742194,-3.6264014
524,1778317911.085929,0.7417506,-2.2078118,-0.20171909,0.0067195175,-1.1527027,-3.2375858
525,1778317911.095915,0.57277733,-1.86456,-0.286785,0.8188649,-2.9964468,-3.6813793
526,1778317911.105882,1.0357921,-2.5558808,-0.33495858,0.8185594,-2.59633,-3.803247
527,1778317911.1160188,1.0867097,-3.2217734,-0.39654753,0.9462303,3.4840698,-4.412432
528,1778317911.1259794,1.0867097,-3.2217734,-0.39654753,0.9462303,3.4840698,-4.412432
529,1778317911.1370237,1.0867097,-3.2217734,-0.39654753,0.9462303,3.4840698,-4.412432
530,1778317911.14581,0.17671762,-3.4326394,-0.5022854,1.5598444,3.319289,-2.1186333
531,1778317911.1558971,-0.18104716,-3.322023,-0.7862044,1.7240144,1.1785117,-0.28848112
532,1778317911.1659942,-0.044209898,-3.2090287,-0.66589254,1.3220651,-0.25488353,1.6210836
533,1778317911.1762502,0.20409729,-3.1329267,-0.5138105,1.1311697,-0.7293731,2.6633725
534,1778317911.1863813,0.5899125,-2.9629169,-0.32562876,1.3953689,-1.0444268,4.1340303
535,1778317911.1960266,0.84078074,-2.7708325,-0.28318727,1.3953689,-1.0444268,4.1340303
536,1778317911.2060285,0.83639026,-2.6420445,-0.30513975,1.8015944,-0.8249735,4.1966443
537,1778317911.215925,0.81645006,-2.5299037,-0.32587266,2.0355556,-0.58352906,4.257578
538,1778317911.2258885,0.849013,-2.198665,-0.3766683,2.0971005,-0.59742624,4.1618247
539,1778317911.236173,0.849013,-2.198665,-0.3766683,1.9960022,-0.786489,3.8843393
540,1778317911.2463844,0.7905949,-1.8509616,-0.43856218,1.6789632,-1.2035573,3.3573153
541,1778317911.2558632,0.68406427,-1.566006,-0.47697908,1.3223705,-1.5297593,2.9290988
542,1778317911.2661228,0.5568008,-1.2978806,-0.47088113,0.7693848,-1.9300288,2.5331054
543,1778317911.2759058,0.37044844,-0.9771302,-0.40106,0.26206118,-2.2609649,2.3506095
544,1778317911.2861717,0.37044844,-0.9771302,-0.40106,0.26206118,-2.2609649,2.3506095
545,1778317911.2959561,0.07091877,-0.4189269,-0.31812832,-1.0144944,-2.91398,2.2441661
546,1778317911.3063467,-0.09890821,-0.10354263,-0.25422215,-1.704314,-3.772551,2.2499695
547,1778317911.316244,-0.1515942,0.91791934,-0.5557031,-4.2708645,-7.415293,1.1626292
548,1778317911.3263066,-0.1515942,0.91791934,-0.5557031,-4.2708645,-7.415293,1.1626292
549,1778317911.3360405,0.20970736,0.19598705,-0.044880666,-6.119343,-7.1141367,0.8174904
550,1778317911.3459432,0.14909407,0.01762298,0.15555786,-6.5580964,-6.1107903,0.8910997
551,1778317911.356111,0.11073817,0.13604453,0.7401651,-6.3820148,-5.322622,1.1064297
552,1778317911.3660917,0.14872819,0.23922127,0.84078074,-5.97808,-4.3644795,1.2205088
553,1778317911.37594,0.1686074,0.2798334,0.9311519,-5.395773,-2.6590965,1.1866057
554,1778317911.3861673,0.07750452,0.3655701,1.1317123,-3.0839531,0.34406984,1.1334605
555,1778317911.3960001,-0.025977125,0.5508858,1.2505608,-2.7258334,0.6229298,1.1372783
556,1778317911.4061856,-0.054942228,0.439111,0.8612088,-1.4770721,1.8860464,1.1615603
557,1778317911.4158106,-0.1683025,0.48155248,0.38947394,-0.29000828,3.9135082,1.2802209
558,1778317911.425902,-0.15604569,0.35636225,0.20159712,-0.24083363,4.862793,1.315651
559,1778317911.4362397,-0.066894144,-0.0074394583,0.04744179,-0.25885415,5.084537,1.3098478
560,1778317911.4461458,-0.086285524,0.04396598,0.06225973,-0.37140608,5.903249,1.2796099
561,1778317911.4564505,0.00060979166,-0.16903426,0.04750277,-0.43111816,6.6868362,1.3041973
562,1778317911.4660277,0.045795355,-0.2613567,0.046588086,-0.021227567,6.4279823,1.475545
563,1778317911.4758463,0.11927526,-0.34575188,-0.17196125,0.4720461,5.5599427,1.6346754
564,1778317911.486261,0.3413004,-0.20367043,-0.8578549,0.66752297,2.7844765,1.6959146
565,1778317911.496193,0.38044903,0.06860156,-0.96334887,-0.017104227,0.09972375,1.2738068
566,1778317911.5059338,0.3017249,0.11464083,-0.7098585,-0.4831944,-1.0903945,1.0598512
567,1778317911.5162928,0.38240036,0.09079798,-0.15135029,-1.269378,-0.762818,1.20371
568,1778317911.526176,0.48057684,0.058174126,-0.056161813,-1.3513867,0.032375857,1.3397802
569,1778317911.5358212,0.5069198,0.037807085,-0.034636166,-1.3582588,0.26526824,1.366811
570,1778317911.546242,0.79492444,-0.3325804,0.0069516255,-0.9850202,2.9040534,1.109484
571,1778317911.555819,0.8249872,-0.3766683,-0.0123177925,-0.8912524,3.294549,1.001819
572,1778317911.5661378,0.9326763,-0.51179814,-0.06573554,-0.6722572,4.143499,0.733191
573,1778317911.576054,1.1256144,-0.6982724,-0.21159773,0.09407325,6.414849,-0.29932398
574,1778317911.5859087,1.3608721,-1.2018384,-0.9942653,1.0532844,9.165116,-1.7489072
575,1778317911.5961185,1.047744,-2.9691367,-5.087492,0.6721045,8.16681,-3.9110646
576,1778317911.6059613,0.6132065,-3.4554455,-3.861567,-1.637577,2.1459696,-5.1512737
577,1778317911.616094,0.40947512,-3.0285912,-1.4569752,-1.6447546,-1.6820174,-5.5338283
578,1778317911.6262217,0.20623155,-2.7141218,-0.5358849,-0.7632761,-2.818074,-5.329341
579,1778317911.6359375,-0.2763576,-2.3897736,0.013049542,0.1328632,-3.1873422,-4.7922378
580,1778317911.6460292,-0.2763576,-2.3897736,0.013049542,1.2211196,-2.8286116,-3.4814737
581,1778317911.6560574,-0.25519782,-2.628934,-0.3579477,1.6287194,-1.3820826,-2.463314
582,1778317911.666136,-0.15622863,-2.6677167,-0.5461904,1.6586518,0.90133166,-1.3267993
583,1778317911.6761112,0.011525063,-2.511305,-0.5837535,1.4782939,1.8387043,-0.7993172
584,1778317911.686032,0.13128816,-2.3973348,-0.7004677,1.0806206,2.378404,-0.17058411
585,1778317911.6963663,0.28922418,-2.4186168,-0.5138105,0.8926268,1.9773707,0.23136522
586,1778317911.7059035,0.4016088,-2.1823833,-0.20848778,1.8180877,0.062002823,0.7722864
587,1778317911.716327,0.5116152,-2.0567663,-0.10622571,1.8180877,0.062002823,0.7722864
588,1778317911.726028,0.5116152,-2.0567663,-0.10622571,2.6519186,-0.5581781,0.8582657
589,1778317911.7362542,0.5563739,-2.0143857,-0.11787273,3.0628784,-0.90194255,0.8587238
590,1778317911.746181,0.4555144,-1.9427962,-0.1572043,3.5361462,-1.4500414,0.72265357
591,1778317911.75616,0.21617115,-1.8341315,-0.27647954,3.5628715,-1.6542231,0.58032197
592,1778317911.76609,0.015427729,-1.6954648,-0.35800868,3.3064609,-1.7186694,0.5896377
593,1778317911.7760484,-0.18738899,-1.4611828,-0.37977824,2.9303205,-1.7881553,0.7707592
594,1778317911.7858634,-0.3322145,-1.2520853,-0.36630186,2.7081184,-1.8492419,0.95722586
595,1778317911.7960477,-0.45216054,-1.0321944,-0.3471544,2.4071145,-1.9672915,1.3903292
596,1778317911.8060007,-0.50362694,-0.80718124,-0.35697204,2.2043073,-1.8675678,2.0212004
597,1778317911.8160095,-0.29513916,-0.44569677,-0.47618634,2.0416644,-0.90484416,2.9718595
598,1778317911.8262172,-0.29513916,-0.44569677,-0.47618634,2.0416644,-0.90484416,2.9718595
599,1778317911.8362474,-0.16982698,-0.30989614,-0.5403364,1.7901406,-0.50717086,3.2418618
600,1778317911.8461406,0.086834334,-0.011829958,-0.6489403,1.4198035,-0.6180429,3.2104023
601,1778317911.8560522,0.28013828,0.2160492,-0.6549163,0.87964594,-1.333977,2.8012753
602,1778317911.8661244,0.3634968,0.33825144,-0.6316222,0.5149594,-1.9031507,2.2947154
603,1778317911.8758786,0.3851444,0.4435015,-0.5924126,0.16401732,-2.0995438,1.7557794
604,1778317911.8863802,0.33733675,0.5405803,-0.52521354,-0.38820487,-1.7832683,1.1543826
605,1778317911.8961883,0.26099083,0.55613,-0.38855925,-0.9112582,-1.4344643,0.70554936
606,1778317911.9060643,0.21922012,0.38569325,-0.0038416875,-1.2331842,-1.3981178,0.43081272
607,1778317911.9160013,0.21922012,0.38569325,-0.0038416875,-1.3040446,-1.6180294,0.29046643
608,1778317911.9261136,0.27727225,0.30812773,0.15708233,-1.1267409,-1.9462167,0.22235495
609,1778317911.9359493,0.34087354,0.25306356,0.2534294,-0.86742866,-2.2256875,0.18066339
610,1778317911.946272,0.41953668,0.21245141,0.32916555,-0.44959682,-2.4541512,0.08735373
611,1778317911.9563458,0.58027774,0.19080381,0.38361996,0.37888917,-2.3886359,-0.34865135
612,1778317911.966045,0.58997345,0.19123067,0.37721714,0.45540005,-2.3354905,-0.42271876
613,1778317911.9761791,0.5952786,0.19263318,0.35965514,0.7715228,-1.954158,-0.8571966
614,1778317911.9862237,0.59247357,0.14232537,0.280992,0.86498517,-1.6391041,-1.1566733
615,1778317911.9962668,0.45209953,0.06225973,0.12287302,0.76159626,-0.9419542,-1.5778649
616,1778317912.006433,0.21671996,0.04414892,0.027440626,0.33001995,-0.1386664,-1.7970128
617,1778317912.016167,0.0074394583,0.028050419,0.026038107,-0.2843578,0.5184719,-1.7854064
618,1778317912.0259018,-0.13201989,-0.08378538,0.08567573,-0.8025242,1.0998629,-1.7924314
619,1778317912.0360718,-0.13201989,-0.08378538,0.08567573,-1.0748174,1.3799446,-1.8387043
620,1778317912.0459507,-0.39587677,-0.2939196,0.20098734,-1.2260065,1.5760323,-1.858252
621,1778317912.0559597,-0.535641,-0.38770556,0.187328,-1.2333369,1.981036,-1.7660115
622,1778317912.065831,-0.62900007,-0.4920409,-0.018537667,-1.1200215,2.8602238,-1.6449074
623,1778317912.0759537,-0.7272375,-0.6688195,-0.33556834,-1.1858422,4.643645,-1.4648548
624,1778317912.0859213,-0.55649585,-0.822304,-0.4318545,-1.2527319,6.009234,-1.5260941
625,1778317912.0960836,-0.32703125,-1.0496954,-1.0219499,-1.2270756,7.3652024,-1.7910569
626,1778317912.1061838,-0.24531919,-1.5392361,-2.0024338,-1.3845261,8.523708,-1.8483255
627,1778317912.1160727,0.2437947,-1.8454734,-1.6881473,-1.3225232,6.28504,-1.4498887
628,1778317912.1260743,0.5146642,-1.8104715,-0.9187731,-0.742354,1.0725267,-1.4133894
629,1778317912.1361704,0.7179687,-1.6150333,-0.04549046,-0.58276546,0.28389964,-1.4753923
630,1778317912.145911,0.74028707,-1.4847207,0.4974071,0.06658431,-3.0804408,-1.6820174
631,1778317912.155951,0.88901526,-1.6471694,0.60021794,0.6918049,-7.137044,-1.7137824
632,1778317912.166141,1.4755129,-2.2784867,0.39471814,1.1614076,-8.234005,-1.7394388
633,1778317912.175853,1.967127,-3.0402384,-0.37057042,1.9497292,-3.7265835,-2.0328069
634,1778317912.1858878,2.318428,-3.9907818,-1.2731841,1.6969837,7.261813,-2.8470902
635,1778317912.196093,1.9774325,-4.296165,-0.6268048,0.31764993,11.413864,-3.2725577
636,1778317912.2064004,0.936701,-3.8072345,0.12653178,0.28008172,10.601719,-2.7214046
637,1778317912.2158332,0.936701,-3.8072345,0.12653178,0.28008172,10.601719,-2.7214046
638,1778317912.225986,0.936701,-3.8072345,0.12653178,0.28008172,10.601719,-2.7214046
639,1778317912.235894,-0.27568683,-2.5548441,-0.37892455,4.1366267,-4.9842024,2.21683
640,1778317912.2460775,0.190255,-2.0917075,-1.0107297,2.5271494,-5.5471144,3.658472
641,1778317912.2558777,0.5012488,-2.0362773,-0.957068,-0.03772093,-3.2954652,4.796056
642,1778317912.2658463,0.8221821,-2.159516,-0.51881075,-0.18509217,-3.052799,4.8154507
643,1778317912.275873,1.0256696,-2.2399478,-0.2503805,-0.4196644,-2.443003,4.6755624
644,1778317912.2858136,1.0969542,-2.148296,0.0336605,0.03191771,-2.9266553,4.066988
645,1778317912.296324,1.0074978,-2.0094466,0.1381788,0.5332854,-3.9860485,3.5466835
646,1778317912.30601,0.49460202,-1.6523526,0.0693943,1.2579242,-6.493192,2.7652342
647,1778317912.316163,0.23165986,-1.4261808,-0.002866021,1.3880385,-7.8647375,2.637869
648,1778317912.325919,-0.045978293,-0.9224319,-0.03420931,1.1468995,-8.589834,3.0330987
649,1778317912.336249,-0.044453815,-0.86828244,-0.037563168,1.1468995,-8.589834,3.0330987
650,1778317912.3462477,-0.059820563,-0.65229416,-0.01323248,0.9799806,-8.1593275,3.33059
651,1778317912.3558311,-0.084212236,-0.2992248,-0.08549279,0.6724099,-7.4209437,3.5332446
652,1778317912.36606,-0.26410076,0.655831,-0.5505809,-0.12644911,-7.6268053,3.7006216
653,1778317912.3761823,0.13293459,0.2303793,-0.25471,-2.7499626,-7.8424406,3.6809213
654,1778317912.3860834,0.25001457,0.015244792,-0.13830076,-3.1627548,-7.076721,3.5169039
655,1778317912.3959022,0.36172843,-0.021708583,0.04463675,-3.0834951,-5.56147,3.210555
656,1778317912.4059312,0.3202016,0.0026830835,0.11336028,-2.8273897,-4.2461243,2.90161
657,1778317912.4159365,0.18580353,0.048905294,0.08939546,-2.5173757,-2.7870727,2.5879307
658,1778317912.4258325,0.022196416,0.13122717,0.047197875,-2.120466,-0.68310004,2.3440428
659,1778317912.435889,-0.21117085,0.24867305,-0.15507002,-1.8241963,1.2388347,2.2374468
660,1778317912.4461563,-0.23220867,0.30452996,-0.2022679,-1.6865989,3.6134207,2.2224805
661,1778317912.456126,-0.22983049,0.5127738,-0.23842856,-3.2255213,4.953048,2.4260514
662,1778317912.465912,-0.22983049,0.5127738,-0.23842856,-3.400076,4.964196,2.4318545
663,1778317912.4765198,-0.09994486,0.38685185,0.0036587503,-3.7910297,4.994587,2.385276
664,1778317912.4858444,-0.02555027,0.25403923,0.23909931,-3.981467,4.801859,2.0935879
665,1778317912.4961867,0.000121958336,0.20629252,0.34087354,-3.7479637,4.4958153,1.858863
666,1778317912.505972,0.0024391667,0.18342534,0.42343935,-3.3411274,4.1787763,1.6302466
667,1778317912.5159059,0.0024391667,0.18342534,0.42343935,-3.3411274,4.1787763,1.6302466
668,1778317912.5258331,-0.02207446,0.24050182,0.49283364,-1.7971655,3.2375858,1.2095132
669,1778317912.5362496,-0.022379354,0.2151345,0.41837808,-1.1169671,3.0027082,1.08902
670,1778317912.5462902,-0.0131715005,0.17068069,0.41819513,-0.33765575,2.7070494,1.0086912
671,1778317912.5562186,-0.0131715005,0.17068069,0.41819513,0.9240864,1.9865338,1.0387764
672,1778317912.5661724,-0.006829667,0.15415533,0.43246427,1.5850426,1.6261233,1.1575897
673,1778317912.576244,-0.020489,0.12775135,0.4288055,1.5850426,1.6261233,1.1575897
674,1778317912.5859034,-0.00042685418,0.08378538,0.34758124,2.0237966,1.3255776,1.2701416
675,1778317912.5962791,0.0127446465,0.03524596,0.23818462,2.287843,1.1029172,1.3455834
676,1778317912.6061966,0.014695979,0.009146876,0.12421457,2.6253462,0.79519385,1.4709635
677,1778317912.6162143,0.010305479,-0.020306062,0.02201348,2.717434,0.6713409,1.5578591
678,1778317912.626182,0.037746105,-0.060247418,-0.04164877,2.728277,0.57635134,1.568091
679,1778317912.6359086,0.031770147,-0.086834334,-0.077077664,2.7178922,0.37980548,1.5128077
680,1778317912.6460323,-0.51679844,-2.0593886,-2.964868,3.8683043,-2.7278187,1.4818064
681,1778317912.656048,-0.51679844,-2.0593886,-2.964868,3.8026361,-3.317609,1.459357
682,1778317912.6658993,-0.24446549,-1.5203936,-2.4899013,2.8200593,-3.312264,1.0248792
683,1778317912.6763816,-0.2775162,-2.037192,-2.76071,1.6345227,-1.10139,0.106137834
684,1778317912.6860614,-0.36306998,-2.2291543,-2.2400696,0.81397796,0.2171626,-0.8155051
685,1778317912.6958559,-0.47941822,-2.5428922,-1.513686,0.25793785,0.087659165,-1.1785117
686,1778317912.706432,-0.96517825,-3.8853488,-0.1823887,-0.15470162,-0.91675603,-1.2983941
687,1778317912.7160187,-1.6430227,-5.1933517,0.33642206,0.31887165,-3.0531044,-0.4184427
688,1778317912.725967,-1.7790061,-5.8958316,0.5067369,0.8524625,-5.0706396,0.8116872
689,1778317912.7359734,-1.5625912,-5.855281,0.13330047,1.2148583,-5.0309334,1.4307991
690,1778317912.7461834,-1.3022711,-5.0170608,-0.33971494,1.1681271,-2.660471,1.0903945
691,1778317912.7560387,-1.080002,-3.4561164,-0.4871626,0.85811293,-0.123242065,0.45112398
692,1778317912.7658541,-0.9446283,-2.4889867,-0.49698022,0.7405214,0.5386304,0.26007587
693,1778317912.7761064,-0.9446283,-2.4889867,-0.49698022,0.63331455,-0.09621128,0.25045475
694,1778317912.7862062,-0.8711484,-1.9546263,-0.4575877,0.7405214,0.5386304,0.26007587
695,1778317912.7959707,-0.78791183,-1.4631342,-0.4106337,0.54473907,-0.51159966,0.25045475
696,1778317912.8059957,-0.6582701,-0.7038825,-0.24178241,-0.18066339,-1.9906571,0.20341812
697,1778317912.8159728,-0.47868645,-0.34648362,0.071772486,-0.7874053,-1.3707817,0.10247265
698,1778317912.8260572,-0.47868645,-0.34648362,0.071772486,-0.7874053,-1.3707817,0.10247265
699,1778317912.836086,-0.3939864,-0.18190086,0.1606801,-0.86330533,-0.75747293,-0.05177083
700,1778317912.8463376,-0.30520073,-0.03957548,0.20671937,-0.8344419,-0.12858713,-0.2312125
701,1778317912.8561442,-0.30520073,-0.03957548,0.20671937,-0.8344419,-0.12858713,-0.2312125
702,1778317912.866151,-0.30520073,-0.03957548,0.20671937,-0.8344419,-0.12858713,-0.2312125
703,1778317912.8763003,-0.30520073,-0.03957548,0.20671937,-0.8344419,-0.12858713,-0.2312125
704,1778317912.8863063,0.043905,0.22580586,0.10500612,-0.9451612,0.43371433,-1.2916746
705,1778317912.896218,0.040429186,0.27593073,0.08171208,-1.050841,0.30207285,-1.5314392
706,1778317912.9060702,0.040917024,0.29202923,0.079638794,-1.1499538,0.14049901,-1.6865989
707,1778317912.9159977,0.03445323,0.1656804,0.17232713,-1.4176655,-1.0195341,-2.1626158
708,1778317912.926094,0.0082321875,0.1676927,0.18257163,-1.2466233,-1.3904821,-2.2438607
709,1778317912.936382,0.024330689,0.18104716,0.20098734,-0.97692627,-1.7121025,-2.2194262
710,1778317912.9458108,0.015549688,0.17610784,0.19324298,-0.91706145,-1.752267,-2.2036965
711,1778317912.9558694,0.09311519,0.23172083,0.1156165,-0.65057147,-1.7788396,-2.1500928
712,1778317912.9663267,0.14616705,0.307335,-0.1211656,-0.29535335,-1.4338534,-2.0708332
713,1778317912.9761686,0.15421632,0.31678677,-0.17391258,-0.14645495,-0.095753126,-2.0195205
714,1778317912.986115,0.12854409,0.34062964,-0.2652594,-0.07727446,1.3115277,-2.0034852
715,1778317912.9962618,0.11823861,0.3477642,-0.2994687,-0.06719518,3.0320296,-1.9825631
716,1778317913.005898,0.10366459,0.4314886,-0.4112435,-0.10125092,3.8351648,-1.9507982
717,1778317913.0160873,0.056954544,0.59881544,-0.673332,0.025961773,4.1563272,-1.8185458
718,1778317913.0260413,-0.049759,0.6664413,-0.94968957,0.0364992,3.5446982,-1.5783231
719,1778317913.036199,-0.43075684,0.49893156,-1.0432316,-1.1855367,3.3738089,-0.84559023
720,1778317913.0458064,-0.5073467,0.1788519,-0.9363351,-1.9547688,4.021937,-0.46486846
721,1778317913.0559568,-0.5073467,0.1788519,-0.9363351,-2.6400068,4.7891836,-0.13897185
722,1778317913.0658724,-0.67955184,-0.049027253,-0.7704108,-2.6400068,4.7891836,-0.13897185
723,1778317913.075958,-0.69101596,-0.1220803,-0.12598296,-3.2678237,4.7539062,0.50869805
724,1778317913.0863135,-0.68491805,-0.11488476,-0.06213777,-3.2519412,4.4753513,0.5748242
725,1778317913.0960472,-0.68363744,-0.105920814,0.11488476,-3.067918,2.9060388,0.82726425
726,1778317913.1059158,-0.6785152,-0.14970386,0.29959065,-2.8206704,1.4156802,1.0386237
727,1778317913.1159081,-0.37069237,-0.29196826,0.51112735,-2.221106,-1.3712398,1.2394456
728,1778317913.1261122,-0.20647547,-0.3945352,0.5930224,-1.2964088,-3.9639046,1.1301007
729,1778317913.1360831,0.17287594,-2.950904,-3.7047894,-0.4297437,-5.149136,0.8211556
730,1778317913.145993,0.17287594,-2.950904,-3.7047894,0.869414,8.424442,-2.1992676
731,1778317913.156383,0.023355022,-1.7935193,-0.19586508,2.3571763,6.497468,-3.0946434
732,1778317913.1661365,0.0012805625,-1.7230884,-0.016342416,2.3571763,6.497468,-3.0946434
733,1778317913.1762292,-0.037685126,-1.7380283,0.31654286,3.4374914,-1.05023,-3.8217256
734,1778317913.186168,0.16604628,-2.3390388,0.7209567,3.4374914,-1.05023,-3.8217256
735,1778317913.196054,0.7218714,-3.0839603,-0.15970443,3.825849,-4.353026,-4.1738896
736,1778317913.2059247,1.5322236,-3.9030936,-1.9535285,2.233018,0.09819659,-4.9432745
737,1778317913.216156,0.96895903,-3.8033926,-1.1135406,0.5175556,5.402187,-5.3001723
738,1778317913.2261286,0.52856743,-3.5219738,-0.25220984,0.12614368,6.761209,-4.324315
739,1778317913.235917,0.53649473,-2.7821746,-0.5517395,1.7033978,3.0401237,-0.30115658
740,1778317913.2460852,0.38276625,-2.5577712,-0.81303525,2.4291058,1.3048081,1.7487545
741,1778317913.2558804,0.38276625,-2.5577712,-0.81303525,2.4291058,1.3048081,1.7487545
742,1778317913.265885,0.048783336,-2.5519173,-0.755227,2.4845417,-1.7151569,3.9104538
743,1778317913.276255,-0.0056710625,-2.555698,-0.73803085,2.4518604,-2.0447187,4.017508
744,1778317913.2862177,-0.1325687,-2.4616072,-0.61064535,2.2855523,-3.2281175,4.392579
745,1778317913.2959208,-0.28501663,-2.2588513,-0.44594067,2.0861049,-4.2574253,4.8710394
746,1778317913.306162,-0.28501663,-2.2588513,-0.44594067,2.0861049,-4.2574253,4.8710394
747,1778317913.3159354,-0.3383734,-1.9426134,-0.2315379,1.9000963,-4.762611,5.4081426
748,1778317913.3261306,-0.3816686,-1.6637557,-0.15153323,1.8063285,-4.9936705,6.1646996
749,1778317913.3359613,-0.3816686,-1.6637557,-0.15153323,1.8063285,-4.9936705,6.1646996
750,1778317913.3462868,-0.3577038,-1.1579944,-0.085004956,1.9110919,-5.2383223,6.6706486
751,1778317913.3563123,-0.22306179,-0.96408063,-0.14183754,1.9068159,-5.13982,6.415765
752,1778317913.3661532,-0.119946025,-0.6705269,-0.19885308,1.2370021,-4.219857,4.311945
753,1778317913.3759222,0.007256521,-0.18738899,-0.22604977,1.2370021,-4.219857,4.311945
754,1778317913.3862574,0.007256521,-0.18738899,-0.22604977,0.7119634,-3.6012034,2.8463266
755,1778317913.3959298,0.0065857503,-0.018659625,-0.17994952,0.15683965,-3.0422616,1.813048
756,1778317913.4062247,0.026647896,0.03963646,-0.15604569,-0.2780964,-2.5665503,1.1881329
757,1778317913.4161,0.06079623,0.057747275,-0.14305714,-0.4897612,-2.3741279,0.9266826
758,1778317913.426076,0.121775396,0.0629305,-0.094456725,-0.7360926,-2.150551,0.57833666
759,1778317913.4362302,0.10134738,0.025794188,-0.09415183,-0.9086621,-2.0189097,0.3303254
760,1778317913.4461048,0.06183288,0.0032318959,-0.11927526,-1.0829114,-1.9013181,0.19379699
761,1778317913.4559238,-0.0717115,0.05860098,-0.4042309,-1.6592628,-0.54458636,0.27259862
762,1778317913.4658275,-0.0717115,0.05860098,-0.4042309,-1.6592628,-0.54458636,0.27259862
763,1778317913.4759562,-0.086285524,0.07683375,-0.52582335,-2.2782218,1.1942415,0.4550946
764,1778317913.4860137,-0.08000467,0.082626775,-0.53515315,-2.8157833,2.780353,0.5902485
765,1778317913.4958436,-0.04396598,0.12805626,-0.5321042,-3.4687984,5.0706396,0.68218374
766,1778317913.5060186,-0.02792846,0.13220283,-0.42045137,-3.8037052,6.689891,0.66156703
767,1778317913.5161715,-0.030123709,0.1393374,-0.37075335,-3.9629884,7.5643444,0.58368176
768,1778317913.5260334,-0.032562874,0.15793604,-0.36746046,-4.0301833,7.929489,0.5039638
769,1778317913.5360692,0.04677102,0.41520718,-0.5168594,-3.7966802,7.420333,0.3043636
770,1778317913.545827,0.061467,0.37922946,-0.266357,-3.7966802,7.420333,0.3043636
771,1778317913.5558326,0.07494339,0.24666072,0.07994369,-1.3903292,1.449736,0.24419338
772,1778317913.566343,0.06866254,0.22226907,0.08646846,0.020158553,-1.5848899,0.70188415
773,1778317913.575971,0.023964813,0.09555435,0.11720196,0.111941054,-1.7394388,0.7461719
774,1778317913.5863063,0.023964813,0.09555435,0.11720196,0.37980548,-2.0934353,0.8723156
775,1778317913.5963058,0.024574606,0.08018761,0.15732625,0.6035349,-2.2308798,0.9462303
776,1778317913.6062865,0.05780825,0.064272046,0.19787739,0.79290307,-2.1919372,0.95340794
777,1778317913.615997,0.08030956,0.062015813,0.22708642,0.9980011,-2.0459404,0.92087936
778,1778317913.6262007,0.07841921,0.05329579,0.23202574,1.2470814,-1.790446,0.8703303
779,1778317913.6363037,0.05329579,0.034758125,0.16104598,1.4876096,-1.4827226,0.8013025
780,1778317913.6460173,0.05329579,0.034758125,0.16104598,1.6534595,-1.2651019,0.7270824
781,1778317913.6562304,0.03969744,-0.016647313,0.058966853,1.7203492,-1.1824824,0.66996646
782,1778317913.6660116,0.03969744,-0.016647313,0.058966853,1.7203492,-1.1824824,0.66996646
783,1778317913.676253,0.015122834,-0.035489876,0.00798827,1.7319556,-1.1780536,0.5928447
784,1778317913.686038,0.03585575,-0.08537084,-0.14976484,1.6766723,-1.2380711,0.54702985
785,1778317913.6960466,0.04664906,-0.16635117,-0.22434235,1.3942999,-1.7739527,0.3136793
786,1778317913.706187,-0.5618011,-1.9304785,-2.5749674,0.61178154,-2.6806295,-0.018325957
787,1778317913.7159548,-1.6404614,-4.2190266,-1.6330831,0.46654832,3.4384077,-3.8672352
788,1778317913.7263498,-2.0501196,-4.917604,-0.009085896,4.148233,3.343571,-4.1864123
789,1778317913.7360783,-2.9788933,-5.7593603,0.028843146,4.784602,2.309376,-3.630983
790,1778317913.746491,-2.9786494,-6.3202467,0.2778211,3.9929206,0.15134187,-2.5891523
791,1778317913.7558243,-2.6214335,-6.6145325,0.0035367915,3.9929206,0.15134187,-2.5891523
792,1778317913.765844,-1.7993124,-5.277808,-0.36160645,0.625526,-0.4390594,-0.73655075
793,1778317913.7760441,-1.2317183,-3.4734952,-0.46527106,-0.19761491,1.6879734,0.4914411
794,1778317913.7860048,-0.7734598,-2.2789135,-0.5510687,0.13332134,1.0963504,1.2791518
795,1778317913.7960398,-0.5317993,-1.6250948,-0.45051408,0.52732944,-1.3187053,1.536937
796,1778317913.806098,-0.4496604,-1.3704457,-0.40520656,0.4454735,-1.6055065,1.4249959
797,1778317913.816036,-0.34556895,-0.9099921,-0.24342884,0.17562376,-1.9382755,1.1566733
798,1778317913.826329,-0.36422858,-0.58540004,-0.10573788,-0.14782938,-2.0809124,0.86926126
799,1778317913.8362656,-0.3420931,-0.41264603,0.040246252,-0.47067168,-1.9640845,0.61254513
800,1778317913.8460054,-0.24538018,-0.08110229,0.20251182,-0.7313584,-1.435686,0.26282477
801,1778317913.8561823,-0.2245253,0.005549104,0.16476572,-0.9615019,-0.93676186,-0.093004234
802,1778317913.8659785,-0.2245253,0.005549104,0.16476572,-1.1523973,-0.419359,-0.40515637
803,1778317913.8759446,-0.11457986,0.06067427,0.15586275,-1.1867584,-0.31108314,-0.46303585
804,1778317913.886317,-0.11945819,0.05963763,0.15049659,-1.3480269,0.462425,-0.9540188
805,1778317913.896188,-0.068479605,0.10970152,0.116836086,-1.4503468,0.68691796,-1.1258247
806,1778317913.9059527,-0.021098793,0.077077664,0.05646671,-1.6716328,0.81382525,-1.3562735
807,1778317913.9163013,0.00085370836,0.053234816,0.06683317,-1.9220876,0.8202393,-1.5470163
808,1778317913.9258883,0.002927,0.037868064,0.11037229,-1.9553796,0.88453287,-1.605812
809,1778317913.9362996,0.0017074167,0.058722936,0.16293633,-1.8822285,1.0560333,-1.6511687
810,1778317913.9460807,-0.010305479,0.070613876,0.19214535,-1.7502817,1.1520919,-1.6572775
811,1778317913.956053,-0.0074394583,0.07097975,0.17452239,-1.4509577,1.1363621,-1.628414
812,1778317913.965877,-0.0074394583,0.07097975,0.17452239,-1.201572,1.094976,-1.5954273
813,1778317913.9758956,0.005549104,0.08000467,0.13592257,-0.8961393,1.0633637,-1.5567901
814,1778317913.9861045,0.055552024,0.14061797,-0.007073583,-0.8961393,1.0633637,-1.5567901
815,1778317913.995908,0.0831146,0.16281438,-0.050246835,-0.04444045,1.0961977,-1.4825699
816,1778317914.0059907,0.078785084,0.15452121,-0.04768571,0.2087632,1.2753339,-1.4605788
817,1778317914.016205,0.08604161,0.16476572,-0.04634417,0.2087632,1.2753339,-1.4605788
818,1778317914.0258377,0.08024859,0.17311986,-0.037136313,0.42073345,1.566564,-1.4228579
819,1778317914.0360525,0.07207738,0.19958481,-0.028050419,0.52503866,1.6861408,-1.3862059
820,1778317914.0458686,0.0895784,0.2737355,-0.034941066,0.75655663,1.8460348,-1.3051136
821,1778317914.0560334,0.07835823,0.26123476,-0.16458277,1.0647382,1.8500054,-1.2385293
822,1778317914.0662177,0.23635526,0.73510385,-0.73175,0.8184067,2.477975,-1.156826
823,1778317914.076288,0.23635526,0.73510385,-0.73175,0.06795876,3.5714238,-1.1355985
824,1778317914.085858,0.0954324,0.8749291,-1.1759223,-1.8011361,4.651586,-1.6299412
825,1778317914.0958161,-0.22324473,0.5894856,-1.2355598,-2.8962648,4.416556,-1.7139351
826,1778317914.1062481,-0.46161228,0.10640865,-1.0417681,-3.5515707,3.8168387,-1.3643675
827,1778317914.1162734,-0.47795472,0.019391375,-0.97963035,-3.7010798,3.6737435,-1.2502885
828,1778317914.1260746,-0.40343818,-0.38020512,-0.3164209,-4.5011606,2.6870434,-0.59330285
829,1778317914.1360118,-0.35849655,-0.45606318,-0.03500204,-4.3678393,0.73960507,-0.19257528
830,1778317914.1459262,-0.33123884,-0.52875036,-0.019879209,-4.0897427,0.22953261,-0.11148291
831,1778317914.156207,-0.28080907,-1.3653235,-1.4402059,-2.9278772,-3.5114062,0.37675115
832,1778317914.1660926,-0.11799469,-1.925844,-1.5111248,-1.6458237,-4.8032336,0.4437936
833,1778317914.1758177,-0.19647488,-1.3285531,-0.25092927,1.4391985,-0.8038987,-1.4579827
834,1778317914.1863241,-0.19647488,-1.3285531,-0.25092927,1.4391985,-0.8038987,-1.4579827
835,1778317914.1961956,-0.30117613,-0.96499527,0.25586858,2.9391782,-2.2785273,-1.6030631
836,1778317914.2059622,-0.3079448,-1.0029244,0.27763817,3.0440943,-2.447737,-1.5819882
837,1778317914.216394,-0.3623992,-1.5033804,0.35556954,3.382361,-2.6645942,-1.5315919
838,1778317914.225971,-0.3623992,-1.5033804,0.35556954,3.382361,-2.6645942,-1.5315919
839,1778317914.236031,-0.06390616,-3.8095517,-1.2083021,3.9342775,-1.864208,-1.5230398
840,1778317914.2458498,-0.23336728,-3.9774883,-0.5139934,2.1908681,4.582711,-2.0809124
841,1778317914.2559636,-0.28434587,-4.3834267,0.14317909,1.943926,4.8792863,-2.019673
842,1778317914.2662005,-0.3565452,-4.638563,0.2608079,2.2177463,2.7882943,-1.5572482
843,1778317914.2762468,-0.35117903,-2.8535202,-0.36483836,1.0482447,2.2913556,0.4222606
844,1778317914.286347,-0.35117903,-2.8535202,-0.36483836,0.66706485,2.5599835,1.1830933
845,1778317914.2958586,-0.16281438,-2.2429967,-0.32386038,0.66706485,2.5599835,1.1830933
846,1778317914.3061824,0.199036,-1.3362974,-0.15421632,0.77304995,2.549599,1.9827158
847,1778317914.3162732,0.26336902,-1.0087783,-0.16549747,1.1664472,2.2282836,2.0662518
848,1778317914.3261297,0.25330746,-0.8818197,-0.15860681,1.395827,1.9407189,2.090839
849,1778317914.33625,0.25330746,-0.8818197,-0.15860681,1.5554156,1.6969837,2.103209
850,1778317914.3458095,0.23470882,-0.73455507,-0.19720663,1.756543,1.2948816,2.1235204
851,1778317914.356282,0.27586976,-0.6418057,-0.26769856,1.9240729,0.7487681,2.08977
852,1778317914.365805,0.31160355,-0.56759405,-0.34245902,1.8909334,0.46670106,1.9616411
853,1778317914.375849,0.32910457,-0.50655395,-0.34782517,1.6337591,0.36926803,1.7165314
854,1778317914.3861117,0.19806033,-0.47142997,-0.27855286,1.3921618,0.36254853,1.5674802
855,1778317914.3960066,0.18982814,-0.46990547,-0.26733267,1.0945178,0.32788193,1.4544702
856,1778317914.4062285,0.13762999,-0.4556973,-0.18488884,0.691194,0.16264287,1.2789991
857,1778317914.4163158,0.023781875,-0.43301308,-0.07744354,0.33353242,-0.22831088,1.0409144
858,1778317914.426242,0.023781875,-0.43301308,-0.07744354,0.33353242,-0.22831088,1.0409144
859,1778317914.4358737,-0.083175585,-0.4045358,-0.060369372,0.19135354,-0.45631635,1.0085385
860,1778317914.4462774,-0.11043327,-0.39532796,-0.067199044,0.1328632,-0.49754974,1.0360274
861,1778317914.456347,-0.1694611,-0.37014353,-0.10433535,0.051618114,-0.4653266,1.1122329
862,1778317914.4658756,-0.19745055,-0.33532444,-0.16061912,-0.06918049,-0.25030205,1.2293663
863,1778317914.4758873,-0.1718393,-0.31276214,-0.21446373,-0.19517145,0.14248432,1.297936
864,1778317914.4866297,-0.03079448,-0.3313608,-0.21903718,-0.21578814,0.674548,1.2159272
865,1778317914.4958897,0.04469773,-0.3556915,-0.20245083,-0.048716504,1.1432343,0.92271197
866,1778317914.5060325,0.08555377,-0.40496266,-0.19488941,0.1366811,0.8052731,0.6272059
867,1778317914.5158312,0.09970094,-0.47033232,-0.18123008,0.1366811,0.8052731,0.6272059
868,1778317914.5260396,0.12848312,-0.6589409,-0.12921485,0.21762075,-0.6209445,0.28970283
869,1778317914.5360408,0.12848312,-0.6589409,-0.12921485,0.21700987,-0.4720461,0.3391829
870,1778317914.5459144,0.10756725,-0.72229826,-0.115555525,0.20662516,-0.9078985,0.18234327
871,1778317914.555926,-0.00219525,-0.8146817,-0.055613004,0.09941832,-1.7001907,-0.13622294
872,1778317914.5659192,-0.081773065,-0.8875518,-0.00073175,-0.03359759,-2.2678373,-0.33444872
873,1778317914.575979,-0.12494631,-0.9721909,0.047258858,-0.20357084,-2.6789496,-0.46120325
874,1778317914.5861578,-0.17342475,-1.1397007,0.1144579,-0.37033707,-2.7939448,-0.5390886
875,1778317914.5962305,-0.17342475,-1.1397007,0.1144579,-0.49846604,-2.5320365,-0.57635134
876,1778317914.6058807,-0.24190436,-1.2604394,0.16964404,-0.6123924,-1.459357,-0.49770245
877,1778317914.6158164,-0.24190436,-1.2604394,0.16964404,-0.6123924,-1.459357,-0.47876564
878,1778317914.6263096,-0.25684425,-1.329041,0.20330454,-0.5874997,-0.8191703,-0.39813143
879,1778317914.6358747,-0.25586858,-1.4192291,0.22983049,-0.52641314,-0.3277292,-0.3286455
880,1778317914.6459453,-0.24123359,-1.5303942,0.25257573,-0.39584067,0.24266621,-0.27107146
881,1778317914.6559606,-0.24123359,-1.5303942,0.25257573,-0.39584067,0.24266621,-0.27107146
882,1778317914.6659303,-0.24123359,-1.5303942,0.25257573,-0.39584067,0.24266621,-0.27107146
883,1778317914.676217,-0.24123359,-1.5303942,0.25257573,-0.39584067,0.24266621,-0.27107146
884,1778317914.686427,-0.17525412,-1.6671095,0.33733675,-0.24480425,0.68630713,-0.24480425
885,1778317914.696336,0.12512925,-1.6200335,-0.09000525,1.4802792,3.882354,-0.26725355
886,1778317914.7060893,0.12512925,-1.6200335,-0.09000525,1.4802792,3.882354,-0.26725355
887,1778317914.7163217,0.20501198,-1.4216683,-0.21409786,1.5488489,4.4043384,-0.16737708
888,1778317914.7260833,0.23196477,-1.1836057,-0.3217261,1.446987,4.339281,-0.05879578
889,1778317914.7358093,0.24202631,-0.9841428,-0.2807481,1.446987,4.339281,-0.05879578
890,1778317914.7462778,0.23287943,-0.737604,-0.52496964,1.1806498,3.2746959,-0.028710667
891,1778317914.7559204,0.22330572,-0.6318052,-0.6208289,0.7309003,2.144137,-0.03268129
892,1778317914.7661147,0.12830016,-0.45411184,-0.32434818,0.075289145,-0.21319197,-0.044135015
893,1778317914.776166,0.23044027,-0.71735895,-0.40606028,-0.48808134,-2.3193026,-0.20173825
894,1778317914.786275,0.18885247,-0.8464518,-0.20848778,-0.7848091,-3.2586606,-0.6774496
895,1778317914.7962325,0.11744587,-0.96993464,-0.045002624,-0.7848091,-3.2586606,-0.6774496
896,1778317914.8060665,0.04396598,-1.0826242,0.19306004,-0.039095376,-1.3782647,-0.77198094
897,1778317914.8163621,-0.030062728,-1.1265901,0.19159654,0.3538437,-0.18646662,-0.6969972
898,1778317914.8263187,-0.022257395,-1.1445789,-0.0307335,0.55756724,0.7315111,-0.58276546
899,1778317914.8361182,-0.021891521,-1.1472621,-0.07067485,0.56031615,0.8437576,-0.56001073
900,1778317914.8459702,-0.029087063,-1.1282976,-0.16202165,0.53893584,1.0158689,-0.5154176
901,1778317914.8558588,0.014330104,-1.0103029,-0.26153967,0.36178493,1.2394456,-0.40775254
902,1778317914.8658738,0.054637335,-0.960239,-0.29660267,0.36178493,1.2394456,-0.40775254
903,1778317914.8761477,0.12830016,-0.91730964,-0.37563166,0.1217149,0.9314168,-0.6055202
904,1778317914.8859127,0.12830016,-0.91730964,-0.37563166,0.1217149,0.9314168,-0.6055202
905,1778317914.8958905,-0.0031099375,-1.0453658,-0.2470876,-0.24236079,-0.044898596,-0.9472993
906,1778317914.9062533,-0.042502478,-1.1218947,0.004268542,-0.24236079,-0.044898596,-0.9472993
907,1778317914.9160154,-0.036282603,-1.2042166,0.10732334,0.14049901,-0.49861875,-0.75655663
908,1778317914.92629,-0.0042075627,-1.1918379,-0.018720604,0.34330627,-0.24251351,-0.4653266
909,1778317914.9359941,-0.0042075627,-1.1918379,-0.018720604,0.34238997,-0.17638734,-0.4289801
910,1778317914.9459572,0.041587792,-1.1106136,-0.13793488,0.14721853,0.19226983,-0.30970868
911,1778317914.9560962,0.017013188,-1.1755564,-0.2978832,-0.030390546,0.32421672,-0.25900686
912,1778317914.9660413,-0.046953958,-1.1039668,-0.24849011,-0.2782491,0.54428095,-0.124005646
913,1778317914.9762323,-0.1437279,-0.9380426,-0.26367393,-0.46761733,0.63041294,0.006414085
914,1778317914.9859688,-0.1437279,-0.9380426,-0.26367393,-0.6097962,0.44608435,0.15134187
915,1778317914.9960766,-0.18183987,-0.6847961,-0.21909817,-0.68951416,0.06856962,0.17440203
916,1778317915.005976,-0.2883705,-0.8054738,-0.08335852,-0.72021013,-0.3587306,0.23671028
917,1778317915.0158627,-0.2883705,-0.8054738,-0.08335852,-0.6666067,-0.6598872,0.43478334
918,1778317915.0263312,-0.2883705,-0.8054738,-0.08335852,-0.6666067,-0.6598872,0.43478334
919,1778317915.0358207,-0.2883705,-0.8054738,-0.08335852,-0.6666067,-0.6598872,0.43478334
920,1778317915.046279,-0.2883705,-0.8054738,-0.08335852,-0.6666067,-0.6598872,0.43478334
921,1778317915.0564153,-0.2883705,-0.8054738,-0.08335852,-0.6666067,-0.6598872,0.43478334
922,1778317915.0662556,0.1153116,-1.074575,-0.30422506,-1.3232869,-0.83169305,0.8507826
923,1778317915.0761085,0.19830425,-1.1866546,-0.3420931,-1.5648841,-0.6386596,0.6763805
924,1778317915.0861533,0.24903892,-1.2801356,-0.3030055,-1.7786869,-0.50533825,0.2939789
925,1778317915.0964947,0.10165227,-1.3036736,-0.16836348,-1.5082263,-0.4390594,0.19898935
926,1778317915.1058154,-0.094456725,-1.3784951,-0.042990312,-1.4430164,-0.4034765,0.258396
927,1778317915.1160395,-0.17202222,-1.5137469,0.03670946,-1.1571314,-0.24587326,0.5740606
928,1778317915.1260686,-0.15647253,-1.5380775,0.04268542,-0.9111055,-0.3727805,1.0210613
929,1778317915.1360385,-0.10915271,-1.3057469,0.039392542,-0.9436341,-1.5233452,1.6337591
930,1778317915.1458316,-0.1153116,-1.0839658,0.049515083,-0.9436341,-1.5233452,1.6337591
931,1778317915.1561818,-0.124580435,-1.115309,0.034636166,-1.1108584,-2.4349089,1.8214475
932,1778317915.1658113,-0.0082321875,-0.8991378,0.025001459,-1.2678508,-3.920075,2.0340285
933,1778317915.1760113,0.021037813,-0.7899851,-0.090919934,-1.3709344,-4.6569314,2.094504
934,1778317915.1858242,0.067077085,-0.66296554,-0.15488708,-1.651627,-5.8174224,2.1740694
935,1778317915.1962297,0.18897444,-0.32587266,-0.039087646,-1.9836322,-5.8922534,2.0491474
936,1778317915.2060003,0.18897444,-0.32587266,-0.039087646,-1.9836322,-5.8922534,2.0491474
937,1778317915.2159011,0.112994395,-0.45252642,0.08104131,-1.8409951,-4.515974,1.7418822
938,1778317915.2263489,-0.14714272,-0.5563739,0.021830542,-1.2892311,-1.3374895,1.2641857
939,1778317915.2363055,-0.14714272,-0.5563739,0.021830542,-1.2892311,-1.3374895,1.2641857
940,1778317915.245887,-0.18263261,-0.6306466,-0.07360186,-0.9839512,-0.24495697,1.2140946
941,1778317915.2561564,-0.2552588,-0.78565556,-0.1908648,-0.7101309,-0.020616703,1.048703
942,1778317915.266122,-0.3134939,-0.86517245,-0.25599056,-0.5196936,-0.16279559,0.90133166
943,1778317915.27589,-0.41465837,-0.92999333,-0.24166043,-0.10751228,-0.7189884,0.59315014
944,1778317915.2861066,-0.49100426,-0.90645534,-0.23141594,0.33215797,-0.92087936,0.47891834
945,1778317915.2960155,-0.34709343,-0.7848019,-0.28532153,0.6261369,-0.86284715,0.42180246
946,1778317915.3059626,-0.25129515,-0.6506477,-0.30648127,0.7012733,-0.6979135,0.30680707
947,1778317915.315811,-0.275199,-0.693699,-0.31635994,0.70570207,-0.44868052,0.19914207
948,1778317915.325969,-0.43734258,-0.87950253,-0.20976834,0.76342887,-0.18066339,0.20479257
949,1778317915.335975,-0.43734258,-0.87950253,-0.20976834,0.9268353,0.13775012,0.27931812
950,1778317915.3460944,-0.46551496,-0.9018819,-0.19738956,1.1201742,0.3203988,0.28817567
951,1778317915.3558822,-0.53673863,-0.86968493,-0.12573905,1.258077,0.41890085,0.2576324
952,1778317915.3661923,-0.53466535,-0.910419,-0.08933448,1.3683381,0.92179567,0.21777347
953,1778317915.3758621,-0.5452757,-0.96981263,-0.05719846,1.3139712,1.2983941,0.21868975
954,1778317915.386102,-0.5452757,-0.96981263,-0.05719846,1.1835514,1.8666514,0.29993483
955,1778317915.396186,-0.49807784,-1.0290235,-0.15586275,1.0957395,1.7366899,0.35124752
956,1778317915.4061487,-0.43630594,-0.9874357,-0.29239509,0.43860126,0.75854194,0.35262197
957,1778317915.4159493,-0.43630594,-0.9874357,-0.29239509,0.43860126,0.75854194,0.35262197
958,1778317915.426346,-0.36989963,-0.9639587,-0.35758185,-0.11209377,0.0009162979,0.34009922
959,1778317915.435918,-0.35471582,-0.97200793,-0.32148215,-1.1945469,-0.42164972,0.5102252
960,1778317915.4462035,-0.35197178,-1.0135348,-0.2455631,-1.1945469,-0.42164972,0.5102252
961,1778317915.455841,-0.35459387,-1.0262794,-0.17720546,-1.4054482,-0.2489276,0.68325275
962,1778317915.4659638,-0.35928926,-1.0054855,-0.13244675,-1.3379476,-0.19379699,0.7266242
963,1778317915.4762578,-0.36191136,-0.97536176,-0.07415067,-1.0062478,-0.17119499,0.65102965
964,1778317915.4859972,-0.31745756,-0.9760935,-0.03469715,-0.5549711,0.056199603,0.38041633
965,1778317915.496347,-0.28843147,-0.9996925,-0.06726002,-0.04444045,0.23671028,0.027794369
966,1778317915.506035,-0.21263437,-1.0445732,0.027501604,0.80878556,0.41493022,-0.07009678
967,1778317915.515915,-0.21263437,-1.0445732,0.027501604,0.9251554,0.5174029,-0.03573562
968,1778317915.5259387,-0.17257105,-1.0147543,-0.043539125,1.4191927,1.099252,0.123547494
969,1778317915.5358806,-0.21428078,-1.0562812,-0.12653178,1.6500998,1.4656185,0.06780604
970,1778317915.5458145,-0.2903828,-1.0692697,-0.17360769,1.7551686,1.4184291,-0.0842994
971,1778317915.5562491,-0.3305071,-1.0071319,-0.23836756,1.8026633,1.1533136,-0.21426098
972,1778317915.566257,-0.3003224,-0.8851736,-0.2534294,1.8741345,0.700357,-0.37888917
973,1778317915.5760584,-0.36038688,-0.8054738,-0.3114816,1.9249891,0.5685628,-0.41523564
974,1778317915.5862381,-0.4543558,-0.6923575,-0.34428838,1.829236,0.6908886,-0.33093625
975,1778317915.5961235,-0.4543558,-0.6923575,-0.34428838,1.829236,0.6908886,-0.33093625
976,1778317915.6060505,-0.52710396,-0.6549772,-0.29952967,1.7661642,0.9604329,0.1685988
977,1778317915.6162765,-0.5434463,-0.7033947,-0.23470882,1.6310102,1.0005972,0.38347065
978,1778317915.626103,-0.54606843,-0.68339354,-0.16903426,1.3599387,0.97234476,0.5552765
979,1778317915.6359541,-0.5228354,-0.66046536,-0.08774903,1.1707232,0.8009971,0.6000224
980,1778317915.6459823,-0.5252746,-0.6648559,-0.08579769,1.1279627,0.7680103,0.5992588
981,1778317915.6558132,-0.5554592,-0.67906404,-0.09488358,0.95203346,0.708451,0.60063326
982,1778317915.6661088,-0.5962543,-0.65936774,-0.0705529,0.66966105,0.6049093,0.572228
983,1778317915.6759276,-0.57222855,-0.6157066,-0.04164877,0.45066583,0.5707009,0.5371033
984,1778317915.6863048,-0.5450318,-0.6274756,-0.046527103,0.34254268,0.50946164,0.45845437
985,1778317915.6958385,-0.5552153,-0.7154076,-0.13512984,-0.18066339,0.14828753,0.11346822
986,1778317915.706355,-0.5552153,-0.7154076,-0.13512984,-0.18066339,0.14828753,0.11346822
987,1778317915.7158139,-0.456673,-0.7280913,-0.20062146,-0.85811293,-0.16294831,-0.3005457
988,1778317915.7261574,-0.456673,-0.7280913,-0.20062146,-0.85811293,-0.16294831,-0.3005457
989,1778317915.736054,-0.47612533,-0.73638445,-0.2004995,-1.1749994,-0.58123827,-0.6258314
990,1778317915.745896,-0.47612533,-0.73638445,-0.2004995,-1.4679092,-1.3115277,-0.9593639
991,1778317915.756104,-0.51923764,-0.778704,-0.25471,-1.5812247,-1.6937766,-1.3654366
992,1778317915.765984,-0.521189,-0.8333413,-0.25483194,-1.7209601,-2.0819814,-1.521818
993,1778317915.7759464,-0.49405318,-0.91883403,-0.26153967,-1.866957,-2.3477077,-1.5551102
994,1778317915.786309,-0.3802661,-1.0414633,-0.26239336,-1.9456058,-2.4518604,-1.4256067
995,1778317915.796307,-0.32331154,-1.0472562,-0.25513685,-1.9610301,-2.3871086,-1.3976597
996,1778317915.8060577,-0.41087765,-1.1662875,-0.23702602,-1.9869919,-1.8600847,-1.0392345
997,1778317915.815908,-0.41087765,-1.1662875,-0.23702602,-1.9869919,-1.8600847,-1.0392345
998,1778317915.8262136,-0.386425,-1.4084969,-0.16799761,-1.8038851,-0.9944886,-0.7141015
999,1778317915.8360052,-0.3840468,-1.4168509,-0.1718393,-1.7767016,-0.9140071,-0.6927212
1000,1778317915.846178,-0.28416294,-1.2708669,-0.16921718,-1.6617062,-0.54534996,-0.5581781
