id,timestamp,acc_x,acc_y,acc_z,gyro_x,gyro_y,gyro_z
1,1778316133.992276,-3.8359556,1.4841111,2.7055845,-4.501313,0.15745051,-3.131448
2,1778316133.9922924,-3.8359556,1.4841111,2.7055845,-4.501313,0.15745051,-3.131448
3,1778316134.0017705,-3.5633786,1.4047161,2.5133784,-3.7847683,-0.4008803,-2.8872545
4,1778316134.0120282,-3.1988451,1.3369073,2.3062322,-3.1351132,-1.118647,-2.4043655
5,1778316134.0218198,-2.7664418,1.3087349,2.0420704,-2.540894,-1.6146696,-1.6922494
6,1778316134.0318072,-2.3019636,1.3000149,1.7665056,-2.0276144,-1.8497,-0.9233228
7,1778316134.0419095,-1.6633286,1.258793,1.3712386,-1.7429513,-1.8555032,-0.40500367
8,1778316134.0521727,-1.0846975,1.1961063,1.0528663,-1.5771013,-1.6267341,0.024740042
9,1778316134.0617774,-0.80065644,1.1424447,0.92048055,-1.5476271,-1.4333953,0.1779145
10,1778316134.0717819,-0.377583,1.0124981,0.7716913,-1.5531249,-1.0742066,0.35476
11,1778316134.0821154,-0.377583,1.0124981,0.7716913,-1.5531249,-1.0742066,0.35476
12,1778316134.0920815,0.04170975,0.8507814,0.7719353,-1.3672692,-0.4999932,0.44501534
13,1778316134.1021404,0.14885014,0.8099253,0.8022419,-1.1447614,-0.21029036,0.42149702
14,1778316134.112119,0.26038104,0.78565556,0.82998747,-0.74174315,0.1414153,0.36713
15,1778316134.1216774,0.33184862,0.7557758,0.8178526,-0.23518312,0.41370848,0.28084528
16,1778316134.1317856,0.36422858,0.73254275,0.7706547,0.31520647,0.6041457,0.18478674
17,1778316134.141788,0.3828882,0.72278607,0.70089453,0.75686204,0.7096727,0.12767084
18,1778316134.1521597,0.38983983,0.7061388,0.61125517,1.1682798,0.77014834,0.08827003
19,1778316134.162107,0.37581462,0.68064946,0.5163716,1.6102408,0.81489426,0.06566802
20,1778316134.1718538,0.36496034,0.63387847,0.37770495,1.6102408,0.81489426,0.06566802
21,1778316134.1818225,0.36496034,0.63387847,0.37770495,1.8912388,0.8026769,0.08735373
22,1778316134.1921406,0.3261166,0.5403364,0.17604686,2.3477077,0.6291912,0.27015516
23,1778316134.2021048,0.29471233,0.49948034,0.12714157,2.4423919,0.59559363,0.36392298
24,1778316134.2122083,0.22537899,0.44648945,0.07890704,2.5141687,0.54993147,0.50686544
25,1778316134.2220266,0.172693,0.38916904,0.048722353,2.540894,0.44974953,0.680962
26,1778316134.23171,0.1331785,0.35489875,0.03683142,2.5393667,0.30680707,0.82359904
27,1778316134.2420516,-0.021525647,0.3608747,0.042014647,2.4955373,0.08506299,1.0476339
28,1778316134.251814,-0.23659918,0.39551088,0.030062728,2.3790147,-0.34437528,1.402852
29,1778316134.2621286,-0.32965338,0.41874394,-0.005061271,2.2510383,-0.7302894,1.6771306
30,1778316134.2721393,-0.4811866,0.47704002,-0.059759583,1.8955148,-1.4952455,2.1442897
31,1778316134.2820814,-0.62192655,0.72687167,-0.014452063,1.2815952,-2.347097,2.515543
32,1778316134.2917778,-0.7272375,1.059452,0.22434235,0.78786343,-2.406809,2.473546
33,1778316134.301849,-1.2323279,1.8555961,1.2567197,0.62888575,-1.5946637,2.119397
34,1778316134.3118873,-1.7235762,2.4725833,2.1347587,1.0656544,-0.62018096,1.8710803
35,1778316134.3219707,-2.5591738,2.716439,2.754307,2.154369,0.40943244,1.7589865
36,1778316134.3321564,-3.3928812,2.356357,2.7563193,3.1554244,0.5358815,2.0312796
37,1778316134.3418207,-3.582648,2.028655,2.5810652,3.9767327,-0.09239337,2.4295638
38,1778316134.3518486,-3.4664218,1.8618768,2.232752,4.4996333,-0.46609017,2.528524
39,1778316134.3618774,-3.3360484,1.645218,1.7950438,4.789031,-0.3275765,2.4992025
40,1778316134.3720088,-3.3360484,1.645218,1.7950438,4.789031,-0.3275765,2.4992025
41,1778316134.3822474,-3.149513,1.3501397,1.311418,4.87333,0.117744274,2.5906794
42,1778316134.3918161,-2.3814805,0.50423676,0.22373258,4.0508003,0.5687156,3.2407928
43,1778316134.4021876,-1.8249235,0.14031307,-0.08659042,3.1299207,0.3277292,3.423747
44,1778316134.411959,-1.3256872,-0.12201932,-0.16720487,2.1412354,-0.09712757,3.4048102
45,1778316134.4222665,-0.924993,-0.3084936,-0.070613876,1.3012956,-0.47571132,3.1645875
46,1778316134.4317896,-0.67888105,-0.43728164,0.03609967,0.8410087,-0.68539083,2.8895454
47,1778316134.4417205,-0.67888105,-0.43728164,0.03609967,0.8410087,-0.68539083,2.8895454
48,1778316134.4519277,-0.26324704,-0.67406374,0.2154394,0.48365256,-0.72586066,2.1198552
49,1778316134.4622455,-0.12836114,-0.7519951,0.25080732,0.59666264,-0.61285055,1.8567249
50,1778316134.471787,0.034941066,-0.8263897,0.22318375,0.8078693,-0.4775439,1.6528486
51,1778316134.4819534,0.034941066,-0.8263897,0.22318375,0.8078693,-0.4775439,1.6528486
52,1778316134.4916983,0.3899008,-0.94292086,-0.041099958,1.3466524,-0.020158553,1.1053606
53,1778316134.5020576,0.5175912,-1.0319505,-0.21732976,1.4262177,0.3323107,0.7153232
54,1778316134.5122406,0.61424315,-1.0973811,-0.36337486,1.3098478,0.7076874,0.2687807
55,1778316134.5220778,0.690772,-1.1290903,-0.44283074,1.029308,0.9877691,-0.25335637
56,1778316134.5317218,0.684857,-1.1482377,-0.45685592,0.6258314,1.0676397,-0.8324566
57,1778316134.5417526,0.61601156,-1.1507988,-0.403987,0.28909197,1.0019717,-1.2840388
58,1778316134.55192,0.49124816,-1.1352491,-0.33794656,-0.067500606,0.7987063,-1.7470746
59,1778316134.5617886,0.49124816,-1.1352491,-0.33794656,-0.067500606,0.7987063,-1.7470746
60,1778316134.5720718,0.32904357,-1.0785995,-0.27117437,-0.43279803,0.4382958,-2.1971295
61,1778316134.5817342,0.32904357,-1.0785995,-0.27117437,-0.43279803,0.4382958,-2.1971295
62,1778316134.592031,0.2628202,-0.90450394,-0.30452996,-0.5545129,0.45020768,-2.487596
63,1778316134.6017745,0.25178298,-0.8533425,-0.39703536,-0.5545129,0.45020768,-2.487596
64,1778316134.612281,0.21428078,-0.7701669,-0.529787,-0.7509061,1.0021244,-2.7362182
65,1778316134.6218898,0.13659334,-0.6911379,-0.6213777,-1.0340421,1.534188,-2.819143
66,1778316134.6319911,-0.011403104,-0.59954715,-0.6607703,-1.3927728,1.7938058,-2.8389962
67,1778316134.6417596,-0.112994395,-0.52088404,-0.64796466,-1.9814942,1.7259997,-2.8313603
68,1778316134.6521437,-0.26586917,-0.45972195,-0.56417924,-2.582891,1.3825408,-2.8591547
69,1778316134.6619666,-0.66339236,-0.27763817,-0.35142294,-3.4987307,0.23823744,-2.9605584
70,1778316134.671686,-0.85651344,-0.120738745,-0.254588,-3.8886154,-0.43325618,-3.0381384
71,1778316134.681717,-1.0854901,0.24477036,-0.13921544,-4.4634395,-0.9466884,-3.4028249
72,1778316134.6920044,-1.5231986,0.6758321,0.29812714,-4.9458704,-0.30008754,-4.205807
73,1778316134.7017362,-2.484352,1.0724406,1.1246388,-4.9690833,0.79412484,-5.0979757
74,1778316134.7122169,-3.8232718,1.5175276,1.8930982,-4.4967318,1.4784466,-5.5998015
75,1778316134.7216947,-5.295004,2.066462,2.5420995,-3.7316232,1.267698,-5.281541
76,1778316134.7318528,-6.0823064,2.259461,2.8433976,-2.958726,0.7495316,-4.3551636
77,1778316134.7417252,-6.1882267,2.1729317,2.90084,-1.8579466,0.20845777,-2.6778805
78,1778316134.7520983,-5.3692155,2.0416436,2.4795349,-0.6925685,-0.50656,-0.9673051
79,1778316134.7620194,-4.3219595,1.9247464,1.9512724,0.04932737,-0.95722586,0.04841107
80,1778316134.7717047,-4.3219595,1.9247464,1.9512724,0.5140431,-0.99204516,0.6403395
81,1778316134.7822282,-2.265864,1.3806903,0.8492569,0.8556695,-0.788627,0.90285885
82,1778316134.7921565,-1.5887512,1.1109794,0.38386387,0.9665415,-0.47510046,0.9654725
83,1778316134.8019013,-1.1408592,0.9329813,0.12958074,0.86574876,-0.08032878,0.9764681
84,1778316134.811892,-0.84590304,0.7732159,0.050063897,0.67057735,0.27656925,0.93309665
85,1778316134.8219786,-0.66930735,0.6111942,0.07274815,0.50701815,0.4908302,0.8877399
86,1778316134.8317683,-0.47704002,0.5069198,0.11171384,0.44211373,0.5687156,0.86208355
87,1778316134.841861,-0.29690757,0.40990198,0.14421573,0.4335616,0.5991061,0.84238315
88,1778316134.8521001,-0.29690757,0.40990198,0.14421573,0.4335616,0.5991061,0.84238315
89,1778316134.8620925,-0.018903542,0.28794363,0.09524946,0.46379945,0.50518554,0.8205447
90,1778316134.8722477,0.13458103,0.25672227,0.027318668,0.46379945,0.50518554,0.8205447
91,1778316134.881715,0.22970851,0.25245374,-0.027013771,0.3213151,0.21365012,0.7641924
92,1778316134.8917453,0.41478032,0.28068712,-0.10811607,0.14950927,-0.005955936,0.6916522
93,1778316134.9017332,0.41478032,0.28068712,-0.10811607,0.14950927,-0.005955936,0.6916522
94,1778316134.9118896,0.649855,0.39929157,-0.10464026,-0.017256944,-0.22632557,0.4831944
95,1778316134.921692,0.7244935,0.44490403,-0.07390675,0.07238753,-0.13316862,0.3587306
96,1778316134.9320896,0.73870164,0.4797231,-0.050246835,0.27275133,0.10567969,0.16661349
97,1778316134.9424202,0.6137553,0.4911262,-0.022257395,0.50778174,0.4118759,0.024281893
98,1778316134.9517741,0.5248477,0.49960235,0.0037197291,0.6630942,0.5713117,0.013897184
99,1778316134.9621887,0.40234053,0.51692045,0.026769854,0.9728029,0.79213953,0.08323039
100,1778316134.9721134,0.25190493,0.5494833,0.0020123124,1.1681271,0.8014552,0.24220806
101,1778316134.982047,0.18995011,0.564911,-0.047258858,1.2255484,0.675617,0.43096542
102,1778316134.9919577,0.18995011,0.564911,-0.047258858,1.2255484,0.675617,0.43096542
103,1778316135.0017686,0.1027499,0.5322872,-0.178547,0.9166033,-0.18020524,0.75762564
104,1778316135.0117047,0.1027499,0.5322872,-0.178547,0.9166033,-0.18020524,0.75762564
105,1778316135.0222473,0.019696271,0.48082075,-0.13848369,0.43279803,-1.0381655,0.9103419
106,1778316135.0322032,-0.03445323,0.4861869,-0.057381395,0.21930063,-1.26556,0.97509366
107,1778316135.0421002,0.033294626,0.6227802,0.07366284,0.041233405,-1.4001031,0.86544335
108,1778316135.0516827,-0.015671646,0.8844418,0.3020908,-0.09789115,-1.3782647,0.35720345
109,1778316135.0620608,-0.32703125,1.1136625,0.6342443,-0.11713341,-1.0517572,-0.31719178
110,1778316135.0719266,-1.0451219,1.5329553,1.2786112,0.25427267,-0.98929626,-1.1456778
111,1778316135.0819583,-1.5890561,1.8262651,1.4708785,0.56779927,-0.35369098,-1.6462818
112,1778316135.092179,-2.8210793,1.946821,1.7970562,1.4103352,-0.018784106,-2.058005
113,1778316135.102173,-2.8210793,1.946821,1.7970562,1.4103352,-0.018784106,-2.058005
114,1778316135.112175,-4.6290507,1.8287044,1.7282716,2.5631905,-0.04718934,-0.19410244
115,1778316135.1219568,-4.6149645,1.4036185,1.4521579,2.9148962,-0.23014349,1.1788172
116,1778316135.1322005,-4.082433,1.0220718,0.9719469,2.906955,-0.65118235,2.1768184
117,1778316135.1416802,-3.108169,0.71107805,0.4686859,2.351984,-1.3426818,2.9165761
118,1778316135.1520352,-2.4628875,0.5003341,0.29757833,1.7263051,-1.7521143,3.091131
119,1778316135.161978,-1.846815,0.2856874,0.11634825,1.0425943,-2.169946,3.0190487
120,1778316135.1716933,-1.5421631,0.110311314,0.03744121,0.5128214,-2.2229385,2.8855748
121,1778316135.1822238,-1.2772087,-0.0705529,0.017196124,0.14294247,-1.9207131,2.8544207
122,1778316135.1919405,-1.2772087,-0.0705529,0.017196124,0.14294247,-1.9207131,2.8544207
123,1778316135.2020674,-0.7959001,-0.27349156,0.066894144,-0.11102476,-1.1065824,2.8545732
124,1778316135.211991,-0.7959001,-0.27349156,0.066894144,-0.11102476,-1.1065824,2.8545732
125,1778316135.22184,-0.48100364,-0.34264195,0.10616472,-0.15302174,-0.58352906,2.6931522
126,1778316135.232171,-0.002500146,-0.45905116,0.17476629,-0.00061086525,-0.27015516,2.0899227
127,1778316135.2418265,0.13183697,-0.4926507,0.19226731,0.2302962,-0.046731193,1.7374535
128,1778316135.251672,0.19848719,-0.51905465,0.18940128,0.48640144,0.22831088,1.4715744
129,1778316135.2619057,0.24348982,-0.5585082,0.13592257,0.84620106,0.64568454,1.1687379
130,1778316135.2721262,0.24348982,-0.5585082,0.13592257,0.84620106,0.64568454,1.1687379
131,1778316135.2816842,0.30696914,-0.6679048,-0.026830835,1.3449726,1.2513574,0.78954333
132,1778316135.2919397,0.30696914,-0.6679048,-0.026830835,1.506241,1.6508633,0.551764
133,1778316135.301735,0.4797231,-0.705529,-0.25129515,1.5215126,1.984243,0.23060162
134,1778316135.3121762,0.5186888,-0.71248055,-0.35136196,1.377043,2.1746802,-0.18661933
135,1778316135.3220403,0.49240676,-0.75717837,-0.46460027,0.95539325,2.1268802,-0.7307475
136,1778316135.3318195,0.43313503,-0.79132664,-0.54375124,0.50915617,1.9301815,-1.0978775
137,1778316135.3421254,0.36258212,-0.7948025,-0.5547885,-0.14156802,1.613906,-1.5144876
138,1778316135.3517148,0.248795,-0.8063275,-0.53106755,-0.6554584,1.3860532,-1.790446
139,1778316135.3622055,0.248795,-0.8063275,-0.53106755,-0.6554584,1.3860532,-1.790446
140,1778316135.371976,-0.11976309,-0.82828003,-0.46667355,-1.5706873,1.6239853,-2.2534819
141,1778316135.381781,-0.11976309,-0.82828003,-0.46667355,-1.5706873,1.6239853,-2.2534819
142,1778316135.3919716,-0.47002742,-0.7168711,-0.46917373,-1.8961257,2.990491,-1.9338466
143,1778316135.4017863,-0.5573496,-0.717237,-0.5279576,-2.0621283,3.5097263,-1.6858354
144,1778316135.4123042,-0.4730764,-0.7607151,-0.605889,-2.5192082,3.7624717,-1.6242907
145,1778316135.422114,-0.37581462,-0.7593736,-0.62125576,-2.5192082,3.7624717,-1.6242907
146,1778316135.4317205,-0.474235,-0.72516423,-0.54661727,-4.066377,2.9895744,-2.9827023
147,1778316135.4416964,-0.9259077,-0.6062549,-0.36989963,-4.7962084,2.2650883,-4.1187587
148,1778316135.4516861,-1.7032092,-0.33056808,-0.116104335,-5.2607713,1.7467692,-4.935791
149,1778316135.4618115,-2.804127,0.031221334,0.21830542,-5.738468,1.2673926,-5.539784
150,1778316135.471913,-3.8682745,0.3823394,0.49710217,-6.0032783,0.9949468,-5.4536524
151,1778316135.4821794,-4.925714,0.810718,0.8631601,-6.104987,0.8162687,-4.466036
152,1778316135.4921706,-5.193535,1.0404266,1.1264682,-6.0080123,0.75716746,-3.2242994
153,1778316135.5022385,-5.193535,1.0404266,1.1264682,-6.0080123,0.75716746,-3.2242994
154,1778316135.511934,-4.792048,1.1863497,1.358189,-5.7751203,0.66507953,-1.7411187
155,1778316135.5218894,-3.966024,1.2172662,1.425388,-5.4605246,0.36071593,-0.73945236
156,1778316135.5322082,-3.966024,1.2172662,1.425388,-5.4605246,0.36071593,-0.73945236
157,1778316135.541691,-1.9341983,1.0432316,1.5534443,-3.90236,-0.039858956,0.34315357
158,1778316135.551851,-1.443133,0.968898,1.4792327,-2.9648345,0.22800545,0.41691554
159,1778316135.5618684,-1.0415242,0.90523577,1.3090397,-2.0633502,0.65500027,0.3727805
160,1778316135.5716848,-0.7388236,0.8481592,1.1009789,-1.3261884,1.0864239,0.22785273
161,1778316135.582059,-0.6062549,0.81035215,0.9185292,-0.9068295,1.3498595,0.09193522
162,1778316135.5920913,-0.6062549,0.81035215,0.9185292,-0.9068295,1.3498595,0.09193522
163,1778316135.6021547,-0.4369767,0.7496169,0.5776557,-0.6421721,1.4992161,0.013744468
164,1778316135.612345,-0.4369767,0.7496169,0.5776557,-0.6421721,1.4992161,0.013744468
165,1778316135.6218338,-0.1381178,0.6910769,0.36813122,-0.6954701,1.1742357,0.30069843
166,1778316135.6318266,-0.012195834,0.6743686,0.3567891,-0.8868236,0.84711736,0.40866885
167,1778316135.6421165,0.11976309,0.65546507,0.38587618,-1.0042624,0.55863625,0.45356745
168,1778316135.6519885,0.18952326,0.6415618,0.42636633,-1.0618365,0.21044308,0.4813618
169,1778316135.661873,0.2145247,0.64326924,0.4735642,-0.9934196,-0.06582073,0.54229563
170,1778316135.6717145,0.22239104,0.6370494,0.4926507,-0.850019,-0.20799962,0.64858615
171,1778316135.6822057,0.2359284,0.60668176,0.48014995,-0.61300325,-0.27412578,0.8370381
172,1778316135.6918428,0.23476979,0.55716664,0.4429527,-0.3501785,-0.26206118,1.0409144
173,1778316135.7019455,0.23476979,0.55716664,0.4429527,-0.3501785,-0.26206118,1.0409144
174,1778316135.7119946,0.1349469,0.42173192,0.32904357,0.06154467,-0.1142318,1.3889549
175,1778316135.721785,0.039880376,0.3111767,0.2944684,0.20906863,-0.051465396,1.5100589
176,1778316135.7317262,0.039880376,0.3111767,0.2944684,0.32177326,-0.09636399,1.5694655
177,1778316135.7419422,-0.2614177,0.19982874,0.28080907,0.3669773,-0.16325374,1.5903877
178,1778316135.7519455,-0.45173368,0.12079973,0.27593073,0.33505958,-0.36545014,1.6013832
179,1778316135.761913,-0.4926507,0.050978586,0.27654052,0.2910773,-0.91751957,1.3620768
180,1778316135.771954,-0.5837535,0.036221627,0.25928342,0.28298333,-1.6201674,0.7292204
181,1778316135.7818995,-0.8650505,0.09713981,0.22922069,0.36667186,-1.8701639,0.030085113
182,1778316135.7917395,-1.2709888,0.25562465,0.17866896,0.58246,-1.5012014,-0.92255926
183,1778316135.8021796,-1.6132039,0.36861908,0.11518965,0.6934848,-0.6617198,-1.5916094
184,1778316135.8119133,-1.6132039,0.36861908,0.11518965,0.6934848,-0.6617198,-1.5916094
185,1778316135.8220701,-3.6252723,0.9074919,-0.21940304,0.6436992,0.43783766,-1.945453
186,1778316135.8320863,-4.0906653,1.1309197,-0.43319598,0.11560625,1.951409,-1.4798211
187,1778316135.841999,-4.0271864,1.1843984,-0.6141822,-2.2693644,1.9178114,0.6737844
188,1778316135.8520517,-3.6810074,0.9517019,-0.6459523,-4.3826528,0.4877759,1.6882788
189,1778316135.862252,-3.1241457,0.5388119,-0.28806558,-6.3352833,-1.312444,2.5274549
190,1778316135.8721983,-2.5694792,0.29660267,0.19976775,-7.3134313,-2.522568,3.091131
191,1778316135.8817503,-1.8788902,0.12622687,0.8463298,-7.634594,-3.1560352,3.545309
192,1778316135.8922637,-1.8788902,0.12622687,0.8463298,-7.634594,-3.1560352,3.545309
193,1778316135.9018981,-1.1128699,-0.008841979,1.6070449,-5.8985147,-1.8286251,3.5747833
194,1778316135.9121735,-0.87029463,-0.12610492,1.6835129,-4.4732137,-0.9783007,3.445738
195,1778316135.9222395,-0.87029463,-0.12610492,1.6835129,-4.4732137,-0.9783007,3.445738
196,1778316135.9317446,-0.4423429,-0.15769213,1.1779346,-1.2452488,0.8246681,3.013551
197,1778316135.9418643,-0.29867595,-0.13000758,0.8496228,-0.6123924,1.1487321,2.8257098
198,1778316135.9517763,-0.19732858,-0.12805626,0.54350734,-0.14462234,1.3509285,2.634662
199,1778316135.9619539,-0.12714157,-0.13915445,0.3351415,0.051159963,1.4292719,2.4888177
200,1778316135.9719055,-0.04762473,-0.15452121,0.14872819,0.06994407,1.4567609,2.3930645
201,1778316135.9819062,0.0001829375,-0.16775368,0.070187025,0.040317107,1.4869987,2.331978
202,1778316135.9917374,0.110616215,-0.20854875,-0.0482955,-0.07422013,1.5958854,2.191479
203,1778316136.0020666,0.16104598,-0.22836697,-0.08677336,-0.13087788,1.6636915,2.1131356
204,1778316136.0117965,0.21031716,-0.275199,-0.15775311,-0.26251933,1.7980819,1.9333885
205,1778316136.0218039,0.21031716,-0.275199,-0.15775311,-0.26251933,1.7980819,1.9333885
206,1778316136.0319927,0.12427554,-0.40606028,-0.23952618,-0.77931136,1.8536706,1.5593863
207,1778316136.0417407,0.081346214,-0.4974071,-0.25001457,-1.1120802,1.6329955,1.51968
208,1778316136.0520875,0.09256637,-0.5491174,-0.23842856,-1.4333953,1.3834571,1.5375478
209,1778316136.0618203,0.1475086,-0.61985326,-0.231233,-1.7084373,1.2264647,1.5351044
210,1778316136.071989,0.20885365,-0.66522175,-0.22513509,-1.8736764,1.1922562,1.4958563
211,1778316136.0820243,0.2658082,-0.7134563,-0.20299964,-1.9599612,1.3255776,1.3623822
212,1778316136.0918744,0.32538486,-0.7526659,-0.14964288,-1.9071213,1.8009834,0.96577793
213,1778316136.1020222,0.304469,-0.7692522,-0.14659391,-1.7713565,2.221717,0.59330285
214,1778316136.1121259,0.304469,-0.7692522,-0.14659391,-1.7713565,2.221717,0.59330285
215,1778316136.1220999,-0.072443254,-0.8237676,-0.21312219,-1.4769194,3.3131804,-0.11484267
216,1778316136.1319578,-0.17513217,-0.79766846,-0.33947104,-1.4456125,3.691764,-0.41050145
217,1778316136.1421533,-0.22385453,-0.7204689,-0.48234522,-1.7136297,3.866166,-0.86254174
218,1778316136.1520343,-0.3603259,-0.6061329,-0.55460554,-2.2573,3.8310413,-1.5491543
219,1778316136.1618733,-0.6413179,-0.4988096,-0.50496846,-2.745992,3.7215438,-2.2479842
220,1778316136.171794,-1.3016613,-0.34611776,-0.32026258,-3.265991,3.7296379,-3.0462322
221,1778316136.1821258,-1.9887747,-0.18263261,-0.12775135,-3.5559993,3.9742892,-3.356552
222,1778316136.192083,-2.7558925,0.06713806,0.10866488,-3.6112826,4.226577,-3.116329
223,1778316136.2016869,-3.0565197,0.20556077,0.21324414,-3.5886805,4.3818893,-2.5642595
224,1778316136.2117774,-3.2012842,0.319104,0.25269768,-3.6581664,4.245666,-1.8472565
225,1778316136.2221627,-3.044324,0.35880142,0.20623155,-4.0275874,3.7444513,-1.5085317
226,1778316136.2323492,-3.044324,0.35880142,0.20623155,-4.647157,3.0789135,-1.6067283
227,1778316136.2417443,-2.9376714,0.5281406,0.42917135,-5.2421403,2.3811526,-1.8286251
228,1778316136.2520568,-3.0981686,0.6943698,0.76730084,-5.516266,1.790446,-1.7983873
229,1778316136.261906,-3.114816,0.7766917,0.96725154,-5.486639,1.4775304,-1.5351044
230,1778316136.2718859,-2.915597,0.78986317,1.1281756,-5.244278,1.2702943,-1.0670289
231,1778316136.2818322,-2.6160674,0.76589835,1.2081803,-4.871192,1.1578951,-0.6270532
232,1778316136.2919471,-2.0620105,0.76522756,1.2889166,-4.405255,1.0824533,-0.3492622
233,1778316136.30181,-1.7991904,0.7751062,1.3121498,-4.0872993,1.0412198,-0.28130344
234,1778316136.3120034,-1.428498,0.77974063,1.293734,-3.5184312,0.9324858,-0.28298333
235,1778316136.3216727,-1.144701,0.7649227,1.1995821,-2.972012,0.75533485,-0.3381139
236,1778316136.332206,-1.144701,0.7649227,1.1995821,-2.972012,0.75533485,-0.3381139
237,1778316136.3419502,-0.71717596,0.68607664,0.9504213,-2.1888828,0.3817908,-0.37766743
238,1778316136.3520355,-0.5613132,0.6582701,0.8756608,-1.9643899,0.2744312,-0.3810272
239,1778316136.3620236,-0.38746163,0.63332963,0.7998637,-1.7182112,0.1693624,-0.42485678
240,1778316136.3719506,-0.30020046,0.61527985,0.7280913,-1.504103,0.09315695,-0.5151121
241,1778316136.3821568,-0.29995653,0.6129016,0.6690634,-1.3129021,0.017256944,-0.5757405
242,1778316136.3921368,-0.30983517,0.6278415,0.63143927,-1.1455251,-0.027794369,-0.5484043
243,1778316136.4022222,-0.30953026,0.6426595,0.58497316,-0.91156363,-0.08093964,-0.43585235
244,1778316136.4120624,-0.26946694,0.6553431,0.50380987,-0.7264715,-0.118202426,-0.3352123
245,1778316136.4221816,-0.2139759,0.658514,0.39587677,-0.52687126,-0.20066923,-0.24419338
246,1778316136.4320028,-0.19306004,0.6719294,0.27086946,-0.37873647,-0.32711834,-0.16737708
247,1778316136.441727,-0.19007207,0.6976017,0.16092403,-0.2939789,-0.43508878,-0.07315111
248,1778316136.4519565,-0.1829375,0.7385797,0.00060979166,-0.2680171,-0.5484043,0.14737125
249,1778316136.4620793,-0.16531453,0.75065356,-0.090249166,-0.3387248,-0.5522222,0.33017266
250,1778316136.472017,-0.16958307,0.7569954,-0.17129049,-0.52610767,-0.5143485,0.57833666
251,1778316136.4818356,-0.187328,0.76004434,-0.22684251,-0.8000808,-0.5187773,0.8614727
252,1778316136.492151,-0.19568215,0.7599224,-0.25074634,-1.1684325,-0.6195701,1.1125383
253,1778316136.5019403,-0.19568215,0.7599224,-0.25074634,-1.1684325,-0.6195701,1.1125383
254,1778316136.5117457,-0.2464778,0.7637641,-0.1823887,-1.785559,-0.9257663,1.4309518
255,1778316136.522172,-0.33495858,0.7392504,-0.05079565,-2.2282836,-1.2857187,1.7437148
256,1778316136.5320563,-0.32361645,0.67388076,0.11165286,-2.4173465,-1.6546812,2.021964
257,1778316136.542243,-0.23458686,0.61314553,0.24306297,-2.4912612,-2.0570886,2.16399
258,1778316136.551751,-0.19708468,0.5894856,0.3612406,-2.4648414,-2.3130412,2.166281
259,1778316136.5617154,-0.27611366,0.5989374,0.5457026,-2.2589796,-2.4631615,2.1180224
260,1778316136.5716991,-0.41496322,0.67046595,0.7332745,-1.8553505,-2.3602307,2.0318906
261,1778316136.5821187,-0.53436047,0.8004736,0.8960279,-1.3516921,-2.000889,1.8594738
262,1778316136.5917192,-0.72638386,1.0280478,1.1274438,-0.93416566,-1.5467108,1.6001616
263,1778316136.601873,-1.1168334,1.288124,1.3952034,-0.4717407,-0.9222538,1.0853548
264,1778316136.6121802,-1.5180154,1.4170948,1.5449072,-0.22571471,-0.65836,0.77656245
265,1778316136.622195,-1.5180154,1.4170948,1.5449072,-0.22571471,-0.65836,0.77656245
266,1778316136.632309,-3.3783677,1.5779579,2.0492659,0.5723807,-0.9390526,0.768163
267,1778316136.642086,-3.840468,1.469293,2.210129,1.0844386,-1.4167492,1.244638
268,1778316136.651992,-3.9428518,1.2884898,2.18092,1.6584991,-1.8009834,1.6713274
269,1778316136.6619554,-3.8041854,0.96725154,1.8917567,2.4333818,-2.1533,2.1687243
270,1778316136.6717443,-3.3980641,0.60692567,1.4412426,3.0750957,-2.2463043,2.6106853
271,1778316136.6817744,-2.8469954,0.27916262,0.97804487,3.5256088,-2.0610592,2.9019153
272,1778316136.6921415,-2.4130068,0.07293109,0.6542455,3.7479637,-1.6925548,3.0149255
273,1778316136.702078,-2.119087,-0.04908823,0.4476481,3.862501,-1.2014192,3.042567
274,1778316136.7120354,-1.6970502,-0.21110988,0.16543648,3.8730383,-0.49128836,3.012024
275,1778316136.72218,-1.3408709,-0.3521547,-0.043051295,3.77698,0.051923547,2.9659035
276,1778316136.732219,-1.0282307,-0.47374716,-0.18141302,3.5451565,0.5890268,2.886491
277,1778316136.742089,-1.0282307,-0.47374716,-0.18141302,3.5451565,0.5890268,2.886491
278,1778316136.751742,-0.40764573,-0.64192766,-0.34447134,2.7782152,1.077719,2.6024387
279,1778316136.7617176,-0.044331856,-0.69565034,-0.49021152,2.2618814,1.0239629,2.3145685
280,1778316136.7720027,0.23184279,-0.72943276,-0.64912325,1.5599971,0.8063421,1.8855883
281,1778316136.781717,0.37880257,-0.74351895,-0.6342443,0.8176431,0.8370381,1.4016303
282,1778316136.7917154,0.44075742,-0.71845657,-0.6057671,0.32085696,1.142318,1.0361801
283,1778316136.8018742,0.45008725,-0.7017483,-0.58296084,-0.10323623,1.5077682,0.73716164
284,1778316136.8118296,0.44478208,-0.71876144,-0.56917953,-0.6261369,1.8428277,0.463494
285,1778316136.8218575,0.43319598,-0.7966318,-0.5358849,-1.0645854,1.9382755,0.27473664
286,1778316136.831875,0.40575537,-0.9000525,-0.44728217,-1.6290249,1.8484782,0.07788532
287,1778316136.8417163,0.40575537,-0.9000525,-0.44728217,-1.6290249,1.8484782,0.07788532
288,1778316136.852238,0.41721946,-1.0679282,-0.12171442,-2.475226,1.0393872,-0.25060746
289,1778316136.8616898,0.47039333,-1.0924418,0.02420873,-2.547919,0.67164636,-0.42714754
290,1778316136.8718505,0.49258974,-1.1168334,0.100432694,-2.3591616,0.48288897,-0.6267477
291,1778316136.8818629,0.59290045,-1.1357371,0.12665373,-2.0538816,0.52931476,-0.81245077
292,1778316136.8916857,0.6940039,-1.1129917,0.100432694,-1.6572775,0.75441855,-1.0630583
293,1778316136.9020777,0.7768136,-1.074209,-0.0131715005,-1.0180069,1.4164438,-1.6097827
294,1778316136.9121692,0.7392504,-1.0437804,-0.14891112,-0.56413406,2.1018345,-2.1285598
295,1778316136.9217863,0.6751004,-1.0346946,-0.2566613,-0.56413406,2.1018345,-2.1285598
296,1778316136.9318528,0.45136783,-1.0417681,-0.45807552,-0.30176744,3.0036244,-2.9848404
297,1778316136.9420798,0.45136783,-1.0417681,-0.45807552,-0.30176744,3.0036244,-2.9848404
298,1778316136.952047,-0.32593364,-1.0170716,-0.7565685,-1.0876455,3.4443636,-4.016134
299,1778316136.9620779,-0.93048114,-0.8326705,-0.73120123,-1.7994562,3.4750597,-4.506353
300,1778316136.9721317,-1.5352725,-0.61759704,-0.64558643,-2.5584564,3.5876117,-4.9513683
301,1778316136.9818969,-2.4714246,-0.38618106,-0.44862375,-3.1731396,3.7581956,-5.216331
302,1778316136.9921722,-3.5114243,-0.17281497,-0.18446198,-3.869373,3.8536434,-5.4304395
303,1778316137.0017433,-4.5380087,0.23830658,0.23525764,-4.411058,3.535688,-5.474574
304,1778316137.0121517,-4.5380087,0.23830658,0.23525764,-4.5819473,2.9830077,-5.183192
305,1778316137.0218887,-6.0647445,1.0174373,1.080246,-4.3893723,2.3142629,-4.4408374
306,1778316137.0318518,-6.3820186,1.2372063,1.3808123,-3.7067304,1.4946345,-2.9422324
307,1778316137.0417726,-6.3820186,1.2372063,1.3808123,-3.7067304,1.4946345,-2.9422324
308,1778316137.051803,-4.8858337,1.6364979,1.4292297,-1.6317738,0.11484267,-0.12034045
309,1778316137.0619602,-3.7830865,1.6003982,1.2524511,-0.5899431,0.01985312,0.4268421
310,1778316137.0717323,-3.0427384,1.443316,0.9958508,0.13041973,0.10919216,0.56153786
311,1778316137.0821211,-3.0427384,1.443316,0.9958508,0.13041973,0.10919216,0.56153786
312,1778316137.091817,-2.0258498,1.1481768,0.46069762,0.8170323,0.45081854,0.72082096
313,1778316137.1021454,-1.1154919,1.0035341,0.011951917,0.8028296,0.9949468,0.8492554
314,1778316137.112018,-0.8348658,0.9210903,-0.11634825,0.60231316,1.149343,0.7835874
315,1778316137.1217701,-0.73144513,0.84023196,-0.16086306,0.30787608,1.2370021,0.7273878
316,1778316137.1320758,-0.5224695,0.7680326,-0.21592724,-0.12583824,1.1603385,0.7121162
317,1778316137.1420476,-0.35752088,0.6836984,-0.19080381,-0.59742624,0.99128157,0.72189003
318,1778316137.152264,-0.35752088,0.6836984,-0.19080381,-0.59742624,0.99128157,0.72189003
319,1778316137.1617315,-0.06183288,0.50948095,-0.08823685,-1.4749341,0.43249258,0.73853606
320,1778316137.1716754,0.051771317,0.46002686,-0.029087063,-1.7611245,0.129198,0.7307475
321,1778316137.1821625,0.18537667,0.41996354,0.057747275,-2.0254765,-0.23747386,0.7145596
322,1778316137.1919937,0.2918463,0.40447482,0.15561883,-2.1508565,-0.5129741,0.66889745
323,1778316137.2021358,0.3456909,0.40538952,0.22964753,-2.1427627,-0.6253733,0.6094908
324,1778316137.2120733,0.37520483,0.41557303,0.2983101,-2.0102048,-0.6209445,0.54382277
325,1778316137.221742,0.37727812,0.4182561,0.33294627,-1.8759671,-0.5674938,0.5181664
326,1778316137.2321327,0.36575305,0.41996354,0.36855808,-1.6024523,-0.44837508,0.50625455
327,1778316137.2420971,0.36575305,0.41996354,0.36855808,-1.2490667,-0.33857206,0.5513059
328,1778316137.2518983,0.2728208,0.4136217,0.37124115,-0.97219205,-0.32467487,0.66691214
329,1778316137.2619863,0.2728208,0.4136217,0.37124115,-0.97219205,-0.32467487,0.66691214
330,1778316137.2721472,0.21732976,0.38331506,0.36276507,-0.5537493,-0.45372015,0.9783007
331,1778316137.2821805,0.16482669,0.35806966,0.3825833,-0.34376442,-0.6038403,1.16492
332,1778316137.29211,0.110860124,0.33379996,0.3975232,-0.11178834,-0.82833326,1.368949
333,1778316137.301915,0.110860124,0.33379996,0.3975232,-0.11178834,-0.82833326,1.368949
334,1778316137.311882,0.013354438,0.27446723,0.36014298,0.32085696,-1.1754575,1.658041
335,1778316137.3220427,-0.21409786,0.24196534,0.30233473,0.59971696,-1.3289373,1.9054414
336,1778316137.3321712,-0.37764397,0.26586917,0.29373667,0.8570439,-1.361924,2.3800838
337,1778316137.3421109,-0.608877,0.45649004,0.23483077,0.8570439,-1.361924,2.3800838
338,1778316137.3520994,-0.8279142,0.5508248,0.09018819,1.219287,-1.1592696,3.617544
339,1778316137.362216,-0.77931374,0.63851285,-0.17488825,1.219287,-1.1592696,3.617544
340,1778316137.3719141,-0.46880785,0.9570071,-0.44276974,0.6258314,-1.2495248,4.4548874
341,1778316137.382137,-0.05799119,1.4173998,-0.5860708,-0.2098322,-1.5793921,3.9745948
342,1778316137.3921804,0.275138,2.022191,-0.36483836,-1.6067283,-2.44453,2.4810293
343,1778316137.401959,-0.1999507,2.2541559,0.24373372,-2.5019512,-3.0486758,1.0774136
344,1778316137.4118295,-1.0431097,2.440813,0.9212733,-2.948952,-3.320358,0.12095132
345,1778316137.4219882,-2.0135932,2.5796626,1.5360652,-2.8376217,-3.3631186,-0.35918877
346,1778316137.4316998,-3.0910342,2.4630706,2.1987867,-2.8376217,-3.3631186,-0.35918877
347,1778316137.441925,-3.6914349,2.210373,2.8282747,-1.4340062,-1.9824104,0.29123
348,1778316137.4519544,-4.0385284,1.7973,2.7266834,0.28069258,-0.8481864,1.0961977
349,1778316137.4620478,-4.0694447,1.4647197,2.4886818,0.28069258,-0.8481864,1.0961977
350,1778316137.471895,-3.808027,1.0815265,2.1201847,3.6340373,-1.9478966,2.189799
351,1778316137.4818158,-3.808027,1.0815265,2.1201847,4.8295007,-2.1126773,2.708271
352,1778316137.4917505,-2.2267764,0.37361938,0.57844836,5.201976,-2.1178699,2.8858802
353,1778316137.502218,-1.7718716,0.12519024,0.14464259,4.897612,-1.7151569,2.7548494
354,1778316137.5116792,-1.3672749,-0.1557408,-0.3351415,3.7636936,-0.8063421,2.644741
355,1778316137.5220575,-1.3672749,-0.1557408,-0.3351415,3.7636936,-0.8063421,2.644741
356,1778316137.53173,-0.8947473,-0.42959824,-0.3825223,1.7066047,-0.046883907,2.7305677
357,1778316137.5417566,-0.62991476,-0.485821,-0.22415942,1.1407908,-0.05681047,2.6693285
358,1778316137.5521407,-0.32361645,-0.5643012,-0.039880376,0.5235115,0.018936822,2.4071145
359,1778316137.5620828,-0.13439809,-0.6076574,0.060552314,0.2996294,0.055588737,2.1783454
360,1778316137.5716743,0.07165052,-0.65759933,0.13116619,0.21395555,-0.0035124752,1.835192
361,1778316137.581995,0.22885482,-0.68540585,0.14128873,0.23548855,-0.02275473,1.4387404
362,1778316137.5920033,0.3474593,-0.6943698,0.11720196,0.26618454,0.049785517,1.104139
363,1778316137.6018293,0.45728278,-0.70095557,0.08433419,0.3193298,0.2302962,0.67347896
364,1778316137.6122403,0.52582335,-0.70644367,0.069577225,0.41706824,0.6056729,0.2574797
365,1778316137.621893,0.5613132,-0.71577346,0.06274756,0.51893,0.9925033,-0.07651087
366,1778316137.6318626,0.5587521,-0.7349819,0.033599522,0.6543894,1.3776538,-0.49281552
367,1778316137.642123,0.52307934,-0.74888515,-0.0037807084,0.74021596,1.5416712,-0.8098546
368,1778316137.6518972,0.46734434,-0.7560197,-0.0582351,0.8000808,1.593442,-1.1566733
369,1778316137.6620996,0.4233174,-0.76230055,-0.11811664,0.79152864,1.5428929,-1.4756978
370,1778316137.6722503,0.3875226,-0.778704,-0.17202222,0.7096727,1.4121678,-1.8000672
371,1778316137.6819432,0.36550912,-0.77449644,-0.2037314,0.59666264,1.2380711,-2.0126483
372,1778316137.6920154,0.35556954,-0.7665081,-0.25306356,0.41462478,0.978148,-2.3138049
373,1778316137.7018733,0.35556954,-0.7582759,-0.2628812,0.29336804,0.83459467,-2.5068383
374,1778316137.7121863,0.34312975,-0.79016805,-0.20452413,0.21945333,0.8078693,-2.7522533
375,1778316137.7217705,0.32416525,-0.72083473,-0.20598765,0.30818152,0.93676186,-3.0115657
376,1778316137.7320294,0.32416525,-0.72083473,-0.20598765,0.30818152,0.93676186,-3.0115657
377,1778316137.7419035,0.1629973,-0.7134563,-0.3588624,0.29565877,1.1030699,-3.5811975
378,1778316137.7520049,-0.036343586,-0.84706163,-0.42087823,0.18936823,1.1439979,-3.9197695
379,1778316137.7620065,-0.22001283,-0.8863932,-0.468442,0.18936823,1.1439979,-3.9197695
380,1778316137.7722323,-0.31514034,-0.7972416,-0.6600995,-0.17608191,1.1339186,-4.4742823
381,1778316137.7820997,-0.49759,-0.7019922,-0.89261305,-0.7985536,1.0772609,-5.089271
382,1778316137.7921233,-1.036036,-0.66430706,-0.98145974,-1.5746579,1.2666291,-5.735261
383,1778316137.8017619,-1.893525,-0.5499101,-0.9209074,-2.6671903,1.5183055,-6.399119
384,1778316137.8118181,-2.9806008,-0.39337662,-0.6084501,-3.6473236,1.8602374,-6.5623727
385,1778316137.8218102,-3.9346807,-0.08451713,-0.063235395,-3.6473236,1.8602374,-6.5623727
386,1778316137.832177,-4.4009886,0.16507061,0.3150184,-4.204433,2.3747387,-5.8800364
387,1778316137.8418393,-5.028952,0.59405905,0.87810004,-3.745062,2.5815165,-5.2242723
388,1778316137.852145,-5.028952,0.59405905,0.87810004,-3.745062,2.5815165,-5.2242723
389,1778316137.8618507,-5.4754415,1.202936,1.1741538,-1.9410243,1.9561433,-3.5289686
390,1778316137.8719232,-4.9879737,1.3861785,0.9059065,-1.2202033,0.929126,-2.2840252
391,1778316137.8817604,-4.21549,1.4076431,0.6255243,-0.98944896,0.26297748,-1.3142766
392,1778316137.8921888,-3.0881069,1.2822089,0.30154198,-1.1158981,-0.23701571,-0.4729624
393,1778316137.9019213,-2.151467,1.0898197,0.101408355,-1.5048665,-0.601855,-0.15806139
394,1778316137.9118855,-1.5212473,0.9246272,0.03195308,-1.9201022,-0.8743009,-0.100334615
395,1778316137.922069,-1.1869595,0.8391954,0.04744179,-2.1768184,-0.9680687,-0.13744467
396,1778316137.9317563,-1.1869595,0.8391954,0.04744179,-2.1768184,-0.9680687,-0.13744467
397,1778316137.9420412,-0.8143768,0.7701669,0.2680644,-2.450486,-0.6062838,-0.3932445
398,1778316137.9521163,-0.75211704,0.77083766,0.3752658,-2.4040601,-0.36774087,-0.4289801
399,1778316137.9619882,-0.75211704,0.77083766,0.3752658,-2.4040601,-0.36774087,-0.4289801
400,1778316137.9718232,-0.66363627,0.76998395,0.46874684,-2.244777,-0.16523905,-0.38698313
401,1778316137.9819643,-0.43850118,0.7768136,0.5545445,-1.90086,-0.08735373,-0.12873985
402,1778316137.9924235,-0.27824792,0.81504756,0.5914369,-1.6980526,-0.1498147,0.047647487
403,1778316138.002128,-0.10927467,0.83956116,0.6113771,-1.4848607,-0.26007587,0.17547104
404,1778316138.012107,0.03683142,0.8612698,0.6524161,-1.2686144,-0.35506544,0.20769419
405,1778316138.0219522,0.12281204,0.8982231,0.7158345,-1.0648909,-0.39293906,0.19547687
406,1778316138.0322783,0.12281204,0.8982231,0.7158345,-1.0648909,-0.39293906,0.19547687
407,1778316138.041878,0.17958365,0.94139636,0.825597,-0.6950119,-0.4007276,0.16523905
408,1778316138.0517383,0.08494398,0.9964606,0.9615195,0.24877487,-0.38163805,0.15332718
409,1778316138.061669,0.08494398,0.9964606,0.9615195,0.24877487,-0.38163805,0.15332718
410,1778316138.0717628,-0.1642169,0.9564582,0.95359224,1.4605788,-0.5027421,0.41691554
411,1778316138.0818686,-0.21586627,0.97828877,0.93109095,1.9879082,-0.42836925,0.69714993
412,1778316138.0917423,-0.3325194,0.94194525,0.7321159,2.564565,-0.4728097,1.0903945
413,1778316138.1022108,-0.3869738,0.8171818,0.5321652,2.8678596,-0.57436603,1.5050193
414,1778316138.1117609,-0.4299641,0.74540937,0.38301015,2.9816332,-0.7635816,1.89918
415,1778316138.122106,-0.47289345,0.7250423,0.24672171,2.9382617,-1.0264063,2.1943808
416,1778316138.1319616,-0.44051352,0.7086389,0.19696271,2.8128817,-1.2548699,2.290592
417,1778316138.1417456,-0.44051352,0.7086389,0.19696271,2.8128817,-1.2548699,2.290592
418,1778316138.1517541,-0.4200855,0.72327393,0.19781642,2.7013988,-1.4472924,2.2872322
419,1778316138.1618612,-0.47722298,0.8592574,0.24086772,2.4492643,-1.4782939,1.7076738
420,1778316138.171831,-1.4262418,1.6445472,0.5318603,2.4686592,-1.0821478,1.290911
421,1778316138.1818805,-2.2590954,2.0000558,0.7403481,2.5485299,-0.8258898,1.1410962
422,1778316138.1920993,-3.6047833,2.2670226,0.9730446,2.7991374,-0.68600166,1.8093829
423,1778316138.202078,-4.5165443,2.1007323,1.1231143,3.2183435,-0.7154759,3.3976326
424,1778316138.211728,-4.610879,1.8126059,1.182508,3.627165,-0.8378017,4.720919
425,1778316138.2219732,-4.130241,1.478013,1.1053084,4.191299,-1.178359,5.784894
426,1778316138.2320483,-4.130241,1.478013,1.1053084,4.191299,-1.178359,5.784894
427,1778316138.2418363,-3.681983,1.2204981,0.7027849,4.500244,-0.98624194,5.746562
428,1778316138.2516687,-3.681983,1.2204981,0.7027849,4.500244,-0.98624194,5.746562
429,1778316138.2617455,-3.6724703,0.5697284,0.17921777,3.9719985,-0.19181168,6.1509547
430,1778316138.2719533,-3.3944664,0.20208496,0.039819397,3.0708196,-0.088422745,6.478837
431,1778316138.2819562,-3.0279815,-0.18830366,0.009695687,2.415514,-0.31429017,6.578255
432,1778316138.2921925,-3.0279815,-0.18830366,0.009695687,2.415514,-0.31429017,6.578255
433,1778316138.30192,-3.0279815,-0.18830366,0.009695687,2.415514,-0.31429017,6.578255
434,1778316138.3122513,-1.5527126,-1.1235411,0.031282313,0.42287147,-1.406059,6.147748
435,1778316138.3218925,-1.123968,-1.2376941,0.06726002,0.08689558,-1.6293303,5.836512
436,1778316138.3319197,-0.62589014,-1.2944047,0.15878975,-0.172264,-1.7354681,5.31972
437,1778316138.3420534,-0.62589014,-1.2944047,0.15878975,-0.172264,-1.7354681,5.31972
438,1778316138.351827,0.09256637,-1.2329378,0.33483663,-0.016187929,-1.3979651,4.2197046
439,1778316138.3619857,0.09256637,-1.2329378,0.33483663,-0.016187929,-1.3979651,4.2197046
440,1778316138.3721554,0.6249145,-0.98810637,0.31044495,0.84513205,-0.16065755,2.3632848
441,1778316138.3822198,0.74656796,-0.9967655,0.18629137,1.0914634,0.22708915,1.751656
442,1778316138.3920815,0.8659651,-1.0871977,0.022318374,1.1930199,0.5242751,1.0473285
443,1778316138.4020224,0.91468745,-1.1522014,-0.06854059,1.118647,0.6348417,0.5308419
444,1778316138.4119022,0.9197487,-1.2053752,-0.13500789,0.9595166,0.7087564,-0.02397646
445,1778316138.4222312,0.89212525,-1.3131863,-0.2063535,0.7770206,0.7796168,-0.4550946
446,1778316138.4321852,0.9131021,-1.4402059,-0.289834,0.5635232,0.8011498,-0.7684685
447,1778316138.4419203,1.010059,-1.5080148,-0.3583136,0.3034473,0.7812967,-1.0983357
448,1778316138.4520047,1.010059,-1.5080148,-0.3583136,0.11942416,0.8029824,-1.3775011
449,1778316138.4616907,1.0751237,-1.5448463,-0.38453463,0.11942416,0.8029824,-1.3775011
450,1778316138.472109,1.1461035,-1.6284487,-0.39727926,-0.18860464,0.84406304,-1.9338466
451,1778316138.4820335,1.209034,-1.6633286,-0.34934965,-0.4381431,1.0595458,-3.3637295
452,1778316138.491858,1.0618912,-1.6876595,-0.27032065,-0.3567453,1.3646729,-4.1549525
453,1778316138.5019221,0.8088277,-1.7228444,-0.2807481,-0.19700404,1.9666806,-4.8146873
454,1778316138.511847,0.48874804,-1.7538828,-0.26178357,0.045662176,2.7139215,-5.177083
455,1778316138.522171,-0.12903193,-1.694855,-0.22665958,0.82879144,4.618752,-5.4921365
456,1778316138.5316882,-0.12903193,-1.694855,-0.22665958,0.82879144,4.618752,-5.4921365
457,1778316138.541903,-0.7166272,-1.6180823,-0.30837163,1.6475036,6.20914,-5.5585685
458,1778316138.5522885,-1.1962893,-1.5332602,-0.658697,1.8031214,6.4521112,-5.696624
459,1778316138.5618486,-1.1962893,-1.5332602,-0.658697,1.8031214,6.4521112,-5.696624
460,1778316138.5721836,-1.841205,-0.9849355,-1.3744096,-0.79733187,2.0007365,-6.9316406
461,1778316138.5822153,-2.5641742,-0.75455624,-1.2657446,-0.79733187,2.0007365,-6.9316406
462,1778316138.5921865,-3.5312426,-0.35203275,-0.5836316,-4.2922444,-2.9116893,-8.798903
463,1778316138.6018822,-4.6494784,0.275138,0.10451829,-4.3756275,-2.962391,-9.1726
464,1778316138.6120136,-4.6494784,0.275138,0.10451829,-3.5080464,-2.147955,-8.759655
465,1778316138.6219003,-7.061815,1.6489986,1.3041614,-1.7119498,-0.9569204,-7.3422947
466,1778316138.6320148,-6.9852242,2.0070074,1.1736051,0.14156802,-0.5102252,-5.435937
467,1778316138.642049,-6.2190213,2.178542,0.76382506,1.1313224,-0.79733187,-4.1314344
468,1778316138.6520479,-5.0389524,2.1914084,0.22604977,1.46852,-1.2302825,-3.0288227
469,1778316138.661892,-4.2770176,2.0786579,-0.11921428,1.2574661,-1.4414892,-2.446668
470,1778316138.6719692,-3.5261812,1.8744996,-0.4115484,0.8035932,-1.543351,-1.7104226
471,1778316138.6822007,-2.6800954,1.6512548,-0.62735367,0.29794952,-1.5082263,-0.8938486
472,1778316138.6921368,-1.8292531,1.4866722,-0.74754363,-0.37094793,-1.4175128,-0.38240165
473,1778316138.7020404,-1.305686,1.3792268,-0.7264448,-1.0114402,-1.4191927,-0.30390546
474,1778316138.71168,-0.92749316,1.2522072,-0.56735015,-1.7681495,-1.5057828,-0.38698313
475,1778316138.7221043,-0.7469948,1.1639094,-0.32367742,-2.3254113,-1.5593863,-0.43600506
476,1778316138.7316947,-0.64845246,1.1162236,-0.13622746,-2.5679247,-1.5844318,-0.36086863
477,1778316138.7418888,-0.47990605,1.0781116,0.026099084,-2.6468792,-1.6331482,-0.1423316
478,1778316138.7518318,-0.27465016,1.0484759,0.13122717,-2.5708263,-1.6649132,0.086132
479,1778316138.7621248,-0.14988679,1.0502442,0.18458393,-2.4194846,-1.6397151,0.24281894
480,1778316138.7721648,0.079089984,1.0793923,0.24775836,-2.1297817,-1.483028,0.41172317
481,1778316138.7820015,0.24172144,1.0790263,0.27721128,-1.7707456,-1.19134,0.5328272
482,1778316138.792055,0.3430078,1.0620742,0.30245668,-1.3739886,-0.80741113,0.6093381
483,1778316138.8022149,0.40258446,1.0198766,0.3523986,-0.9286679,-0.42959097,0.65377855
484,1778316138.8120487,0.3890471,0.96786135,0.38307112,-0.54076844,-0.1479821,0.7087564
485,1778316138.8219624,0.35495973,0.91511434,0.37861964,-0.060628377,0.15699236,0.8364272
486,1778316138.8319616,0.31142062,0.8382807,0.34611776,0.27885997,0.34025195,0.97295564
487,1778316138.8416734,0.2669668,0.76041025,0.30824968,0.62598413,0.46914452,1.1684325
488,1778316138.8519197,0.21915914,0.7172979,0.2847727,0.783282,0.5001459,1.295798
489,1778316138.8621485,0.1381178,0.6398544,0.23818462,0.9841039,0.45631635,1.5346462
490,1778316138.8717797,0.04542948,0.55369085,0.19220634,1.0823005,0.30176744,1.8052595
491,1778316138.8817666,-0.06713806,0.4724056,0.15641156,1.1016954,0.047800206,2.179567
492,1778316138.8921795,-0.15348457,0.3945352,0.11378712,1.0552697,-0.18280143,2.54685
493,1778316138.9020643,-0.16665606,0.3463007,0.1214705,0.9445504,-0.3510948,2.9631546
494,1778316138.9122765,-0.07476046,0.4078287,0.21007323,0.90133166,-0.39950588,3.2572863
495,1778316138.9217482,0.15927759,0.68674743,0.39337662,0.99082345,-0.3275765,3.2856915
496,1778316138.9320326,0.24836816,1.0482929,0.59204674,0.99082345,-0.3275765,3.2856915
497,1778316138.9416695,-0.040307228,1.5492977,0.82267,1.4479034,0.17898351,1.8916969
498,1778316138.9521325,-0.040307228,1.5492977,0.82267,1.4479034,0.17898351,1.8916969
499,1778316138.9621348,-1.8960252,2.1790905,1.1987286,2.0705278,0.66798115,0.44303003
500,1778316138.9721959,-3.4292245,2.3863587,1.399106,2.678186,0.6597345,0.5458081
501,1778316138.982066,-4.6237454,2.40325,1.39624,3.424358,0.27015516,1.8107573
502,1778316138.9919178,-4.8874197,2.3087323,1.1838496,3.8825068,-0.50594914,3.0059152
503,1778316139.002247,-4.808268,2.0828655,0.8360854,4.025602,-1.1592696,3.6494617
504,1778316139.0117693,-4.531972,1.7868115,0.51131034,3.972915,-1.7708983,4.094477
505,1778316139.022186,-4.259761,1.4178267,0.15385045,3.696651,-1.9651535,4.4286203
506,1778316139.0316777,-3.93651,1.033414,-0.09232246,3.3389895,-1.8975002,4.759557
507,1778316139.042254,-3.377758,0.57088697,-0.31898203,2.720183,-1.7989981,5.115233
508,1778316139.0521157,-2.9194996,0.2596493,-0.41673166,1.9100229,-1.826029,5.21572
509,1778316139.0617483,-2.5129516,-0.0065857503,-0.42154896,1.3831517,-1.8979583,5.1532593
510,1778316139.0721233,-2.5129516,-0.0065857503,-0.42154896,1.3831517,-1.8979583,5.1532593
511,1778316139.0821207,-1.7991294,-0.5582033,-0.21812248,-0.16829337,-2.561358,4.6862526
512,1778316139.0918517,-1.4640489,-0.7943756,-0.10348164,-0.47342056,-2.7860036,4.585307
513,1778316139.101762,-1.0826851,-0.9612146,0.015427729,-0.62964934,-2.9303205,4.457178
514,1778316139.11217,-0.69790655,-1.0836607,0.12573905,-0.5334381,-2.8997774,4.2496367
515,1778316139.1217067,-0.34325173,-1.170983,0.23287943,-0.17989981,-2.5799894,3.9339721
516,1778316139.1318464,-0.09829842,-1.1954966,0.29641974,0.27382034,-2.0349448,3.5932622
517,1778316139.1420996,0.11146992,-1.1769589,0.3070911,0.9763154,-1.128879,3.1270192
518,1778316139.1521804,0.2250741,-1.191045,0.24788031,1.6949984,-0.1872302,2.692236
519,1778316139.1621768,0.34325173,-1.2328769,0.11720196,2.0479257,0.32650748,2.434298
520,1778316139.1722383,0.5107615,-1.279099,-0.07451654,2.3861923,0.9611965,1.9788979
521,1778316139.1818073,0.5107615,-1.279099,-0.07451654,2.3861923,0.9611965,1.9788979
522,1778316139.1917555,0.8219992,-1.3186135,-0.44417223,2.1930063,1.359786,0.8622363
523,1778316139.2017524,0.9354204,-1.291051,-0.56411827,1.738828,1.3284792,0.20433442
524,1778316139.2121785,0.9823744,-1.2553172,-0.6181458,1.1742357,1.2750285,-0.5102252
525,1778316139.221994,0.96542215,-1.2288522,-0.6036937,0.5645922,1.2215778,-1.2134838
526,1778316139.2319994,0.8985281,-1.2167174,-0.5426536,0.11377365,1.1435398,-1.8483255
527,1778316139.2417579,0.76845944,-1.2225103,-0.46283188,-0.3631594,1.0493138,-2.2983804
528,1778316139.252118,0.6558919,-1.2098267,-0.38996178,-0.72189003,1.1055133,-2.7699685
529,1778316139.2617111,0.59613234,-1.1954966,-0.3699606,-0.88224214,1.2139419,-3.011871
530,1778316139.2722437,0.48472342,-1.1789103,-0.36935082,-1.1262828,1.4472924,-3.3699908
531,1778316139.2822297,0.48472342,-1.1789103,-0.36935082,-1.1262828,1.4472924,-3.3699908
532,1778316139.291839,0.1788519,-1.1851301,-0.44276974,-1.7962493,1.7851009,-4.0405684
533,1778316139.3021004,-0.035428897,-1.2063509,-0.48704064,-2.2962425,1.9228511,-4.3208027
534,1778316139.3121676,-0.25544173,-1.197204,-0.51393247,-2.7652342,2.02792,-4.517959
535,1778316139.3218038,-0.68071043,-1.1273218,-0.53057975,-3.6268597,2.0147862,-4.785518
536,1778316139.3321114,-0.9823744,-1.0440243,-0.41831708,-4.2919393,1.7069103,-5.000085
537,1778316139.3420467,-1.3734337,-0.9154193,-0.17257105,-4.904637,1.1753048,-5.3548446
538,1778316139.3519042,-2.112867,-0.6274756,0.16842447,-5.4208183,0.6927212,-5.884007
539,1778316139.3621774,-3.1638432,-0.14403279,0.6755272,-5.54406,0.9477574,-6.2625904
540,1778316139.3721886,-3.7333884,0.23025733,1.0076808,-5.349805,1.3177891,-6.314514
541,1778316139.3821144,-4.6822853,0.96694666,1.568811,-4.6343293,1.8851302,-6.106209
542,1778316139.3919134,-5.277869,1.486794,1.8346193,-3.6129625,1.9714148,-5.3898168
543,1778316139.4016788,-5.2498183,1.6736342,1.6531453,-2.7113254,1.4450017,-4.3832636
544,1778316139.4118013,-4.7081404,1.7268691,1.442828,-2.2481368,0.6478226,-3.5011742
545,1778316139.422203,-4.2221365,1.7933974,1.4086188,-2.0231857,0.13240504,-3.0192015
546,1778316139.4320178,-3.702899,1.841144,1.4188023,-1.6163495,-0.3746131,-2.5627325
547,1778316139.4421844,-3.2296395,1.7699203,1.2861116,-1.0855075,-0.7486154,-2.0416644
548,1778316139.4521723,-2.768942,1.6725366,1.0414022,-0.70112056,-0.86666507,-1.5418239
549,1778316139.4617577,-2.40014,1.6021667,0.8206576,-0.44929138,-0.82512623,-1.0210613
550,1778316139.471949,-1.627351,1.4821596,0.40081608,-0.38637227,-0.52610767,-0.4784602
551,1778316139.4817574,-1.1045157,1.3680067,0.134642,-0.56321776,-0.25717425,-0.34162638
552,1778316139.4917607,-0.769862,1.2450726,0.008476105,-0.95340794,0.047647487,-0.33093625
553,1778316139.501744,-0.59229064,1.1455547,0.029757833,-1.3735305,0.27550024,-0.37232238
554,1778316139.5118558,-0.51063955,1.0933565,0.120189935,-1.627345,0.40958515,-0.38728857
555,1778316139.5222144,-0.43130565,1.0307918,0.26343,-1.7734945,0.529162,-0.36377025
556,1778316139.532076,-0.33648303,0.974813,0.37239978,-1.7353154,0.61208695,-0.3277292
557,1778316139.5419831,-0.2720281,0.9341399,0.4305739,-1.6105462,0.6719518,-0.30680707
558,1778316139.5518036,-0.27910164,0.9096263,0.4927117,-1.3046554,0.84879726,-0.2519819
559,1778316139.5618432,-0.33727577,0.9230417,0.5278967,-1.021214,1.0332786,-0.11759156
560,1778316139.5721223,-0.3664848,0.9348107,0.5283235,-0.77686787,1.1850786,0.049021937
561,1778316139.5821023,-0.3664848,0.9348107,0.5283235,-0.31398472,1.5053247,0.4888449
562,1778316139.5919118,-0.286846,0.9054797,0.3766683,-0.31398472,1.5053247,0.4888449
563,1778316139.601792,-0.18940128,0.8757219,0.30349332,-0.013286319,1.5783231,1.180497
564,1778316139.6118033,-0.03457519,0.81846243,0.21678093,-0.121256754,1.2864822,1.5215126
565,1778316139.6219835,0.045551438,0.7709596,0.19306004,-0.29138273,0.9816604,1.6916386
566,1778316139.631901,0.1211656,0.72333485,0.23367217,-0.5300783,0.54901516,1.865277
567,1778316139.6418722,0.15507002,0.670222,0.3295924,-0.6834055,0.09773844,2.0115793
568,1778316139.6517663,0.17342475,0.6224753,0.43636695,-0.68936145,-0.35002577,2.1238258
569,1778316139.661719,0.1454963,0.56826484,0.49429715,-0.5991061,-0.6908886,2.1763601
570,1778316139.6717684,0.10951859,0.5429585,0.5086882,-0.44776422,-1.0464121,2.2322543
571,1778316139.6821842,0.057015523,0.5274088,0.5216158,-0.2648101,-1.3753631,2.2756257
572,1778316139.6918175,0.057015523,0.5274088,0.5216158,-0.2648101,-1.3753631,2.2756257
573,1778316139.7018504,-0.15049659,0.7051631,0.6710147,0.31642818,-2.0163136,2.0647244
574,1778316139.71183,-0.15049659,0.7051631,0.6710147,0.31642818,-2.0163136,2.0647244
575,1778316139.7218502,-0.63168323,1.1606774,0.9531044,1.0250319,-2.2026274,1.4862351
576,1778316139.731712,-1.1176262,1.5077709,1.1594579,1.5738943,-2.000889,1.1882856
577,1778316139.741877,-1.6550965,1.765103,1.2870872,2.0398319,-1.7763962,1.0839803
578,1778316139.751973,-2.3804438,1.9105383,1.4041673,2.5773933,-1.5905404,1.2486086
579,1778316139.7621393,-2.3804438,1.9105383,1.4041673,2.5773933,-1.5905404,1.2486086
580,1778316139.771709,-3.190186,1.7555293,1.6378394,3.710701,-1.5074627,2.0783162
581,1778316139.782229,-3.190186,1.7555293,1.6378394,3.710701,-1.5074627,2.0783162
582,1778316139.7920694,-3.2665932,1.6554625,1.6460106,4.9232683,-1.2826643,2.5335636
583,1778316139.8017998,-3.3144617,1.4825256,1.3971547,4.9232683,-1.2826643,2.5335636
584,1778316139.8121078,-3.1626844,1.0242671,0.42459795,5.3064337,-0.4813618,3.1684053
585,1778316139.8219035,-2.9630387,0.7575442,0.025123417,4.6890016,-0.13439035,3.5094209
586,1778316139.8320642,-2.7071092,0.48826018,-0.1539724,3.764457,-0.10552697,3.8012617
587,1778316139.8421273,-2.452826,0.26641798,-0.17391258,2.798679,-0.2611449,4.0257545
588,1778316139.8519332,-2.1044521,-0.018049834,-0.13214186,2.1044307,-0.4636467,4.1471643
589,1778316139.8621936,-1.7243689,-0.2804432,-0.0661624,1.3842206,-0.7199047,4.216345
590,1778316139.8717725,-1.7243689,-0.2804432,-0.0661624,1.3842206,-0.7199047,4.216345
591,1778316139.8817587,-1.3178208,-0.47679612,0.01683025,0.8706357,-0.95264435,4.179082
592,1778316139.8917508,-1.0720137,-0.5576545,0.059759583,0.66843927,-1.0613784,4.101197
593,1778316139.9019709,-0.67479545,-0.63942754,0.109762505,0.47235155,-1.1636983,3.8557813
594,1778316139.911908,-0.080614455,-0.71851754,0.13927643,0.45570546,-1.0218248,3.0561588
595,1778316139.9217966,0.14653294,-0.7250423,0.122751065,0.5673411,-0.7808385,2.5660923
596,1778316139.9318213,0.336605,-0.7068095,0.08122425,0.7031059,-0.46685377,2.0438025
597,1778316139.9421394,0.45173368,-0.6973577,0.03744121,0.82543164,-0.16752979,1.5166256
598,1778316139.951863,0.5730822,-0.7119318,-0.024635585,0.9094256,0.031306844,1.1065824
599,1778316139.961953,0.7056509,-0.73193294,-0.095493376,0.9828822,0.24648413,0.5874997
600,1778316139.9717333,0.8144378,-0.73662835,-0.1425693,1.0054842,0.4036292,0.12767084
601,1778316139.9820771,0.8872469,-0.74864125,-0.18019344,0.9984592,0.58291817,-0.52534413
602,1778316139.991719,0.8872469,-0.74864125,-0.18019344,0.9984592,0.58291817,-0.52534413
603,1778316140.0016677,0.8134621,-0.82565796,-0.24678269,0.9640981,0.70188415,-1.0726794
604,1778316140.0117128,0.67272216,-0.89560103,-0.26403978,0.77625704,0.91736686,-2.263103
605,1778316140.0220218,0.5368606,-0.9590804,-0.27007675,0.66355234,0.98837996,-2.6554313
606,1778316140.0321925,0.43563515,-0.99274087,-0.2754429,0.5564982,1.0259482,-2.9339857
607,1778316140.0417933,0.37813184,-1.004144,-0.30257863,0.43890667,0.956615,-3.151912
608,1778316140.0519435,0.36959475,-1.006888,-0.354228,0.27977628,0.7912232,-3.3399057
609,1778316140.0617664,0.3910594,-1.0021926,-0.45770964,0.07315111,0.6394232,-3.4993415
610,1778316140.0717542,0.41356072,-0.97639847,-0.5496662,-0.3182608,0.47510046,-3.7384953
611,1778316140.0818765,0.3876446,-0.9639587,-0.5921687,-0.3182608,0.47510046,-3.7384953
612,1778316140.0918474,0.2965417,-0.96944684,-0.61534077,-1.2027937,0.22418754,-4.2433753
613,1778316140.10185,0.2965417,-0.96944684,-0.61534077,-1.2027937,0.22418754,-4.2433753
614,1778316140.1117704,-0.21690291,-0.96536124,-0.5317993,-2.4811819,-0.16233744,-4.6557093
615,1778316140.1217616,-0.48911393,-0.9238344,-0.46368557,-3.0863967,-0.28802297,-4.7309985
616,1778316140.1319933,-0.65296495,-0.8521839,-0.33410487,-3.5043812,-0.26832256,-4.959768
617,1778316140.1421444,-1.071282,-0.69534546,-0.098725274,-3.887241,0.1255328,-5.620113
618,1778316140.1520452,-1.6768662,-0.5128958,0.15641156,-4.056756,0.7673995,-6.375906
619,1778316140.1617925,-2.2443383,-0.3488618,0.4422819,-4.02774,1.3278683,-7.0432763
620,1778316140.1722305,-3.3538542,-0.059027832,0.82895076,-3.7468946,1.8318322,-7.802429
621,1778316140.1819594,-4.364645,0.23995303,0.96658075,-3.334866,1.834581,-7.911316
622,1778316140.1917949,-5.5679464,0.7368113,1.1143333,-2.7666087,1.4243851,-7.09917
623,1778316140.2017994,-5.5679464,0.7368113,1.1143333,-2.7666087,1.4243851,-7.09917
624,1778316140.2122304,-5.817961,1.2537926,1.3998988,-1.4773777,-0.4549419,-2.7577512
625,1778316140.2216713,-4.5065436,1.3389806,0.9559704,-0.99128157,-1.6261233,-1.1791227
626,1778316140.2318966,-4.5065436,1.3389806,0.9559704,-0.99128157,-1.6261233,-1.1791227
627,1778316140.2417915,-4.5065436,1.3389806,0.9559704,-0.99128157,-1.6261233,-1.1791227
628,1778316140.2519064,-4.5065436,1.3389806,0.9559704,-0.99128157,-1.6261233,-1.1791227
629,1778316140.2618904,-1.6501573,1.1723244,0.58454627,-0.29275718,-1.4828753,-0.52213705
630,1778316140.2721696,-1.390081,1.1176872,0.529726,0.15057829,-0.87109387,-0.47143525
631,1778316140.2821965,-1.0995153,1.0662817,0.43972078,0.6979135,-0.04260785,-0.4335616
632,1778316140.292055,-0.90236974,1.03006,0.3561793,1.0845913,0.57726765,-0.4364632
633,1778316140.3018875,-0.90236974,1.03006,0.3561793,1.0845913,0.57726765,-0.4364632
634,1778316140.3119156,-0.679125,0.9822524,0.22476922,1.7259997,1.6190983,-0.5934556
635,1778316140.3220947,-0.67388076,0.971886,0.2034265,1.9497292,1.8309158,-0.59956425
636,1778316140.3321075,-0.66320944,0.9732885,0.19312102,2.1210768,1.898111,-0.55939984
637,1778316140.34209,-0.6144261,0.9836549,0.21781757,2.3156374,1.882534,-0.50778174
638,1778316140.3520594,-0.5868635,1.0148762,0.28483367,2.579684,1.8472565,-0.45540005
639,1778316140.3618822,-0.59204674,1.0399997,0.32367742,2.8648052,1.8341229,-0.37751472
640,1778316140.3722382,-0.6490623,1.0560373,0.31050593,3.2484286,1.813048,-0.17547104
641,1778316140.38184,-0.68766207,1.0532932,0.2628202,3.4428365,1.7715092,0.026725354
642,1778316140.3918018,-0.73101825,1.0603667,0.14384985,3.6406043,1.57084,0.572228
643,1778316140.4019246,-0.7930341,1.0529882,-0.023294043,3.5188892,1.1797335,1.0374019
644,1778316140.4122033,-0.7930341,1.0529882,-0.023294043,3.5188892,1.1797335,1.0374019
645,1778316140.4218812,-0.84370774,0.9326763,-0.14031307,2.7940977,-0.2322815,1.8819231
646,1778316140.431961,-0.8824905,0.89041775,-0.10092052,2.4872906,-0.9256136,2.3177755
647,1778316140.442118,-0.895662,0.84382975,0.017988855,2.4288,-1.2377657,2.7259862
648,1778316140.4520063,-0.8192551,0.77083766,0.13738607,2.6210701,-1.4121678,3.1746666
649,1778316140.461975,-0.75211704,0.6771737,0.15500905,2.9442177,-1.4680619,3.4494033
650,1778316140.4719644,-0.7244325,0.6181458,0.15781409,3.1810808,-1.3747523,3.6079228
651,1778316140.4819188,-0.68455213,0.6102185,0.14263028,3.4860551,-1.3303118,3.7281106
652,1778316140.4918895,-0.68564975,0.6217436,0.11427496,3.669162,-1.3913983,3.7297904
653,1778316140.5020418,-0.7555929,0.68656445,0.01396423,3.8725803,-1.4831808,3.6714528
654,1778316140.5118876,-0.7555929,0.68656445,0.01396423,3.844786,-1.7272215,3.5944839
655,1778316140.522098,-1.1144553,0.99267983,-0.08409027,3.605785,-2.0065396,3.5178201
656,1778316140.5317326,-1.3381268,1.1862887,0.033538543,3.3759468,-2.2134702,3.5361462
657,1778316140.5417445,-1.630461,1.4362423,0.24794129,3.147025,-2.4489589,3.6683986
658,1778316140.5519319,-1.82346,1.5463097,0.50515145,3.0381384,-2.588236,3.8250854
659,1778316140.5621657,-1.8139474,1.5508832,0.6811983,3.0514245,-2.5274549,3.8076758
660,1778316140.5721407,-1.7728474,1.6280218,0.8424882,3.063642,-2.2653937,3.58471
661,1778316140.582102,-1.8780973,1.723881,1.0181081,3.0694451,-1.6093245,3.2450688
662,1778316140.5921364,-2.0188372,1.7810795,1.1033571,3.0534098,-1.1262828,3.1167872
663,1778316140.6019454,-2.2945242,1.800532,1.1516526,2.872441,-0.46578476,3.1256447
664,1778316140.6117647,-2.2945242,1.800532,1.1516526,2.872441,-0.46578476,3.1256447
665,1778316140.622113,-2.6388125,1.4287419,1.2521462,1.7828102,-0.5193882,3.9290853
666,1778316140.6318471,-2.3983717,1.0097541,1.3322729,1.3628404,-1.0748174,4.38586
667,1778316140.6420727,-2.0921342,0.70967555,1.3034906,1.1355985,-1.5668694,4.6331077
668,1778316140.6518748,-1.648023,0.34672755,1.2159246,0.9943359,-2.1045835,4.774828
669,1778316140.661981,-1.3046492,0.07744354,1.11226,0.998612,-2.4226916,4.7580295
670,1778316140.6717668,-0.9381035,-0.21171968,0.95694613,1.1131492,-2.6441302,4.599357
671,1778316140.6825309,-0.64753777,-0.42429304,0.7827286,1.2893838,-2.6943738,4.3269114
672,1778316140.691733,-0.5142373,-0.5216768,0.67046595,1.3978124,-2.671161,4.127922
673,1778316140.7019784,-0.5142373,-0.5216768,0.67046595,1.5260941,-2.5682302,3.7754526
674,1778316140.7116754,-0.19513334,-0.74260426,0.34556895,1.5651895,-2.414292,3.4159584
675,1778316140.722074,-0.07195542,-0.7891314,0.24172144,1.545031,-2.2314909,2.9698741
676,1778316140.7322564,0.042014647,-0.8238895,0.15976542,1.5312865,-2.1470387,2.5706737
677,1778316140.7417119,0.13744704,-0.857733,0.06372323,1.5141822,-2.1099286,2.2230914
678,1778316140.7518647,0.22123243,-0.88066113,-0.012866604,1.449736,-2.0856466,1.7595973
679,1778316140.7619328,0.31227434,-0.89017385,-0.11640923,1.348485,-2.0479257,1.2632693
680,1778316140.771777,0.32562876,-0.90078425,-0.1773884,1.2356277,-2.012343,0.8562804
681,1778316140.781838,0.29032183,-0.9022478,-0.25483194,1.0554224,-1.9172006,0.40546182
682,1778316140.792002,0.27154022,-0.8777341,-0.31446958,0.8686504,-1.7690657,0.062002823
683,1778316140.8021033,0.26904008,-0.85498893,-0.3439225,0.7637343,-1.6713274,-0.117744274
684,1778316140.8121204,0.26904008,-0.85498893,-0.3439225,0.7637343,-1.6713274,-0.117744274
685,1778316140.821805,0.2994687,-0.80157113,-0.39801103,0.57986385,-1.5667167,-0.41065416
686,1778316140.8318796,0.3494716,-0.7245545,-0.56210595,0.01038471,-2.0401373,-1.0424415
687,1778316140.8417578,0.3146525,-0.7063217,-0.6231461,-0.40622538,-2.3900104,-1.3379476
688,1778316140.8517807,0.29952967,-0.69815046,-0.63826895,-0.6516405,-2.5550966,-1.4740179
689,1778316140.8620517,0.36550912,-0.67253923,-0.6796128,-1.0844386,-2.7192667,-1.6809485
690,1778316140.87203,0.43404973,-0.6395495,-0.70534605,-1.412015,-2.5996897,-1.9107865
691,1778316140.8817785,0.52466476,-0.5760092,-0.6947966,-1.6581937,-2.136043,-2.260354
692,1778316140.8921578,0.56893563,-0.5403364,-0.6897963,-1.788308,-1.6140587,-2.6364944
693,1778316140.9019585,0.56893563,-0.5403364,-0.6897963,-1.9139935,-0.998612,-3.0718887
694,1778316140.9118013,0.35764283,-0.620524,-0.7107122,-2.1319196,-0.27152961,-3.6247218
695,1778316140.9217353,0.08335852,-0.6699781,-0.6716855,-2.422997,0.2826779,-4.1248674
696,1778316140.9320676,-0.21635409,-0.6354639,-0.5551544,-2.7369816,0.75441855,-4.5755334
697,1778316140.9417393,-0.5399705,-0.5496662,-0.35996002,-3.0547843,1.1713341,-5.029559
698,1778316140.9518375,-0.9502994,-0.46850294,-0.05232013,-3.3102787,1.4845552,-5.468771
699,1778316140.9618433,-1.2462922,-0.3855713,0.23647723,-3.3438764,1.6073391,-5.7566414
700,1778316140.9717016,-1.7719326,-0.059515666,0.97036153,-2.9799533,1.7996091,-6.4487514
701,1778316140.9818456,-2.2999513,0.3041031,1.4747202,-2.9799533,1.7996091,-6.4487514
702,1778316140.9918153,-3.0860338,0.7690083,1.9159654,-1.1844677,1.6675094,-7.528456
703,1778316141.002245,-3.8021731,1.018596,1.8986473,-0.21013765,1.1560625,-7.606494
704,1778316141.012235,-4.4820905,1.2416579,1.7048556,0.7267769,0.13729197,-6.866889
705,1778316141.0217435,-4.570998,1.4578899,1.4581338,1.2507466,-0.7852673,-5.5110736
706,1778316141.0320065,-4.1813416,1.7591269,1.1673242,1.358717,-1.4188873,-4.1444154
707,1778316141.0420609,-3.682044,2.0113978,0.8562694,1.0122037,-2.0132592,-2.9819386
708,1778316141.051895,-2.988955,2.0824385,0.6062549,0.40591997,-2.5830436,-2.2780693
709,1778316141.061803,-2.3119032,2.036765,0.43825728,-0.6995934,-3.3530393,-1.6814066
710,1778316141.072,-1.7421749,1.8826709,0.57570434,-1.7829629,-4.0775256,-1.2406673
711,1778316141.0818207,-1.3105643,1.700648,0.8390124,-2.3099868,-4.4813075,-0.9295842
712,1778316141.0918128,-0.7996808,1.4592315,1.2181809,-2.3582454,-4.6018004,-0.6632469
713,1778316141.102089,-0.43947688,1.3072103,1.5111248,-1.8469511,-4.31897,-0.5917757
714,1778316141.1122234,-0.100005835,1.1420178,1.7321132,-0.5410739,-3.6144896,-0.6630942
715,1778316141.122,-0.100005835,1.1420178,1.7321132,-0.5410739,-3.6144896,-0.6630942
716,1778316141.1317227,0.15439926,0.7645568,1.4269735,2.9547553,-1.7663169,-1.0555751
717,1778316141.1421242,0.13378829,0.5918638,1.0673184,4.382347,-0.96837413,-1.1904236
718,1778316141.1524317,0.059027832,0.4675273,0.7723012,5.1923547,-0.5352707,-1.2330315
719,1778316141.1616917,-0.06744295,0.35520366,0.45777062,5.7635136,-0.28787026,-1.1569787
720,1778316141.1722336,-0.19190145,0.31099376,0.2593444,5.906456,-0.25885415,-0.97066486
721,1778316141.1817691,-0.34288585,0.2978832,0.102688916,5.734345,-0.37873647,-0.6093381
722,1778316141.1918356,-0.56637454,0.3547768,0.06274756,5.207779,-0.6899723,-0.083383106
723,1778316141.202049,-0.7091267,0.45770964,0.11695804,4.788878,-0.97417736,0.29123
724,1778316141.2117133,-0.81571835,0.5925346,0.20062146,4.3843327,-1.3058772,0.6452264
725,1778316141.2217877,-0.81571835,0.5925346,0.20062146,3.940539,-1.7314975,0.9914343
726,1778316141.2316904,-1.1128699,0.95743394,0.52057916,3.5590537,-2.033876,1.1432343
727,1778316141.2421076,-1.3682506,1.2476337,0.84681773,3.2502613,-2.1513147,1.0306823
728,1778316141.2519884,-1.7072947,1.4572802,1.1792151,3.1746666,-2.2191207,0.8773552
729,1778316141.2620084,-2.271047,1.5769823,1.551737,3.451694,-2.2386684,0.8756753
730,1778316141.2722278,-2.7088165,1.4689271,1.7376013,4.063628,-2.0022635,1.1817188
731,1778316141.2820272,-3.1547573,1.2948927,1.6908302,4.7583346,-1.50731,1.7330247
732,1778316141.2921705,-3.1547573,1.2948927,1.6908302,5.0013065,-1.2709051,2.008067
733,1778316141.301717,-3.0045655,1.0693307,1.2267789,5.4625096,-0.5374087,2.9584203
734,1778316141.3118548,-2.7277203,0.93432283,0.8945034,5.432883,-0.344528,3.2417092
735,1778316141.3217568,-2.3346484,0.75162923,0.43496442,4.859891,-0.22831088,3.5175147
736,1778316141.3320901,-2.116343,0.61040145,0.19360885,4.0552287,-0.37400225,3.5388951
737,1778316141.3417568,-1.9810301,0.49752906,0.10384752,3.3649511,-0.5502369,3.5390477
738,1778316141.3518016,-1.7977268,0.36947277,0.093664,2.5922067,-0.6739371,3.5897496
739,1778316141.3616686,-1.5791165,0.26721072,0.14317909,1.9859229,-0.6209445,3.6543486
740,1778316141.3720536,-1.3775194,0.18098617,0.18775485,1.5454891,-0.45234573,3.6781723
741,1778316141.3819723,-1.1697633,0.0775655,0.20562175,1.3391694,-0.3659083,3.6618316
742,1778316141.392066,-0.8852955,-0.08183405,0.18275456,1.0002918,-0.300393,3.5657732
743,1778316141.402062,-0.7753501,-0.13019052,0.18873052,0.8518516,-0.2910773,3.4796412
744,1778316141.412014,-0.614548,-0.16543648,0.25007555,0.6649268,-0.2518292,3.280041
745,1778316141.4219582,-0.614548,-0.16543648,0.25007555,0.6649268,-0.2518292,3.280041
746,1778316141.4319825,-0.32392135,-0.14824036,0.5107615,0.8770498,-0.15745051,2.7264442
747,1778316141.4421363,-0.12043386,-0.12281204,0.5316164,1.2235631,-0.23258694,2.3674083
748,1778316141.4518003,0.05585692,-0.08866371,0.45441675,1.4657712,-0.41523564,1.9544634
749,1778316141.4620078,0.17781526,-0.085309856,0.29751736,1.6071864,-0.8220719,1.3303118
750,1778316141.4718401,0.17293692,-0.0787241,0.17549805,1.5858061,-1.231657,0.83077675
751,1778316141.4818058,0.13391025,-0.038599815,0.03237994,1.4230106,-1.6861408,0.35796702
752,1778316141.4921353,0.08878566,-0.010854292,-0.053051874,1.2357804,-1.919644,0.18051068
753,1778316141.5019307,0.12445848,-0.004024625,-0.13366634,1.0555751,-2.022575,0.29092458
754,1778316141.5118573,0.22165927,-0.027684543,-0.16250949,1.0494665,-1.9694295,0.4277584
755,1778316141.5219681,0.4733203,-0.1039085,-0.24007498,1.1192578,-1.7443258,0.59513545
756,1778316141.531675,0.7310793,-0.228306,-0.36654577,1.15255,-1.412015,0.5589417
757,1778316141.5419264,0.9491408,-0.39746222,-0.55070287,0.9943359,-1.0870347,0.23655757
758,1778316141.5521781,1.0831729,-0.526921,-0.7090658,0.7309003,-0.97295564,-0.08170322
759,1778316141.5621965,1.1033571,-0.585339,-0.75888574,0.3126103,-0.8361218,-0.52641314
760,1778316141.5721223,1.0650622,-0.61101127,-0.72888404,-0.054061573,-0.60063326,-0.9425651
761,1778316141.58172,0.96316594,-0.6144871,-0.6598556,-0.2657264,-0.35338554,-1.2165382
762,1778316141.5916765,0.8355975,-0.5962543,-0.56070346,-0.47723848,-0.062308256,-1.484708
763,1778316141.6021228,0.8355975,-0.5962543,-0.56070346,-0.47723848,-0.062308256,-1.484708
764,1778316141.6121347,0.66070926,-0.561923,-0.39081547,-0.7276932,0.19028452,-1.8832976
765,1778316141.6217782,0.5955225,-0.5284454,-0.27672347,-0.7276932,0.19028452,-1.8832976
766,1778316141.6319523,0.50942,-0.49698022,-0.1636071,-0.81581056,0.43066,-2.2950208
767,1778316141.6420743,0.45502654,-0.48143053,-0.024574606,-0.70738196,0.6424775,-2.5341744
768,1778316141.651839,0.38679087,-0.50429773,0.06256463,-0.45860708,0.9405798,-2.8087585
769,1778316141.662155,0.24178241,-0.53442144,0.07530928,-0.17730364,1.2140946,-3.1262555
770,1778316141.671986,0.1340932,-0.56545985,0.030367626,0.058184914,1.3034338,-3.5074356
771,1778316141.6819644,0.040551145,-0.5611303,0.012988563,0.15027285,1.2547172,-3.929849
772,1778316141.6919591,-0.14439867,-0.55978876,-0.010000584,0.1873829,0.93416566,-4.636925
773,1778316141.702004,-0.45124584,-0.5377143,-0.08610259,0.13057245,0.54443365,-5.313764
774,1778316141.711769,-1.0954908,-0.46149033,-0.10671354,-0.036651913,0.06047566,-6.0532165
775,1778316141.721786,-1.6260705,-0.30190787,-0.06524771,-0.15607607,-0.17211129,-6.4747133
776,1778316141.731916,-1.6260705,-0.30190787,-0.06524771,-0.15607607,-0.17211129,-6.4747133
777,1778316141.7421505,-3.0193834,0.3503863,0.110616215,-0.3013093,-0.43508878,-6.910566
778,1778316141.7522225,-3.6044176,0.60521823,0.1583629,-0.24602598,-0.40958515,-6.7066894
779,1778316141.7617078,-4.004319,0.8075471,0.2426361,-0.04841107,-0.067500606,-6.2885523
780,1778316141.7719986,-4.5277643,1.0739042,0.34575188,0.2724459,0.41263947,-5.7703857
781,1778316141.782096,-4.779852,1.305625,0.3041031,0.7809912,0.97326106,-4.7913218
782,1778316141.7918336,-4.603805,1.4683174,0.018659625,1.1027645,1.0543534,-3.7168095
783,1778316141.801843,-4.3605595,1.5126492,-0.30050534,0.9940305,0.7110472,-2.9975157
784,1778316141.811729,-4.3605595,1.5126492,-0.30050534,0.9940305,0.7110472,-2.9975157
785,1778316141.8219154,-3.732596,1.443133,-0.6094258,-0.21471913,-0.65668017,-1.866346
786,1778316141.832086,-2.7512581,1.2301328,-0.5841804,-0.88239485,-1.3332134,-1.5311338
787,1778316141.8420734,-2.321904,1.1281146,-0.41459736,-1.3295482,-1.7582229,-1.314582
788,1778316141.851939,-1.946516,1.0373776,-0.2245253,-1.3295482,-1.7582229,-1.314582
789,1778316141.8619905,-1.5971054,0.9742642,-0.08335852,-1.4996742,-1.9905044,-0.9967794
790,1778316141.8720095,-1.3895932,0.95115304,-0.017805915,-1.4124732,-1.9851593,-0.9117164
791,1778316141.8820815,-1.1291512,0.9459089,0.014817937,-1.2478449,-1.9845484,-0.7829765
792,1778316141.891813,-0.9242613,0.98828936,0.009573729,-1.0709995,-1.9741638,-0.64950246
793,1778316141.9020474,-0.6640022,1.045244,-0.014208145,-0.9274462,-1.9372064,-0.5563455
794,1778316141.9121165,-0.4621611,1.1060401,-0.034636166,-0.8697194,-1.9236146,-0.5177083
795,1778316141.9218261,-0.26019812,1.1748246,-0.043356188,-0.805884,-1.9259053,-0.47403142
796,1778316141.9320993,0.026708877,1.3425784,0.013781292,-0.6910413,-1.9416351,-0.4512767
797,1778316141.9420764,0.1733028,1.5039291,0.1367153,-0.4934264,-1.8907807,-0.4894558
798,1778316141.9518178,0.20214595,1.6351563,0.27129632,-0.11835514,-1.7592919,-0.49357912
799,1778316141.9622111,0.13549572,1.7046115,0.37191194,0.30741793,-1.5593863,-0.42012256
800,1778316141.9718933,-0.012927583,1.7541268,0.4733203,0.97035944,-1.1551461,-0.18142697
801,1778316141.9818075,-0.13006857,1.7348573,0.50594413,1.7053831,-0.65500027,0.21303925
802,1778316141.992103,-0.24074577,1.656987,0.46185625,2.3445008,-0.21426098,0.675617
803,1778316142.002105,-0.34032473,1.5638717,0.40618226,2.7175868,-0.030848695,1.0615311
804,1778316142.0117764,-0.4598439,1.413619,0.34703246,2.9981265,-0.0016798794,1.5161675
805,1778316142.0220444,-0.5918638,1.235377,0.33788556,3.1326697,-0.08857546,1.9011654
806,1778316142.0321476,-0.6862595,1.129639,0.36227724,3.1963525,-0.20082195,2.1276436
807,1778316142.0418077,-0.90426004,0.9357863,0.5032001,3.3001995,-0.3849978,2.324953
808,1778316142.0517206,-0.90426004,0.9357863,0.5032001,3.3001995,-0.3849978,2.324953
809,1778316142.0620885,-1.3181257,0.7213226,0.7007726,3.9252675,-0.6488916,2.6931522
810,1778316142.0721047,-1.4602071,0.66320944,0.69857734,4.255593,-0.59773165,2.9405525
811,1778316142.0817354,-1.5287478,0.6329028,0.6111332,4.607909,-0.49586987,3.348916
812,1778316142.091747,-1.5200276,0.6272317,0.4804549,4.743216,-0.5381723,3.6541958
813,1778316142.1018932,-1.4867331,0.6753443,0.29270002,4.57477,-0.7939721,3.88663
814,1778316142.1121871,-1.4755739,0.7813261,0.1504356,3.9451206,-1.3078625,3.8806741
815,1778316142.1222131,-1.5008802,0.8487081,0.14610608,3.39412,-1.6688838,3.7462838
816,1778316142.1317215,-1.5008802,0.8487081,0.14610608,3.39412,-1.6688838,3.7462838
817,1778316142.1417933,-1.6024106,0.9240783,0.39941353,2.4541512,-2.150551,3.3652565
818,1778316142.1520622,-1.9427352,0.9942653,1.6084476,2.1183279,-0.9596693,2.301893
819,1778316142.1620545,-2.2295203,0.8404149,2.0531075,2.6881125,0.2228131,1.9952387
820,1778316142.1718602,-2.537953,0.6274147,2.0923784,3.537979,1.3917037,1.93797
821,1778316142.1819441,-2.6330805,0.4788694,1.8361437,4.0767617,1.6015359,2.261576
822,1778316142.1919432,-2.4866693,0.37093627,1.378556,3.9938369,1.0496192,2.722321
823,1778316142.2019873,-2.1483572,0.2725159,0.96438557,3.503923,0.3397938,2.9943087
824,1778316142.2118766,-2.1483572,0.2725159,0.96438557,3.503923,0.3397938,2.9943087
825,1778316142.2218678,-1.5471025,0.03823394,0.6082062,2.0581577,-1.2414309,3.1465669
826,1778316142.2320492,-1.5471025,0.03823394,0.6082062,2.0581577,-1.2414309,3.1465669
827,1778316142.241808,-0.74516547,-0.21812248,0.5605205,1.2866349,-2.025629,3.1600058
828,1778316142.2521327,-0.37502187,-0.3530694,0.5464953,0.5751296,-2.510809,2.8044822
829,1778316142.2621405,-0.072138354,-0.47502774,0.4994194,0.5731443,-2.3455698,2.497828
830,1778316142.2719302,0.17232713,-0.57503355,0.44594067,0.6772968,-2.0693061,1.9990565
831,1778316142.2817934,0.28794363,-0.59973013,0.40978,0.87995136,-1.6985108,1.4198035
832,1778316142.292025,0.40148684,-0.64308625,0.35227665,1.1901182,-1.3081679,0.8445212
833,1778316142.3018308,0.47704002,-0.688028,0.2763576,1.4839444,-0.96593064,0.37980548
834,1778316142.3119786,0.5979617,-0.75211704,0.108298995,1.8199203,-0.4550946,-0.20586158
835,1778316142.322137,0.69418687,-0.7774234,-0.029818814,1.9917262,0.10094548,-0.788627
836,1778316142.3318057,0.69418687,-0.7774234,-0.029818814,1.9917262,0.10094548,-0.788627
837,1778316142.341923,0.7651056,-0.80663246,-0.17318083,2.0546453,0.3743077,-1.154688
838,1778316142.3522213,0.68467414,-0.9378596,-0.53984857,1.4480561,0.64858615,-2.3490822
839,1778316142.36191,0.54600745,-1.0380484,-0.6421716,0.7435757,0.31764993,-2.7627907
840,1778316142.3722034,0.4428917,-1.1445789,-0.7324208,-0.18509217,-0.419359,-3.0411925
841,1778316142.3818636,0.40904826,-1.226352,-0.7805334,-1.096045,-1.1606439,-3.2363641
842,1778316142.3917966,0.40904826,-1.226352,-0.7805334,-2.5117252,-2.1536055,-3.5837936
843,1778316142.4016843,0.3905106,-1.2678789,-0.54753196,-3.2588134,-2.4457517,-3.8299723
844,1778316142.4117966,0.29166338,-1.2314132,-0.3480691,-3.7423131,-2.2481368,-4.044539
845,1778316142.421943,0.042014647,-1.1113453,-0.13323948,-3.76293,-1.6710218,-4.1267004
846,1778316142.432048,-0.07555319,-1.0495734,-0.09976192,-3.6268597,-1.3019066,-4.1416664
847,1778316142.4417367,-0.07555319,-1.0495734,-0.09976192,-3.6268597,-1.3019066,-4.1416664
848,1778316142.4519594,-0.6095478,-0.85254973,-0.30684718,-3.2954652,-0.3578143,-3.9121337
849,1778316142.4621258,-0.8291947,-0.7215665,-0.37611952,-3.4455855,-0.18524489,-3.7652206
850,1778316142.4719384,-1.0191449,-0.63887876,-0.42947626,-3.7100902,-0.14462234,-3.711159
851,1778316142.4822094,-1.3689823,-0.49539477,-0.462466,-4.3145413,-0.04810564,-3.7372735
852,1778316142.4918802,-1.6425349,-0.3091034,-0.27391842,-4.831028,0.4989242,-3.998724
853,1778316142.5017579,-2.4728882,0.05335677,0.41941473,-5.018258,1.4520267,-4.415792
854,1778316142.5119548,-2.4728882,0.05335677,0.41941473,-5.018258,1.4520267,-4.415792
855,1778316142.5222168,-3.674178,0.5618011,1.3939228,-4.329813,2.2354615,-4.6011896
856,1778316142.5321622,-4.4172087,0.97676426,1.8944398,-3.3547192,2.1595614,-4.3327146
857,1778316142.5421412,-4.4172087,0.97676426,1.8944398,-3.3547192,2.1595614,-4.3327146
858,1778316142.5522149,-4.831806,1.29971,2.0676818,-2.228742,1.900249,-3.756974
859,1778316142.561808,-4.483188,1.5041121,1.5156372,-0.7715228,1.6522378,-2.1508565
860,1778316142.5719454,-3.9127283,1.5186862,1.214827,-0.6189592,1.382999,-1.4407257
861,1778316142.5822806,-3.3094614,1.4495968,0.9685931,-0.70264775,0.86437434,-0.92011577
862,1778316142.591671,-2.83669,1.3411758,0.8371221,-0.82909685,0.32406402,-0.5850562
863,1778316142.601791,-2.239155,1.191045,0.7408359,-0.8859073,-0.25885415,-0.22708915
864,1778316142.6121767,-1.7899216,1.074331,0.6855888,-0.77121735,-0.48456886,-0.025961773
865,1778316142.6218553,-1.3362365,0.936701,0.63485414,-0.5731443,-0.40408736,0.00045814895
866,1778316142.6316738,-1.1350052,0.8699898,0.59491277,-0.3837761,-0.26053402,-0.027030786
867,1778316142.6419518,-0.88011235,0.78425306,0.4774059,0.011453724,0.071318515,-0.1337795
868,1778316142.6521485,-0.76730084,0.7707157,0.35191077,0.011453724,0.071318515,-0.1337795
869,1778316142.6617525,-0.69967496,0.7918755,0.2306232,0.42271876,0.41538838,-0.2359467
870,1778316142.6717937,-0.69967496,0.7918755,0.2306232,0.42271876,0.41538838,-0.2359467
871,1778316142.6816926,-0.5781435,0.8666359,0.08152915,0.3933972,0.46135598,-0.08659015
872,1778316142.6922004,-0.4867967,0.8951132,0.03670946,0.25992316,0.40851614,0.049021937
873,1778316142.702044,-0.39294976,0.89352775,0.025794188,0.09850202,0.3436117,0.1910481
874,1778316142.712161,-0.29989552,0.8990769,0.050429773,-0.044593163,0.28588495,0.32803464
875,1778316142.7221918,-0.19702369,0.9002964,0.097017854,-0.11484267,0.22434026,0.43386704
876,1778316142.7321072,-0.14726469,0.89072275,0.12769037,-0.14370605,0.16982053,0.5028948
877,1778316142.7419229,-0.092505395,0.8555377,0.20147517,-0.13194689,0.047494773,0.61850107
878,1778316142.751874,-0.07036996,0.81687695,0.27099144,-0.13194689,0.047494773,0.61850107
879,1778316142.7619176,-0.07036996,0.81687695,0.27099144,-0.026419923,-0.026419923,0.70509124
880,1778316142.7718418,-0.10622571,0.78900945,0.415695,0.4120286,-0.019700404,0.88346386
881,1778316142.782063,-0.10031073,0.76473975,0.44362345,0.7622071,-0.006872234,1.0183123
882,1778316142.7918909,-0.09360302,0.74120176,0.4223417,1.1076514,-0.007483099,1.1690434
883,1778316142.8017619,-0.0787241,0.7272375,0.37361938,1.3406965,0.0053450707,1.3070989
884,1778316142.8121953,-0.03433127,0.69443077,0.28843147,1.5435038,-0.026725354,1.4859297
885,1778316142.822012,-0.0005488125,0.63552487,0.23995303,1.6310102,-0.12843442,1.624138
886,1778316142.8321915,0.009695687,0.5935712,0.24123359,1.6681203,-0.21685717,1.7111863
887,1778316142.84212,0.009695687,0.5935712,0.24123359,1.6681203,-0.21685717,1.7111863
888,1778316142.8517509,-0.000365875,0.5348483,0.2992248,1.9440787,-0.399964,1.9013181
889,1778316142.8619602,-0.000365875,0.5348483,0.2992248,1.9440787,-0.399964,1.9013181
890,1778316142.8718235,-0.23044027,0.6236949,0.06006448,1.9814942,-0.98731095,2.1351268
891,1778316142.8821292,-0.29721245,0.60381573,-0.08012662,1.7573066,-1.4700472,2.2979224
892,1778316142.891773,-0.26745462,0.5858269,-0.06104015,1.4436272,-1.8165605,2.3835962
893,1778316142.9021537,-0.29221216,0.77839905,0.2766625,1.3736832,-1.4866933,2.088701
894,1778316142.9121146,-0.47136897,1.077319,0.6709538,1.6282613,-0.8743009,1.5641204
895,1778316142.9220219,-1.0780507,1.4686223,1.2162294,2.2273674,-0.1994475,0.6957755
896,1778316142.9321244,-2.0972564,1.8288263,1.7704692,3.1224377,0.0010690142,-0.008093964
897,1778316142.9420693,-2.8093104,1.9693222,2.0398142,4.048815,-0.08827003,-0.21762075
898,1778316142.952025,-3.8516273,2.0188372,2.2529364,5.0819407,-0.07315111,-0.043982297
899,1778316142.9620423,-4.473066,1.7966292,1.9062088,5.0819407,-0.07315111,-0.043982297
900,1778316142.9719,-4.428734,1.5001485,1.2706839,7.0435815,0.5326745,1.5683966
901,1778316142.9820323,-4.1456685,1.2338525,0.7100414,6.8543663,0.8188649,2.2032382
902,1778316142.991943,-3.6438103,0.8778561,0.110616215,5.947384,0.80481493,2.8964176
903,1778316143.0021122,-3.213663,0.59174186,-0.18190086,4.826599,0.41416663,3.3444872
904,1778316143.0119598,-2.6062496,0.23165986,-0.1981823,2.9480357,-0.47800204,3.7933204
905,1778316143.0222468,-2.2109215,0.04914921,-0.005549104,1.9117028,-1.0616838,3.9419134
906,1778316143.0318227,-1.7298571,-0.14433768,0.22751327,1.054048,-1.5873333,3.9938369
907,1778316143.04187,-1.7298571,-0.14433768,0.22751327,1.054048,-1.5873333,3.9938369
908,1778316143.0520797,-1.0227425,-0.44697732,0.41740242,0.49266282,-1.8761199,3.9240456
909,1778316143.0617304,-0.6125967,-0.5774118,0.42722008,0.41309762,-1.7907515,3.7197113
910,1778316143.0722134,-0.28873634,-0.65528214,0.40173078,0.3839288,-1.5671748,3.3713653
911,1778316143.0821033,-0.06896744,-0.7194932,0.36898494,0.3631594,-1.2780828,2.961322
912,1778316143.0920398,0.070613876,-0.76065415,0.35874045,0.39828414,-1.0074695,2.542574
913,1778316143.1018934,0.23922127,-0.78925335,0.31422567,0.5154176,-0.7501425,2.1416936
914,1778316143.111957,0.32221392,-0.79742455,0.2658082,0.6441574,-0.5374087,1.8364136
915,1778316143.1220725,0.40301132,-0.8230359,0.15360652,0.7884743,-0.22983804,1.4828753
916,1778316143.13226,0.44978234,-0.8359024,0.053600688,0.8199339,0.043982297,1.2110404
917,1778316143.1418264,0.48289403,-0.85224485,-0.055613004,0.72509706,0.35048392,0.87598073
918,1778316143.1516645,0.48289403,-0.85224485,-0.055613004,0.72509706,0.35048392,0.87598073
919,1778316143.1621456,0.48697963,-0.88242954,-0.1203119,0.5561928,0.49556443,0.63407815
920,1778316143.1719909,0.4379524,-0.99518,-0.19299906,-0.054061573,0.47143525,0.16920967
921,1778316143.181899,0.4004502,-1.0746968,-0.19037697,-0.28221974,0.34666604,0.052534413
922,1778316143.1918492,0.40313327,-1.1881791,-0.22470824,-0.49586987,0.13057245,-0.051465396
923,1778316143.201748,0.43715966,-1.2904412,-0.32892162,-0.7535023,-0.12705997,-0.16493362
924,1778316143.211978,0.49557772,-1.3159915,-0.43276918,-0.95707315,-0.31749722,-0.24846944
925,1778316143.2218153,0.55045897,-1.3096496,-0.58411944,-1.2560917,-0.47036624,-0.37797287
926,1778316143.2318525,0.5447879,-1.2950146,-0.6598556,-1.4080443,-0.47051895,-0.43951756
927,1778316143.2420995,0.35904533,-1.2759281,-0.974691,-2.1939225,-0.3089451,-0.58352906
928,1778316143.2519722,0.21879324,-1.296783,-1.1117722,-2.8582385,-0.17577648,-0.59605175
929,1778316143.262198,0.21879324,-1.296783,-1.1117722,-3.8515053,0.12232576,-0.74189585
930,1778316143.2719452,0.16476572,-1.2575734,-1.2451336,-5.0170364,0.5589417,-1.2374603
931,1778316143.2820165,-0.21617115,-1.1625068,-0.8981622,-5.0170364,0.5589417,-1.2374603
932,1778316143.291904,-0.78407013,-0.89108855,-0.3852054,-6.3071837,2.5389087,-2.7209466
933,1778316143.301729,-1.6737561,-0.41435343,0.30202982,-6.031225,4.4490843,-3.435506
934,1778316143.3120573,-2.3920908,0.04677102,0.77242315,-5.242598,6.033516,-3.939928
935,1778316143.3219476,-2.8184571,0.47472283,1.0219499,-4.477795,6.559318,-4.660444
936,1778316143.3318017,-2.8184571,0.47472283,1.0219499,-4.477795,6.559318,-4.660444
937,1778316143.3417096,-4.2885427,1.6231436,1.5709454,-3.0443997,5.0723195,-6.2244115
938,1778316143.351933,-5.2114625,1.9951774,1.6936964,-2.4619396,4.3989935,-6.095061
939,1778316143.3621173,-6.122186,2.2590342,1.6913183,-1.5092953,2.9449813,-4.9521317
940,1778316143.3721485,-6.122186,2.2590342,1.6913183,-1.5092953,2.9449813,-4.9521317
941,1778316143.3819296,-6.143834,2.2722666,1.3913007,-1.0329732,1.4049901,-3.3018794
942,1778316143.3919013,-6.143834,2.2722666,1.3913007,-1.0329732,1.4049901,-3.3018794
943,1778316143.4017744,-2.619421,1.8393147,0.71010244,-1.5036448,-2.031127,-0.17806722
944,1778316143.4119186,-1.6955258,1.5757017,0.6017424,-1.5512923,-2.2233968,-0.14248432
945,1778316143.4218898,-0.7748623,1.302698,0.54801977,-1.3979651,-2.0690005,-0.41340306
946,1778316143.4317935,-0.46606377,1.138969,0.5353971,-1.1058189,-1.5230398,-0.8155051
947,1778316143.4419825,-0.3503863,1.0201814,0.52039623,-0.98440933,-1.2449434,-0.9790643
948,1778316143.4519813,-0.25824678,0.8601721,0.47063723,-0.6270532,-0.48930305,-1.3532193
949,1778316143.462122,-0.234221,0.81632805,0.40599927,-0.38087448,-0.09407325,-1.490053
950,1778316143.4718227,-0.234221,0.81632805,0.40599927,-0.38087448,-0.09407325,-1.490053
951,1778316143.4818227,-0.21385394,0.82187724,0.2771503,-0.18707748,0.21319197,-1.425454
952,1778316143.4918406,-0.21385394,0.82187724,0.2771503,-0.18707748,0.21319197,-1.425454
953,1778316143.502155,-0.13610551,0.82553595,0.24964872,-0.21502456,0.14966199,-1.2328788
954,1778316143.512113,-0.099518,0.8232798,0.27245492,-0.2191479,0.0041233404,-1.1061243
955,1778316143.521803,-0.099518,0.8232798,0.27245492,-0.2191479,0.0041233404,-1.1061243
956,1778316143.532571,-0.06866254,0.80303466,0.3208724,-0.06352998,-0.2574797,-0.8011498
957,1778316143.5418973,-0.04914921,0.7782161,0.336605,0.09789115,-0.35506544,-0.5862779
958,1778316143.5517855,-0.04530752,0.7621176,0.33623913,0.20631973,-0.3921755,-0.44837508
959,1778316143.561726,-0.042014647,0.7233959,0.31599405,0.45646906,-0.42241332,-0.14385876
960,1778316143.5717342,-0.006097917,0.6896134,0.29666364,0.66981375,-0.3819435,0.13240504
961,1778316143.5818079,0.046832,0.65668464,0.2675156,0.84620106,-0.3368922,0.38072178
962,1778316143.592188,0.093359105,0.6442449,0.23629428,0.946383,-0.32146785,0.5476407
963,1778316143.601785,0.15214302,0.64753777,0.21080498,0.9818132,-0.3352123,0.7174612
964,1778316143.6121635,0.1662902,0.62509745,0.21678093,0.9447031,-0.41615194,0.829555
965,1778316143.6220617,0.15067953,0.56753314,0.22111045,0.87781334,-0.59971696,0.9078985
966,1778316143.6322083,0.15067953,0.56753314,0.22111045,0.87781334,-0.59971696,0.9078985
967,1778316143.6418636,-0.01975725,0.46027076,0.31593305,0.7276932,-1.1753048,1.039998
968,1778316143.6521292,-0.11043327,0.46027076,0.39270583,0.77457714,-1.493871,1.1710287
969,1778316143.662255,-0.11043327,0.46027076,0.39270583,0.77457714,-1.493871,1.1710287
970,1778316143.6717315,-0.16311927,0.6927843,0.55893505,1.1673635,-1.8196149,1.3341297
971,1778316143.6816807,-0.23519666,0.90615046,0.63265884,1.3852897,-1.8843665,1.1006265
972,1778316143.6921856,-0.4812476,1.2185466,0.8484642,1.5929838,-1.740966,0.5849035
973,1778316143.7018168,-1.1682389,1.6412544,1.2571466,1.9570595,-1.2144,-0.0035124752
974,1778316143.7118142,-2.0319479,1.9428573,1.6661338,2.4640777,-0.6104071,-0.2554944
975,1778316143.7217278,-3.2299445,2.0659742,2.0937197,3.365562,0.11178834,-0.01863139
976,1778316143.7321987,-3.2299445,2.0659742,2.0937197,4.177707,0.47158796,0.58276546
977,1778316143.7425857,-4.488311,1.7985805,1.9876769,4.9819117,0.5103779,1.518611
978,1778316143.7521086,-4.5847187,1.6297903,1.5369189,5.2893295,0.23090707,2.3759604
979,1778316143.7621348,-4.502946,1.4729518,1.217876,5.192202,0.035888333,2.810591
980,1778316143.7721198,-4.170731,1.0485977,0.67979574,5.192202,0.035888333,2.810591
981,1778316143.781949,-3.5558171,0.44947743,0.15842387,3.3652565,-0.85047716,4.146248
982,1778316143.7920194,-2.970966,-0.012134855,-0.0024391667,2.1390975,-1.5079209,4.5802674
983,1778316143.8018863,-2.4863038,-0.29361472,0.056588665,1.2802209,-2.0546453,4.7913218
984,1778316143.8117085,-1.9149288,-0.52990896,0.24044085,0.58368176,-2.6181684,4.839885
985,1778316143.8221087,-1.9149288,-0.52990896,0.24044085,0.36835176,-2.9138272,4.678617
986,1778316143.8319795,-1.5037463,-0.6711977,0.37861964,0.36835176,-2.9138272,4.678617
987,1778316143.8418152,-0.68589365,-0.9327374,0.5246038,0.9613492,-2.846632,4.088521
988,1778316143.8521025,-0.48307696,-0.9816426,0.5166765,1.4866933,-2.6013696,3.7427714
989,1778316143.861684,-0.17336378,-1.0698795,0.47716197,2.1097758,-2.1868975,3.3748777
990,1778316143.872054,0.120007,-1.1341516,0.36282605,2.9400945,-1.4040737,2.882673
991,1778316143.8821535,0.3690459,-1.170861,0.11915329,2.9400945,-1.4040737,2.882673
992,1778316143.8918126,0.6107064,-1.2236689,-0.26099083,4.0518694,0.2938262,1.9598085
993,1778316143.9021354,0.8235847,-1.2765379,-0.66595346,3.8941133,0.8614727,1.4758505
994,1778316143.9118993,1.0200596,-1.2915998,-1.0277429,3.1746666,1.1304061,0.8940013
995,1778316143.921826,1.0909173,-1.2804406,-1.1933013,2.0332649,1.1033753,0.2733622
996,1778316143.9321349,1.1391518,-1.2976366,-1.2830627,0.95371336,1.0048733,-0.22479841
997,1778316143.9420664,1.0746968,-1.367031,-1.2184857,-0.13316862,0.8773552,-0.7131852
998,1778316143.951706,0.96389776,-1.4392303,-1.0587202,-1.3500122,0.7263188,-1.2654073
999,1778316143.961889,0.96389776,-1.4392303,-1.0587202,-1.3500122,0.7263188,-1.2654073
1000,1778316143.9716625,0.72821325,-1.5478952,-0.4974071,-2.1116085,0.6246097,-1.6836973
