id,timestamp,acc_x,acc_y,acc_z,gyro_x,gyro_y,gyro_z
1,1778317886.1520407,-0.9490188,-5.122433,-4.721129,-2.8544207,-9.610437,1.4165965
2,1778317886.152061,-0.9490188,-5.122433,-4.721129,-2.8544207,-9.610437,1.4165965
3,1778317886.161909,-0.5189937,-4.2713466,0.80333954,-0.9931142,0.24648413,0.86177814
4,1778317886.1719842,-0.4589292,-3.2046993,1.1564089,0.38820487,4.7569604,0.5132795
5,1778317886.1815863,-0.35380113,-2.5889316,0.9477992,0.8388707,6.739829,-0.022907447
6,1778317886.1917238,-0.2736745,-1.9874331,0.9466406,1.2641857,7.4388113,-0.2919936
7,1778317886.2015283,-0.11890938,-1.668695,0.7859605,2.1681135,7.0567155,-0.34574974
8,1778317886.2117743,-0.038599815,-1.5323455,0.6491842,2.7902796,6.3415446,-0.28603765
9,1778317886.2215884,0.08378538,-1.3528838,0.23105007,3.6534324,4.9684725,-0.19776763
10,1778317886.231404,0.31922594,-1.2069607,-0.38563228,3.8623483,3.627776,-0.25977045
11,1778317886.2416923,0.46514907,-1.0912832,-0.76632524,3.3599117,2.9562824,-0.5386304
12,1778317886.2515688,0.44026962,-0.9567021,-0.8043152,1.994475,2.420248,-1.1284208
13,1778317886.2613692,0.2242204,-0.86742866,-0.58790016,0.9628763,1.6963727,-1.459968
14,1778317886.2716923,-0.021891521,-0.758032,-0.35892338,0.322995,0.7487681,-1.4453071
15,1778317886.2815049,-0.13378829,-0.6811373,-0.24946578,0.07315111,0.006872234,-1.2249376
16,1778317886.291438,-0.34843495,-0.48606494,-0.06457694,-0.04932737,-0.82527894,-0.783282
17,1778317886.3016634,-0.34843495,-0.48606494,-0.06457694,-0.04932737,-0.82527894,-0.783282
18,1778317886.3113632,-0.503444,-0.36831418,0.090554066,0.005192355,-1.5847372,-0.17669277
19,1778317886.321396,-0.5121031,-0.3477642,0.10500612,0.005192355,-1.5847372,-0.17669277
20,1778317886.3316412,-0.5313725,-0.26452765,0.13519081,0.09590584,-1.7773124,0.065973446
21,1778317886.3416193,-0.5313725,-0.26452765,0.13519081,0.09590584,-1.7773124,0.065973446
22,1778317886.3513243,-0.5155179,-0.13988622,0.08159013,0.1742493,-1.9236146,0.2828306
23,1778317886.361711,-0.50191957,0.19519432,-0.44039157,-0.1142318,-1.88849,0.9071349
24,1778317886.3714814,-0.46521008,0.33349505,-0.6429643,-0.46853364,-1.5749633,1.1586586
25,1778317886.3815155,-0.10189619,0.4027064,-0.3456909,-0.9627236,-1.0977248,1.2742649
26,1778317886.391689,-0.022501312,0.3770952,-0.2139759,-0.907593,-1.1082623,1.1418599
27,1778317886.4016376,-0.022501312,0.3770952,-0.2139759,-0.907593,-1.1082623,1.1418599
28,1778317886.411583,0.054576356,0.29672462,-0.02628202,-0.56046885,-1.2666291,0.72204274
29,1778317886.4213743,0.06512575,0.25623447,0.05744238,-0.56046885,-1.2666291,0.72204274
30,1778317886.43168,0.06512575,0.25623447,0.05744238,-0.23716843,-1.24082,0.33582318
31,1778317886.4418643,0.09287128,0.18818171,0.1817789,-0.01786781,-1.0607675,0.05955936
32,1778317886.4518266,0.16909523,0.15232596,0.14769155,0.12935072,-0.6093381,-0.2556471
33,1778317886.4615977,0.16909523,0.15232596,0.14769155,0.13133603,0.19883664,-0.6436992
34,1778317886.471607,0.34471524,-0.010732334,-0.07195542,-0.052687127,1.1418599,-1.1195632
35,1778317886.4813335,0.18744996,-0.13153206,-0.18537667,-0.3390302,1.9610301,-1.5231925
36,1778317886.4914522,-0.05744238,-0.19141361,-0.3273362,-0.98471475,3.315013,-1.761888
37,1778317886.5013812,-0.3009322,-0.27971146,-0.7139441,-1.4647021,4.056145,-1.7455474
38,1778317886.5115037,-0.4121582,-0.36642382,-0.9974972,-1.655903,4.306142,-1.7284433
39,1778317886.5218332,-0.4121582,-0.36642382,-0.9974972,-2.3405302,5.025741,-1.6568192
40,1778317886.531631,-0.74278724,-0.86913604,-1.6779637,-5.2931476,5.395009,-1.2111931
41,1778317886.5415378,-0.74278724,-0.86913604,-1.6779637,-5.840177,2.7714956,-0.8549059
42,1778317886.5518541,-0.67010003,-1.203058,-1.3566645,-5.13814,-1.1232284,-0.44257188
43,1778317886.5617037,-0.025733208,-1.8876101,-0.8706606,-3.658472,-3.5175147,-0.34330627
44,1778317886.571805,0.29648072,-2.3567839,-1.235255,-2.46927,-2.7064385,-0.5317582
45,1778317886.5814838,0.5046026,-1.7852871,-0.18281554,0.110413894,2.6554313,-1.5010486
46,1778317886.591456,0.45392892,-1.3712995,0.19476746,1.280679,5.0723195,-2.409558
47,1778317886.6014652,0.37160707,-1.4948434,-0.5046636,1.3489432,5.309488,-3.147636
48,1778317886.6113648,0.18690115,-1.6730244,-1.3614819,0.69058317,5.352707,-3.3420436
49,1778317886.6213734,0.18690115,-1.6730244,-1.3614819,-0.38591412,3.8967094,-2.978579
50,1778317886.631652,-0.6318052,-1.5383825,-0.17580293,-0.6646214,-1.3310753,-1.3301591
51,1778317886.6416802,-0.6318052,-1.5383825,-0.17580293,-0.6646214,-1.3310753,-1.3301591
52,1778317886.651485,0.009695687,-1.9950554,0.28708994,1.2867876,-3.2340734,1.3933836
53,1778317886.6616995,0.43130565,-2.514049,0.30751795,2.8006644,-0.46777007,1.638646
54,1778317886.6716428,0.45051408,-2.6598504,0.4997243,4.340961,2.225535,1.1940888
55,1778317886.6817634,0.33117786,-2.7640638,0.60905993,5.0723195,2.2759311,0.65469486
56,1778317886.691807,0.28635818,-3.1861005,0.193182,5.245042,1.4103352,-0.0983493
57,1778317886.7017398,0.20379238,-3.5438652,-0.17866896,4.6425757,1.2008084,-0.6087272
58,1778317886.7115402,0.056954544,-3.6835077,-0.2572711,3.399465,0.9309586,-1.0624474
59,1778317886.721465,-0.06646729,-3.5612445,-0.23647723,2.6225972,0.7545713,-1.0714576
60,1778317886.7316625,-0.4122192,-2.9276707,-0.2783699,1.4576772,0.5299256,-0.3622431
61,1778317886.7417316,-0.46673456,-2.2615952,-0.26745462,0.44303003,0.6310238,1.1337659
62,1778317886.751691,-0.43813533,-1.6716218,-0.3899008,0.022296581,0.9398162,2.3290765
63,1778317886.7617939,-0.30983517,-1.1535429,-0.38416874,0.43844852,0.9434814,3.3041701
64,1778317886.7716281,-0.19330397,-0.8598063,-0.48265013,0.9976957,0.2950479,3.7591121
65,1778317886.7818575,-0.10531103,-0.579668,-0.655648,1.4410311,-0.9014844,4.0080395
66,1778317886.791621,-0.08506594,-0.4300251,-0.6147919,1.5546521,-1.772731,4.020257
67,1778317886.8015647,-0.029513916,-0.21409786,-0.7714474,1.4401149,-2.5289822,3.8582249
68,1778317886.8118687,0.027318668,-0.042075627,-0.79248524,1.1038336,-2.6565003,3.6540432
69,1778317886.8215497,0.027318668,-0.042075627,-0.79248524,0.77518797,-2.6671903,3.4542902
70,1778317886.8318567,0.107750185,0.0954324,-0.66296554,0.15699236,-2.5302038,3.0547843
71,1778317886.841604,0.13336144,0.124031626,-0.47051528,0.15699236,-2.5302038,3.0547843
72,1778317886.8515081,0.09183463,0.15854584,-0.4131339,-1.0607675,-1.9162843,2.221106
73,1778317886.8616786,0.044453815,0.16025324,-0.45502654,-1.5131133,-1.4611896,2.0575469
74,1778317886.8714194,-0.03152623,0.21678093,-0.70498013,-2.4234552,-0.02443461,2.0415115
75,1778317886.8814368,-0.07469948,0.34087354,-0.69943106,-2.9581149,1.3348932,2.1224513
76,1778317886.8914776,-0.039331563,0.32556778,-0.49454108,-3.2305608,2.0783162,2.1303926
77,1778317886.901457,-0.026403978,0.32739717,-0.4311837,-3.2435417,1.9000963,2.0615175
78,1778317886.9115777,-0.007073583,0.29574898,-0.33733675,-3.059824,0.7279987,1.8580993
79,1778317886.9216964,-0.0034148335,0.27117437,-0.28739482,-2.9816332,0.27183503,1.7828102
80,1778317886.9318979,-0.000365875,0.2470876,-0.24086772,-2.7866144,-0.7939721,1.624138
81,1778317886.941377,0.005793021,0.20946345,-0.16647314,-2.7479773,-0.9805914,1.5978707
82,1778317886.951442,0.0043905,0.13269067,-0.028355313,-2.6138923,-1.6134478,1.521818
83,1778317886.9617424,0.066223375,0.015671646,0.23379412,-2.44285,-2.1583397,1.4781412
84,1778317886.9714916,0.10092052,0.008598062,0.2742843,-2.1713204,-2.5535696,1.4404203
85,1778317886.9818301,0.10092052,0.008598062,0.2742843,-1.5645787,-2.9138272,1.320996
86,1778317886.9913704,0.24550213,-0.016220458,0.5204572,-1.1432343,-2.9768991,1.1817188
87,1778317887.0016398,0.29989552,-0.03561183,0.6238779,-0.2507602,-3.0072896,0.83260936
88,1778317887.011651,0.29989552,-0.03561183,0.6238779,-0.2507602,-3.0072896,0.83260936
89,1778317887.0219204,0.41581696,-0.15208204,0.66985613,1.6380352,-2.6282477,-0.124005646
90,1778317887.0315394,0.34252,-0.2037314,0.60015696,2.1329887,-2.4182627,-0.4437936
91,1778317887.0418227,0.16513158,-0.33849534,0.4376475,2.6293168,-2.2627976,-0.7142542
92,1778317887.0514793,0.16513158,-0.33849534,0.4376475,2.6293168,-2.2627976,-0.7142542
93,1778317887.0618021,0.080614455,-0.6860156,0.29983455,2.926808,-2.3003657,-1.1209377
94,1778317887.0717816,0.0600035,-1.2737938,0.23050125,2.3887885,-2.6554313,-1.4842498
95,1778317887.0818202,-0.45240447,-2.4222755,0.26684484,1.3454307,-3.1390839,-1.7936531
96,1778317887.0923998,-1.150189,-3.2936068,0.27422333,0.75716746,0.35521814,-1.4289665
97,1778317887.1014981,-2.20147,-4.30641,-0.108298995,-0.04841107,5.996406,-0.8202393
98,1778317887.111761,-2.0420094,-4.8819923,0.06579652,0.3407101,8.10832,-0.957684
99,1778317887.1215057,-2.0420094,-4.8819923,0.06579652,0.3407101,8.10832,-0.957684
100,1778317887.131457,-2.3684309,-3.9533405,-0.1797666,2.609769,1.9807305,-3.0560062
101,1778317887.1416266,-2.3684309,-3.9533405,-0.1797666,3.3078353,0.68035114,-2.36863
102,1778317887.151762,-2.4194095,-2.2968414,-0.51417637,3.499189,-0.13148874,-0.57818395
103,1778317887.161793,-1.9421254,-1.510698,-0.64284235,3.499189,-0.13148874,-0.57818395
104,1778317887.171562,-1.4491699,-0.91639495,-0.8346219,2.0697641,-0.9969321,2.1644483
105,1778317887.1815274,-1.1039668,-0.55326396,-0.8414515,0.7799222,-1.4089607,2.698039
106,1778317887.191505,-0.67223436,-0.25897855,-0.6181458,-0.36651915,-2.0911446,2.8588493
107,1778317887.2014878,-0.40947512,-0.14537434,-0.39130333,-0.36651915,-2.0911446,2.8588493
108,1778317887.2113297,-0.1334834,-0.0009146876,-0.15781409,-1.3831517,-2.3472497,2.474768
109,1778317887.221337,0.0071345624,0.102262065,-0.054515377,-1.4839444,-1.9092593,2.140319
110,1778317887.231833,0.0071345624,0.102262065,-0.054515377,-1.4839444,-1.9092593,2.140319
111,1778317887.2413568,0.21019518,0.13677627,0.08287069,-1.4807373,-1.6368134,2.025171
112,1778317887.2517042,0.21019518,0.13677627,0.08287069,-1.3655893,-0.75487673,1.5564847
113,1778317887.2618263,0.3420931,0.13799585,0.21037814,-1.1039863,-0.065209866,1.1244502
114,1778317887.2713559,0.17769329,0.1879378,0.21867129,-0.32498032,1.2279918,0.36713
115,1778317887.2813292,0.15458219,0.17147341,0.16561942,0.054061573,1.893835,0.2967278
116,1778317887.291671,0.1478135,0.16787565,0.057381395,0.27152961,2.3295345,0.23090707
117,1778317887.3016512,0.17903483,0.21068303,-0.27275982,0.25977045,3.062573,0.14172074
118,1778317887.311354,0.18671821,0.26617405,-0.5341165,-0.14156802,4.0672936,0.010842858
119,1778317887.3216374,0.16671704,0.3158111,-0.79394877,-0.5694791,4.4968843,-0.13790283
120,1778317887.3315258,0.07768746,0.061467,-1.0982348,-0.860251,4.296368,-0.34422258
121,1778317887.3418303,0.07768746,0.061467,-1.0982348,-1.019076,3.8815904,-0.39171734
122,1778317887.3513632,-0.3677044,-0.5518005,-0.8152305,-1.1898128,2.8600712,-0.5030475
123,1778317887.3616855,-0.3677044,-0.5518005,-0.8152305,-1.1009319,-0.79519385,-0.4784602
124,1778317887.3716276,-0.1783031,-0.5192986,-0.68272275,-1.467451,-2.8973339,-1.261284
125,1778317887.3817964,-0.43350092,-1.159214,-0.5146032,-2.4894285,-2.8435776,-2.2623394
126,1778317887.3914702,-0.66985613,-1.9409668,-0.37227783,-3.2517884,-3.0488284,-3.1157181
127,1778317887.401835,-1.2632444,-2.8551056,0.04494165,-3.2517884,-3.0488284,-3.1157181
128,1778317887.4118142,-2.4484355,-3.1409152,0.8110839,-3.6018143,-4.5474334,-3.5810447
129,1778317887.4218767,-2.9834669,-2.9239511,1.053598,-1.5839735,-2.5653286,-0.71776664
130,1778317887.43213,-2.300927,-2.157443,0.68211293,-0.79381937,-1.3709344,0.55756724
131,1778317887.4417367,-1.6046059,-1.7642492,0.27727225,0.35246924,1.1076514,2.5305092
132,1778317887.451742,-1.6046059,-1.7642492,0.27727225,0.35246924,1.1076514,2.5305092
133,1778317887.4614093,-0.8608429,-1.2125708,-0.083480485,0.5222898,1.9601139,2.7113254
134,1778317887.4716241,-0.44063547,-0.5390558,-0.11323831,0.56779927,1.836719,1.2739595
135,1778317887.4816244,-0.36227724,-0.32636052,-0.13592257,0.87781334,1.5118915,0.48075095
136,1778317887.4917586,-0.3594112,-0.18501079,-0.17549805,1.1307116,1.1074986,0.07742717
137,1778317887.5014849,-0.37337545,-0.08159013,-0.26891813,1.4417948,0.81290895,-0.082161374
138,1778317887.511514,-0.3999014,-0.114153,-0.3266654,1.5717562,0.8071057,-0.0033597588
139,1778317887.5215049,-0.3999014,-0.114153,-0.3266654,1.5717562,0.8071057,-0.0033597588
140,1778317887.5315938,-0.4926507,-0.5406413,-0.4414282,1.1016954,0.92485,0.32436943
141,1778317887.5415459,-0.50539535,-0.6641851,-0.44777006,0.7328856,0.87017757,0.32818735
142,1778317887.5514994,-0.54149497,-0.81504756,-0.44368443,0.7328856,0.87017757,0.32818735
143,1778317887.561632,-0.54149497,-0.81504756,-0.44368443,0.007483099,0.70738196,0.34681875
144,1778317887.571593,-0.58942467,-0.8829783,-0.37672928,-0.81321436,0.44318274,0.54153204
145,1778317887.5814178,-0.59155893,-0.85352546,-0.2057437,-1.1082623,0.3191771,0.79717916
146,1778317887.5916066,-0.38270527,-0.67949086,-0.07768746,-0.7527387,0.118966006,1.1936307
147,1778317887.6015685,-0.38270527,-0.67949086,-0.07768746,-0.7527387,0.118966006,1.1936307
148,1778317887.6117198,-0.20757309,-0.5688137,-0.10183521,0.10445796,0.22052236,0.68019843
149,1778317887.6215408,-0.19854817,-0.5204572,-0.16757075,0.34987307,0.34284812,0.32574388
150,1778317887.6313512,-0.25629544,-0.51600575,-0.24306297,0.3930918,0.36193767,0.035430185
151,1778317887.64173,-0.29239509,-0.52198166,-0.25903952,0.3678936,0.32253686,-0.04627304
152,1778317887.6515932,-0.29239509,-0.52198166,-0.25903952,0.3678936,0.32253686,-0.04627304
153,1778317887.6618543,-0.29239509,-0.52198166,-0.25903952,0.3678936,0.32253686,-0.04627304
154,1778317887.671515,-0.4253907,-0.57296026,-0.3003224,0.08384126,-0.13194689,-0.06307184
155,1778317887.6814916,-0.41484126,-0.59412,-0.32800692,-0.1085813,-0.35170567,0.052839845
156,1778317887.691564,-0.27416235,-0.6050963,-0.4311837,-0.54733527,-0.39843684,0.16966783
157,1778317887.7013736,-0.27416235,-0.6050963,-0.4311837,-0.6597345,-0.3022256,0.14294247
158,1778317887.7118185,-0.27416235,-0.6050963,-0.4311837,-0.6597345,-0.3022256,0.14294247
159,1778317887.7217124,-0.27416235,-0.6050963,-0.4311837,-0.6597345,-0.3022256,0.14294247
160,1778317887.7318003,-0.25544173,-0.60790133,-0.485821,-0.6597345,-0.3022256,0.14294247
161,1778317887.741661,-0.25544173,-0.60790133,-0.485821,-0.6597345,-0.3022256,0.14294247
162,1778317887.751433,-0.2122075,-0.8392563,-0.94273794,-2.2841778,1.329701,-0.38744128
163,1778317887.761445,-0.02262327,-1.1465913,-0.35020337,-1.8457294,0.47968194,-1.3819299
164,1778317887.7718463,-0.14232537,-1.2980026,-0.44447714,-1.382388,0.5170974,-1.6540704
165,1778317887.7817397,-0.38612008,-1.4470357,-0.5511297,-1.0067059,1.0775663,-1.8280143
166,1778317887.7916574,-0.38612008,-1.4470357,-0.5511297,-0.82756966,1.3825408,-1.7669277
167,1778317887.8016694,-1.1057962,-1.4366082,-0.32233587,-0.67271537,0.35705075,-1.4349225
168,1778317887.8117204,-1.2876971,-1.2555611,-0.33788556,-0.6754643,-1.2939653,-0.97784257
169,1778317887.821333,-1.4105701,-0.9149315,-0.21665898,-0.8246681,-2.5625796,-0.59635717
170,1778317887.8313808,-1.4124604,-0.64778167,0.103359684,-0.8703303,-3.3534975,-0.16890424
171,1778317887.8418434,-1.3037956,-0.33410487,0.4476481,-0.5981898,-3.4568865,0.34025195
172,1778317887.8516705,-1.2583052,-0.24598998,0.49033347,-0.3286455,-3.147483,0.5694791
173,1778317887.8613791,-1.0896977,-0.0515274,0.2856264,0.20662516,-2.0442605,0.73838335
174,1778317887.8714867,-1.0896977,-0.0515274,0.2856264,0.20662516,-2.0442605,0.73838335
175,1778317887.8814409,-1.419473,0.026769854,-1.0932345,0.42241332,-1.3556627,0.5488624
176,1778317887.8918378,-1.8626697,-0.42081723,-1.2441579,-0.31306845,-1.6470454,0.22571471
177,1778317887.9016423,-1.8945618,-0.71802974,-0.9126143,-0.2678644,-2.4083362,0.04184427
178,1778317887.9114814,-1.8259602,-1.3192234,-0.24159946,0.6597345,-2.7595837,-0.61178154
179,1778317887.9218085,-1.682903,-1.7713838,0.06726002,1.7511979,-1.724778,-1.3588698
180,1778317887.9315553,-1.5795434,-2.028777,0.14397182,2.6865854,0.09728029,-1.8677205
181,1778317887.9415889,-1.5099661,-2.110672,0.15958248,3.2849278,1.645671,-1.8446603
182,1778317887.9513907,-1.4521579,-2.1171968,0.13799585,3.2849278,1.645671,-1.8446603
183,1778317887.961518,-1.3009906,-2.046278,0.08793196,3.9162571,3.6254852,-0.9049969
184,1778317887.9718323,-1.0943931,-1.9026719,0.026403978,3.7551415,3.8321104,-0.102319926
185,1778317887.9817965,-0.8738315,-1.715466,-0.0866514,3.3147075,3.4034357,0.36987892
186,1778317887.9915702,-0.70022374,-1.5505173,-0.24629487,2.8674014,2.9188669,0.59880066
187,1778317888.0015213,-0.42014647,-1.352396,-0.55856913,2.234545,2.3548856,0.8220719
188,1778317888.011477,-0.42014647,-1.352396,-0.55856913,1.9465221,1.9280435,0.923781
189,1778317888.0213215,-0.021769563,-1.1057962,-0.6154018,1.9193386,1.7427986,0.91751957
190,1778317888.0314589,0.1759249,-0.93249345,-0.37611952,2.0378466,1.8854356,0.728915
191,1778317888.0414462,0.2511122,-0.6728441,-0.23720895,1.996613,2.510656,0.3100141
192,1778317888.051798,0.2511122,-0.6728441,-0.23720895,1.996613,2.510656,0.3100141
193,1778317888.0617602,0.063113436,-0.29916382,-0.2180615,1.2522738,3.0164526,-0.2041817
194,1778317888.0715225,-0.11092111,-0.040612124,-0.10927467,0.44135013,2.0691533,-0.36850446
195,1778317888.081872,-0.11092111,-0.040612124,-0.10927467,0.44135013,2.0691533,-0.36850446
196,1778317888.0917597,-0.100432694,0.25903952,0.02262327,-0.47051895,-0.3894266,-0.18692477
197,1778317888.101407,0.0023781876,0.33916613,0.04183171,-0.5511532,-0.80557853,-0.11224649
198,1778317888.1116982,0.03146525,0.3936815,0.010183521,-0.5271767,-1.0737484,-0.12217305
199,1778317888.1216714,0.054820273,0.48289403,-0.0027440626,-0.6085745,-1.2035573,-0.023060163
200,1778317888.1316836,0.15031365,0.49191895,0.032136023,-0.7663304,-0.9447031,0.057421334
201,1778317888.141571,0.21409786,0.47069818,0.15458219,-0.80909103,-0.4906775,-0.035124753
202,1778317888.1518474,0.26446667,0.44624552,0.22489117,-0.7254025,-0.25381452,-0.16646078
203,1778317888.1613724,0.28062615,0.43514732,0.25220984,-0.60032785,-0.018325957,-0.2968805
204,1778317888.1715066,0.28666306,0.41539007,0.2918463,-0.33643404,0.3885103,-0.5305365
205,1778317888.1819146,0.28666306,0.41539007,0.2918463,-0.33643404,0.3885103,-0.5305365
206,1778317888.1917572,0.31483543,0.35898435,0.4063652,0.34605515,1.344209,-1.0752755
207,1778317888.2013621,0.30715206,0.32355547,0.44276974,0.81016004,1.7971655,-1.3139712
208,1778317888.2118587,0.2306232,0.2643447,0.41502422,1.2270756,2.0934353,-1.4746287
209,1778317888.2213585,0.13287361,0.16122891,0.32233587,1.701107,2.1545217,-1.6197093
210,1778317888.2314527,0.13287361,0.16122891,0.32233587,1.701107,2.1545217,-1.6197093
211,1778317888.241905,0.09031015,0.11799469,0.27495506,1.8471038,2.068848,-1.6653714
212,1778317888.251886,-0.14384985,-0.28324825,-0.49429715,2.0787745,2.4226916,-1.7799087
213,1778317888.2617996,-0.31166452,-0.4299641,-0.92700535,1.4785993,3.6134207,-1.7783815
214,1778317888.2716053,-0.31166452,-0.4299641,-0.92700535,1.3067935,3.8389826,-1.7600555
215,1778317888.2815516,-0.4237442,-0.509298,-1.1978748,1.3067935,3.8389826,-1.7600555
216,1778317888.2916505,-0.6852839,-0.6919306,-1.9130385,-0.6693556,5.6527944,-1.3518448
217,1778317888.3017726,-0.6852839,-0.6919306,-1.9130385,-0.6693556,5.6527944,-1.3518448
218,1778317888.3118875,0.13092227,-1.2072656,-0.98036206,-3.396869,2.2455406,-0.7791586
219,1778317888.3218017,0.49027252,-1.4034966,-0.41435343,-3.4481816,-0.8597928,-1.1675162
220,1778317888.3316283,0.6950405,-1.6777807,0.07549221,-3.3861787,-4.011094,-1.9184223
221,1778317888.3416655,1.0139616,-2.482157,0.5957664,-2.902679,-8.074111,-3.6366336
222,1778317888.3518307,1.0615864,-3.427639,0.8675506,0.61911196,-4.6053133,-5.138293
223,1778317888.3617492,-0.24373372,-3.4460547,0.058722936,3.3933563,0.62949663,-5.697082
224,1778317888.3718457,-0.64912325,-3.283911,-0.1030548,3.7308595,1.3454307,-5.0907984
225,1778317888.3818202,-1.2754403,-3.3612328,-0.46453932,3.2467487,1.4475979,-3.3496795
226,1778317888.3915694,-1.8333387,-3.4272733,-0.7471777,2.1830797,2.0195205,-1.3136657
227,1778317888.4016693,-1.9978606,-3.2608,-0.6758931,1.2600623,2.9347494,0.6966918
228,1778317888.4118161,-1.9259661,-3.032677,-0.50454164,0.86727595,2.4662156,2.351984
229,1778317888.4213345,-1.6610725,-2.830775,-0.37093627,1.1104003,1.0216721,3.1687107
230,1778317888.4313858,-1.1623849,-2.640032,-0.29587093,1.820073,-1.3002267,3.3151658
231,1778317888.4415176,-1.1623849,-2.640032,-0.29587093,2.3371704,-2.6311493,2.8131871
232,1778317888.451505,-0.62753665,-2.3400145,-0.55045897,2.3632848,-2.969416,1.7832683
233,1778317888.4615543,-0.535702,-2.309464,-0.5791801,1.868484,-2.4258986,1.3002267
234,1778317888.4718728,-0.47893035,-2.2806818,-0.5072857,1.2090551,-1.7293595,1.1675162
235,1778317888.4817128,-0.4921019,-2.236106,-0.40221858,1.2090551,-1.7293595,1.1675162
236,1778317888.491807,-0.4921019,-2.236106,-0.40221858,0.5151121,-0.81000733,1.4327844
237,1778317888.5018337,-0.32501897,-1.777116,-0.31568915,0.065973446,-0.08536842,2.4793494
238,1778317888.5117283,-0.18952326,-1.4772813,-0.30550563,-0.00870483,-0.66538495,2.9206994
239,1778317888.5217385,-0.07110171,-1.1726295,-0.3035543,-0.26893342,-1.3944527,3.029739
240,1778317888.5318563,0.002134271,-0.93767667,-0.28495565,-0.536187,-1.9269744,2.9949195
241,1778317888.541465,0.08713923,-0.67138064,-0.24172144,-0.84665924,-2.3370178,2.8641944
242,1778317888.5516124,0.14098383,-0.47728392,-0.19982874,-1.059393,-2.4656048,2.699719
243,1778317888.5614688,0.1958041,-0.24946578,-0.1557408,-1.3843733,-2.418721,2.3306036
244,1778317888.571694,0.2095854,-0.14525238,-0.12140953,-1.4706581,-2.3816109,2.2160664
245,1778317888.581568,0.2095854,-0.14525238,-0.12140953,-1.6449074,-2.2637138,1.9106338
246,1778317888.5917723,0.24903892,0.030550564,-0.034026377,-1.6449074,-2.2637138,1.9106338
247,1778317888.601379,0.21611017,0.046466127,0.007378479,-1.8026633,-2.036472,1.3170254
248,1778317888.612171,0.18458393,0.060247418,0.026403978,-1.8202257,-2.0073032,1.0881038
249,1778317888.6216023,0.17000991,0.063235395,0.032745812,-1.87444,-2.1471913,0.87872964
250,1778317888.6316094,0.1568994,0.05549104,0.04256346,-1.9210185,-2.3015876,0.7267769
251,1778317888.6415594,0.19598705,0.016647313,0.08280971,-1.9520199,-2.4465153,0.5160284
252,1778317888.6516166,0.16750978,0.028233355,0.13738607,-1.8289305,-2.313652,0.2919936
253,1778317888.6615784,0.16750978,0.028233355,0.13738607,-1.8289305,-2.313652,0.2919936
254,1778317888.6715686,0.16750978,0.028233355,0.13738607,-1.8289305,-2.313652,0.2919936
255,1778317888.681622,0.16750978,0.028233355,0.13738607,-1.8289305,-2.313652,0.2919936
256,1778317888.6914077,0.16750978,0.028233355,0.13738607,-1.8289305,-2.313652,0.2919936
257,1778317888.7014046,0.10146933,0.2306232,0.015122834,-1.3301591,-1.329701,0.006414085
258,1778317888.7118268,0.20178007,0.7012604,0.09244442,-3.2088752,0.20265454,0.44104472
259,1778317888.7213933,0.2534904,0.61088926,0.24172144,-3.7798815,1.1096367,0.49510628
260,1778317888.7318473,0.21245141,0.36020395,0.36221626,-3.830278,1.8605428,0.30818152
261,1778317888.7417285,0.12110463,0.07646788,0.4288665,-3.5121698,2.2554672,0.14294247
262,1778317888.7516778,0.02713573,0.0028050416,0.43301308,-2.7409523,2.5833492,0.008093964
263,1778317888.7615898,0.02713573,0.0028050416,0.43301308,-2.7409523,2.5833492,0.008093964
264,1778317888.7716672,-0.011220166,0.0060369377,0.32770205,-2.3480134,2.6219864,-0.017715093
265,1778317888.7815003,-0.010915271,0.013598354,0.2842239,-1.4433218,2.4521658,-0.01740966
266,1778317888.7917852,-0.010915271,0.013598354,0.2842239,-1.4433218,2.4521658,-0.01740966
267,1778317888.8014739,0.029391957,-0.033843435,0.040124293,-0.98456204,2.1120665,0.008246681
268,1778317888.8113542,0.017013188,-0.03164819,0.0020732917,-0.54443365,1.4054482,0.048258353
269,1778317888.8215623,0.015549688,-0.034636166,-0.004268542,-0.41416663,1.0983357,0.056199603
270,1778317888.8314047,0.010671355,-0.041526813,-0.011525063,-0.29611692,0.86559606,0.046883907
271,1778317888.8416805,0.008598062,-0.05390558,-0.03872177,-0.11575896,0.6582073,0.027183503
272,1778317888.8518162,-0.3137988,-2.4141042,-3.6866174,0.42913285,8.332507,-0.93111134
273,1778317888.8617766,-1.4716103,-2.768759,-5.3195176,1.9679024,10.413878,-1.6652187
274,1778317888.8716736,-1.4716103,-2.768759,-5.3195176,1.8761199,10.26162,-1.660179
275,1778317888.8813305,-1.2632444,-1.5902147,-1.7662007,1.7243198,8.501717,-1.5234979
276,1778317888.8918934,-1.2632444,-1.5902147,-1.7662007,1.8671097,1.4402676,-0.9808969
277,1778317888.9017835,-0.9593243,-0.9879235,-0.38880318,2.0436497,-3.431841,-0.4370741
278,1778317888.9117923,-0.9058455,-1.1640923,0.31623796,1.5355625,-7.697971,-0.7716755
279,1778317888.9218578,-0.83071923,-1.3309313,0.5055783,1.1407908,-8.544172,-1.162782
280,1778317888.931616,-0.83071923,-1.3309313,0.5055783,1.1407908,-8.544172,-1.162782
281,1778317888.9416928,-0.83071923,-1.3309313,0.5055783,1.1407908,-8.544172,-1.162782
282,1778317888.951702,-0.83071923,-1.3309313,0.5055783,1.1407908,-8.544172,-1.162782
283,1778317888.9613411,-1.3864833,-3.1911008,-0.28208962,-1.7988454,-4.450764,-3.3476942
284,1778317888.9718423,-1.7344304,-4.15445,0.3192869,1.5097535,3.40649,-3.3266194
285,1778317888.9817233,-2.0675597,-4.366779,0.39087647,1.5097535,3.40649,-3.3266194
286,1778317888.9914877,-1.7571757,-3.4495916,-1.0291454,2.5027149,4.959157,-1.5819882
287,1778317889.0014322,-1.7571757,-3.4495916,-1.0291454,2.5027149,4.959157,-1.5819882
288,1778317889.0114598,-1.0735992,-2.219154,-0.7601053,1.8190039,4.548808,-0.6666067
289,1778317889.02157,-0.6257682,-1.3415416,-0.39380345,1.2901474,3.4466543,0.038179077
290,1778317889.0315194,-0.2537953,-0.7773624,0.050002918,1.0827587,2.3231206,0.45356745
291,1778317889.0414405,-0.14403279,-0.5950957,0.07774844,1.0074695,1.9365956,0.41431937
292,1778317889.0517435,-0.044209898,-0.3637407,0.06317442,0.8770498,1.3448198,0.23441954
293,1778317889.0617435,-0.02426971,-0.25153908,0.050124876,0.75869465,0.70417494,0.03756821
294,1778317889.0715723,-0.010122542,-0.121775396,0.03744121,0.6762278,0.13683382,-0.101098195
295,1778317889.081427,0.025367333,-0.03591673,0.020610958,0.64751714,-0.05467244,-0.1525636
296,1778317889.0915298,0.025367333,-0.03591673,0.020610958,0.64751714,-0.05467244,-0.1525636
297,1778317889.101675,0.08677336,0.10878683,-0.09567632,0.66798115,-0.40515637,-0.29168814
298,1778317889.1116347,0.22092752,0.30044436,-0.5149081,0.7452556,0.41874814,-0.24358252
299,1778317889.1216524,0.22434235,0.3409955,-0.5133226,0.6942484,1.9946277,-0.16890424
300,1778317889.1314015,0.18934031,0.32471406,-0.38331506,0.7101309,3.225674,-0.07345655
301,1778317889.1414871,0.17812014,0.3029445,-0.27294275,0.8127562,3.7110064,-0.009162978
302,1778317889.1515381,0.15415533,0.22934265,-0.1806203,0.95737857,3.8438694,0.03573562
303,1778317889.1614969,0.14720371,0.16458277,-0.078663126,1.0097603,3.8098137,0.03191771
304,1778317889.1718497,0.81943804,1.650828,-0.816816,0.7078401,4.042095,-0.0627664
305,1778317889.1816738,0.036282603,1.7847383,-1.1409202,-3.5692856,6.3116126,-0.766025
306,1778317889.191518,0.4027064,1.0554883,0.37331447,-4.130671,-4.15144,-0.66889745
307,1778317889.2013617,0.4027064,1.0554883,0.37331447,-4.130671,-4.15144,-0.66889745
308,1778317889.211623,0.43398872,0.8085838,0.32282373,-1.5141822,-7.251276,-0.45799622
309,1778317889.2218788,0.1797056,0.10287185,0.13000758,-0.86467975,-5.564066,-0.4689918
310,1778317889.2315023,0.02695279,-0.016281437,0.27556485,-0.43493605,-3.0153835,-0.48395798
311,1778317889.2418272,-0.11866546,-0.075675145,0.37489992,-0.43493605,-3.0153835,-0.48395798
312,1778317889.251669,-0.28123593,-0.11092111,0.35160586,0.45158213,1.0352639,-0.27168232
313,1778317889.2614834,-0.36313096,-0.10835998,0.20684133,0.80756384,2.6546676,-0.006414085
314,1778317889.2717671,-0.33203158,-0.14531335,0.082199916,0.9253081,3.732692,0.18341228
315,1778317889.2818289,-0.23129399,-0.18013246,-0.017744938,0.8549059,4.3863177,0.2773328
316,1778317889.2913878,-0.10378654,-0.23092812,-0.24159946,0.52320606,4.9380817,0.2350304
317,1778317889.3015878,-0.15287478,-0.3661799,-0.7868142,-0.18753563,6.468147,0.09605856
318,1778317889.3115137,-0.2642227,-0.6793689,-1.528199,-0.18753563,6.468147,0.09605856
319,1778317889.3215487,-0.2642227,-0.6793689,-1.528199,-1.5764905,10.430066,-0.093462385
320,1778317889.3319561,-0.07415067,-2.7801013,-2.6440568,-2.9883528,10.207711,-1.2498302
321,1778317889.341813,0.33989787,-2.1609797,-0.5363118,-0.7315111,1.3854424,-1.6610953
322,1778317889.3516526,0.43691576,-2.0178616,-0.058540005,0.40744713,-2.8292224,-2.0317378
323,1778317889.361428,0.2373919,-2.2287886,-0.37654635,1.1145236,-5.426469,-2.3487768
324,1778317889.3715668,-0.10866488,-2.4227633,-1.182691,0.8032878,-4.93854,-2.2710443
325,1778317889.381493,-0.23751387,-2.4303858,-1.1637874,0.39385536,-3.26874,-1.9744692
326,1778317889.3918877,-0.47795472,-2.3850782,-0.7192493,0.05681047,-0.7501425,-1.2982414
327,1778317889.401595,-0.47795472,-2.3850782,-0.7192493,0.05681047,-0.7501425,-1.2982414
328,1778317889.4118564,-0.33636108,-2.233484,-0.055795938,0.344528,0.6400341,-0.14065172
329,1778317889.4217696,-0.29379764,-2.1967745,0.11409202,1.0283916,0.29764408,0.6056729
330,1778317889.431804,-0.3259946,-2.3529422,0.12409261,3.1140382,1.0076222,1.6345227
331,1778317889.4419339,-0.2570272,-2.599481,0.13110521,4.094019,0.7863363,2.2573
332,1778317889.4515026,-0.09823744,-2.9255977,-0.009817646,4.2858305,0.23823744,2.5427265
333,1778317889.4613464,0.0074394583,-3.3103762,-0.39941353,3.9440515,0.19837849,2.5877779
334,1778317889.4713478,0.00951275,-3.5948439,-0.6773566,3.058144,1.3558154,2.2632558
335,1778317889.4816658,-0.14360595,-3.6020396,-0.7447386,2.2853997,2.0665572,1.8142698
336,1778317889.4914675,-0.27556485,-3.4709342,-0.7883387,1.8813123,1.7444785,1.2370021
337,1778317889.5013392,-0.56302065,-2.7034504,-0.8830393,1.9553796,0.24312437,0.9650144
338,1778317889.5115805,-0.6963821,-2.0739625,-1.1034181,1.9553796,0.24312437,0.9650144
339,1778317889.521498,-0.6963821,-2.0739625,-1.1034181,1.9566014,-2.5085182,1.3466524
340,1778317889.5318189,-0.7702279,-1.5274671,-0.93066406,0.49861875,-4.729777,2.1114557
341,1778317889.541644,-0.7782771,-1.4822817,-0.8856005,-0.5841399,-5.773593,2.5416577
342,1778317889.551648,-0.7007726,-1.0089613,-0.46533203,-1.2240212,-6.152024,2.7872255
343,1778317889.5618286,-0.61216986,-0.80309564,-0.2528806,-1.7551686,-6.28,2.97583
344,1778317889.5718348,-0.5234452,-0.6328418,-0.120189935,-1.9346102,-6.1069727,2.95277
345,1778317889.5816588,-0.35520366,-0.3579477,0.04085604,-1.9243783,-5.9212694,2.8110492
346,1778317889.591353,-0.2051949,-0.1156165,0.15391143,-1.8150333,-5.6500454,2.5117252
347,1778317889.6014535,-0.06933331,0.08555377,0.15994836,-1.6035212,-5.3812647,1.9976821
348,1778317889.6115959,-0.06933331,0.08555377,0.15994836,-1.6035212,-5.3812647,1.9976821
349,1778317889.6213284,0.13732508,0.29599288,0.092078544,-0.91706145,-4.3363795,0.8187121
350,1778317889.6317868,0.13732508,0.29599288,0.092078544,-0.91706145,-4.3363795,0.8187121
351,1778317889.6414075,0.100127794,0.09323715,0.06683317,-0.8342892,-4.1143303,0.40973786
352,1778317889.6517627,0.055978876,0.18665724,0.08720021,-0.7324274,-3.9180896,0.43020186
353,1778317889.6620607,0.06238169,0.1911697,0.11397006,-0.58001655,-3.6570976,0.5111415
354,1778317889.6714263,0.10616472,0.1253122,0.11976309,-0.43676865,-3.480252,0.54000485
355,1778317889.6816924,0.10616472,0.1253122,0.11976309,-0.43676865,-3.480252,0.54000485
356,1778317889.6914907,0.096347086,0.045612417,0.10329871,-0.23548855,-3.2919528,0.47051895
357,1778317889.7015214,-0.117689796,0.13702019,-0.59058326,-0.23548855,-3.2919528,0.47051895
358,1778317889.7118554,-0.1606801,0.16427788,-0.75211704,-0.12812899,-3.1447344,0.4202753
359,1778317889.7213933,-0.1575092,0.16007032,-0.80626655,-1.5012014,1.1542299,0.8323039
360,1778317889.7316384,0.028843146,0.08000467,-0.32953143,-3.2030718,6.025422,1.1064297
361,1778317889.741435,0.05286894,0.029574897,-0.042868353,-3.442531,6.657057,0.9665415
362,1778317889.7518227,0.05286894,0.029574897,-0.042868353,-3.4249687,6.635829,0.8588765
363,1778317889.761564,0.036953375,0.013354438,0.099274084,-3.2050571,6.175084,0.63087106
364,1778317889.7713807,0.031160356,0.022257395,0.11726294,-3.0476067,5.838192,0.52519137
365,1778317889.7816026,0.035124,0.037990022,0.12884897,-2.8098273,5.369658,0.40851614
366,1778317889.7915802,0.102566965,0.2022679,0.16702195,-2.8098273,5.369658,0.40851614
367,1778317889.8016787,0.27330863,0.54777586,0.22312276,-1.6187929,3.2275066,0.050701816
368,1778317889.8116562,0.43563515,0.8777341,0.13598356,-0.6418667,1.3917037,-0.24969117
369,1778317889.8216121,0.43563515,0.8777341,0.13598356,-0.6418667,1.3917037,-0.24969117
370,1778317889.8316562,0.43563515,0.8777341,0.13598356,-0.6418667,1.3917037,-0.24969117
371,1778317889.8415797,0.43563515,0.8777341,0.13598356,-0.6418667,1.3917037,-0.24969117
372,1778317889.8516235,-0.03719729,0.029696856,0.050978586,-0.33215797,0.6478226,-0.34208453
373,1778317889.8615255,-0.03439225,-0.021220751,0.030367626,-0.29901853,0.5664248,-0.29061913
374,1778317889.8715699,-0.043722063,-0.038355898,0.01689123,-0.25137106,0.3631594,-0.24220806
375,1778317889.881382,-0.096651986,-0.072870106,0.042136606,-0.1965459,-0.16890424,-0.17012598
376,1778317889.8918543,-0.16647314,-0.12415359,0.10994543,-0.17256944,-0.6000224,-0.14126259
377,1778317889.9017758,-0.2833702,-0.28995594,0.22019579,-0.14676037,-1.3457361,-0.14385876
378,1778317889.9114547,-0.8102912,-1.2133025,-0.6665633,1.7672331,-7.7471457,-0.15134187
379,1778317889.921841,-0.8102912,-1.2133025,-0.6665633,4.1346416,-16.689754,-0.2677117
380,1778317889.931744,-0.7918755,-1.5119784,-1.1029302,4.1346416,-16.689754,-0.2677117
381,1778317889.941793,-1.6399736,-3.2070773,-0.74095786,0.6575964,-9.204212,-3.6406043
382,1778317889.9514065,-1.4863062,-4.927178,0.20391434,-0.3831652,-3.7740781,-4.2626176
383,1778317889.961578,-2.0829265,-5.635146,0.87133133,-0.5914703,-0.41722095,-5.8549905
384,1778317889.971451,-2.488011,-5.9230285,1.6596699,0.7641924,1.4608842,-5.866139
385,1778317889.9813287,-2.4847791,-6.4320216,1.698026,2.6403122,2.6836836,-4.209778
386,1778317889.991349,-2.3108056,-5.604656,0.81455976,3.3976326,3.297298,-2.629164
387,1778317890.0016587,-2.0114589,-4.2048798,0.0515274,3.457192,4.0894375,-0.97784257
388,1778317890.0116546,-1.2428164,-2.3948348,-1.0584154,2.476295,5.8696513,0.2968805
389,1778317890.0215306,-0.7773624,-1.5269793,-1.0053025,1.1453724,6.800152,0.7996226
390,1778317890.03159,-0.7773624,-1.5269793,-1.0053025,0.47158796,5.835748,0.84757555
391,1778317890.041448,-0.37172902,-0.7061388,-0.591193,0.25778514,3.9877284,0.8750645
392,1778317890.0516548,-0.25129515,-0.5397266,-0.43850118,0.31490102,2.2580633,0.9957104
393,1778317890.0616214,-0.08537084,-0.2965417,-0.35526463,0.4531093,1.1508701,1.0735956
394,1778317890.0715833,0.030672522,-0.15135029,-0.32099435,0.6356053,0.39813143,1.1398746
395,1778317890.081509,0.23830658,0.05585692,-0.278065,0.8671232,0.117744274,1.1323915
396,1778317890.0916564,0.36660674,0.13634941,-0.20623155,1.0966558,0.37232238,0.9120218
397,1778317890.1016035,0.38044903,0.17622979,-0.15683842,1.272585,0.768163,0.67164636
398,1778317890.1118503,0.35319135,0.21861032,-0.17171735,1.365742,0.9975429,0.5047274
399,1778317890.1217728,0.3264215,0.23861149,-0.17958365,1.3666582,1.3153456,0.22785273
400,1778317890.1315734,0.3264215,0.23861149,-0.17958365,1.2324207,1.6079501,0.024129177
401,1778317890.1417828,0.23117203,0.18513274,-0.14000817,1.0021244,1.8435913,-0.13087788
402,1778317890.1515555,0.26830834,0.19446257,-0.21330512,0.66507953,2.214081,-0.35827246
403,1778317890.1614347,0.32026258,0.21909817,-0.24922185,0.25992316,2.7687466,-0.5983425
404,1778317890.1718094,0.26922303,0.18775485,-0.11128698,-0.17669277,3.2433891,-0.9601275
405,1778317890.181819,0.26922303,0.18775485,-0.11128698,-0.17669277,3.2433891,-0.9601275
406,1778317890.1913216,0.033721477,0.12756842,0.007683375,-0.41584653,3.0812044,-1.2356277
407,1778317890.2015662,-0.037136313,0.11689706,0.17086363,-0.3746131,2.1088595,-1.2421945
408,1778317890.2113924,-0.08396832,0.14232537,0.254649,-0.17745635,1.2890784,-1.1782063
409,1778317890.2218235,-0.09244442,0.37611952,0.1700709,-0.22861631,1.5045611,-1.2021828
410,1778317890.2316797,-0.09244442,0.37611952,0.1700709,-0.15607607,0.34040466,-1.0746647
411,1778317890.2414165,0.11305538,0.8829174,0.020549979,-2.7366762,-3.1952834,-0.6036876
412,1778317890.251386,0.11305538,0.8829174,0.020549979,-3.4935384,-2.7823384,-1.1443033
413,1778317890.261872,0.26452765,0.7440678,0.3085546,-3.5865426,-2.2852468,-1.6136005
414,1778317890.2718494,0.21056107,0.6694903,0.3228847,-3.4752123,-1.9947804,-1.9668334
415,1778317890.2814493,-0.09921311,0.2845288,0.43124464,-2.1516201,-3.2191072,-1.5725199
416,1778317890.291517,-0.09921311,0.2845288,0.43124464,-2.1516201,-3.2191072,-1.5725199
417,1778317890.3015778,-0.7850458,-0.2022679,-1.0720137,-1.5080736,-1.3203852,0.38423425
418,1778317890.3113768,-0.8210235,-0.31538427,-1.2818431,-2.2656991,0.77854776,0.9072876
419,1778317890.3214767,-0.6492452,-0.5471051,-1.012681,-3.7187948,4.163963,1.5859588
420,1778317890.3318524,-0.6492452,-0.5471051,-1.012681,-3.7187948,4.163963,1.5859588
421,1778317890.341387,-0.5182619,-1.4510603,-1.8863904,-4.430453,7.535939,1.6204728
422,1778317890.3514192,-0.5479588,-3.1153648,-3.4897766,-0.93447113,7.3705473,0.63087106
423,1778317890.3616285,-0.181474,-2.578748,-1.9248075,1.269378,6.3022966,-0.024587326
424,1778317890.3718054,-0.1952553,-1.5844218,-0.25836873,2.8863382,3.9547415,-0.7069238
425,1778317890.3813484,-0.12421457,-1.0825632,0.35197178,3.568064,1.9504927,-1.0989466
426,1778317890.3916526,-0.1510454,-1.2836114,0.37008256,3.7667477,-0.111635625,-1.4034629
427,1778317890.4017937,-0.1510454,-1.2836114,0.37008256,3.7667477,-0.111635625,-1.4034629
428,1778317890.4116933,0.022257395,-1.755956,0.34288585,3.9810088,-5.020396,-2.0329595
429,1778317890.421495,0.3257507,-2.4213,-0.6265609,3.5799758,-4.878828,-2.4619396
430,1778317890.4316194,0.5198474,-2.9915771,-1.2398894,2.2421808,1.1960741,-3.0718887
431,1778317890.4415436,0.5198474,-2.9915771,-1.2398894,2.2421808,1.1960741,-3.0718887
432,1778317890.4518356,0.13391025,-3.1528668,-0.19988972,0.81245077,6.0603943,-2.673299
433,1778317890.4618094,0.12061679,-3.5635617,-0.05292992,0.80970186,4.057367,-1.9979875
434,1778317890.471685,-0.24928285,-3.9316928,-0.14799644,1.3926201,2.5072963,-1.2841915
435,1778317890.4817421,-0.608694,-3.9154723,-0.22293983,2.5789204,0.3539964,-0.12599096
436,1778317890.4916668,-0.98981386,-3.5002654,-0.6694903,3.395189,-1.031446,1.0749701
437,1778317890.5018246,-1.1762271,-2.8105297,-1.0160348,3.395189,-1.031446,1.0749701
438,1778317890.5118928,-1.0725626,-2.2518387,-1.2183638,2.9177978,-0.08399397,3.221856
439,1778317890.5217605,-0.71674913,-1.7454067,-1.0311577,1.8440495,0.17073683,4.2940774
440,1778317890.5316584,-0.35672814,-1.2947707,-0.86889213,0.93737274,-0.63713247,4.871345
441,1778317890.5416617,-0.35672814,-1.2947707,-0.86889213,0.93737274,-0.63713247,4.871345
442,1778317890.5516567,-0.1800105,-0.95200676,-0.7829725,-0.5465717,-3.2606459,4.6886964
443,1778317890.5618312,0.047075916,-0.5257624,-0.5339336,-1.0517572,-4.084092,4.216192
444,1778317890.5718625,0.048051585,-0.37990022,-0.32764107,-1.2684617,-4.223522,3.667635
445,1778317890.5816057,0.002927,-0.25897855,-0.19964579,-1.2707524,-4.002389,3.3153183
446,1778317890.591744,-0.054027542,-0.0962861,-0.10512808,-1.2064588,-3.573867,3.0069842
447,1778317890.6017838,-0.11592139,-0.04841746,-0.02774552,-1.1841623,-3.1595478,2.7907379
448,1778317890.611873,-0.14445965,-0.0027440626,0.010488417,-1.1841623,-3.1595478,2.7907379
449,1778317890.6213553,-0.14445965,-0.0027440626,0.010488417,-1.1830933,-3.02699,2.745992
450,1778317890.6318562,-0.10092052,0.08976133,0.04439283,-1.0025826,-2.6109908,2.6499333
451,1778317890.641876,-0.03140427,0.048661377,0.03719729,-0.9140071,-2.6151142,2.5734227
452,1778317890.6521952,0.10781116,-0.037624147,0.06579652,-0.8579602,-2.8047879,2.4174993
453,1778317890.661414,0.23787974,-0.08274873,0.112689495,-0.79183406,-3.085175,2.1664336
454,1778317890.6717644,0.2959319,-0.10201815,0.15561883,-0.75228053,-3.4019086,1.9559906
455,1778317890.6814163,0.32331154,-0.09555435,0.17696154,-0.5525276,-3.5269833,1.5833627
456,1778317890.6914256,0.27843088,-0.06793079,0.1408009,-0.39660427,-3.396869,1.3445144
457,1778317890.701506,0.29026082,-0.02555027,0.056039855,-0.3623958,-3.3089044,1.1542299
458,1778317890.7114272,0.24105065,0.30007848,-0.3456909,-1.5697709,-0.27305678,1.4245378
459,1778317890.7213979,0.24105065,0.30007848,-0.3456909,-1.5697709,-0.27305678,1.4245378
460,1778317890.7315326,-0.15305771,0.31599405,-0.46740535,-3.2478178,7.085579,2.2858577
461,1778317890.741467,-0.15305771,0.31599405,-0.46740535,-3.2478178,7.085579,2.2858577
462,1778317890.7515185,0.068174705,0.039087646,-0.23367217,-4.3968554,9.587683,2.3113613
463,1778317890.7618482,0.20409729,-0.027013771,0.04847844,-4.5414777,7.8813834,1.7270688
464,1778317890.771695,0.25397822,-0.012988563,0.34288585,-3.7129917,5.2509975,1.1548407
465,1778317890.7813396,0.24513626,-0.011159187,0.5536299,-2.1951442,1.2974777,0.43569964
466,1778317890.7914872,0.20031658,-0.072443254,0.66436803,-0.78984874,-1.2330315,-0.09773844
467,1778317890.8014977,0.2160492,-0.14970386,0.7224812,0.1441642,-2.2941043,-0.41508293
468,1778317890.8113444,0.24733151,-0.23928225,0.76547146,1.0977248,-2.7172813,-0.8556695
469,1778317890.822214,0.24733151,-0.23928225,0.76547146,1.0977248,-2.7172813,-0.8556695
470,1778317890.8318105,0.27660152,-0.31623796,0.79675376,1.6255124,-2.6229026,-1.1542299
471,1778317890.8416917,0.2947733,-0.3869738,0.725957,2.5286767,-2.167808,-1.6476563
472,1778317890.8514922,0.28227258,-0.70699245,0.69174767,3.840968,-0.9114109,-1.9567541
473,1778317890.8616729,0.45392892,-1.2278765,-0.29215118,6.802748,5.7549615,-2.5149322
474,1778317890.8713462,0.45392892,-1.2278765,-0.29215118,6.802748,5.7549615,-2.5149322
475,1778317890.8817885,0.45392892,-1.2278765,-0.29215118,6.802748,5.7549615,-2.5149322
476,1778317890.8914433,0.45392892,-1.2278765,-0.29215118,6.802748,5.7549615,-2.5149322
477,1778317890.9013884,0.13055639,-2.5684426,-2.1318927,6.634149,6.277862,-2.9593368
478,1778317890.9115558,-1.3050761,-4.3800726,-2.848703,0.04428773,1.8371773,-3.688099
479,1778317890.9213905,-1.3050761,-4.3800726,-2.848703,0.04428773,1.8371773,-3.688099
480,1778317890.931352,-1.3050761,-4.3800726,-2.848703,0.04428773,1.8371773,-3.688099
481,1778317890.9414215,-1.048049,-4.398549,-0.73162806,-2.0065396,-7.9598794,-2.6772697
482,1778317890.9516218,-1.0927467,-3.884739,0.14031307,-1.7905988,-9.80454,-1.5181528
483,1778317890.9615092,-1.1077476,-2.7998586,0.45051408,-0.796721,-9.568288,-0.07788532
484,1778317890.9718676,-1.0526834,-2.271413,0.40069413,0.311694,-6.974859,1.712408
485,1778317890.9815652,-0.8315119,-1.7518705,0.2637349,0.79412484,-4.2164974,2.1928535
486,1778317890.991349,-0.6521722,-1.4321568,0.17324181,0.9250027,-2.2307272,2.155438
487,1778317891.0015452,-0.58241206,-0.7449215,0.22025676,1.103528,0.45142943,1.3348932
488,1778317891.0115778,-0.58637565,-0.5371655,0.17683959,1.1597277,2.2386684,0.63697976
489,1778317891.0214658,-0.58637565,-0.5371655,0.17683959,1.1597277,2.2386684,0.63697976
490,1778317891.0317109,-0.608877,-0.27593073,0.10909174,1.0415252,4.2954516,-0.05497787
491,1778317891.04176,-0.608877,-0.27593073,0.10909174,0.89720833,4.802623,-0.013744468
492,1778317891.051579,-0.6104625,-0.15653352,0.06628435,0.89720833,4.802623,-0.013744468
493,1778317891.061668,-0.61674327,0.0034148335,0.04317325,0.7171558,4.935486,0.20815234
494,1778317891.071365,-0.5365557,0.18373023,-0.007561417,0.39080104,4.135405,1.1647673
495,1778317891.081416,-0.4563681,0.18805976,-0.022867188,0.13041973,3.0656273,1.8286251
496,1778317891.0918598,-0.31568915,0.17391258,-0.010915271,-0.051618114,1.824349,2.5589144
497,1778317891.101368,-0.18074225,0.19507235,0.019879209,-0.11927144,0.61208695,3.2381966
498,1778317891.1116788,0.062320713,0.1188484,0.10134738,-0.026725354,-0.54153204,3.7595701
499,1778317891.1216886,0.090554066,0.10622571,0.112140685,-0.026725354,-0.54153204,3.7595701
500,1778317891.1313205,0.35050824,-0.054210484,0.155131,0.40546182,-1.7783815,3.9941423
501,1778317891.1413553,0.532775,-0.17208321,0.13220283,0.77518797,-2.4706445,3.7690387
502,1778317891.1517591,0.6123528,-0.2250741,0.09384694,1.0882565,-3.0071368,3.2691982
503,1778317891.161531,0.6123528,-0.2250741,0.09384694,1.0882565,-3.0071368,3.2691982
504,1778317891.1714265,0.74748266,-0.23781876,-0.063418336,1.2935071,-3.1323643,2.6384797
505,1778317891.1817093,0.88011235,-0.2037314,-0.22928166,1.0948232,-1.4556919,1.5167783
506,1778317891.191618,0.8884665,-0.124641426,-0.22501312,0.9245446,-0.37843102,1.0671816
507,1778317891.2015233,0.82797515,-0.023598937,-0.16074108,0.6733262,0.80680025,0.54901516
508,1778317891.2116787,0.7485803,0.06774786,-0.071467586,0.5766568,1.6922494,0.0033597588
509,1778317891.2217965,0.60930383,0.16635117,-0.005549104,0.63300914,2.1421516,-0.38835758
510,1778317891.2313244,0.4378914,0.27086946,0.07165052,0.98761636,2.9078712,-1.1479685
511,1778317891.2416854,0.3035543,0.3088595,0.045795355,1.3231341,3.211624,-1.74738
512,1778317891.2516515,0.20092636,0.30044436,-0.056344748,1.3231341,3.211624,-1.74738
513,1778317891.2615755,0.20092636,0.30044436,-0.056344748,2.0259347,3.4836118,-3.2114713
514,1778317891.2714326,-0.06811373,0.286846,-0.5146642,2.0410535,3.5692856,-3.83715
515,1778317891.2816594,-0.06811373,0.286846,-0.5146642,1.7502817,3.8782308,-4.4058657
516,1778317891.291611,-0.43941587,-0.08067544,-1.5155762,1.1664472,4.373184,-4.864778
517,1778317891.301641,-0.6567457,-0.46764925,-2.1156723,0.41783184,5.0927835,-5.025283
518,1778317891.3116314,-0.98170364,-1.0269502,-2.9362688,-0.6079636,5.0474267,-5.1827335
519,1778317891.3214023,-0.6727832,-1.5810069,-2.054876,-1.6331482,2.0841196,-5.529247
520,1778317891.331554,-0.4552095,-1.7675422,-1.6622921,-2.5329528,-1.0436633,-6.065281
521,1778317891.3417633,-0.19421865,-2.321111,-0.24714857,-3.428481,-4.562705,-6.433022
522,1778317891.3516252,-0.19421865,-2.321111,-0.24714857,-4.395939,-8.569523,-6.189745
523,1778317891.3613362,-0.22568391,-2.924744,0.57728976,-4.395939,-8.569523,-6.189745
524,1778317891.3714075,0.35721594,-4.9302263,1.3447735,-4.5301766,-10.737942,-5.4270797
525,1778317891.3813372,0.13458103,-4.738325,0.79016805,1.8997909,1.8813123,-2.7867672
526,1778317891.3915367,-0.20464608,-4.0495048,0.30202982,2.6435194,3.6541958,-1.1114693
527,1778317891.4014962,-0.43545225,-3.562891,0.18726702,2.3316727,3.2501085,0.069485925
528,1778317891.4114914,-0.6161945,-3.065301,0.1835473,1.8190039,1.9908098,1.5103643
529,1778317891.4213889,-0.6161945,-3.065301,0.1835473,1.8190039,1.9908098,1.5103643
530,1778317891.4316862,-0.6161945,-3.065301,0.1835473,1.8190039,1.9908098,1.5103643
531,1778317891.4416857,-0.6161945,-3.065301,0.1835473,1.8190039,1.9908098,1.5103643
532,1778317891.4517298,-0.322031,-2.516976,-0.18982814,2.7983737,1.3917037,3.484528
533,1778317891.4613755,-0.67631996,-2.4835596,-0.7888265,4.3973136,1.6849191,0.80481493
534,1778317891.4718485,-1.0934175,-2.2380574,-1.4320958,3.8229475,1.2635747,0.3368922
535,1778317891.4813824,-1.1926916,-1.9267588,-1.7087582,2.3484714,0.29764408,0.93416566
536,1778317891.4918323,-1.0659769,-1.7080265,-1.7004042,1.2649492,-0.82863873,1.4454598
537,1778317891.501434,-0.68467414,-1.3378829,-1.2142172,-0.51053065,-3.3502905,2.2870796
538,1778317891.5114834,-0.51966447,-1.0973811,-0.7709596,-1.1249083,-4.2609377,2.5999951
539,1778317891.5215054,-0.3998404,-0.93188363,-0.5382631,-1.594511,-4.8762317,2.78692
540,1778317891.5313423,-0.32453114,-0.8271825,-0.34697145,-1.9391917,-5.0016117,2.7736337
541,1778317891.5414162,-0.28660208,-0.74162865,-0.24672171,-2.0112739,-4.7594037,2.7178922
542,1778317891.5518568,-0.24897793,-0.5040538,-0.12756842,-2.1077905,-4.1325035,2.5893052
543,1778317891.5614946,-0.2338551,-0.3081887,-0.03292875,-2.1077905,-4.1325035,2.5893052
544,1778317891.5718427,-0.20464608,-0.05573496,0.04616123,-2.025171,-3.0682235,2.48332
545,1778317891.5817037,-0.116592176,0.076406896,0.025489293,-1.958434,-2.787378,2.3738225
546,1778317891.5916736,-0.03872177,0.1934869,0.007378479,-1.9755383,-2.8064678,2.2223277
547,1778317891.6014755,0.03518498,0.27678445,-0.013903251,-2.0167716,-2.944676,2.120466
548,1778317891.6114907,0.056954544,0.24635585,-0.04396598,-2.199573,-3.4768922,1.9370537
549,1778317891.6214292,0.053234816,0.24007498,-0.11464083,-2.4309382,-3.90068,1.9391917
550,1778317891.6317284,0.10299382,0.18537667,-0.18751094,-2.8060095,-3.7074938,2.0335703
551,1778317891.6417298,0.040673107,0.24824621,-0.20830485,-3.2947018,-1.72264,2.4489589
552,1778317891.6517177,-0.08781,0.30831066,-0.21531744,-3.5665367,0.47311515,2.9159653
553,1778317891.6613214,-0.12604393,0.35636225,-0.1838522,-3.8614318,2.5460863,3.4252741
554,1778317891.6716475,-0.06073525,0.3155672,-0.14470357,-4.1534257,3.4434474,3.740786
555,1778317891.6816113,0.1203119,0.20848778,-0.007744354,-4.238183,3.2933273,3.6942077
556,1778317891.6915329,0.16958307,0.16836348,0.14025208,-3.894266,2.6557367,3.424816
557,1778317891.7014282,0.24434352,0.14982581,0.21781757,-3.082426,1.3225232,3.00057
558,1778317891.711619,0.33562934,0.09226148,0.30873755,-2.236225,-0.1518,2.6111436
559,1778317891.7215827,0.3770952,0.06213777,0.339593,-1.7794504,-0.9193522,2.435825
560,1778317891.731771,0.45581928,0.025184397,0.43728164,-1.0021244,-1.6493362,2.0102048
561,1778317891.7418354,0.4622221,0.005732042,0.4520386,-0.675617,-1.8677205,1.7767016
562,1778317891.7516189,0.47704002,-0.0061588963,0.50283426,-0.12385293,-2.0751092,1.3057245
563,1778317891.7616935,0.47704002,-0.0061588963,0.50283426,0.3567453,-2.0459404,0.89766645
564,1778317891.771439,0.4399647,-0.027684543,0.49039447,0.93951076,-1.7017179,0.37125334
565,1778317891.7818506,0.33361703,-0.08274873,0.43100074,1.4320209,-0.9095783,-0.24373524
566,1778317891.791399,0.25952733,-0.1507405,0.40923122,1.7379116,-0.20998493,-0.623388
567,1778317891.80154,0.16689998,-0.25416118,0.26532036,2.1114557,0.5546656,-1.1273518
568,1778317891.8116438,0.16726585,-0.33093393,0.245868,2.1114557,0.5546656,-1.1273518
569,1778317891.8215199,0.16726585,-0.33093393,0.245868,2.1114557,0.5546656,-1.1273518
570,1778317891.831731,0.16726585,-0.33093393,0.245868,2.1114557,0.5546656,-1.1273518
571,1778317891.841517,0.16726585,-0.33093393,0.245868,2.1114557,0.5546656,-1.1273518
572,1778317891.8518703,0.18805976,-0.4115484,0.234221,3.705356,2.3660338,-3.114649
573,1778317891.861654,0.11720196,-2.9811497,-0.14013013,5.867513,3.005457,-7.2934256
574,1778317891.8718853,-0.34136137,-4.8701015,-1.53948,6.2186084,6.7170744,-7.4372845
575,1778317891.881334,-1.8908421,-6.573372,-3.652896,6.2186084,6.7170744,-7.4372845
576,1778317891.8915396,-2.0231059,-7.2117014,-3.7689395,1.8186985,11.096519,-4.332562
577,1778317891.901564,-2.1432958,-6.312746,-2.754246,0.41615194,3.0159945,-3.3302846
578,1778317891.9117901,-2.1301851,-3.9209604,-1.390264,-0.7820602,-5.710674,-1.653154
579,1778317891.921504,-2.1301851,-3.9209604,-1.390264,-0.7820602,-5.710674,-1.653154
580,1778317891.931566,-1.4186194,-2.166041,-0.5568008,-1.7458528,-8.572883,1.8526015
581,1778317891.9416387,-1.1029912,-1.6594871,-0.20360945,-2.1088595,-8.660389,3.0066788
582,1778317891.9518874,-0.8317558,-1.1848862,0.1235438,-1.7747163,-7.0878696,2.9590313
583,1778317891.9617443,-0.70376056,-0.70876086,0.29294392,-1.6461291,-6.0773454,2.8272371
584,1778317891.9718676,-0.49252874,-0.4656369,0.38294917,-1.4395039,-4.7977357,2.4269676
585,1778317891.9813695,-0.436062,-0.242941,0.47142997,-1.2470814,-3.6537378,1.9700404
586,1778317891.9913962,-0.25135612,-0.010366458,0.49954134,-1.0569496,-2.6410758,1.5662584
587,1778317892.0018454,-0.25135612,-0.010366458,0.49954134,-1.0569496,-2.6410758,1.5662584
588,1778317892.0116506,0.26684484,0.15391143,0.7089438,-0.62781674,-1.4036156,0.39278635
589,1778317892.0215518,0.42221975,0.06457694,0.6453425,-0.43508878,-1.4301883,-0.46838093
590,1778317892.0318115,0.56417924,0.0010366458,0.6396715,-0.32375857,-1.6998852,-1.2289082
591,1778317892.041797,0.7605322,0.17763232,0.5481417,-0.25121832,-1.8041905,-1.8038851
592,1778317892.0515347,0.7605322,0.17763232,0.5481417,-0.25121832,-1.8041905,-1.8038851
593,1778317892.0615227,0.69626015,0.22659859,0.4133168,-0.4269948,-1.3028228,-2.3974934
594,1778317892.0715885,0.69626015,0.22659859,0.4133168,-0.4269948,-1.3028228,-2.3974934
595,1778317892.081828,0.25586858,0.3533133,0.046039272,-0.8035932,0.8938486,-2.239432
596,1778317892.0916429,0.07537025,0.32581168,-0.06262561,-0.7107417,4.4431286,-1.7531832
597,1778317892.1016965,0.029574897,0.27843088,-0.07000408,-0.41783184,7.739052,-1.2547172
598,1778317892.1118248,0.040612124,0.23867247,-0.09896919,-0.07727446,9.669081,-0.98715824
599,1778317892.1217644,0.073175006,0.30684718,-0.125861,0.51175237,11.132408,-0.7151705
600,1778317892.131754,0.1803154,0.3916082,-0.22818404,1.6427693,10.804374,-0.44516805
601,1778317892.1417582,0.29270002,0.38618106,-0.699614,2.5163066,7.4533195,-0.18646662
602,1778317892.1513965,0.31867713,0.25355136,-0.7513853,2.5456283,3.96589,-0.028252518
603,1778317892.1618369,0.32629952,0.19842622,-0.66662425,2.420248,2.154827,-0.12889257
604,1778317892.1716805,0.32629952,0.19842622,-0.66662425,2.420248,2.154827,-0.12889257
605,1778317892.1817138,0.08933448,0.14238635,-0.65790427,1.698358,-0.45738536,-1.3058772
606,1778317892.1914268,0.0022562293,0.13220283,-0.64442784,1.0919216,-0.6818783,-1.8823812
607,1778317892.2017536,-0.058052167,0.11317733,-0.64418393,0.44119743,-0.48441613,-2.3907738
608,1778317892.211752,-0.12238518,0.04677102,-0.65137947,-0.11530081,-0.069485925,-2.7748554
609,1778317892.2218893,-0.19927992,-0.15592372,-0.74095786,-0.8206975,0.7435757,-3.2064316
610,1778317892.2313683,-0.19927992,-0.15592372,-0.74095786,-0.8206975,0.7435757,-3.2064316
611,1778317892.2413387,-0.36599696,-0.70924866,-1.3180037,-2.3353379,3.1774156,-3.247054
612,1778317892.2516284,-0.41764635,-1.2525121,-1.8329729,-2.9173398,5.2174,-2.7591257
613,1778317892.2615836,-0.34880084,-1.7796769,-1.5770432,-2.8539624,4.680297,-2.4901922
614,1778317892.271804,-0.063113436,-1.8496201,-0.9615805,-2.521499,3.2777503,-2.5024095
615,1778317892.2815382,0.18025441,-1.6735123,-0.044880666,-2.620612,-2.1583397,-2.6381743
616,1778317892.2914348,0.32953143,-1.8844392,0.6592458,-3.0821207,-7.134295,-2.640465
617,1778317892.3017704,0.8848077,-2.4583142,1.1129308,-2.7407997,-10.939222,-2.8173106
618,1778317892.3119967,1.4811231,-3.3584886,1.5552127,0.24312437,-7.7466874,-3.1740558
619,1778317892.3216438,1.5222839,-3.6197844,1.0809777,3.1230485,-1.0002918,-3.5902078
620,1778317892.331858,1.2669032,-3.693996,0.53033584,4.3559275,2.915507,-3.7575848
621,1778317892.3417938,0.63485414,-3.696923,-0.04384402,4.5752277,6.4820437,-3.0164526
622,1778317892.351642,0.3255068,-3.7128384,-0.25721014,3.5483634,5.706245,-2.356718
623,1778317892.361845,0.1598264,-3.661189,-0.43868414,2.3736696,4.84294,-1.6882788
624,1778317892.3718746,0.1598264,-3.661189,-0.43868414,1.2518156,5.8012347,-0.9935723
625,1778317892.3813686,0.02134271,-3.4847763,-0.6508306,0.5497787,8.299063,-0.12660182
626,1778317892.3916876,0.2754429,-3.1795757,-0.3204455,1.1484267,8.437729,0.81000733
627,1778317892.401456,0.4463675,-2.7555265,-0.35319135,2.2951734,6.310238,1.3309226
628,1778317892.4115684,0.5014927,-2.3404415,-0.9607268,3.1019738,2.2896757,1.8999436
629,1778317892.4213793,0.491736,-2.1461618,-1.1167115,2.4912612,-0.86009824,2.5027149
630,1778317892.4317484,0.47966215,-2.0760357,-0.9933506,1.9110919,-2.2999077,2.7591257
631,1778317892.4413636,0.38148567,-1.8667552,-0.6433912,1.112691,-4.166101,2.9895744
632,1778317892.45152,0.2874558,-1.6747928,-0.47728392,0.8229882,-5.0035973,3.1202996
633,1778317892.4614463,0.22464725,-1.5136249,-0.3963646,0.8229882,-5.0035973,3.1202996
634,1778317892.4716377,0.13982524,-1.3472737,-0.33934906,0.41615194,-5.512601,3.360217
635,1778317892.4816983,0.03603869,-1.1135406,-0.29641974,0.41615194,-5.512601,3.360217
636,1778317892.4914207,-0.055552024,-0.8968816,-0.23830658,-0.18646662,-5.102557,3.8634171
637,1778317892.5013518,-0.09957898,-0.6711367,-0.21885422,-0.5169447,-4.765665,4.17954
638,1778317892.5113926,-0.1355567,-0.42862257,-0.23861149,-0.9460775,-4.6302056,4.416403
639,1778317892.5214205,-0.046405144,-0.16952209,-0.26166162,-1.3762794,-4.658458,4.548808
640,1778317892.5317395,0.032440916,0.028782167,-0.1676927,-2.6804767,-3.8235583,3.3695326
641,1778317892.5417526,0.06866254,0.006219875,-0.10659158,-2.980106,-3.8139372,3.3125696
642,1778317892.551382,0.1414107,0.17293692,-0.07189444,-3.532481,-3.3953416,3.1535919
643,1778317892.5618205,0.12592198,0.27349156,-0.07305304,-4.083787,-3.17879,3.042109
644,1778317892.5715554,0.18171792,0.14714272,0.022867188,-4.677548,-3.1070135,2.9768991
645,1778317892.5816138,0.30215177,-0.021769563,0.112567544,-4.9264755,-2.866638,2.7936394
646,1778317892.5917387,0.36831418,-0.024757542,0.10464026,-5.0057354,-2.2015584,2.5167649
647,1778317892.6018603,0.4300251,0.056344748,0.18976717,-5.136002,-1.0920744,2.1745276
648,1778317892.6114697,0.43734258,0.26617405,0.40532854,-4.4512224,1.7305813,1.9204077
649,1778317892.6216187,0.55442256,0.42606148,0.44484302,-3.6300666,4.0732493,1.7082846
650,1778317892.631415,0.7594345,0.7206518,0.55741054,-2.4007003,5.6425624,1.3665055
651,1778317892.6416035,0.63863486,0.951458,0.37502187,-0.7295258,4.672661,0.8165741
652,1778317892.6513646,0.4114874,1.150189,0.13452004,-0.3736968,2.7655396,0.5899431
653,1778317892.6618507,0.27580878,1.0880512,0.039209604,-0.19013181,1.2392929,0.4445572
654,1778317892.671357,0.21708584,0.6605873,-0.08537084,0.065515295,-0.29657507,0.13362677
655,1778317892.6816385,0.21708584,0.6605873,-0.08537084,0.065515295,-0.29657507,0.13362677
656,1778317892.6918292,0.21708584,0.6605873,-0.08537084,0.31795537,-1.5590808,-0.3390302
657,1778317892.7015905,-0.019879209,-0.086163566,-0.20769504,0.4334089,-1.779756,-0.3680463
658,1778317892.711586,-0.03164819,-0.16433886,-0.21147576,0.38683042,-1.5830573,-0.27198774
659,1778317892.721631,0.011281146,-0.22861089,-0.1823277,0.38683042,-1.5830573,-0.27198774
660,1778317892.7315667,0.06256463,-0.24733151,-0.12817821,0.08597928,-1.2890784,-0.22510384
661,1778317892.7413914,0.077077664,-0.24525821,-0.037014354,-0.12095132,-1.1030699,-0.33490688
662,1778317892.751403,0.082626775,-0.2566613,0.012805625,-0.23457226,-0.6453791,-0.42821655
663,1778317892.7617679,0.082626775,-0.2566613,0.012805625,-0.19960022,0.24113905,-0.49754974
664,1778317892.771386,0.17927876,-0.3488618,0.106957465,-0.01985312,1.613906,-0.5714644
665,1778317892.7818162,0.36764342,-0.51137125,0.13549572,0.59895337,4.312403,-0.798859
666,1778317892.7915187,0.67747855,-0.86639196,0.054515377,2.0610592,9.1084585,-1.5100589
667,1778317892.801446,0.8178526,-1.510454,-0.48893097,3.772551,14.557682,-2.6555839
668,1778317892.8113868,0.8178526,-1.510454,-0.48893097,3.772551,14.557682,-2.6555839
669,1778317892.8217986,0.110616215,-3.993038,-3.190247,5.689599,7.436063,-3.602883
670,1778317892.8317368,-0.30379823,-4.46709,-2.970783,2.6624563,2.8571694,-3.2061262
671,1778317892.841568,-0.3273362,-4.8516855,-1.5640547,-0.4025602,-2.3431263,-2.349693
672,1778317892.851364,0.039209604,-4.7542405,-0.26166162,-1.0897835,-6.3716297,-2.0260873
673,1778317892.861667,-0.18952326,-4.566425,-0.06104015,-0.8970556,-7.595346,-1.6481144
674,1778317892.8718534,-0.18952326,-4.566425,-0.06104015,-0.59437186,-7.0976434,-1.2608259
675,1778317892.8815594,-0.71827364,-3.118048,-0.1343371,0.10888673,-4.89975,-0.5502369
676,1778317892.891336,-0.7169931,-2.4333127,-0.17202222,0.46288314,-2.42147,0.6198755
677,1778317892.901796,-0.60948676,-1.9648097,-0.13031249,0.6391178,-1.1166617,1.7614299
678,1778317892.9114594,-0.4693567,-1.6217409,-0.07067485,0.8585711,-0.47876564,2.5865562
679,1778317892.921331,-0.4693567,-1.6217409,-0.07067485,1.1800389,-0.13469578,3.3843462
680,1778317892.931749,-0.18519373,-1.2737329,-0.004573438,1.4595097,-0.1797471,3.8698313
681,1778317892.941803,-0.05939371,-1.1348224,0.046832,1.7290541,-0.4286747,4.05416
682,1778317892.9518108,0.010305479,-0.9961557,0.043722063,2.0325015,-0.64599,4.000862
683,1778317892.9613764,0.030123709,-0.8319997,-0.009207855,2.3533583,-0.762818,3.8269181
684,1778317892.9718165,0.005549104,-0.6665023,-0.0898833,2.4882069,-0.764956,3.6135733
685,1778317892.9815774,0.005549104,-0.6665023,-0.0898833,2.613129,-0.743423,3.6135733
686,1778317892.9916575,0.017744938,-0.4025235,-0.11671413,2.8052459,-0.5684101,3.2995887
687,1778317893.0015082,0.017744938,-0.4025235,-0.11671413,2.8052459,-0.5684101,3.2995887
688,1778317893.0114346,-0.04036821,-0.095066525,-0.22611076,3.1180089,-0.036193766,2.381
689,1778317893.0216832,0.08335852,0.28727287,-0.59698606,2.8878655,0.21090123,1.4121678
690,1778317893.031614,-0.007378479,0.08018761,-0.37916848,2.8878655,0.21090123,1.4121678
691,1778317893.041543,0.2654423,0.51673746,-0.82925564,0.10995574,-0.42241332,0.054367006
692,1778317893.051386,0.2815408,0.47551554,-0.70607775,-0.86758137,-0.32238412,-0.21792617
693,1778317893.0617938,0.30215177,0.43258622,-0.544361,-1.6569719,-0.3463606,-0.4662429
694,1778317893.071649,0.33422682,0.41276798,-0.43258622,-2.127491,-0.50915617,-0.644921
695,1778317893.0816448,0.39813298,0.38892514,-0.2652594,-2.545781,-0.9036224,-0.838718
696,1778317893.0913577,0.4267322,0.37624148,-0.18080322,-2.712089,-1.308626,-0.9445504
697,1778317893.1016877,0.4267322,0.37624148,-0.18080322,-2.7743971,-2.1294763,-1.1287262
698,1778317893.1115613,0.620524,0.13689823,0.1185435,-2.4608707,-2.510198,-1.42973
699,1778317893.121532,0.61601156,0.033599522,0.2309891,-2.1749856,-2.6374106,-1.7159204
700,1778317893.1315162,0.45246542,-0.14037405,0.3536182,-1.8695531,-2.4642303,-1.8849775
701,1778317893.1415691,0.30288354,-0.2511732,0.43374482,-1.5311338,-2.106416,-1.9341521
702,1778317893.151593,0.30288354,-0.2511732,0.43374482,-1.0790935,-1.1270463,-1.9440787
703,1778317893.161515,0.30288354,-0.2511732,0.43374482,-1.0790935,-1.1270463,-1.9440787
704,1778317893.1717951,-0.18452296,-0.22885482,0.46880785,-0.13744467,2.0602958,-1.8625281
705,1778317893.1814344,-0.27105242,-0.18068127,0.35697204,0.112399206,3.4321463,-1.8683313
706,1778317893.191556,-0.27105242,-0.18068127,0.35697204,0.112399206,3.4321463,-1.8683313
707,1778317893.2017832,-0.35813063,-0.11354321,0.23666015,0.14828753,3.9629884,-1.9176587
708,1778317893.2116508,-0.47380814,-0.07506536,0.14202048,0.08857546,4.383111,-1.9840903
709,1778317893.2216668,-0.4921019,-0.107201375,0.077382565,-0.00061086525,4.3052254,-1.9685133
710,1778317893.2316775,-0.24288003,-0.6590018,-0.15232596,-0.31322116,3.6250272,-1.8397734
711,1778317893.241334,-0.08848077,-0.9766424,-0.19031598,0.43860126,5.191438,-1.8593211
712,1778317893.2517695,-0.18818171,-1.3152596,-0.7008336,1.9404135,6.528622,-1.8235855
713,1778317893.2613297,-0.17683959,-2.0918293,-2.2917192,2.613587,5.0556736,-1.3016012
714,1778317893.27181,0.09817646,-2.5339894,-2.7842479,1.3457361,3.7536142,-1.0905472
715,1778317893.281353,0.22178122,-2.640093,-2.646679,-0.8570439,1.2819008,-1.4285084
716,1778317893.291796,0.22178122,-2.640093,-2.646679,-0.8570439,1.2819008,-1.4285084
717,1778317893.3016717,0.5763141,-3.037738,-1.817728,-1.8555032,-0.72158456,-1.8275561
718,1778317893.311409,0.020915855,-3.0110903,-0.48356482,-2.3693936,-3.1758883,-2.6468792
719,1778317893.321807,-0.3875226,-2.5842361,-0.017013188,-1.651627,-1.7983873,-3.122896
720,1778317893.3317523,-0.6610142,-2.3961763,0.2987979,-1.2916746,-2.0934353,-2.4336872
721,1778317893.341344,-0.75162923,-2.4194705,0.3913643,-0.7780896,-2.3420575,-1.2854131
722,1778317893.3513947,-0.7072364,-2.593993,0.4364279,-0.17119499,-1.9378172,-0.35506544
723,1778317893.3617651,-0.7072364,-2.593993,0.4364279,-0.17119499,-1.9378172,-0.35506544
724,1778317893.3719177,-0.7072364,-2.593993,0.4364279,0.84329945,-0.9405798,0.7461719
725,1778317893.381689,0.14019111,-2.857362,0.44526988,2.786309,0.54000485,2.3214407
726,1778317893.3916306,0.47783276,-2.8211403,0.3164819,4.0734024,1.4523321,3.3162346
727,1778317893.4013624,0.47783276,-2.8211403,0.3164819,4.0734024,1.4523321,3.3162346
728,1778317893.411465,0.7508365,-2.877485,0.21531744,4.7966666,1.9420934,3.6044104
729,1778317893.421509,1.2134855,-2.9082186,-0.6074135,5.6952496,3.4625368,2.9637654
730,1778317893.4318461,0.8251092,-2.4217267,-1.9846889,5.3388095,3.361897,2.3313673
731,1778317893.4415452,0.3456909,-1.8376073,-2.9132798,3.1795535,1.1145236,2.0447187
732,1778317893.4517584,0.15433827,-1.3361756,-2.218971,0.9262244,-0.79443026,1.8791742
733,1778317893.4614182,0.035428897,-0.9620073,-1.2726352,-0.8385653,-2.940858,1.5920676
734,1778317893.4714565,-0.066223375,-0.8012663,-0.7135782,-1.6481144,-4.468021,1.4025466
735,1778317893.4815598,-0.14165461,-0.6563188,-0.5003341,-2.112372,-5.7491584,1.280679
736,1778317893.491518,-0.21861032,-0.3620943,-0.22428137,-2.2371411,-6.42615,0.87857693
737,1778317893.5013416,-0.31099376,-0.13586158,-0.12183637,-2.2866213,-6.529386,0.48288897
738,1778317893.5118196,-0.31099376,-0.13586158,-0.12183637,-2.2866213,-6.529386,0.48288897
739,1778317893.521597,-0.29141945,0.12793429,-0.020367041,-3.3562465,-5.796195,0.34391713
740,1778317893.531571,-0.22428137,0.16818054,0.09433477,-3.711159,-5.2473326,0.62964934
741,1778317893.5414689,-0.1629973,0.24196534,0.1829375,-4.0515637,-4.3024764,1.1582005
742,1778317893.55161,-0.06280854,0.3153233,0.28410196,-4.148233,-3.5903604,1.4831808
743,1778317893.5613642,0.04853942,0.3139817,0.38679087,-4.0621014,-2.4817927,1.700038
744,1778317893.5717347,0.1027499,0.26300314,0.4343546,-3.755905,-1.4616479,1.78617
745,1778317893.5816197,0.10396948,0.260503,0.50216347,-3.4626896,-0.7182248,1.8309158
746,1778317893.5916655,0.10610375,0.3246531,0.52850646,-2.4449883,0.9642508,1.9046779
747,1778317893.6014743,0.12622687,0.41618282,0.5658867,-1.8411479,1.5424347,1.8614591
748,1778317893.6115754,0.12622687,0.41618282,0.5658867,-1.8411479,1.5424347,1.8614591
749,1778317893.6216552,0.13683724,0.51990837,0.52557945,-0.35231653,2.2446244,1.6116152
750,1778317893.6314642,0.18257163,0.23574546,0.21586627,1.733941,2.77455,1.0800097
751,1778317893.6415231,0.134642,-0.026525937,-0.03140427,2.3722951,2.920394,0.8539896
752,1778317893.6515841,0.10585984,-0.15446024,-0.50063896,2.6079364,3.1453452,0.79626286
753,1778317893.6617439,0.11848252,-0.13128816,-1.0823191,2.1502457,3.8018725,0.70417494
754,1778317893.6716514,0.10878683,-0.02268425,-1.4381937,0.8863655,3.765068,0.538325
755,1778317893.6813827,0.07183346,0.0190255,-1.3291019,-0.28084528,3.0531044,0.36163223
756,1778317893.691709,0.05640573,-0.050063897,-0.8241945,-1.3581061,1.5402967,0.13209961
757,1778317893.7016935,0.0248795,-0.07988271,-0.44246486,-2.1813998,-0.28878653,-0.21013765
758,1778317893.7115982,0.0248795,-0.07988271,-0.44246486,-2.1813998,-0.28878653,-0.21013765
759,1778317893.7217903,-0.0600035,-0.064089105,-0.030184686,-2.758973,-1.7831156,-0.5920811
760,1778317893.7316906,-0.08073642,-0.21062206,0.26501545,-3.1671836,-2.8243356,-0.77656245
761,1778317893.7416673,-0.08073642,-0.21062206,0.26501545,-3.4159584,-3.2484286,-0.8145888
762,1778317893.7513437,-0.06079623,-0.37185097,0.40520656,-3.4579554,-3.1297681,-0.7257079
763,1778317893.7617788,-0.038355898,-0.5810705,0.6798567,-2.4022276,-1.3778065,-0.6488916
764,1778317893.7713597,-0.005610083,-0.75248295,0.74443364,-0.52381694,2.2838724,-0.65484756
765,1778317893.7815204,0.10500612,-1.0493295,0.59997404,1.128879,5.785505,-0.75533485
766,1778317893.7913754,0.26641798,-1.2541586,0.4864918,3.0966287,9.194591,-1.0250319
767,1778317893.8015382,0.6799787,-1.9562727,0.34873986,3.9342775,9.604787,-1.2681563
768,1778317893.8115726,1.4656343,-3.542219,-1.6413763,3.9342775,9.604787,-1.2681563
769,1778317893.8213842,1.6936355,-5.043526,-5.178229,2.2208006,6.2636595,-2.8309023
770,1778317893.8314512,0.8804172,-4.2904334,-2.7794914,-1.1908818,0.8891144,-2.9173398
771,1778317893.841537,0.009268833,-2.8346775,-0.3784977,-1.4845552,-3.6838229,-1.6134478
772,1778317893.8514364,-0.13128816,-2.3496492,0.26123476,-0.6053675,-6.02023,-0.9821186
773,1778317893.8614812,-0.20117027,-2.209458,0.27495506,0.30085114,-6.8068714,-0.8028296
774,1778317893.87141,-0.27349156,-2.192079,0.08329754,1.0748174,-6.2282295,-0.7761043
775,1778317893.8817902,-0.3617894,-2.2279959,-0.19427963,1.8206838,-4.443892,-0.82726425
776,1778317893.8917308,-0.44862375,-2.3580644,-0.4677712,2.1284072,-2.2214115,-0.77503526
777,1778317893.9015138,-0.46051466,-2.401116,-0.6283903,2.0862575,-0.9995282,-0.59605175
778,1778317893.9117873,-0.4488067,-2.2439725,-0.6457084,1.702176,0.4335616,-0.12950343
779,1778317893.9216225,-0.4488067,-2.2439725,-0.6457084,1.702176,0.4335616,-0.12950343
780,1778317893.9317582,-0.46112445,-1.6734512,-0.29227313,1.1357512,0.8720101,0.46883908
781,1778317893.9418926,-0.46411243,-1.5728357,-0.21592724,1.1817188,0.66813385,0.6261369
782,1778317893.9514549,-0.45655105,-1.490026,-0.16970502,1.2643384,0.6113234,0.7348709
783,1778317893.9616816,-0.35459387,-1.2775136,-0.13927643,1.4677565,0.7965683,0.96883225
784,1778317893.9717765,-0.32818988,-1.1401885,-0.12567806,1.5622878,1.0926852,0.98761636
785,1778317893.9817698,-0.3348976,-0.93072504,-0.12378771,1.6904168,1.6560557,0.8678868
786,1778317893.991868,-0.32654345,-0.7852897,-0.131715,1.7756325,2.1256583,0.7377725
787,1778317894.0015519,-0.30026144,-0.6018644,-0.15354554,1.8269452,2.3970351,0.6921103
788,1778317894.011617,-0.27446723,-0.51557887,-0.17232713,1.9294178,2.6595545,0.7820602
789,1778317894.0216079,-0.19921893,-0.3489838,-0.23367217,2.0587685,2.4022276,0.9990701
790,1778317894.0315876,-0.08720021,-0.1700709,-0.35081315,2.1255057,1.678505,1.2395983
791,1778317894.0415823,0.016708292,0.010061563,-0.4314276,1.9616411,0.8179486,1.3805555
792,1778317894.051726,0.073540874,0.15183812,-0.47496673,1.5685493,0.06765333,1.382999
793,1778317894.0614746,0.07445556,0.4106947,-0.53442144,0.97509366,-0.5390886,1.3307699
794,1778317894.0716152,-0.16927817,0.9615805,-0.6032669,0.26374108,-1.1554517,1.5192219
795,1778317894.081371,-0.20537783,1.09171,-0.40953606,-0.61376685,-1.7018706,2.0227275
796,1778317894.091504,-0.059820563,0.8099863,-0.24580702,-0.9436341,-1.6197093,2.3154848
797,1778317894.1017425,0.20690231,0.5279576,-0.054149497,-1.173014,-1.5540411,2.503784
798,1778317894.1113777,0.25471,0.4475871,-0.020489,-1.2524265,-1.6417004,2.5120306
799,1778317894.1217608,0.585339,0.3017859,-0.05719846,-1.4921911,-1.9494237,2.353511
800,1778317894.131346,0.7906559,0.1797666,-0.040673107,-1.8881844,-1.7079792,1.9118555
801,1778317894.1413934,0.948409,0.08012662,0.112872444,-2.100002,-1.3238977,1.2652546
802,1778317894.1513631,0.98091084,0.05189327,0.2110489,-1.9639318,-1.1904236,0.4793765
803,1778317894.1618445,0.88828355,0.04317325,0.2883705,-1.6574302,-0.92271197,-0.23716843
804,1778317894.1718037,0.5714967,0.03591673,0.28526056,-1.1604912,-0.355829,-1.0381655
805,1778317894.1818304,0.30922535,0.03445323,0.27800402,-0.752586,0.26908615,-1.4854716
806,1778317894.1916273,0.097444706,-0.011464084,0.26367393,-0.27687466,1.106277,-1.8729129
807,1778317894.201569,0.036953375,-0.06610142,0.18726702,0.0580322,1.8064812,-2.1513147
808,1778317894.2114508,-0.05067369,-0.1627534,0.11634825,0.15867224,2.235614,-2.3215933
809,1778317894.2216053,-0.11384811,-0.3079448,-0.06780884,0.14172074,3.3432655,-2.5324945
810,1778317894.2313426,-0.11384811,-0.3079448,-0.06780884,0.14172074,3.3432655,-2.5324945
811,1778317894.241428,0.12689765,-0.9479211,-0.58027774,0.029474247,5.900653,-3.0164526
812,1778317894.2518158,0.3184942,-1.3793488,-1.0117054,0.08811731,6.55153,-3.6282341
813,1778317894.2616458,0.4121582,-1.7723596,-1.2329378,0.02443461,6.166532,-4.0920334
814,1778317894.2718115,0.56234986,-1.9973116,-0.8940765,0.17745635,5.2123604,-4.342794
815,1778317894.281885,0.6841253,-2.1683583,-0.13799585,1.4718798,2.3301454,-4.785824
816,1778317894.291477,0.8440126,-2.4959383,-0.36130157,2.5017986,2.0819814,-5.315749
817,1778317894.3017588,0.95499474,-2.584663,-0.56869173,2.8887818,3.3846517,-5.9240184
818,1778317894.311484,0.87419736,-2.6666799,-0.5640573,2.8887818,3.3846517,-5.9240184
819,1778317894.3215961,0.87419736,-2.6666799,-0.5640573,2.8887818,3.3846517,-5.9240184
820,1778317894.3318372,0.66723406,-3.1717095,-0.99164325,2.869234,4.391205,-6.1306434
821,1778317894.3414042,-0.078785084,-3.9429128,-2.0657914,1.40667,2.50638,-4.8853946
822,1778317894.3518224,0.11909231,-3.9759028,-0.2455631,0.30650163,-4.5497246,-0.4700608
823,1778317894.3616226,0.08585867,-3.7744274,0.036465544,0.7069238,-5.5148916,1.370018
824,1778317894.3718886,0.032501895,-3.5311816,0.04750277,1.2208142,-5.583919,2.8600712
825,1778317894.381376,0.16324124,-2.8282747,0.018659625,1.9402608,-4.7699413,4.0617957
826,1778317894.3915212,0.22629368,-2.5683815,0.051771317,2.2988386,-4.059505,4.357149
827,1778317894.4013872,0.22629368,-2.5683815,0.051771317,2.59633,-3.2974505,4.478864
828,1778317894.4113255,0.35880142,-2.2170196,0.025001459,2.59633,-3.2974505,4.478864
829,1778317894.421856,0.37868062,-2.1429298,0.002500146,2.6455047,-2.5227208,4.2190933
830,1778317894.4315302,0.3715461,-1.8190696,-0.12079973,2.6455047,-2.5227208,4.2190933
831,1778317894.4415228,0.27166218,-1.5919222,-0.19007207,2.0615175,-1.2293663,3.591124
832,1778317894.4516044,0.16080207,-1.323065,-0.21665898,1.5728253,-0.51251596,3.3997705
833,1778317894.46178,0.061162103,-1.0896367,-0.22007383,1.0691669,0.15897769,3.3664784
834,1778317894.4719105,-0.04677102,-0.7441288,-0.25306356,0.655153,0.5653558,3.4477234
835,1778317894.481631,-0.07543123,-0.5216768,-0.28196767,0.09773844,0.9101892,3.6305249
836,1778317894.4916732,-0.032623854,-0.3070911,-0.31825027,-0.5025894,1.2609786,3.8026361
837,1778317894.5015,0.048112564,-0.042197585,-0.35642326,-1.2147056,1.6879734,3.8440223
838,1778317894.511824,0.09079798,0.4665516,-0.58265597,-1.8761199,1.3637567,3.7404807
839,1778317894.521764,0.081468165,0.822304,-0.7715694,-2.5176811,0.6401868,3.72246
840,1778317894.5316777,0.3325194,0.66461194,-0.5251526,-3.5903604,-0.9645562,3.6157115
841,1778317894.5416827,0.5422268,0.36697263,-0.254649,-4.0059013,-1.616044,3.1955888
842,1778317894.551596,0.6179019,0.17494924,-0.041221917,-4.0054436,-2.110692,2.5213463
843,1778317894.5616355,0.6450986,0.14531335,0.062320713,-3.755905,-2.0935879,2.0755675
844,1778317894.5717554,0.5831438,0.19458452,0.13134913,-3.2178855,-1.560608,1.5618297
845,1778317894.581892,0.5831438,0.19458452,0.13134913,-3.2178855,-1.560608,1.5618297
846,1778317894.5913692,0.5831438,0.19458452,0.13134913,-3.2178855,-1.560608,1.5618297
847,1778317894.601351,0.5831438,0.19458452,0.13134913,-3.2178855,-1.560608,1.5618297
848,1778317894.6116407,0.14641099,0.6402203,0.24428254,-2.1615467,2.6450465,0.4288274
849,1778317894.6213794,0.14641099,0.6402203,0.24428254,-2.1615467,2.6450465,0.4288274
850,1778317894.631538,-0.05567398,0.3609357,0.0086590415,-1.1583532,1.9839376,0.6365216
851,1778317894.6415954,0.05780825,-0.051832296,-0.023720896,-1.0230466,1.3203852,0.7293731
852,1778317894.651482,0.12506826,-0.2087317,0.03091644,-1.0520626,0.7724391,0.5523749
853,1778317894.6618762,0.14964288,-0.30489585,0.110616215,-1.1410962,0.2753475,0.33261612
854,1778317894.6713495,0.09531044,-0.32684833,0.26501545,-1.0954341,-0.027947085,0.13072516
855,1778317894.681419,0.06366225,-0.2944684,0.36630186,-0.84559023,0.04337143,0.039553523
856,1778317894.6914167,0.037136313,-0.25605154,0.41874394,-0.63041294,0.18341228,0.05100725
857,1778317894.701834,0.034636166,-0.26160064,0.39685243,-0.13713925,0.5881105,0.124311075
858,1778317894.7115352,0.058296088,-0.2920902,0.36288702,0.19165897,0.86086184,0.11255192
859,1778317894.72144,0.13762999,-0.35520366,0.26318607,0.56581396,1.094976,-0.029168816
860,1778317894.731872,0.15135029,-0.34752026,0.16848545,0.56581396,1.094976,-0.029168816
861,1778317894.7414246,0.13927643,-0.31733558,0.07262619,1.229519,1.7119498,-0.56489766
862,1778317894.7514484,0.13927643,-0.31733558,0.07262619,1.662317,2.3506095,-0.9450085
863,1778317894.7613826,0.18592548,-0.38746163,-0.04549046,2.2562308,3.1850514,-1.3845261
864,1778317894.771536,0.35611832,-0.91304106,-0.4644783,3.3223433,4.9780936,-2.0691533
865,1778317894.7816105,0.38063195,-1.97292,-2.0684743,5.030475,6.0805526,-3.3023374
866,1778317894.7917635,0.2394042,-3.161587,-3.5858192,4.4894013,2.925281,-4.2026
867,1778317894.801738,0.50161463,-3.6756415,-2.9397447,3.1137328,1.4761559,-4.8527136
868,1778317894.811682,0.7315061,-4.200367,-2.2120802,1.1759156,0.25167647,-5.939901
869,1778317894.8214822,0.79150957,-4.6579547,-1.9942018,-0.17073683,-0.9049969,-6.349486
870,1778317894.831324,0.79150957,-4.6579547,-1.9942018,-0.17073683,-0.9049969,-6.349486
871,1778317894.8415747,0.32562876,-5.5625196,-0.28617525,-0.86574876,-3.2666018,-4.893489
872,1778317894.8517976,-0.2063535,-4.7314954,0.23873344,0.17684549,-4.624708,-3.3234124
873,1778317894.86169,-0.34825203,-3.7207658,0.23751387,0.72219545,-5.1013355,-1.973553
874,1778317894.8717914,-0.35367918,-2.7826014,0.20190202,1.042747,-5.130199,-0.7102836
875,1778317894.881336,-0.37118018,-2.005056,0.07677277,1.2606732,-4.2824707,0.3707952
876,1778317894.8914688,-0.3784977,-1.6899767,0.03158721,1.3944527,-3.2293391,0.91675603
877,1778317894.9016757,-0.35032532,-1.2631835,-0.04085604,1.454012,-2.2279782,1.3642148
878,1778317894.9117835,-0.30367625,-0.9340789,-0.11360419,1.3466524,-1.4245378,1.8858937
879,1778317894.9216938,-0.2792236,-0.68272275,-0.11988505,1.2710578,-1.2921327,2.0447187
880,1778317894.9314978,-0.25916147,-0.5542397,-0.10817704,1.0340421,-1.0873401,2.4906504
881,1778317894.94167,-0.19860914,-0.37392426,-0.08323657,0.9184359,-0.8332202,2.8264735
882,1778317894.9517376,-0.19860914,-0.37392426,-0.08323657,0.9184359,-0.8332202,2.8264735
883,1778317894.9621346,-0.24629487,0.019940188,-0.033355605,0.732122,-0.6261369,3.0236301
884,1778317894.9715998,-0.20964637,0.22696446,-0.03152623,0.59986967,-0.95478237,2.8620565
885,1778317894.9816744,-0.55192244,1.384471,-0.14403279,0.15989397,-1.9889772,2.1760547
886,1778317894.9916928,-0.430269,1.2054971,-0.10598179,-0.9381363,-4.0080395,1.3703234
887,1778317895.0014024,-0.11457986,0.5760092,-0.040124293,-1.3234396,-4.4231224,1.1985176
888,1778317895.0118454,-0.11457986,0.5760092,-0.040124293,-1.4040737,-3.9897137,1.1050552
889,1778317895.021535,0.20921952,0.23336728,0.072870106,-1.3468051,-3.4677293,0.99204516
890,1778317895.0315726,0.30763993,0.24903892,0.3919741,-1.2134838,-2.973081,0.7527387
891,1778317895.041912,0.45234346,0.23111105,0.4991755,-1.201572,-2.3744333,0.6065892
892,1778317895.0519025,0.45234346,0.23111105,0.4991755,-0.86208355,-1.2508993,0.20754147
893,1778317895.0615647,0.72120064,0.13708118,0.69247943,-0.30833423,-0.514654,-0.3475823
894,1778317895.0717053,0.77425253,0.11665315,0.7100414,0.3857614,0.3034473,-1.1096367
895,1778317895.0817623,0.7732768,0.10677453,0.69693094,0.3857614,0.3034473,-1.1096367
896,1778317895.0915723,0.7868752,0.02853825,0.5950347,1.6762142,3.2134566,-2.0517437
897,1778317895.1017911,0.8369391,-0.104701236,0.3749609,2.309376,5.36187,-2.4000895
898,1778317895.1117706,0.79083884,-0.23312336,0.06475988,2.309376,5.36187,-2.4000895
899,1778317895.1217728,0.6150359,-0.27934557,-0.073540874,2.5396724,8.418792,-3.067307
900,1778317895.1320653,0.55576414,-0.23702602,-0.17812014,2.4851525,8.7369,-3.067307
901,1778317895.1415484,0.42051232,-0.19208437,-0.40886533,2.3272438,9.21307,-2.8765645
902,1778317895.1515455,0.42051232,-0.19208437,-0.40886533,2.3272438,9.21307,-2.8765645
903,1778317895.161572,-0.011951917,-0.11958014,-1.557225,1.7965547,12.295649,-2.244777
904,1778317895.1713467,-0.42709813,-0.029879792,-2.2929997,-1.9054414,14.750716,-0.33276883
905,1778317895.1815736,-0.54234874,-0.048600398,-2.6277752,-2.3055582,6.872692,-0.071776666
906,1778317895.191679,-0.54234874,-0.048600398,-2.6277752,-2.3055582,6.872692,-0.071776666
907,1778317895.2016053,-0.4994194,-0.043051295,-1.2113512,-1.6244434,-1.3939945,0.028099801
908,1778317895.2115045,-0.043051295,-0.30196884,-0.124641426,-1.534799,-5.804289,0.12858713
909,1778317895.2216244,-0.043051295,-0.30196884,-0.124641426,-1.534799,-5.804289,0.12858713
910,1778317895.2313595,0.13909347,-0.34495914,0.028965104,-1.465313,-6.634302,0.094225965
911,1778317895.2418072,0.44770905,-0.6974797,-0.11305538,-2.3577871,-6.651559,-0.03848451
912,1778317895.2517414,0.69040614,-1.0057904,0.022318374,-1.6484199,-3.120147,-0.58368176
913,1778317895.2617679,0.69040614,-1.0057904,0.022318374,-1.6484199,-3.120147,-0.58368176
914,1778317895.2718575,1.4764886,-2.0969517,0.37581462,0.89843005,1.9793562,-2.3150265
915,1778317895.2813408,1.8777925,-3.0954854,0.38612008,1.9376645,1.4790574,-3.042109
916,1778317895.2913547,2.0915854,-4.2815304,0.3811198,2.6371052,0.19272798,-3.8218784
917,1778317895.301638,2.0385945,-4.9658384,0.25647837,2.9907963,-0.3885103,-4.3337836
918,1778317895.311819,1.44606,-5.4220843,0.12549512,3.0224085,-0.42256603,-4.266588
919,1778317895.3217442,1.44606,-5.4220843,0.12549512,2.4263568,0.47876564,-3.4634533
920,1778317895.3322084,0.47990605,-5.226219,-0.4494165,2.4263568,0.47876564,-3.4634533
921,1778317895.3416355,-0.45581928,-3.9353516,-0.4255736,0.6123924,3.4874296,-0.81321436
922,1778317895.351787,-0.45581928,-3.9353516,-0.4255736,0.6123924,3.4874296,-0.81321436
923,1778317895.3618405,-0.80419326,-3.1836004,-0.31221333,0.14874569,3.5419495,0.9060659
924,1778317895.371733,-0.7095536,-2.0959759,-0.41447538,1.4013249,0.8364272,2.7407997
925,1778317895.3816426,-0.2880046,-1.990177,-0.7337623,2.4471262,-2.8414397,2.7058277
926,1778317895.3917334,-0.040917024,-2.0738404,-0.9760935,2.4145975,-4.308127,2.5346327
927,1778317895.4017866,0.124031626,-2.2238493,-1.0690258,1.7412714,-4.8834095,2.414292
928,1778317895.4113252,0.21928109,-2.309159,-0.96517825,0.8072584,-4.549419,2.376724
929,1778317895.4213626,0.31983575,-2.265376,-0.6711367,0.07376198,-3.822642,1.9543107
930,1778317895.431642,0.25160006,-2.0296307,-0.38148567,-0.27748555,-2.9436069,1.3451253
931,1778317895.4415038,0.25160006,-2.0296307,-0.38148567,-0.27748555,-2.9436069,1.3451253
932,1778317895.4517684,0.23416002,-1.9337105,-0.2704426,-0.3539964,-2.230269,0.7499898
933,1778317895.4616752,-0.15494807,-1.3089788,-0.09409086,-0.41981715,-1.5908458,0.46944994
934,1778317895.4715197,-0.310262,-0.62101185,-0.09878625,-1.6534595,-1.0306823,0.31887165
935,1778317895.4817696,-0.25178298,-0.38538834,-0.12159246,-2.4517076,-1.4259121,0.61437774
936,1778317895.491811,-0.16976601,-0.21373199,-0.08110229,-3.1682527,-2.0297525,1.0977248
937,1778317895.5015354,-0.109884456,-0.018110814,-0.09726177,-3.8180604,-2.9113839,1.588097
938,1778317895.5118134,-0.11878742,0.27702835,-0.06475988,-4.444503,-4.0469823,1.9741638
939,1778317895.5216892,-0.18098617,0.6451596,0.011708,-5.611561,-7.252803,2.9856038
940,1778317895.5314627,0.092505395,0.30398116,0.19702369,-5.696471,-8.436507,3.3001995
941,1778317895.5415862,0.22239104,0.5377753,0.26233238,-5.254663,-8.83525,3.5111008
942,1778317895.551422,0.19806033,0.3085546,0.3050178,-4.0543127,-7.948426,3.8273761
943,1778317895.5614986,0.4774059,0.7716913,0.35471582,-1.779145,-4.9652653,4.117232
944,1778317895.5720267,0.70449233,1.3246504,0.24922185,-1.7366899,-2.6995661,3.791488
945,1778317895.5818012,0.71992004,1.5921661,0.63601273,-2.6473372,-1.918575,3.0199652
946,1778317895.5916126,0.6369274,1.6666826,0.9083457,-2.3350325,-1.8535179,2.4535403
947,1778317895.6015863,0.58479017,1.4243515,1.0331091,-1.4272866,-1.2360858,1.5677856
948,1778317895.6118448,0.3392271,0.6880889,0.95365316,-0.21655174,-0.47616947,0.6782131
949,1778317895.6217835,0.16500962,0.042014647,0.69876033,0.73838335,0.45372015,0.14905111
950,1778317895.6313605,0.054759294,-0.15177715,0.53990954,1.1560625,0.9080512,-0.085673854
951,1778317895.6418252,-0.03640456,-0.23031832,0.39679146,1.4703526,1.2724323,-0.26923886
952,1778317895.6517591,-0.03640456,-0.23031832,0.39679146,1.4703526,1.2724323,-0.26923886
953,1778317895.661333,-0.07957781,-0.24422157,0.20037755,1.7273742,2.1369593,-0.35216382
954,1778317895.6715937,-0.07555319,-0.27208906,0.11720196,1.8017471,2.8205175,-0.34483343
955,1778317895.681507,-0.039209604,-0.35404503,-0.023294043,2.0532708,4.1280746,-0.26099217
956,1778317895.6915615,0.037075333,-0.44325754,-0.14866722,2.0532708,4.1280746,-0.26099217
957,1778317895.7015684,0.17000991,-0.5606425,-0.3324584,2.6529877,5.379279,-0.00030543262
958,1778317895.7114582,0.3597771,-0.6421716,-0.55277616,2.4856107,5.514586,-0.02687807
959,1778317895.7216818,0.52240855,-0.6193044,-0.6420496,1.3481796,4.5674396,-0.4277584
960,1778317895.7314477,0.55302006,-0.6723563,-0.5373484,-0.10827587,3.6172385,-1.2046263
961,1778317895.7416036,0.5175302,-0.7444947,-0.28849244,-0.50594914,4.3705883,-1.6281086
962,1778317895.7515764,0.5354581,-0.816816,-0.06360127,-0.3623958,5.0907984,-1.841606
963,1778317895.7614677,0.5354581,-0.816816,-0.06360127,-0.3623958,5.0907984,-1.841606
964,1778317895.7717857,0.6537577,-1.3227601,-0.07677277,0.5911648,5.8841596,-2.1670444
965,1778317895.7813697,0.60162044,-4.0535293,-3.6279554,0.20861048,1.7502817,-3.0769281
966,1778317895.7915914,0.66918534,-3.886568,-2.3908103,-1.185384,-0.6044512,-3.551265
967,1778317895.8015735,0.661502,-3.3149495,-0.71107805,-1.1933253,-3.2995887,-3.7803395
968,1778317895.8114913,0.51387143,-3.0040169,-0.11201873,-0.44608435,-5.1983104,-3.578754
969,1778317895.8215868,0.22440335,-2.8507152,0.33819047,0.37400225,-5.8946967,-3.169169
970,1778317895.8318162,0.10061563,-2.8302872,0.39929157,0.980286,-5.892406,-2.917187
971,1778317895.8418345,0.10061563,-2.8302872,0.39929157,0.980286,-5.892406,-2.917187
972,1778317895.8516357,0.016220458,-2.857362,0.35630128,1.9888245,-5.6602774,-2.4814873
973,1778317895.8614554,-0.0023172083,-3.006517,0.24470939,2.6462681,-5.3737817,-2.1455114
974,1778317895.8715875,-0.040307228,-3.1841493,0.025123417,3.0072896,-4.4139595,-1.7130189
975,1778317895.8817189,-0.19427963,-2.740038,-0.31971377,2.450333,-1.3147347,-1.1803443
976,1778317895.891834,-0.30392018,-2.2000065,-0.3272752,1.969735,0.17989981,-1.0537425
977,1778317895.9014823,-0.41459736,-1.7322961,-0.33386096,1.5392277,1.4196508,-0.74021596
978,1778317895.911368,-0.49008957,-1.3267847,-0.29666364,1.2032518,2.2278256,-0.24785857
979,1778317895.9217637,-0.535702,-1.0178642,-0.31733558,1.0639745,2.6676486,0.1693624
980,1778317895.9318404,-0.66314846,-0.6387568,-0.36861908,0.9947941,2.9761355,0.6577492
981,1778317895.941829,-0.82949966,-0.31282312,-0.40904826,0.93966347,3.1563408,1.0963504
982,1778317895.9516995,-0.76266646,-0.111591876,-0.39563283,0.8202393,3.0645583,1.4781412
983,1778317895.9617543,-0.7665081,-0.05780825,-0.3838029,0.6597345,2.8153253,1.7898352
984,1778317895.9715612,-0.7452264,0.1636681,-0.3328243,0.6597345,2.8153253,1.7898352
985,1778317895.9818113,-0.57655805,0.54777586,-0.19891405,0.09972375,1.3603969,2.1526892
986,1778317895.991448,-0.41618282,0.6125358,-0.14214244,-0.46593747,-0.037415497,2.0491474
987,1778317896.0015426,-0.29812714,0.48472342,-0.0453685,-0.72021013,-0.79152864,1.8206838
988,1778317896.011447,-0.16293633,0.29459035,0.082016975,-0.8416196,-1.4607315,1.5396858
989,1778317896.0215085,-0.04762473,0.20793895,0.21068303,-0.80649483,-1.809841,1.4162911
990,1778317896.0317025,0.07835823,0.12805626,0.32221392,-0.59406644,-2.1079433,1.2867876
991,1778317896.0416028,0.16915621,0.102140106,0.39538893,-0.25457808,-2.3426683,1.1745411
992,1778317896.0517747,0.3240433,0.12427554,0.43246427,0.067500606,-2.5227208,1.0118983
993,1778317896.061731,0.46252698,0.18494982,0.3819735,0.27580565,-2.6082418,0.7797695
994,1778317896.0716984,0.46252698,0.18494982,0.3819735,0.27580565,-2.6082418,0.7797695
995,1778317896.0813959,0.6734539,0.5250916,0.27946752,-0.17348573,-0.66889745,-0.26206118
996,1778317896.0916598,0.8227309,0.5526542,0.24775836,-0.42332962,-0.11636983,-0.6217081
997,1778317896.101808,0.857428,0.44331855,0.17726645,-0.5555819,0.98563105,-1.2258538
998,1778317896.1116803,0.8632211,0.3459348,0.069638215,-0.48197266,2.293341,-1.6082555
999,1778317896.1216407,0.62985384,0.17196125,0.027013771,-0.40317106,3.5717292,-1.7802141
1000,1778317896.1315165,0.36105764,0.020489,0.0009146876,-0.33460143,4.2007675,-1.7090483
