id,timestamp,acc_x,acc_y,acc_z,gyro_x,gyro_y,gyro_z
1,1778317314.5993643,-0.6587579,-1.0137787,0.46594182,-2.1455114,-2.7452285,0.93966347
2,1778317314.599381,-0.6587579,-1.0137787,0.46594182,-2.1455114,-2.7452285,0.93966347
3,1778317314.6089904,-0.62851226,-0.88925916,0.46691746,-1.1772901,-1.5900823,1.0320568
4,1778317314.6185036,-0.620463,-0.7274814,0.26233238,0.33505958,0.05971208,0.9610438
5,1778317314.6285038,-0.6429034,-0.579485,-0.11628727,1.4876096,0.7115053,0.8187121
6,1778317314.6390011,-0.64735484,-0.5017976,-0.49143112,2.3938282,0.56169057,0.6977608
7,1778317314.6491084,-0.60546213,-0.53173834,-0.59521765,2.886491,0.13744467,0.6918049
8,1778317314.6590145,-0.5213109,-0.60442555,-0.58613175,3.24232,-0.23854288,0.8213083
9,1778317314.6689565,-0.42148802,-0.6307075,-0.5690576,3.338073,-0.3549127,0.9251554
10,1778317314.6789768,-0.37136313,-0.6330857,-0.5574716,3.2588134,-0.37797287,0.9466884
11,1778317314.6887867,-0.28489465,-0.6032059,-0.60759646,2.8580859,-0.5300783,0.93752545
12,1778317314.6990004,-0.20787798,-0.55393475,-0.6881499,1.8538233,-1.2356277,0.84681195
13,1778317314.7091196,-0.1565945,-0.5336897,-0.6508306,1.2202033,-1.7704402,0.8019133
14,1778317314.7190542,-0.085431814,-0.500517,-0.500517,-0.13576481,-3.1488576,0.8315403
15,1778317314.7288356,-0.030062728,-0.4455748,-0.2704426,-1.2786937,-4.3715043,1.0768027
16,1778317314.739103,0.09018819,-0.39843786,-0.17629078,-1.806634,-4.7638326,1.2680036
17,1778317314.7485318,0.22550097,-0.32770205,-0.178547,-2.3270912,-4.497495,1.3408492
18,1778317314.7587218,0.33215353,-0.2617226,-0.16513158,-2.8064678,-3.4976616,1.2177598
19,1778317314.768679,0.34934965,-0.18220575,-0.01841571,-3.089909,-2.6273315,1.0315987
20,1778317314.778522,0.34062964,-0.13848369,0.10079856,-3.2044463,-1.9695823,0.752586
21,1778317314.7885282,0.34873986,0.025123417,0.26300314,-3.0746374,-1.6180294,0.41493022
22,1778317314.798691,0.37331447,0.10409144,0.31599405,-2.892905,-1.475545,0.18921551
23,1778317314.8086,0.39179114,0.13598356,0.4191708,-2.4817927,-1.2953397,-0.2510656
24,1778317314.8186383,0.3755097,0.11049425,0.4788694,-2.0259347,-1.1908818,-0.70952
25,1778317314.828622,0.29898086,0.07713865,0.45246542,-1.6607898,-1.1415545,-1.0398453
26,1778317314.8391821,0.15256988,-0.04439283,0.37124115,-1.1230757,-0.8147415,-1.3811663
27,1778317314.848785,0.09232246,-0.19379179,0.2939196,-0.7823657,-0.35735616,-1.48089
28,1778317314.8585298,0.042075627,-0.29202923,0.27916262,-0.5510005,-0.013744468,-1.4680619
29,1778317314.868932,0.011951917,-0.38368094,0.3008712,-0.34025195,0.23014349,-1.4106406
30,1778317314.879047,-0.07774844,-0.6623557,0.30989614,-0.12339478,0.44715336,-1.3567317
31,1778317314.8889203,-0.2821506,-1.3358706,0.2728208,0.59849524,0.37980548,-1.1441506
32,1778317314.8986106,-0.33995885,-1.9776154,0.398072,0.36682457,-1.0563387,-1.3119859
33,1778317314.9086728,-0.50515145,-2.6369221,0.67253923,0.22296582,-2.483778,-1.6701056
34,1778317314.918612,-0.7591906,-3.1808565,0.8849907,0.16340645,-3.92542,-2.1923954
35,1778317314.9290564,-1.0214621,-3.3683064,0.88139284,0.35170567,-3.9640572,-2.3145685
36,1778317314.938583,-1.1623849,-3.3731236,0.80663246,0.86834496,-3.271947,-2.2696698
37,1778317314.9485304,-1.2370235,-3.0923755,0.7281522,1.7997618,-2.8481593,-2.2186625
38,1778317314.95893,-1.2977587,-2.5999079,0.5457026,3.2980614,-2.9718595,-2.2001839
39,1778317314.9687448,-1.3615428,-1.9882258,-0.013720313,4.597677,-3.3629658,-2.0851886
40,1778317314.9788816,-1.5293576,-1.6061913,-1.4590485,4.6671634,-3.2075007,-1.954158
41,1778317314.9891508,-1.8237649,-0.81248647,-4.128046,0.015118915,0.55481833,-0.8000808
42,1778317314.9987943,-1.0193278,-0.7818139,-1.5529565,-2.3878722,1.6174184,-0.32818735
43,1778317315.0086567,-0.93889624,-0.8128523,-0.5880831,-2.221717,0.9224065,-0.18387043
44,1778317315.0185516,-0.7368113,-0.9728616,0.055552024,-1.7188221,-0.3587306,0.20723604
45,1778317315.0286374,-0.63796407,-1.03006,0.20110929,-1.5441146,-1.6514742,0.4729624
46,1778317315.0386145,-0.49978524,-0.9674345,0.07744354,-1.778076,-2.2689064,0.5056437
47,1778317315.0489764,-0.4019137,-0.8700507,-0.041038983,-1.778076,-2.2689064,0.5056437
48,1778317315.059007,-0.17055872,-0.6772956,-0.357094,-2.5928175,-2.3101397,0.4642576
49,1778317315.0686703,-0.12842213,-0.6449767,-0.41252404,-2.7369816,-2.2296581,0.45005497
50,1778317315.0790873,-0.12842213,-0.6449767,-0.41252404,-2.7369816,-2.2296581,0.45005497
51,1778317315.0885794,0.04384402,-0.47222266,-0.19123067,-4.0372086,-1.5482379,0.18661933
52,1778317315.09867,0.10915271,-0.3799612,0.046466127,-4.094324,-1.8216002,0.096516706
53,1778317315.1085181,0.1770835,-0.27776012,0.22165927,-3.9277108,-2.297617,-0.063682705
54,1778317315.1188548,0.2961758,-0.1765347,0.40898728,-3.631441,-2.5120306,-0.25518894
55,1778317315.1291864,0.3231286,-0.086285524,0.5565569,-3.0808988,-2.581211,-0.5936083
56,1778317315.1388922,0.26824737,-0.008598062,0.56143516,-2.302962,-2.42147,-0.95630956
57,1778317315.149165,0.24434352,0.03164819,0.4314886,-1.8438967,-2.2241604,-1.1994339
58,1778317315.1592724,0.13128816,0.066040434,0.15586275,-1.5076154,-1.9230038,-1.326952
59,1778317315.1689782,-0.08067544,0.03292875,-0.152204,-1.5361733,-1.5415184,-1.2932017
60,1778317315.1788893,-0.32331154,-0.28532153,-0.53131145,-2.0486894,-0.52931476,-0.9437868
61,1778317315.1893773,-0.41929275,-0.57228947,-0.7519341,-2.5022569,0.64644814,-0.75594574
62,1778317315.1985834,-0.5000902,-1.0549396,-0.7906559,-2.6403122,1.5213599,-0.7556403
63,1778317315.2088118,-0.6046084,-1.4363034,-0.72229826,-2.2542455,1.1710287,-0.84559023
64,1778317315.2188957,-0.69156474,-1.7228444,-0.64442784,-1.1450669,-0.28389964,-0.9995282
65,1778317315.2285287,-0.7780332,-2.0899389,-0.78449696,-0.09208794,-1.6685784,-1.0100657
66,1778317315.2392247,-0.81553537,-2.3691626,-0.8628552,0.15760323,-1.8387043,-0.8897252
67,1778317315.2491033,-0.8038274,-2.4581313,-0.7212616,0.3129157,-1.5447255,-0.58368176
68,1778317315.2591653,-0.7374211,-2.4671562,-0.44283074,0.6391178,-0.84329945,-0.18661933
69,1778317315.2692847,-0.7374211,-2.4671562,-0.44283074,0.6391178,-0.84329945,-0.18661933
70,1778317315.2793896,-0.7374211,-2.4671562,-0.44283074,0.94882643,-0.43218717,0.15943582
71,1778317315.2891817,-0.46783215,-1.7388821,-0.3141037,0.95417154,-0.36774087,0.38545597
72,1778317315.2986917,-0.34916672,-1.4850867,-0.24641682,0.93324935,-0.3474296,0.5213735
73,1778317315.3090644,-0.27178416,-1.3248944,-0.15263085,0.9512699,-0.31749722,0.647059
74,1778317315.318773,-0.17421748,-1.1757393,-0.1144579,1.0844386,-0.3483459,0.82634795
75,1778317315.3289568,-0.07890704,-1.0475612,-0.14628904,1.2739595,-0.6951646,0.9246973
76,1778317315.3390658,0.04183171,-0.89017385,-0.26721072,1.7583756,-2.3092234,1.0250319
77,1778317315.3485239,0.17494924,-0.7410189,-0.4564291,1.9611828,-3.887241,1.0206031
78,1778317315.3586926,0.23190376,-0.6665633,-0.5687527,1.8871155,-5.916077,0.97341377
79,1778317315.368775,0.23373315,-0.6384519,-0.6070476,1.4992161,-7.128492,0.9436341
80,1778317315.3787618,0.23086715,-0.62869525,-0.6032059,0.6948592,-7.86993,0.95340794
81,1778317315.3888545,0.28087005,-0.56759405,-0.51740825,0.16982053,-7.808843,0.958753
82,1778317315.3986146,0.3506912,-0.5187498,-0.3506302,-0.63178736,-6.9511886,0.86529064
83,1778317315.4086907,0.4311837,-0.42819571,-0.08073642,-1.1679744,-5.629123,0.60139686
84,1778317315.4189708,0.3697167,-0.34258097,0.09488358,-1.329701,-4.1943536,0.25045475
85,1778317315.429007,0.24702659,-0.20995127,0.06543065,-1.2357804,-2.5074492,-0.09483683
86,1778317315.4390538,0.12098267,-0.100432694,-0.07415067,-1.1856894,-1.7626517,-0.23823744
87,1778317315.4485934,0.023720896,-0.009329813,-0.19068186,-1.1690434,-0.6626361,-0.5215262
88,1778317315.4590523,-0.045124583,0.044880666,-0.25971028,-1.2385293,-0.16203201,-0.7780896
89,1778317315.4685416,-0.087992944,0.07701669,-0.2769064,-1.3217597,0.036651913,-1.0036516
90,1778317315.4790525,-0.15409435,0.09274931,-0.2680644,-1.43141,0.060322944,-1.3639094
91,1778317315.488737,-0.21202457,0.043661084,-0.15299673,-1.476614,-0.0096211275,-1.472338
92,1778317315.498845,-0.28550446,-0.051649354,-0.022379354,-1.4689782,-0.26557365,-1.6998852
93,1778317315.5087225,-0.32129923,-0.21470766,0.05549104,-1.4199562,-0.45875978,-1.8228219
94,1778317315.5185068,-0.41508517,-0.43447655,0.124580435,-1.4343116,-0.54825157,-1.9312505
95,1778317315.5285366,-0.503444,-0.6415009,0.19409668,-1.4538593,-0.63713247,-1.9159788
96,1778317315.5387938,-0.538629,-0.9517019,0.3252019,-1.491122,-0.8958339,-1.7762434
97,1778317315.548513,-0.5653988,-1.2922096,0.36922884,-1.5349517,-1.1890492,-1.6888897
98,1778317315.5588942,-0.63961047,-1.7583343,0.38837633,-1.6091717,-1.9422461,-1.5245669
99,1778317315.5685313,-0.66967326,-2.0865242,0.45472166,-1.6569719,-2.6105325,-1.4010195
100,1778317315.5789878,-0.76656914,-2.812664,0.6650998,-1.4711162,-4.302324,-1.0476339
101,1778317315.5886567,-0.8310241,-3.1656115,0.90389425,-0.95386606,-5.7711496,-0.6435465
102,1778317315.599016,-0.85364735,-3.175978,0.96353185,-0.5342017,-6.3062673,-0.43554693
103,1778317315.608999,-0.9267614,-2.7630272,0.8641358,0.23625213,-6.187301,0.024281893
104,1778317315.6186726,-0.86669695,-2.251046,0.6032059,0.5465717,-5.464037,0.41890085
105,1778317315.629038,-0.7241886,-1.7992513,0.40447482,0.6947065,-4.4703116,0.7790059
106,1778317315.6389875,-0.57564336,-1.4129483,0.26574722,0.7067711,-3.5230126,0.8918633
107,1778317315.6490023,-0.41618282,-1.0297552,0.18110813,0.72494435,-2.8122709,0.7463246
108,1778317315.6586492,-0.2987979,-0.72260314,0.045978293,1.3051136,-3.263853,0.18463401
109,1778317315.6688564,-0.3799612,-0.6368055,-0.29690757,1.8299996,-4.4125853,-0.625526
110,1778317315.6786585,-0.6775395,-0.7641909,-0.6855888,1.7275269,-5.0367365,-1.1528554
111,1778317315.688529,-0.9077358,-0.96493435,-0.7855336,1.3014483,-5.0982814,-1.2918273
112,1778317315.6986356,-0.883954,-1.0675013,-0.55167854,0.25977045,-4.473977,-1.0891727
113,1778317315.708581,-0.7979734,-1.1248218,-0.35050824,-0.68569624,-3.5098789,-0.6611089
114,1778317315.718969,-0.64564747,-1.1516526,-0.105250046,-1.3949108,-2.5938866,-0.31123585
115,1778317315.728981,-0.49539477,-1.1303098,0.10396948,-1.7484491,-1.9911152,-0.17134771
116,1778317315.73898,-0.4161218,-1.0433536,0.19684075,-1.9220876,-1.3183999,-0.17119499
117,1778317315.748893,-0.40599927,-0.97670335,0.15635058,-1.9037615,-1.0786353,-0.22006421
118,1778317315.758772,-0.39855984,-0.822304,-0.052625023,-1.8629863,-0.9989174,-0.3370449
119,1778317315.7688608,-0.40020627,-0.76998395,-0.118360564,-1.8903224,-1.1123856,-0.37293324
120,1778317315.7787938,-0.40484068,-0.7152246,-0.1855596,-2.0005836,-1.2611313,-0.39370266
121,1778317315.7889678,-0.40404797,-0.7003457,-0.22665958,-2.0347922,-1.2768611,-0.3921755
122,1778317315.7987843,-0.3918521,-0.6517453,-0.33873928,-2.5470026,-1.2615894,-0.3119994
123,1778317315.8087566,-0.31861615,-0.5213719,-0.64326924,-3.1845932,-1.0303769,-0.20891592
124,1778317315.8189673,-0.2701987,-0.47893035,-0.57296026,-3.8227947,-0.700357,-0.064751714
125,1778317315.8289096,-0.17452239,-0.4555144,-0.41721946,-4.2026,-0.4083634,0.051159963
126,1778317315.8389654,-0.10031073,-0.41075566,-0.12897095,-4.453055,-0.17501289,0.14584407
127,1778317315.8490987,-0.027989438,-0.35788673,0.05049075,-4.3676863,-0.017256944,0.2667954
128,1778317315.8587015,0.023659917,-0.30867654,0.18952326,-4.1700716,-0.21090123,0.2837469
129,1778317315.8687778,0.023659917,-0.30867654,0.18952326,-4.1700716,-0.21090123,0.2837469
130,1778317315.8787887,0.15665549,-0.10957957,0.18391317,-3.759723,-0.7609854,0.2350304
131,1778317315.8889432,0.18940128,-0.051466417,0.10195717,-3.2415564,-1.815186,0.0032070426
132,1778317315.8986254,0.17793721,-0.035306938,0.032623854,-3.1280882,-2.1497874,-0.124311075
133,1778317315.9088943,0.19208437,-0.011098208,-0.07543123,-3.2097914,-2.4651468,-0.54321194
134,1778317315.9187934,0.15561883,-0.4471602,-0.23458686,-3.1975741,-2.3585508,-0.89736104
135,1778317315.9285665,0.038904708,-0.8482812,-0.28312626,-2.9452868,-2.2017112,-1.1578951
136,1778317315.9393415,-0.14104481,-1.3828856,-0.28959006,-2.051438,-1.9834795,-1.527774
137,1778317315.948845,-0.34319076,-1.8276066,-0.28489465,-1.2082914,-1.5251778,-1.8727602
138,1778317315.959016,-0.68833286,-2.0092025,-0.29404154,-0.52855116,-0.6058256,-2.123673
139,1778317315.968818,-1.004083,-2.0229838,-0.40106,-0.09132435,0.3184135,-1.9643899
140,1778317315.9786923,-1.167934,-1.9041965,-0.61717016,0.18203785,1.1235338,-1.2945762
141,1778317315.9886243,-1.1056743,-1.4969167,-0.68467414,0.20082195,1.3946054,-0.96929044
142,1778317315.9988587,-1.1056743,-1.4969167,-0.68467414,0.150731,1.6907222,-0.5128214
143,1778317316.0087912,-1.0723796,-1.3527619,-0.6633314,0.016646078,1.9199494,-0.038331795
144,1778317316.0185764,-0.9110288,-0.9479822,-0.42179292,0.013286319,2.1502457,0.63591075
145,1778317316.02902,-0.7685814,-0.88060015,-0.33477563,0.268628,2.0986276,0.8315403
146,1778317316.0386643,-0.6084501,-0.88645416,-0.32581168,0.61712664,2.0306687,0.9080512
147,1778317316.048634,-0.4586853,-0.8929789,-0.34758124,1.0716103,1.9895881,0.7857254
148,1778317316.0589654,-0.32056746,-0.89846706,-0.36099666,1.4992161,1.9659171,0.48456886
149,1778317316.0686498,-0.19793838,-0.86431867,-0.36154547,1.6765196,1.7438675,0.2228131
150,1778317316.0788348,-0.1290929,-0.8322436,-0.30288354,1.7967074,1.1230757,-0.094225965
151,1778317316.0888698,-0.120494835,-0.834195,-0.22922069,1.8542814,0.49220467,-0.26526824
152,1778317316.0989158,-0.073540874,-0.86797744,-0.16177773,1.8926133,-0.39293906,-0.37018433
153,1778317316.108961,-0.073540874,-0.86797744,-0.16177773,1.8926133,-0.39293906,-0.37018433
154,1778317316.118818,0.06067427,-0.9784107,-0.16519257,1.831374,-1.2166909,-0.39019018
155,1778317316.128923,0.18781583,-1.0365238,-0.23720895,1.5819882,-1.7957911,-0.49113566
156,1778317316.1389086,0.24855109,-1.0757335,-0.26001516,1.312444,-1.9727893,-0.58032197
157,1778317316.1486773,0.3257507,-1.1369566,-0.29337075,1.0151054,-1.8817704,-0.6658431
158,1778317316.158633,0.37508285,-1.1559211,-0.35136196,0.5500842,-1.1194105,-0.7849618
159,1778317316.1685236,0.47813767,-1.1400055,-0.3849005,0.18570304,-0.5138904,-0.81306165
160,1778317316.1790097,0.5302139,-1.0604887,-0.38508344,-0.024129177,0.17256944,-0.76251256
161,1778317316.188815,0.5518005,-0.95292145,-0.36252114,-0.03863723,0.5705481,-0.59437186
162,1778317316.198741,0.573814,-0.8449273,-0.3448372,0.111941054,0.5386304,-0.4176791
163,1778317316.208573,0.5831438,-0.76089805,-0.34154433,0.111941054,0.5386304,-0.4176791
164,1778317316.218783,0.58289987,-0.5419829,-0.31190842,0.32513303,0.060628377,-0.22327125
165,1778317316.228664,0.5778996,-0.37221682,-0.25507587,0.32513303,0.060628377,-0.22327125
166,1778317316.238521,0.4978339,-0.19159654,-0.115250625,0.6385069,-2.6746736,-0.41874814
167,1778317316.249002,0.3811198,-0.23251356,-0.09213952,0.3631594,-3.2995887,-0.8886562
168,1778317316.2587302,0.26849127,-0.32282373,-0.02841629,-0.14401148,-3.2378912,-1.45615
169,1778317316.2690365,0.089517415,-0.4438674,0.12988563,-0.58291817,-3.0645583,-1.8971947
170,1778317316.2785525,-0.19793838,-0.6172921,0.40740183,-0.9111055,-2.9964468,-2.1928535
171,1778317316.2886171,-0.19793838,-0.6172921,0.40740183,-0.9111055,-2.9964468,-2.1928535
172,1778317316.2989116,-0.4253907,-0.7341282,0.6077794,-1.039998,-3.0906727,-2.2748623
173,1778317316.308835,-1.0286576,-0.8591965,0.8807221,-0.41996986,-4.0668354,-1.1175779
174,1778317316.3186083,-1.0286576,-0.8591965,0.8807221,-0.41996986,-4.0668354,-1.1175779
175,1778317316.3289692,-1.1570797,-0.85547674,0.76632524,0.21365012,-4.823392,0.3407101
176,1778317316.3386898,-1.1540917,-0.8483422,0.661441,0.41370848,-5.287344,1.0795516
177,1778317316.3489587,-1.097747,-0.85700125,0.52429885,0.4147775,-5.571702,1.4419475
178,1778317316.3587866,-0.9816426,-0.87810004,0.3670946,0.11133019,-5.523749,1.5157094
179,1778317316.3686457,-0.9235905,-0.9156632,0.29702953,-0.19028452,-5.1848717,1.2809844
180,1778317316.3787568,-0.933896,-1.0062782,0.1703758,-0.64812803,-4.5798097,0.6763805
181,1778317316.3889136,-1.0286576,-1.1023204,0.10835998,-0.8552113,-4.471228,0.23533584
182,1778317316.398819,-1.1565309,-1.2711717,0.03866079,-0.79809546,-5.3392677,-0.30283645
183,1778317316.408764,-1.308369,-1.446304,0.05585692,-0.39263365,-6.909497,-0.6621779
184,1778317316.4187777,-1.501551,-1.7060751,0.20598765,0.53893584,-9.134573,-1.0877982
185,1778317316.4288833,-1.5636278,-1.8554741,0.27940655,1.0257955,-9.5826435,-1.2145529
186,1778317316.4388022,-1.7421138,-2.1528697,0.10878683,1.7304286,-9.579284,-1.2078333
187,1778317316.448798,-1.7582734,-2.4368496,-0.79394877,1.8985692,-9.092118,-1.0031935
188,1778317316.4586978,-1.0348774,-2.2009213,-1.6728415,0.68707067,-6.287789,-0.74281216
189,1778317316.4687748,-0.82998747,-1.7168684,-0.46856394,0.29825497,-2.2734878,-0.61682117
190,1778317316.4785209,-0.65644073,-1.443255,0.033416584,1.1268936,0.7661777,-0.6072
191,1778317316.4889007,-0.670405,-1.3508105,0.05573496,1.8544341,2.3257167,-0.77595156
192,1778317316.4990308,-0.70699245,-1.3135523,-0.080065645,2.4220808,3.3452508,-0.99112886
193,1778317316.5085514,-0.70699245,-1.3135523,-0.080065645,2.8961122,3.6745071,-1.370018
194,1778317316.5190365,-0.6993701,-1.2555611,-0.25269768,2.9944615,3.4808629,-1.5679383
195,1778317316.528516,-0.96310496,-1.0953078,-0.6337565,2.8718302,3.0341678,-1.7142406
196,1778317316.5389817,-1.3125767,-1.0197546,-0.895479,2.1520782,2.2779164,-1.4883732
197,1778317316.5487363,-1.4289858,-0.92724925,-0.94176227,1.2342533,1.3132075,-1.0694723
198,1778317316.558683,-1.2847091,-0.8134621,-0.78291154,0.013591751,-0.13362677,-0.3733914
199,1778317316.568571,-1.0885391,-0.6555871,-0.6679048,-0.6105598,-1.163851,0.12843442
200,1778317316.5787976,-0.9319446,-0.5403974,-0.58814406,-0.91431254,-1.755474,0.45005497
201,1778317316.588685,-0.7508365,-0.42734203,-0.46155134,-1.2673926,-1.9043725,0.80664754
202,1778317316.5985312,-0.6665633,-0.3582526,-0.3422151,-1.464244,-1.4682146,1.0100657
203,1778317316.6088924,-0.58729035,-0.27995536,-0.23666015,-1.5972599,-0.795652,1.2290609
204,1778317316.6190376,-0.5149691,-0.21123183,-0.1753151,-1.6334536,-0.043829583,1.4616479
205,1778317316.6285098,-0.3594722,-0.051344458,-0.13439809,-1.4558446,1.1325442,1.8096883
206,1778317316.6388824,-0.2639788,0.01603752,-0.122446164,-1.3351988,1.7936531,1.9807305
207,1778317316.648728,-0.09268834,0.07854117,-0.1203119,-1.1777482,3.0973923,2.2145393
208,1778317316.6588056,0.03670946,0.073540874,-0.13128816,-1.1933253,4.533231,2.315332
209,1778317316.6686227,0.28355312,0.03152623,0.028965104,-1.311375,6.19341,2.2075143
210,1778317316.678546,0.3208724,-0.06158896,0.13293459,-1.3602442,7.1428475,2.012343
211,1778317316.6889973,0.20586567,-0.16726585,0.33008024,-1.3206906,7.943081,1.7647897
212,1778317316.698979,0.11348223,-0.2534294,0.36599696,-1.2134838,8.171697,1.6748397
213,1778317316.7088978,-0.017866896,-0.38654694,0.38337603,-0.998612,8.379697,1.6346754
214,1778317316.7188048,-0.062076796,-0.43429363,0.40331623,-0.95432425,8.421235,1.6635388
215,1778317316.7287765,-0.080492504,-0.49069935,0.4311227,-0.9077458,8.440936,1.687668
216,1778317316.7389958,-0.1381178,-0.9943873,0.46027076,-0.786489,7.776009,1.5421293
217,1778317316.7488792,-0.18738899,-1.6143014,0.40880433,-1.0305296,6.329175,1.176221
218,1778317316.7589602,-0.27263784,-2.587834,0.41264603,-1.779145,2.7947085,0.016035212
219,1778317316.7688315,-0.45600224,-3.7654028,0.2713573,-2.5802948,-0.09514226,-0.92927873
220,1778317316.7788608,-0.16311927,-5.148105,-0.7987051,-1.6772833,-1.0977248,-1.4840971
221,1778317316.7888055,-0.2160492,-5.3023825,-1.1101258,-1.3942999,2.4544566,-2.048842
222,1778317316.7989469,-0.3566062,-4.215917,-1.0192058,-1.7345519,3.6502252,-1.5497651
223,1778317316.8089845,-0.21159773,-3.441786,-0.8998086,-2.0841196,3.25469,-1.0219775
224,1778317316.8186357,0.046039272,-2.3113544,-0.55393475,-2.5560129,2.0732768,-0.5288566
225,1778317316.8287656,0.061101127,-1.6768051,-0.20104831,-2.8831313,-0.15347989,-0.23335053
226,1778317316.838944,0.016708292,-1.3725802,-0.03585575,-2.7930286,-0.72692966,-0.16508633
227,1778317316.8487775,-0.111165024,-0.9879845,0.1659853,-2.3991733,-1.0833695,-0.01282817
228,1778317316.858899,-0.14653294,-0.7577881,0.27221102,-1.8924606,-0.93538743,0.12904528
229,1778317316.8685884,-0.22312276,-0.49978524,0.3031884,-0.89720833,-0.26358834,0.32528573
230,1778317316.878752,-0.22556195,-0.34441036,0.16403395,-0.22815818,0.1459968,0.40973786
231,1778317316.8885617,-0.21306121,-0.17342475,-0.12214127,0.5842926,-0.025503624,0.32620203
232,1778317316.8987312,-0.22909874,-0.10970152,-0.24159946,0.9653198,-0.7199047,0.12904528
233,1778317316.908698,-0.2300744,-0.11171384,-0.24934383,1.2733486,-1.6073391,-0.15118915
234,1778317316.9189124,-0.24544115,-0.14555727,-0.20129223,1.5044084,-2.14093,-0.34208453
235,1778317316.9285457,-0.24544115,-0.14555727,-0.20129223,1.5044084,-2.14093,-0.34208453
236,1778317316.9388711,-0.1700709,-0.29026082,-0.070187025,1.8529071,-2.106416,-0.45814893
237,1778317316.9487216,-0.119397216,-0.2994687,-0.05408852,1.8916969,-1.9703459,-0.51175237
238,1778317316.959026,-0.07378479,-0.24275808,0.032684833,1.9289597,-1.8112154,-0.6239988
239,1778317316.96885,-0.028660208,-0.1557408,-0.020732917,1.9057468,-1.577254,-0.8330675
240,1778317316.9785297,0.008110229,-0.12384869,-0.07469948,1.7693712,-1.6278032,-0.95310247
241,1778317316.988948,-0.024025792,-0.09262736,-0.08018761,1.3805555,-1.9440787,-1.1180362
242,1778317316.9986508,-0.042929336,-0.11153089,-0.063418336,0.92179567,-2.1927009,-1.1777482
243,1778317317.0087802,-0.07591906,-0.11134796,-0.03603869,0.538325,-2.2473733,-1.1775955
244,1778317317.0189824,-0.08073642,-0.09518848,-0.027379647,0.10644327,-2.1458168,-1.1485794
245,1778317317.0286684,-0.12726352,0.033294626,-0.7072364,0.029626964,-2.103209,-1.1446087
246,1778317317.0386643,-0.30056632,0.09281029,-1.1940941,-1.3614659,-0.6563747,-0.9560041
247,1778317317.048948,-0.40173078,0.08604161,-1.1845813,-3.2443054,0.57986385,-0.5174029
248,1778317317.058756,-0.40673104,0.09677394,-0.87584376,-4.315152,0.537256,-0.16065755
249,1778317317.0689816,-0.31831124,0.11701902,-0.21428078,-4.138154,-1.7724255,-0.051465396
250,1778317317.0787978,-0.19964579,0.029148044,0.4885651,-2.7349963,-4.270559,-0.21792617
251,1778317317.0889332,-0.13519081,-0.10024975,0.5644842,-1.6945401,-4.5054364,-0.31856623
252,1778317317.098869,-0.16458277,-0.22251299,0.5341775,-1.070236,-4.003,-0.3895793
253,1778317317.108643,-0.20214595,-0.36898494,0.5270429,-0.42470407,-3.2820263,-0.40683624
254,1778317317.11877,-0.2728208,-0.7671789,0.55984974,0.3903429,-2.7915015,-0.42760566
255,1778317317.1289537,-0.30233473,-0.9637148,0.5218597,0.9775371,-2.682462,-0.4708244
256,1778317317.138908,-0.39301074,-1.5192959,0.44368443,1.372767,-2.2420282,-0.7849618
257,1778317317.1490161,-0.45094094,-1.9968848,0.5116762,1.3261884,-1.9813415,-1.0331259
258,1778317317.1585476,-0.5841804,-2.408921,0.59247357,1.1158981,-1.619251,-1.4741706
259,1778317317.1685297,-0.8190112,-2.719549,0.7918755,0.8738427,-0.7110472,-1.8527542
260,1778317317.1789274,-0.9949361,-2.5913098,0.8332803,1.0619892,0.21548271,-1.5157094
261,1778317317.1885934,-1.0681111,-2.3921518,0.75248295,1.5155567,1.0096076,-0.6133087
262,1778317317.1989899,-0.9971314,-2.3629427,0.7374821,1.9097174,1.280679,-0.029626964
263,1778317317.2086077,-0.7746184,-2.4218485,0.7735207,4.9383874,-0.8116872,0.42470407
264,1778317317.2185693,-0.6565627,-2.435508,0.16116793,7.349931,-3.3588426,0.067500606
265,1778317317.2289855,-0.6565627,-2.435508,0.16116793,7.349931,-3.3588426,0.067500606
266,1778317317.2389693,-1.3798976,-1.7668104,-3.3845267,3.8771617,-1.8562667,-0.8755226
267,1778317317.2488618,-1.1428106,-1.5552737,-1.1812274,1.2812898,-0.43417248,-0.63178736
268,1778317317.2589245,-1.0854901,-1.5628961,-0.6144871,0.7182248,-0.39263365,-0.6591236
269,1778317317.2687716,-1.1449449,-1.5406387,-0.18720604,0.6427829,-0.8739954,-0.6881397
270,1778317317.278536,-1.2437311,-1.4503895,0.030428605,1.3596333,-2.0448713,-0.6096435
271,1778317317.2889369,-1.2488533,-1.3687993,-0.032136023,1.8587102,-2.7853928,-0.5149594
272,1778317317.2986312,-1.2339745,-1.2586709,-0.22025676,2.0291417,-3.0309606,-0.38255435
273,1778317317.3085546,-1.1309197,-0.951458,-0.74711674,1.5911512,-2.3420575,-0.12507465
274,1778317317.318984,-0.9222489,-0.6899793,-0.9314568,0.6721045,-1.1142182,0.19868392
275,1778317317.3285758,-0.75473917,-0.5427146,-0.7938268,0.013591751,-0.25213462,0.4812091
276,1778317317.3389864,-0.632293,-0.5000902,-0.6158896,-0.51893,0.47128254,0.82344633
277,1778317317.3486702,-0.41978058,-0.41618282,-0.30574957,-0.7322747,0.7509061,1.1488848
278,1778317317.3586206,-0.34062964,-0.3591673,-0.24147749,-0.79626286,0.84971356,1.3935363
279,1778317317.3693886,-0.2669058,-0.3246531,-0.18677919,-0.84436846,0.9801333,1.6281086
280,1778317317.3785064,-0.16177773,-0.28019926,-0.17805916,-0.9795224,1.4205672,1.9474384
281,1778317317.3886123,-0.07451654,-0.25220984,-0.14427671,-1.0984885,1.8272507,2.1125247
282,1778317317.3989708,0.05329579,-0.21367101,-0.07268717,-1.2217305,2.3357959,2.2099578
283,1778317317.4088247,0.14470357,-0.19159654,0.02646496,-1.2641857,2.8254044,2.149024
284,1778317317.418912,0.23659918,-0.14811839,0.11671413,-1.2675453,3.2409456,1.9341521
285,1778317317.4287698,0.27178416,-0.12933682,0.14915505,-1.2278391,3.467271,1.6452128
286,1778317317.4389777,0.36935082,-0.08409027,0.2051949,-1.1759156,3.5705073,1.36788
287,1778317317.448843,0.4619172,-0.06884548,0.23025733,-1.079857,3.5870006,0.8116872
288,1778317317.4588292,0.5262502,-0.10622571,0.26111278,-0.9465357,3.3111951,0.058490347
289,1778317317.4688616,0.5622279,-0.1823887,0.26647896,-0.8544478,2.8965702,-0.45142943
290,1778317317.4790301,0.59491277,-0.38977882,0.20598765,-0.79641557,2.0323486,-1.1878275
291,1778317317.4889014,0.5658257,-0.5601546,0.13214186,-0.91354895,1.3242031,-1.7037032
292,1778317317.4988787,0.5333238,-0.7936439,-0.04268542,-1.1728612,1.1189524,-2.0560198
293,1778317317.5089023,0.5333238,-0.7936439,-0.04268542,-1.1728612,1.1189524,-2.0560198
294,1778317317.5188437,0.5252746,-1.0676233,-0.28355312,-1.7363845,1.8261817,-2.4598017
295,1778317317.5286229,0.54369026,-1.8658404,-0.41978058,-2.8301387,4.2629232,-3.043789
296,1778317317.5388288,0.54369026,-1.8658404,-0.41978058,-3.5735617,6.2282295,-3.5639405
297,1778317317.5488806,0.16385102,-2.8537033,-0.6961382,-4.1851907,8.47209,-4.1572433
298,1778317317.5586865,-0.92865175,-3.9114478,-1.6172285,-3.8838813,8.948565,-4.1222715
299,1778317317.5686128,-1.4652684,-4.1814027,-1.5614326,-3.0101912,5.988159,-3.2908838
300,1778317317.5786693,-1.5666158,-3.655945,-0.8513911,-2.263103,0.40332377,-1.5662584
301,1778317317.5888836,-1.2634883,-2.4742296,-0.34550798,-1.1858422,-4.152662,0.52824575
302,1778317317.598823,-0.9879235,-1.797178,-0.28324825,-0.6536258,-4.830264,1.4753923
303,1778317317.6087816,-0.8333413,-1.5074661,-0.2476364,-0.34009922,-4.600579,2.0621283
304,1778317317.6189299,-0.5086882,-1.0615864,-0.062320713,0.3643811,-2.3993258,2.958726
305,1778317317.6285307,-0.37209487,-0.9235295,-0.0017074167,0.8008443,-0.7461719,3.1963525
306,1778317317.6389902,-0.251722,-0.7949854,0.028843146,1.1255192,0.45555276,3.2705724
307,1778317317.648911,-0.1612899,-0.7268107,-0.0031099375,1.6708691,2.1216877,3.2088752
308,1778317317.658535,-0.02201348,-0.5996082,-0.10579886,2.1847596,2.9188669,2.8739684
309,1778317317.6685045,0.07701669,-0.5189937,-0.16952209,2.6028967,2.7073548,2.320677
310,1778317317.6788628,0.11878742,-0.47673512,-0.20208496,2.8918362,1.3115277,1.5181528
311,1778317317.688739,0.14933798,-0.42709813,-0.23031832,2.9060388,0.37140608,1.1421653
312,1778317317.698676,0.14147167,-0.40374306,-0.24562408,2.6413813,-1.4958563,0.54351735
313,1778317317.7086535,0.12311694,-0.3816686,-0.22769623,2.2922719,-2.564565,0.27305678
314,1778317317.7186952,0.12043386,-0.34959355,-0.17379062,1.7519615,-3.613268,0.06246097
315,1778317317.7286975,0.15531394,-0.2930049,-0.10354263,1.047023,-4.6847258,-0.10308351
316,1778317317.7389586,0.19891405,-0.25013652,-0.035672814,0.59238654,-5.401423,-0.18860464
317,1778317317.7486434,0.23111105,-0.23434295,-0.016342416,0.29458976,-5.8195605,-0.2519819
318,1778317317.7588427,0.31477445,-0.21592724,-0.03225798,-0.12461651,-6.2732806,-0.37812558
319,1778317317.7686157,0.44057447,-0.19507235,-0.201963,-0.5363397,-6.254649,-0.57894754
320,1778317317.77928,0.6852839,-0.1232389,-0.80346155,-1.5447255,-4.1641154,-0.95004815
321,1778317317.7886655,0.51411533,-0.12592198,-0.76748383,-2.4883597,-1.450805,-1.2731959
322,1778317317.799,0.26074693,-0.122446164,-0.6186337,-3.5761578,2.5411994,-1.538006
323,1778317317.8090086,0.010610376,-0.06835765,-0.40825552,-4.0453024,4.998863,-1.5447255
324,1778317317.818768,-0.09866429,-0.044331856,-0.24574605,-3.9154935,6.262132,-1.5871806
325,1778317317.8286011,-0.16854642,-0.07604102,-0.08439517,-3.4461963,6.3586493,-1.7079792
326,1778317317.8386486,-0.16854642,-0.07604102,-0.08439517,-3.4461963,6.3586493,-1.7079792
327,1778317317.8485756,-0.14872819,-0.21617115,0.37459502,-1.4535538,3.323565,-1.9817996
328,1778317317.8585916,-0.10622571,-0.3398369,0.42953727,-0.6951646,1.5957327,-1.9559906
329,1778317317.8685083,-0.124580435,-0.50478554,0.37227783,-0.060628377,-0.06490443,-1.8587102
330,1778317317.8785641,-0.13116619,-0.63759816,0.442038,0.33017266,-1.0253373,-1.6606371
331,1778317317.8888416,-0.13586158,-1.0551226,0.43776944,0.86529064,-2.1467333,-1.1675162
332,1778317317.89856,-0.19043794,-1.4691101,0.5935712,1.1433871,-2.594192,-1.0375546
333,1778317317.9088507,-0.3392881,-1.808825,0.7622396,2.1216877,-3.6819901,-0.4448626
334,1778317317.9190462,-0.54984915,-2.2061043,0.85633045,2.8079948,-4.2574253,0.00290161
335,1778317317.92853,-0.5985105,-2.5018532,0.79077786,3.451694,-5.0433035,0.5166393
336,1778317317.9387252,-0.5975958,-2.7008283,0.68003964,3.6435058,-5.607285,0.7984009
337,1778317317.949114,-0.59521765,-2.7713203,0.5697893,3.5950947,-5.677534,0.8700248
338,1778317317.958989,-0.6887597,-2.8254087,0.42843962,3.1832187,-5.243362,0.9034697
339,1778317317.96859,-0.84206134,-2.7844307,0.41971964,2.8576276,-4.515363,0.99005985
340,1778317317.9788702,-0.94414043,-2.6525328,0.42581752,2.5992317,-3.0111074,1.1065824
341,1778317317.988957,-0.9358473,-2.3440392,0.2581858,2.4196372,-1.4340062,0.93599826
342,1778317317.9988842,-0.9358473,-2.3440392,0.2581858,2.3561072,-1.0906999,0.86254174
343,1778317318.0089693,-0.9358473,-2.3440392,0.2581858,2.3561072,-1.0906999,0.86254174
344,1778317318.0187373,-0.9358473,-2.3440392,0.2581858,2.3561072,-1.0906999,0.86254174
345,1778317318.0287523,-1.2160466,-1.0795141,-1.5464927,0.81321436,-11.120649,-1.0772609
346,1778317318.0388553,-1.2948316,-1.0691477,-1.2961732,-0.72311175,-10.645854,-0.37400225
347,1778317318.0489829,-1.270623,-0.9966435,-0.63772017,-0.96761054,-9.372811,0.022602014
348,1778317318.058543,-1.211839,-0.97633743,-0.43264723,-0.9459248,-8.2056,0.23701571
349,1778317318.068674,-0.9942653,-0.87675846,0.030062728,-0.43310347,-2.6416867,0.6386596
350,1778317318.0785048,-0.73888457,-0.7949854,0.0020732917,-0.060628377,1.1224649,0.7405214
351,1778317318.0885882,-0.56247187,-0.7063217,-0.17311986,0.2509129,3.8159225,0.906524
352,1778317318.0986624,-0.41209725,-0.6171092,-0.42185387,0.23411411,4.902346,1.0690142
353,1778317318.1089776,-0.29196826,-0.57155776,-0.54442203,-0.08597928,5.1880784,1.1588113
354,1778317318.1189044,-0.23830658,-0.58936363,-0.50881016,-0.4793765,4.9800787,1.1733195
355,1778317318.1287825,-0.23830658,-0.58936363,-0.50881016,-0.4793765,4.9800787,1.1733195
356,1778317318.1385162,-0.23129399,-0.57619214,-0.123055965,-1.3271047,3.8486037,1.1779009
357,1778317318.1487937,-0.21934207,-0.51942056,0.05549104,-1.5364788,3.2847753,1.2124147
358,1778317318.1587405,-0.18635234,-0.48283303,0.13226382,-1.7308867,2.7076602,1.2935071
359,1778317318.1688285,-0.14391084,-0.44600162,0.16653411,-1.8434386,2.4471262,1.3223705
360,1778317318.1785145,-0.10183521,-0.36861908,0.20732918,-1.9156734,2.3070853,1.3185526
361,1778317318.1889296,-0.058844898,-0.28940713,0.22861089,-1.9271271,2.2009475,1.284955
362,1778317318.1989477,0.0010366458,-0.178547,0.2306232,-1.8446603,2.117717,1.2261592
363,1778317318.2086546,0.08585867,-0.0954324,0.25080732,-1.7244726,2.0257819,1.1389582
364,1778317318.2185183,0.18080322,-0.02420873,0.25300255,-1.5210545,1.8052595,0.944245
365,1778317318.2285836,0.23519666,0.010793312,0.22922069,-1.2990049,1.4285084,0.67057735
366,1778317318.238677,0.24574605,0.012927583,0.17988855,-1.1768318,1.0177015,0.42348233
367,1778317318.2489996,0.21440275,-0.011647021,0.1484233,-1.1198688,0.3193298,0.16600263
368,1778317318.2587066,0.21757366,-0.14817938,0.09963996,-1.1420126,-0.52855116,-0.030390546
369,1778317318.2688072,0.20769504,-0.24007498,0.08963938,-1.1739303,-1.0332786,-0.114689946
370,1778317318.2786663,0.1803154,-0.5241769,0.08933448,-1.2744176,-1.921782,-0.1611157
371,1778317318.2886755,0.2335502,-0.89188135,0.08604161,-1.3235923,-2.3188446,-0.12705997
372,1778317318.2987752,0.28648013,-1.7693716,-1.3218454,-1.9614882,-1.8298469,-0.118202426
373,1778317318.308707,0.2681864,-2.7665637,-1.349164,-3.3802228,0.9053023,-0.29184088
374,1778317318.3187056,0.06744295,-3.7932703,-0.7954123,-2.7872255,3.9654317,-0.7985536
375,1778317318.3288941,0.06744295,-3.7932703,-0.7954123,-2.7872255,3.9654317,-0.7985536
376,1778317318.3387787,0.06744295,-3.7932703,-0.7954123,-2.7872255,3.9654317,-0.7985536
377,1778317318.3490016,0.06744295,-3.7932703,-0.7954123,-2.7872255,3.9654317,-0.7985536
378,1778317318.358611,-1.1167725,-2.5738697,-0.7324208,0.5716171,-2.5700629,2.270586
379,1778317318.3687317,-0.64302534,-2.109635,-0.4944191,0.17486018,-1.4330899,2.7214046
380,1778317318.379013,-0.31343293,-1.7789453,-0.15464316,0.039553523,-0.17470746,2.6769643
381,1778317318.3888717,-0.04677102,-1.4621586,0.15177715,0.108123146,2.1600194,2.2516494
382,1778317318.3988879,0.13110521,-1.202997,0.30459094,0.38026363,3.9167151,1.5512923
383,1778317318.40882,0.16379005,-0.9697517,0.28330922,0.73945236,4.561789,0.7788532
384,1778317318.4187193,0.16927817,-0.7570564,0.17299789,1.0781772,3.8698313,0.14263703
385,1778317318.42881,0.20629252,-0.51673746,0.032136023,1.4501941,1.9540052,-0.36911532
386,1778317318.4389617,0.26885715,-0.357094,-0.039880376,1.9207131,-0.8410087,-0.7693848
387,1778317318.4486737,0.30532268,-0.25867364,-0.072870106,2.2015584,-3.0196595,-1.0114402
388,1778317318.4585803,0.37221682,-0.17732742,-0.023416,2.3632848,-4.427857,-1.1646146
389,1778317318.4685152,0.48874804,-0.09537142,-0.102262065,2.5247061,-6.429662,-1.568091
390,1778317318.4788282,0.58168024,-0.066772185,-0.2148906,2.3819163,-7.1356697,-1.917506
391,1778317318.4886036,0.658636,-0.063540295,-0.55216634,1.74738,-7.216762,-2.34389
392,1778317318.4989204,0.7233959,-0.073723815,-0.5366167,0.73991054,-6.494414,-2.6789496
393,1778317318.508597,0.7001628,-0.113299295,-0.3875226,0.009162978,-5.6848645,-2.891378
394,1778317318.5189216,0.64845246,-0.10787215,-0.30007848,-0.83184576,-4.3101125,-3.1230485
395,1778317318.5288239,0.5549714,-0.06786981,-0.31483543,-1.3191634,-3.061504,-3.2129984
396,1778317318.5389154,0.46880785,-0.029452939,-0.33636108,-1.7230982,-1.6763669,-3.285844
397,1778317318.54874,0.36008197,-0.00042685418,-0.38855925,-1.9489655,-0.7611381,-3.291342
398,1778317318.5587187,0.27580878,0.029148044,-0.42368326,-2.0228803,-0.42730024,-3.2840116
399,1778317318.5689316,0.27580878,0.029148044,-0.42368326,-2.0228803,-0.42730024,-3.2840116
400,1778317318.5785894,0.12988563,0.08902958,-0.5379582,-2.2565362,0.6441574,-3.222925
401,1778317318.5890536,-1.044756,-0.2827604,-1.0795141,-3.0498974,4.2400155,-1.8750509
402,1778317318.5989354,-1.097808,-0.40910926,-0.8335852,-2.7959301,3.16474,-1.5030339
403,1778317318.6090512,-0.84681773,-0.45728278,0.4374036,-1.0772609,-0.38866302,-0.54534996
404,1778317318.6185899,-0.64192766,-0.48265013,0.91663885,0.19074267,-1.6223054,-0.07360926
405,1778317318.6289005,-0.62393886,-0.51948154,1.0378654,1.0183123,-1.9680551,0.2742785
406,1778317318.638588,-0.59814465,-0.56436217,1.0473782,2.4480424,-2.2379048,0.9850202
407,1778317318.6486974,-0.4344156,-0.97938645,0.8159013,3.2725577,-2.795014,1.4624114
408,1778317318.658797,-0.27410138,-1.2351941,0.6740027,3.5014796,-3.3217325,1.6423112
409,1778317318.66886,0.0045124586,-1.8243138,0.71620035,3.441004,-4.277431,1.5653422
410,1778317318.6788564,0.08037054,-2.3105006,0.89419854,3.1488576,-5.078581,1.1928672
411,1778317318.6885617,0.025245376,-2.8354704,0.95036036,2.332589,-6.2462497,0.3371976
412,1778317318.6991434,0.002134271,-2.9115114,0.89974767,1.5065464,-6.657973,-0.16233744
413,1778317318.708502,-0.068174705,-2.903523,0.83986604,0.517861,-6.2427373,-0.51923543
414,1778317318.7187474,-0.058722936,-2.7527826,0.7484583,-0.14844026,-4.6880856,-0.59742624
415,1778317318.7289846,-0.057320416,-2.5898464,0.7194932,-0.19837849,-3.8716638,-0.5815437
416,1778317318.7385845,-0.22543997,-2.3087933,0.6061329,0.11789699,-2.95109,-0.42760566
417,1778317318.749016,-0.22989148,-2.1252458,0.44624552,0.7761043,-2.2548563,-0.04718934
418,1778317318.759001,-0.23842856,-2.0597544,0.3799612,0.982424,-2.0544925,0.0693332
419,1778317318.768984,-0.22165927,-1.9111481,0.6422326,3.4261904,-1.9601139,-0.06963864
420,1778317318.7789767,-0.3035543,-1.592105,0.20495099,5.593235,-2.0595322,-0.44806966
421,1778317318.7885115,-0.37172902,-1.5158811,-0.16958307,6.966613,-2.2751677,-0.7820602
422,1778317318.7988017,-0.79559517,-1.3443466,-3.5708182,5.9261565,-3.0967813,-0.9651671
423,1778317318.8085952,-0.92968833,-1.1904353,-2.6243606,1.3439035,-4.2708645,-0.8385653
424,1778317318.8190875,-0.8831613,-1.1187848,-1.4054478,-0.13362677,-4.317901,-0.6507242
425,1778317318.8286884,-0.8831613,-1.1187848,-1.4054478,-0.70386946,-4.1099014,-0.52595496
426,1778317318.838984,-0.52765274,-1.1607994,-0.15622863,-1.2030991,-2.1852176,-0.20066923
427,1778317318.849152,-0.4663077,-1.0920149,0.06854059,-1.0413725,-1.5560265,-0.09330966
428,1778317318.8584993,-0.4642954,-1.0533541,0.07604102,-0.98975444,-1.4242324,-0.06734789
429,1778317318.8690028,-0.43423265,-0.8503545,-0.0942738,-0.6293439,-0.19715676,0.2180789
430,1778317318.8789823,-0.3828882,-0.65168434,-0.40703595,-0.675617,0.29428434,0.3126103
431,1778317318.8885357,-0.35117903,-0.52984804,-0.7499828,-1.0122037,0.38606682,0.34238997
432,1778317318.8987405,-0.37374133,-0.39746222,-1.0464635,-1.7440202,0.160963,0.34300083
433,1778317318.9085598,-0.41947567,-0.38862023,-0.8142548,-2.7896688,-0.48502702,0.4173737
434,1778317318.91904,-0.45935607,-0.41740242,-0.34471524,-3.0712776,-0.7901542,0.54046303
435,1778317318.9288511,-0.38240036,-0.38776654,0.01981823,-3.271336,-1.0693196,0.95294976
436,1778317318.9385362,-0.34203213,-0.34319076,0.12378771,-3.2888985,-0.8875872,1.1895074
437,1778317318.9485645,-0.3061764,-0.29398057,0.19019403,-3.2695036,-0.52213705,1.4225525
438,1778317318.9589427,-0.23013538,-0.21763465,0.21873227,-3.206737,0.13118331,1.7090483
439,1778317318.9690301,-0.19354787,-0.17757133,0.22812307,-3.1754303,0.33505958,1.772731
440,1778317318.9786448,-0.13061738,-0.09238344,0.25952733,-3.0688343,0.77304995,1.8935295
441,1778317318.9890275,-0.05506419,-0.026343001,0.28471172,-2.8861856,1.0754282,1.9349157
442,1778317318.9987614,0.02713573,-0.005488125,0.26684484,-2.618932,1.2296717,1.88849
443,1778317319.0087755,0.0395145,-0.11567748,0.21885422,-2.4324653,1.1989758,1.845882
444,1778317319.0187323,0.038355898,-0.20421924,0.19263318,-2.3397665,1.1745411,1.8393153
445,1778317319.0285625,0.015305771,-0.38057098,0.17348573,-2.1870503,1.2000448,1.8445076
446,1778317319.0385437,0.03378246,-0.6366835,0.2089756,-2.0474675,1.2415836,1.869095
447,1778317319.0486295,0.30081022,-1.478318,0.08085837,-1.5749633,1.6965255,1.7771597
448,1778317319.0587065,0.51411533,-1.9488332,-0.037136313,-1.2234104,2.307238,1.638646
449,1778317319.068709,0.79492444,-3.0635934,-0.4267322,-0.40668353,4.4645085,0.68844515
450,1778317319.078751,1.1917769,-4.085665,-0.6665023,-0.40668353,4.4645085,0.68844515
451,1778317319.0885646,1.0265234,-4.7430816,-0.86474556,-0.63178736,4.342641,-2.516612
452,1778317319.0985134,0.46112445,-4.85321,-0.84956175,-1.1757629,2.1853704,-3.8353174
453,1778317319.1090443,-0.21147576,-4.188415,-0.76022726,-1.7594446,-0.07269296,-3.72414
454,1778317319.118956,-0.45679495,-2.5213056,-0.34502012,-2.3235786,-2.594192,-2.0602958
455,1778317319.1285598,-0.36270407,-1.8741947,-0.15866779,-2.243097,-3.0208814,-1.1641564
456,1778317319.1385531,-0.29312685,-1.323065,-0.022867188,-1.8153389,-2.8325822,-0.31978795
457,1778317319.1488707,-0.24788031,-0.96773934,0.040795065,-1.1578951,-2.0425806,0.26450464
458,1778317319.1588182,-0.23800169,-0.77675265,0.054027542,-0.5890268,-1.210124,0.5899431
459,1778317319.1691232,-0.21495157,-0.56924057,0.05585692,0.08155051,-0.14156802,0.8901834
460,1778317319.1790264,-0.18427904,-0.47014937,0.053600688,0.45555276,0.40103304,1.0088439
461,1778317319.188615,-0.15476513,-0.3245921,-0.011890938,0.9980011,0.91797775,1.1058189
462,1778317319.1988816,-0.100432694,-0.24531919,-0.058418043,1.3839152,0.93233305,1.109484
463,1778317319.2089932,-0.0032318959,-0.20696329,-0.08866371,1.6242907,0.5879578,0.98853266
464,1778317319.218501,0.08512692,-0.16805859,-0.034514207,1.7206547,-0.17256944,0.7199047
465,1778317319.2289321,0.125861,-0.1445816,0.048112564,1.7605137,-0.8144361,0.5271767
466,1778317319.2385774,0.1484233,-0.14232537,0.09683492,1.7637206,-1.3063353,0.38026363
467,1778317319.2489965,0.19635291,-0.11104306,0.25653934,1.7745636,-2.2292,0.055588737
468,1778317319.2587178,0.20537783,-0.08823685,0.31678677,1.8274034,-2.9668198,-0.2507602
469,1778317319.268758,0.19519432,-0.04183171,0.32038453,1.8467983,-3.524998,-0.5025894
470,1778317319.278806,0.14891112,-0.0045124586,0.19196242,1.7982346,-4.0292673,-0.70906186
471,1778317319.288955,0.11945819,0.006768687,0.1299466,1.5763378,-4.522388,-0.89995724
472,1778317319.2987854,0.089822315,0.029574897,0.02207446,1.2466233,-4.826141,-1.0016663
473,1778317319.3087776,0.061223082,0.07043094,-0.3108718,0.8089383,-4.8226285,-1.0699304
474,1778317319.3185444,-0.32678735,0.17263202,-2.0034096,-1.7754798,-2.8298333,-0.7128797
475,1778317319.328676,-0.42709813,0.07646788,-2.0054219,-4.3666177,-1.4462235,-0.14340061
476,1778317319.3385444,-0.16122891,0.021830542,-0.9056016,-6.310696,-0.81245077,0.39019018
477,1778317319.348545,-0.07250423,-0.03140427,-0.28739482,-6.199366,-0.61178154,0.55863625
478,1778317319.3588943,-0.039941356,-0.06488183,0.06402813,-5.2598553,-0.9256136,0.5140431
479,1778317319.3689828,0.0034758127,-0.11762882,0.20964637,-3.902818,-1.7527251,0.23457226
480,1778317319.3791342,0.08610259,-0.27221102,0.32818988,-3.902818,-1.7527251,0.23457226
481,1778317319.3889956,0.16488767,-0.44642848,0.5789972,-2.9078712,-2.3028092,-0.022143865
482,1778317319.398728,0.24696562,-0.5827779,0.79394877,0.19349156,-2.315332,-0.72234815
483,1778317319.4087746,0.17226616,-0.7779722,0.65259904,1.6565138,-1.9201022,-0.95340794
484,1778317319.418985,0.19543824,-1.2681837,0.5717407,2.4419339,-2.1018345,-0.89858276
485,1778317319.4288633,0.56893563,-1.9456624,0.6227193,2.9020681,-2.3306036,-1.0447323
486,1778317319.4385576,0.6600385,-2.3873954,0.72278607,3.2117767,-2.982244,-1.642922
487,1778317319.4487302,0.6799177,-2.648752,0.8577939,3.2117767,-2.982244,-1.642922
488,1778317319.4589646,0.5130787,-3.0884118,1.0496345,3.5431712,-3.3299792,-2.1817052
489,1778317319.4688962,0.11817763,-3.2994606,0.7788869,2.7629435,-3.229492,-1.6916386
490,1778317319.4788342,0.11817763,-3.2994606,0.7788869,2.7629435,-3.229492,-1.6916386
491,1778317319.4890304,0.08268775,-2.8955348,0.4911872,1.4065173,-1.9092593,-0.752586
492,1778317319.4987657,0.11634825,-2.391237,0.3293485,0.73899424,-1.0671816,-0.3475823
493,1778317319.508724,0.04451479,-2.0975614,0.20397532,0.49693888,-0.92271197,-0.24770586
494,1778317319.51898,-0.1340322,-1.6607066,0.02414775,0.88331115,-1.341002,-0.27366763
495,1778317319.528822,-0.3386783,-1.4876478,-0.41667065,2.4226916,-3.7320812,-0.68737614
496,1778317319.5386853,-0.7744354,-1.3778853,-1.3042834,2.9885056,-9.141751,-1.0732902
497,1778317319.548768,-0.81827945,-1.387459,-1.1963502,2.1760547,-11.527944,-1.0016663
498,1778317319.558742,-0.76315427,-1.4226439,-0.8147426,1.0644327,-12.377504,-0.72158456
499,1778317319.5689754,-0.7168711,-1.4338032,-0.56454515,0.79045963,-12.357346,-0.6232353
500,1778317319.5792558,-0.7070534,-1.3222113,-0.21269535,-1.2200506,-9.106015,0.68111473
501,1778317319.588654,-0.68723524,-1.2231811,-0.14324006,-1.4883732,-7.337255,1.0473285
502,1778317319.5988696,-0.6740027,-1.1605555,-0.12951976,-1.7368426,-4.736038,1.4521794
503,1778317319.6088579,-0.5461904,-1.0230476,-0.06890646,-1.8035797,-4.0824122,1.5399913
504,1778317319.619008,-0.35672814,-0.89352775,-0.04439283,-2.6648996,1.0810788,1.6471981
505,1778317319.6287212,-0.25251475,-0.80852276,-0.034026377,-2.9946141,2.2629502,1.4110987
506,1778317319.6386516,-0.20690231,-0.7193103,0.029148044,-3.1656563,2.679255,1.3084733
507,1778317319.6486516,-0.18476687,-0.6964431,0.090371124,-3.2372804,2.7026205,1.3529139
508,1778317319.658747,-0.14805742,-0.6600385,0.1349469,-3.3052392,2.52043,1.4544702
509,1778317319.6687152,-0.13622746,-0.64278144,0.16257046,-3.332117,2.3952026,1.4810427
510,1778317319.678876,-0.092932254,-0.57472867,0.27660152,-3.3255503,1.851838,1.4909693
511,1778317319.6890225,-0.019330395,-0.42087823,0.2836141,-3.1390839,0.56184334,1.356579
512,1778317319.698562,0.051588375,-0.32629952,0.3427639,-2.9678888,-0.2930626,1.2287555
513,1778317319.708866,0.10598179,-0.23257454,0.42002448,-2.6908615,-1.273654,1.0581713
514,1778317319.7187042,0.20623155,-0.112750486,0.5277137,-2.2088888,-2.6108382,0.77289724
515,1778317319.7287722,0.22385453,-0.044270877,0.5510687,-1.7716619,-3.802789,0.51053065
516,1778317319.7388694,0.21525647,0.03445323,0.5680819,-1.131017,-5.6729527,0.1414153
517,1778317319.7487793,0.18799877,0.086163566,0.558996,-0.7655669,-6.808704,-0.08170322
518,1778317319.758721,0.18007149,0.12201932,0.5163106,-0.38423425,-7.907956,-0.32085696
519,1778317319.7685153,0.17720546,0.12140953,0.42069528,-0.31948254,-8.144972,-0.43142357
520,1778317319.7785687,0.16348514,0.0834195,0.280992,-0.38774672,-7.94751,-0.6435465
521,1778317319.7887595,0.12982465,0.001097625,0.15537491,-0.590554,-7.504327,-0.7315111
522,1778317319.7988532,0.11354321,-0.056771606,0.112872444,-0.75502944,-7.017162,-0.77198094
523,1778317319.8089304,0.11354321,-0.056771606,0.112872444,-0.75502944,-7.017162,-0.77198094
524,1778317319.8188453,0.11354321,-0.056771606,0.112872444,-0.75502944,-7.017162,-0.77198094
525,1778317319.8287003,0.11354321,-0.056771606,0.112872444,-0.75502944,-7.017162,-0.77198094
526,1778317319.8385382,0.11354321,-0.056771606,0.112872444,-0.75502944,-7.017162,-0.77198094
527,1778317319.8490117,-0.097322755,-1.3977034,-0.77199626,-4.6787696,6.8676524,-1.1963795
528,1778317319.858522,-0.097322755,-1.3977034,-0.77199626,-4.6787696,6.8676524,-1.1963795
529,1778317319.8689027,-0.41398758,-2.1120136,-0.8680384,-3.3802228,8.777523,-1.6736181
530,1778317319.8785427,-0.69174767,-2.7845528,-0.52399397,0.5703954,4.0138426,-1.6977472
531,1778317319.8887002,-0.69174767,-2.7845528,-0.52399397,0.5703954,4.0138426,-1.6977472
532,1778317319.8991582,-0.69174767,-2.7845528,-0.52399397,0.5703954,4.0138426,-1.6977472
533,1778317319.9087849,-0.46234405,-2.4135556,-0.7574832,1.450805,-6.031378,0.10293079
534,1778317319.9189293,-0.46234405,-2.4135556,-0.7574832,1.450805,-6.031378,0.10293079
535,1778317319.928891,-0.23056222,-1.364043,-0.63485414,-0.14248432,-4.3275223,0.3013093
536,1778317319.9386423,-0.16348514,-1.1671413,-0.44917256,-0.33765575,-3.5411859,0.35369098
537,1778317319.9490125,-0.16348514,-1.1671413,-0.44917256,-0.33765575,-3.5411859,0.35369098
538,1778317319.9588761,-0.16348514,-1.1671413,-0.44917256,-0.33765575,-3.5411859,0.35369098
539,1778317319.9686122,-0.16348514,-1.1671413,-0.44917256,-0.33765575,-3.5411859,0.35369098
540,1778317319.978918,0.18330337,-1.0967714,-0.03872177,0.5209153,-1.0752755,-0.2826779
541,1778317319.988657,0.18330337,-1.0967714,-0.03872177,0.5209153,-1.0752755,-0.2826779
542,1778317319.9986112,0.18330337,-1.0967714,-0.03872177,0.5209153,-1.0752755,-0.2826779
543,1778317320.0085888,0.14836231,-1.2522072,0.011281146,1.317331,-2.3631322,-0.66782844
544,1778317320.0185444,0.14836231,-1.2522072,0.011281146,1.317331,-2.3631322,-0.66782844
545,1778317320.028588,0.14836231,-1.2522072,0.011281146,1.317331,-2.3631322,-0.66782844
546,1778317320.0387135,0.14836231,-1.2522072,0.011281146,1.317331,-2.3631322,-0.66782844
547,1778317320.0485451,0.05652769,-1.0292674,-0.09890821,0.92179567,-3.1409163,-0.3239113
548,1778317320.0585353,0.02042802,-0.813584,-0.27995536,0.7272351,-3.3102787,-0.35002577
549,1778317320.0686674,-0.020245085,-0.7373601,-0.35209373,0.5795584,-3.5326338,-0.46670106
550,1778317320.0789428,-0.058113147,-0.7177858,-0.34337372,0.4173737,-3.712228,-0.5749769
551,1778317320.088538,-0.058113147,-0.7177858,-0.34337372,0.4173737,-3.712228,-0.5749769
552,1778317320.0986285,-0.058113147,-0.7177858,-0.34337372,0.4173737,-3.712228,-0.5749769
553,1778317320.1085918,-0.058113147,-0.7177858,-0.34337372,0.4173737,-3.712228,-0.5749769
554,1778317320.1188567,-0.163912,-0.6968699,-0.054027542,-0.81504697,-3.3938146,-0.84681195
555,1778317320.1286423,-0.18488884,-0.6434522,0.05292992,-0.85154617,-3.3206635,-0.8371908
556,1778317320.1390185,-0.22074458,-0.5025903,0.17342475,-1.0407617,-2.5618162,-0.6488916
557,1778317320.1485596,-0.22604977,-0.48100364,0.18598646,-1.0453432,-2.4701862,-0.61743206
558,1778317320.1585884,-0.22604977,-0.48100364,0.18598646,-1.0453432,-2.4701862,-0.61743206
559,1778317320.168963,-0.22604977,-0.48100364,0.18598646,-1.0453432,-2.4701862,-0.61743206
560,1778317320.178809,-0.22604977,-0.48100364,0.18598646,-1.0453432,-2.4701862,-0.61743206
561,1778317320.188538,-0.19927992,-0.09494456,0.24312395,-0.70112056,-0.63178736,-0.16722436
562,1778317320.1986709,-0.19927992,-0.09494456,0.24312395,-0.70112056,-0.63178736,-0.16722436
563,1778317320.2087274,-0.21781757,0.06994311,0.21367101,-0.301462,-0.26526824,-0.17760907
564,1778317320.2187693,-0.23050125,0.07573613,0.20684133,-0.301462,-0.26526824,-0.17760907
565,1778317320.2287662,-0.23050125,0.07573613,0.20684133,-0.301462,-0.26526824,-0.17760907
566,1778317320.2389786,-0.23050125,0.07573613,0.20684133,-0.301462,-0.26526824,-0.17760907
567,1778317320.2489192,-0.23050125,0.07573613,0.20684133,-0.301462,-0.26526824,-0.17760907
568,1778317320.258591,-0.44429418,-0.090371124,0.17872995,-0.16401732,-1.504103,-0.34483343
569,1778317320.2686436,-0.44429418,-0.090371124,0.17872995,-0.16401732,-1.504103,-0.34483343
570,1778317320.2789729,-0.47106406,-0.676198,0.038172957,-0.8707884,-2.787989,-0.55939984
571,1778317320.288592,-0.47106406,-0.676198,0.038172957,-0.8707884,-2.787989,-0.55939984
572,1778317320.2987387,-0.47106406,-0.676198,0.038172957,-0.8707884,-2.787989,-0.55939984
573,1778317320.308699,-0.47106406,-0.676198,0.038172957,-0.8707884,-2.787989,-0.55939984
574,1778317320.318899,-0.69473565,-1.7500411,0.23574546,-1.9356792,-5.1476088,-0.7910705
575,1778317320.328754,-0.91804135,-2.669668,0.4931995,-1.12781,-7.390248,-0.40454552
576,1778317320.338565,-0.96438557,-2.8879123,0.49679726,-0.10705414,-8.734457,-0.15454891
577,1778317320.348523,-0.963044,-2.9368787,0.4732593,0.105374254,-8.946427,-0.11575896
578,1778317320.3586826,-0.91578513,-2.8648014,0.3667897,1.4590516,-9.783313,-0.1872302
579,1778317320.3691175,-0.90218675,-2.7740643,0.35636225,1.6821702,-9.692446,-0.27214047
580,1778317320.378922,-0.8356585,-2.2292154,0.35221568,2.467743,-8.652754,-0.5842926
581,1778317320.3888702,-0.8010833,-2.0306063,0.3302022,3.085175,-7.9620175,-0.77854776
582,1778317320.3989193,-0.7574832,-1.74748,0.24611193,3.4257324,-7.5168495,-0.88315845
583,1778317320.4089246,-0.7262619,-1.4895991,0.110006414,3.6149478,-7.182248,-0.94959
584,1778317320.4189913,-0.7262619,-1.4895991,0.110006414,3.6149478,-7.182248,-0.94959
585,1778317320.4289117,-0.7262619,-1.4895991,0.110006414,3.6149478,-7.182248,-0.94959
586,1778317320.4391298,-0.7262619,-1.4895991,0.110006414,3.8421898,-6.6113944,-1.0503827
587,1778317320.4487338,-1.1395177,-0.95584846,-1.2914778,-0.61193424,-1.6948457,-0.9419542
588,1778317320.458563,-1.1395177,-0.95584846,-1.2914778,-0.61193424,-1.6948457,-0.9419542
589,1778317320.468772,-0.7653495,-1.1267121,-0.10957957,-0.548557,2.3503041,-0.2695443
590,1778317320.478661,-0.7653495,-1.1267121,-0.10957957,-0.548557,2.3503041,-0.2695443
591,1778317320.4885833,-0.7653495,-1.1267121,-0.10957957,-0.548557,2.3503041,-0.2695443
592,1778317320.498906,-0.7653495,-1.1267121,-0.10957957,-0.548557,2.3503041,-0.2695443
593,1778317320.508801,-0.3673385,-0.87907565,-0.61223084,-0.84116143,0.9613492,0.40225476
594,1778317320.518576,-0.25897855,-0.82858497,-0.65528214,-1.2124147,0.4297437,0.5158757
595,1778317320.5291932,-0.12299499,-0.76632524,-0.6077794,-1.9587394,-0.47555858,0.66675943
596,1778317320.5388186,-0.049210187,-0.6719294,-0.42520773,-2.4486532,-1.0319041,0.729984
597,1778317320.5485508,-0.03158721,-0.5464343,-0.19007207,-2.9029844,-1.6074919,0.82970774
598,1778317320.558868,-0.010915271,-0.42484185,-0.032440916,-2.9555187,-1.7643316,0.86635965
599,1778317320.5691872,-0.010915271,-0.42484185,-0.032440916,-2.9555187,-1.7643316,0.86635965
600,1778317320.5785341,-0.051649354,-0.187328,0.30495682,-2.5390613,-1.120785,0.7359399
601,1778317320.5889227,-0.051649354,-0.187328,0.30495682,-2.5390613,-1.120785,0.7359399
602,1778317320.5988073,-0.051649354,-0.187328,0.30495682,-2.5390613,-1.120785,0.7359399
603,1778317320.6085033,-0.051649354,-0.187328,0.30495682,-2.5390613,-1.120785,0.7359399
604,1778317320.6188428,-0.2222081,-0.025489293,0.33483663,-1.7366899,1.7675385,0.691194
605,1778317320.6286335,-0.2222081,-0.025489293,0.33483663,-1.7366899,1.7675385,0.691194
606,1778317320.6390212,-0.2222081,-0.025489293,0.33483663,-1.7366899,1.7675385,0.691194
607,1778317320.648918,-0.46270993,-0.35313037,-0.21928109,-1.8677205,2.3493876,1.0219775
608,1778317320.6587963,-0.46270993,-0.35313037,-0.21928109,-1.8677205,2.3493876,1.0219775
609,1778317320.66896,-0.70534605,-0.8889543,-0.33733675,-2.5334108,0.75915277,1.1537718
610,1778317320.678998,-0.70534605,-0.8889543,-0.33733675,-2.5334108,0.75915277,1.1537718
611,1778317320.6888592,-0.9353595,-1.747419,-0.28763872,-2.5040894,-1.3121386,1.3888022
612,1778317320.6986582,-0.95188487,-2.1317098,-0.22330572,-2.1384866,-2.8550315,1.598329
613,1778317320.7086034,-0.9085896,-2.7552218,-0.37008256,-1.5404494,-4.148233,1.8054122
614,1778317320.7186985,-0.78022844,-3.2604952,-0.6681487,-1.151481,-4.0613375,1.8869628
615,1778317320.7285533,-0.78022844,-3.2604952,-0.6681487,-1.151481,-4.0613375,1.8869628
616,1778317320.7386332,-0.78022844,-3.2604952,-0.6681487,-1.151481,-4.0613375,1.8869628
617,1778317320.7489226,-0.78022844,-3.2604952,-0.6681487,-1.151481,-4.0613375,1.8869628
618,1778317320.7590497,0.038904708,-1.993531,-0.32697028,-0.7475463,0.22861631,0.99372506
619,1778317320.7688444,0.038904708,-1.993531,-0.32697028,-0.7475463,0.22861631,0.99372506
620,1778317320.7785773,0.038904708,-1.993531,-0.32697028,-0.7475463,0.22861631,0.99372506
621,1778317320.7890174,-0.062320713,-0.65601385,-0.07311402,0.07849618,1.3034338,0.2003638
622,1778317320.7989454,-0.13098325,-0.5877782,-0.09585925,0.33261612,1.0658071,-0.23075435
623,1778317320.8089898,-0.16994894,-0.5868635,-0.10896978,0.43936482,0.8744536,-0.46043968
624,1778317320.8187795,-0.245868,-0.5927785,-0.11464083,0.43936482,0.8744536,-0.46043968
625,1778317320.8287563,-0.245868,-0.5927785,-0.11464083,0.43936482,0.8744536,-0.46043968
626,1778317320.838931,-0.37721714,-0.5980837,-0.11134796,1.0320568,-0.122783914,-1.2043208
627,1778317320.8489568,-0.39331564,-0.5956445,-0.11671413,1.3243558,-0.27320948,-1.2812898
628,1778317320.858574,-0.38947394,-0.5732652,-0.13006857,1.6317738,-0.35628715,-1.3011429
629,1778317320.868497,-0.33709285,-0.55308104,-0.17860797,1.8162551,-0.3746131,-1.2873985
630,1778317320.878916,-0.33709285,-0.55308104,-0.17860797,1.8567249,-0.35506544,-1.2730432
631,1778317320.88872,-0.24196534,-0.49490693,-0.24117261,1.8202257,-0.25870144,-1.2660183
632,1778317320.8986194,-0.20757309,-0.44447714,-0.29087064,1.0965031,0.2003638,-1.1501065
633,1778317320.9086583,-0.12714157,-0.27672347,-0.6274147,0.41508293,0.5338962,-1.0422888
634,1778317320.9187834,-0.12714157,-0.27672347,-0.6274147,-0.5015204,1.2403619,-0.94714653
635,1778317320.928882,-0.17458336,-0.12677568,-0.70498013,-1.3648257,2.0372355,-0.784351
636,1778317320.9386172,-0.17458336,-0.12677568,-0.70498013,-1.3648257,2.0372355,-0.784351
637,1778317320.94891,-0.25355136,-0.06329638,-0.39648655,-2.1696405,2.3770294,-0.19990565
638,1778317320.9589868,-0.37611952,0.09866429,0.04402696,-1.9845484,1.4715744,0.24266621
639,1778317320.9685416,-0.37611952,0.09866429,0.04402696,-1.9845484,1.4715744,0.24266621
640,1778317320.978814,-0.37611952,0.09866429,0.04402696,-1.9845484,1.4715744,0.24266621
641,1778317320.9887326,-0.37611952,0.09866429,0.04402696,-1.9845484,1.4715744,0.24266621
642,1778317320.9987438,-0.17787623,-0.22415942,0.2654423,-1.0961977,-1.5192219,1.0801625
643,1778317321.0088158,-0.17872995,-0.38862023,0.2008044,-1.2680036,-0.64858615,0.9790643
644,1778317321.0190723,-0.19391376,-0.52923816,0.20336552,-1.4358387,0.01038471,0.9243918
645,1778317321.028951,-0.19391376,-0.52923816,0.20336552,-1.4358387,0.01038471,0.9243918
646,1778317321.0389543,-0.19391376,-0.52923816,0.20336552,-1.4358387,0.01038471,0.9243918
647,1778317321.0488741,-0.32251883,-1.589361,0.33227548,-0.82604253,0.40607268,0.9211848
648,1778317321.0585897,-0.3401418,-1.9421866,0.35928926,0.99097615,-1.2133311,1.0685561
649,1778317321.0690033,-0.30233473,-2.2951338,0.37252176,0.85154617,-1.1510228,0.86101454
650,1778317321.0785139,-0.28202865,-2.7067432,0.5257014,0.1244638,-0.6250679,0.023518313
651,1778317321.0887296,-0.37624148,-2.834007,0.70534605,-0.1611157,0.6188065,-0.7076874
652,1778317321.0984976,-0.37624148,-2.834007,0.70534605,-0.1611157,0.6188065,-0.7076874
653,1778317321.1090398,-0.37624148,-2.834007,0.70534605,-0.1611157,0.6188065,-0.7076874
654,1778317321.1188877,-0.37624148,-2.834007,0.70534605,-0.1611157,0.6188065,-0.7076874
655,1778317321.128704,-0.37624148,-2.834007,0.70534605,-0.1611157,0.6188065,-0.7076874
656,1778317321.1388757,-0.22172025,-1.5991178,-0.8219992,5.6074376,0.44700065,-1.3365731
657,1778317321.1487997,-0.81632805,-1.3352609,-2.1303682,3.7319286,0.7707592,-1.5480852
658,1778317321.1587543,-0.8469397,-1.2694033,-1.4391084,1.349096,1.611768,-1.2673926
659,1778317321.1688025,-0.8469397,-1.2694033,-1.4391084,1.349096,1.611768,-1.2673926
660,1778317321.1787603,-0.8469397,-1.2694033,-1.4391084,1.349096,1.611768,-1.2673926
661,1778317321.1890469,-0.65461135,-1.4204488,0.005488125,1.2198979,0.9842566,-1.2904528
662,1778317321.1985924,-0.65461135,-1.4204488,0.005488125,1.6536123,0.5804747,-1.3413074
663,1778317321.2086475,-0.9618854,-1.2612321,-0.53990954,2.3031147,-0.2790127,-1.3581061
664,1778317321.2187755,-0.9618854,-1.2612321,-0.53990954,2.3031147,-0.2790127,-1.3581061
665,1778317321.228904,-0.9618854,-1.2612321,-0.53990954,2.3031147,-0.2790127,-1.3581061
666,1778317321.23871,-0.9618854,-1.2612321,-0.53990954,2.3031147,-0.2790127,-1.3581061
667,1778317321.248943,-0.9618854,-1.2612321,-0.53990954,2.3031147,-0.2790127,-1.3581061
668,1778317321.2585003,-0.9618854,-1.2612321,-0.53990954,2.3031147,-0.2790127,-1.3581061
669,1778317321.2690332,-0.64802563,-0.79644895,-0.14494748,-0.30497447,0.23716843,-0.090713486
670,1778317321.2788055,-0.53515315,-0.67205137,-0.15830192,-0.5363397,0.31031954,0.1330159
671,1778317321.2886934,-0.45508754,-0.49685827,-0.24507529,-0.9007208,0.54076844,0.36300668
672,1778317321.298752,-0.45508754,-0.49685827,-0.24507529,-0.9007208,0.54076844,0.36300668
673,1778317321.308967,-0.45508754,-0.49685827,-0.24507529,-0.9007208,0.54076844,0.36300668
674,1778317321.3185735,-0.23263553,-0.039209604,-0.29282197,-2.05434,1.6991217,0.8526152
675,1778317321.328693,-0.23263553,-0.039209604,-0.29282197,-2.05434,1.6991217,0.8526152
676,1778317321.3388498,-0.1378739,0.07305304,0.015427729,-2.3483188,2.8038714,0.9983065
677,1778317321.348785,-0.096347086,0.090554066,0.16153382,-2.2676845,3.4147367,1.0682507
678,1778317321.3587313,0.037868064,0.08677336,0.2608079,-2.0422752,4.0552287,1.0380127
679,1778317321.3686657,0.06158896,0.06951625,0.23891638,-1.8591684,4.4774895,0.93569285
680,1778317321.3785367,0.05353971,0.057381395,0.16927817,-1.7023287,4.786129,0.79626286
681,1778317321.3888085,0.046527103,0.047319833,0.12397064,-1.6249015,4.8817296,0.68035114
682,1778317321.3987536,0.06756492,0.049454104,0.15610667,-1.5778649,4.8762317,0.5870415
683,1778317321.40854,0.07262619,0.048783336,0.2034265,-1.5066991,4.8440084,0.47662762
684,1778317321.4188812,0.028843146,-0.083907336,0.22495215,-1.4764613,4.4303,0.34880406
685,1778317321.4285462,-0.0029879792,-0.1595215,0.30361527,-1.5757269,4.0834813,0.21395555
686,1778317321.4389505,-0.04006331,-0.21946402,0.40563342,-1.6696475,3.8319576,0.108123146
687,1778317321.4490354,-0.102445,-0.3246531,0.5147861,-1.811979,3.3475416,-0.058643065
688,1778317321.4585423,-0.11025034,-0.34764224,0.5149691,-1.8443549,3.1656563,-0.11026118
689,1778317321.4686065,-0.5348483,-1.8888906,-0.2537953,-2.4275784,1.3857478,-0.36102137
690,1778317321.479036,-1.314284,-3.1781123,-0.16665606,-2.515543,-2.256078,0.33505958
691,1778317321.4886231,-1.7997391,-3.8128445,0.19269417,-1.621389,-4.9823694,1.4159856
692,1778317321.4985077,-2.0391433,-4.469346,0.05945469,0.2501493,-6.245028,3.1199942
693,1778317321.5090423,-2.03707,-4.4638577,-0.3810588,1.0036516,-4.3461537,3.751018
694,1778317321.518527,-1.5503343,-3.6029541,-0.57570434,1.3854424,-1.0433578,3.710701
695,1778317321.528681,-0.7394334,-1.9830425,-0.6365615,1.4022411,1.9259053,3.256828
696,1778317321.5389643,-0.46264893,-1.4139849,-0.51204205,1.2770138,4.5135307,2.4912612
697,1778317321.5489178,-0.24483135,-1.015852,-0.38471758,1.2690725,6.145915,1.751656
698,1778317321.5589726,-0.1086039,-0.8200479,-0.3059325,1.3390167,7.1341424,1.0978775
699,1778317321.5689833,-0.09354204,-0.8061446,-0.18659624,1.5250251,7.4798923,0.5946773
700,1778317321.5786881,-0.12067777,-0.8867591,-0.04006331,1.884672,7.089244,0.2591596
701,1778317321.589049,-0.14622805,-0.9570071,0.038538832,1.884672,7.089244,0.2591596
702,1778317321.5989225,-0.16970502,-1.1209191,0.14561825,2.9364293,5.4421983,-0.035430185
703,1778317321.6088116,-0.13366634,-1.2627566,0.18123008,3.5155294,4.2841506,-0.099265605
704,1778317321.6188202,-0.042868353,-1.2855629,0.1343371,3.8566978,3.0202706,-0.13439035
705,1778317321.628712,0.027501604,-1.2370844,0.07433361,3.8566978,3.0202706,-0.13439035
706,1778317321.6387484,0.14470357,-1.0688429,0.04750277,3.6948185,1.1861476,-0.204029
707,1778317321.6487055,0.21458568,-0.9040772,0.08762706,3.4489453,0.5181664,-0.2837469
708,1778317321.658581,0.24922185,-0.73815286,0.081956,3.1089988,-0.04642576,-0.4195117
709,1778317321.6688576,0.30520073,-0.56302065,0.06104015,2.680782,-0.42271876,-0.6230826
710,1778317321.6785338,0.37794888,-0.41209725,-0.008537084,2.3127358,-0.5514586,-0.8258898
711,1778317321.688898,0.48746744,-0.25403923,-0.2581858,1.8872682,-0.47342056,-1.0769554
712,1778317321.6986997,0.5241769,-0.1612899,-0.56917953,1.268309,-0.13179417,-1.2864822
713,1778317321.7087607,0.55600804,-0.10201815,-0.7672399,0.45356745,0.5487097,-1.4598153
714,1778317321.7188065,0.57997286,-0.033721477,-0.85315955,-0.6097962,1.7142406,-1.6560557
715,1778317321.7288134,0.57997286,-0.033721477,-0.85315955,-1.1774428,2.4034493,-1.7734945
716,1778317321.738663,0.55667883,0.033721477,-0.8496837,-1.4984524,2.8041768,-1.8419114
717,1778317321.7489505,0.28416294,0.21464668,-0.6577213,-2.1870503,3.611588,-1.9763018
718,1778317321.7589095,-0.00798827,0.30099317,-0.37727812,-1.9197967,3.1716123,-1.7395915
719,1778317321.7687802,-0.21434177,0.23605035,-0.15000875,-1.4086553,1.9973767,-1.4115568
720,1778317321.7787933,-0.27702835,0.06305246,0.13384928,-1.0285443,0.8179486,-1.1487321
721,1778317321.7888768,-0.21556135,-0.053112853,0.29696855,-0.5493206,-0.5729916,-0.7838928
722,1778317321.7986526,-0.1510454,-0.15946053,0.38740066,-0.31871894,-0.999681,-0.5726862
723,1778317321.808962,-0.16659509,-0.24891695,0.29489526,-0.19608775,-1.0896308,-0.3100141
724,1778317321.818677,-0.1642169,-0.30800578,0.29288295,-0.23441954,-1.0091494,-0.059253927
725,1778317321.8286183,-0.1642169,-0.30800578,0.29288295,-0.23441954,-1.0091494,-0.059253927
726,1778317321.8385868,0.006219875,-0.5719846,0.47783276,-0.30283645,-1.0122037,0.26542094
727,1778317321.8488567,0.12848312,-0.8949912,0.44283074,-0.22036964,-0.9795224,0.68432176
728,1778317321.858832,0.22531801,-1.2242178,0.4991755,-0.084910266,-0.7110472,0.79366666
729,1778317321.8685737,0.3884373,-1.6586943,0.59320533,0.12889257,-0.52855116,0.7706065
730,1778317321.8787775,0.45594123,-2.0906708,0.6157066,0.29856038,-0.32620203,0.5655085
731,1778317321.8888144,0.33154374,-2.4503868,0.714188,0.39935315,-0.2582433,0.28802297
732,1778317321.8985229,0.117506854,-2.596066,0.7503486,0.75594574,0.2180789,-0.13622294
733,1778317321.9088273,-0.02695279,-2.6444836,0.6568676,1.2922854,1.028697,-0.24617869
734,1778317321.9188125,-0.09402988,-2.53466,0.64845246,2.4023802,1.8924606,-0.4063781
735,1778317321.9290245,-0.242941,-2.1853104,-0.09866429,4.5796566,3.0008755,-0.95233893
736,1778317321.9389184,-0.242941,-2.1853104,-0.09866429,5.1134005,3.2128458,-1.1328496
737,1778317321.9487858,-0.6443059,-2.084207,-1.2692204,4.2537603,2.2288945,-1.1203269
738,1778317321.958563,-0.7841921,-2.0779262,-0.9738373,2.9967523,1.4158329,-0.84696466
739,1778317321.9690685,-0.7157125,-2.0040195,-0.32282373,1.7238617,0.9975429,-0.34406984
740,1778317321.9785209,-0.55283713,-1.9359666,0.10116444,1.1665999,0.6765333,0.16737708
741,1778317321.9890068,-0.58088756,-1.7888238,0.12750745,1.2350168,0.3933972,0.5636759
742,1778317321.9985003,-0.55667883,-1.6358881,0.0687845,1.5873333,-0.17715092,0.76251256
743,1778317322.0089962,-0.55649585,-1.5049049,-0.1390325,2.3959663,-1.4680619,0.7246389
744,1778317322.0190065,-0.53167737,-1.3517252,-0.8582208,2.9794953,-2.7856982,0.4448626
745,1778317322.029053,-0.4613074,-1.2056801,-1.6194237,2.6612344,-3.2333097,0.09789115
746,1778317322.0388038,-0.42850062,-1.1570797,-1.8101057,1.9077321,-2.845563,-0.15271631
747,1778317322.0486782,-0.46411243,-1.1459205,-1.1276877,0.48731774,-0.93111134,-0.2218968
748,1778317322.058951,-0.46411243,-1.1459205,-1.1276877,0.48731774,-0.93111134,-0.2218968
749,1778317322.06851,-0.19885308,-1.1290903,-0.071772486,-0.27947086,2.3617578,0.3051272
750,1778317322.0789983,-0.0037197291,-0.9915823,-0.08835881,-0.12370021,2.7026205,0.5007568
751,1778317322.0888476,0.07939488,-0.804925,-0.37672928,-0.25809056,2.2536347,0.5795584
752,1778317322.098943,0.03866079,-0.6679048,-0.48100364,-0.762818,1.6875153,0.63071835
753,1778317322.108554,-0.03609967,-0.58320475,-0.44490403,-1.2780828,1.2837334,0.72265357
754,1778317322.1189508,-0.10817704,-0.5142373,-0.35209373,-1.8924606,1.071763,0.8914051
755,1778317322.1285079,-0.14384985,-0.47112507,-0.17525412,-2.4301746,1.2622004,1.1346822
756,1778317322.1386583,-0.14384985,-0.47112507,-0.17525412,-2.4301746,1.2622004,1.1346822
757,1778317322.1488657,-0.12622687,-0.3606918,0.063418336,-2.641534,1.7702875,1.3489432
758,1778317322.1588194,-0.08695629,-0.2704426,0.13195892,-2.5938866,2.152231,1.4532484
759,1778317322.1692212,-0.025367333,-0.16220458,0.1890964,-2.4367414,2.5251641,1.4908166
760,1778317322.1790113,0.01762298,-0.096591,0.22458628,-2.2438607,2.7488935,1.4396566
761,1778317322.188821,0.05512517,-0.029270003,0.21428078,-2.0442605,2.8944323,1.322676
762,1778317322.1986244,0.081773065,0.000365875,0.1876329,-1.9398025,2.9463558,1.2360858
763,1778317322.2086098,0.13415417,0.0127446465,0.14793546,-1.7863227,2.9243646,1.0297661
764,1778317322.218648,0.1276294,-0.06756492,0.11098208,-1.721571,2.8041768,0.88071495
765,1778317322.22909,0.124580435,-0.18190086,0.09476163,-1.6901114,2.6363416,0.7173085
766,1778317322.2388067,0.13354437,-0.31251824,0.056649648,-1.6786577,2.5492933,0.61850107
767,1778317322.248827,0.23141594,-0.67296606,-0.11604336,-1.7240144,2.5836546,0.43386704
768,1778317322.2587934,0.34849593,-0.9442014,-0.2294646,-1.9068159,3.16642,0.028405234
769,1778317322.2689013,0.54539764,-1.4076431,-0.30995712,-2.0340285,3.768275,-0.46074513
770,1778317322.278822,0.8048031,-2.1726878,-0.29373667,-2.0163136,4.227646,-1.1372783
771,1778317322.2886999,0.9474333,-2.9906623,-0.39246193,-1.6846136,4.0419426,-2.3301454
772,1778317322.2988229,0.81327915,-3.4453838,-0.42185387,-1.459968,3.0016391,-2.9578094
773,1778317322.3089714,0.058052167,-3.5634396,-0.50978583,-1.2770138,0.46303585,-2.8254044
774,1778317322.3185506,-0.47045428,-3.2334814,-0.47149092,-1.3078625,-1.2131784,-1.8590157
775,1778317322.3287787,-0.68357646,-2.631983,-0.33684894,-1.3203852,-2.2737932,-0.36102137
776,1778317322.3386114,-0.54893446,-2.0649376,-0.22275689,-1.2428054,-2.6030495,0.9616546
777,1778317322.3486574,-0.16135088,-1.4136801,-0.13665432,-1.0105238,-1.9711094,2.0412061
778,1778317322.3586547,-0.060247418,-1.1892767,-0.08677336,-0.82924956,-1.2541064,2.1467333
779,1778317322.3686419,0.000365875,-1.0045099,-0.048234522,-0.64675355,-0.64766985,2.0949624
780,1778317322.3786688,0.02774552,-0.85157406,-0.031892106,-0.23579398,0.36926803,1.829236
781,1778317322.3887627,0.015549688,-0.6896744,-0.06475988,0.3022256,1.2003502,1.4341589
782,1778317322.3987362,-0.015793605,-0.5831438,-0.13226382,1.0713049,1.7905988,0.9456194
783,1778317322.4087868,-0.031160356,-0.5133226,-0.20885365,1.4679092,1.9294178,0.72112644
784,1778317322.4188216,-0.05195425,-0.4656369,-0.3077009,2.1940753,1.8721492,0.33399057
785,1778317322.4287436,-0.05195425,-0.4656369,-0.3077009,2.1940753,1.8721492,0.33399057
786,1778317322.4387827,-0.05195425,-0.4656369,-0.3077009,2.1940753,1.8721492,0.33399057
787,1778317322.4487824,-0.070187025,-0.5168594,-0.45801452,2.982855,1.1806498,0.29092458
788,1778317322.4586046,0.02420873,-0.5886319,-0.4556973,2.8037188,0.8901834,0.40118575
789,1778317322.4689157,0.010549396,-0.5808266,-0.46112445,2.8037188,0.8901834,0.40118575
790,1778317322.478607,0.010549396,-0.5808266,-0.46112445,2.8037188,0.8901834,0.40118575
791,1778317322.4889197,0.063113436,-0.5900954,-0.4548436,2.1067214,0.18997909,0.40882155
792,1778317322.4986794,0.07823627,-0.5195425,-0.33831242,1.3912456,-0.6041457,0.42073345
793,1778317322.508746,0.07823627,-0.5195425,-0.33831242,1.3912456,-0.6041457,0.42073345
794,1778317322.518691,0.07823627,-0.5195425,-0.33831242,1.3912456,-0.6041457,0.42073345
795,1778317322.5290303,0.07823627,-0.5195425,-0.33831242,1.3912456,-0.6041457,0.42073345
796,1778317322.5386465,0.07823627,-0.5195425,-0.33831242,1.3912456,-0.6041457,0.42073345
797,1778317322.5486522,0.07823627,-0.5195425,-0.33831242,1.3912456,-0.6041457,0.42073345
798,1778317322.558946,0.07823627,-0.5195425,-0.33831242,1.3912456,-0.6041457,0.42073345
799,1778317322.568575,0.027379647,-0.030428605,0.10799411,-4.274835,0.22983804,0.89644474
800,1778317322.5788198,0.027379647,-0.030428605,0.10799411,-4.274835,0.22983804,0.89644474
801,1778317322.5887642,0.0027440626,0.07195542,0.47313735,-3.6570976,-0.15485434,0.7893906
802,1778317322.5986829,0.14525238,0.06067427,0.6982724,-2.6762006,-0.8445212,0.6423248
803,1778317322.6087093,0.21922012,-0.11146992,0.5003341,-1.1513283,-1.2470814,0.007330383
804,1778317322.6188185,0.19867012,-0.2602591,0.36831418,-0.7333437,-1.2964088,-0.2677117
805,1778317322.6288652,0.24105065,-0.66839266,0.4531362,-0.11026118,-0.89812464,-0.46318856
806,1778317322.6390615,0.19769447,-0.9821305,0.4862479,0.99067074,-0.16752979,-0.6789767
807,1778317322.6485715,0.14653294,-1.3761169,0.6424155,1.5664113,-0.39293906,-0.8784242
808,1778317322.6587794,0.14653294,-1.3761169,0.6424155,1.5664113,-0.39293906,-0.8784242
809,1778317322.6687,0.0015854583,-2.3845904,0.91444355,2.2681427,-1.1488848,-1.1297953
810,1778317322.6789086,-0.17866896,-2.8550446,0.933896,3.2050571,-1.9891299,-1.4115568
811,1778317322.6885457,-0.24452646,-3.0652397,0.82187724,3.5483634,-1.8565722,-1.413084
812,1778317322.6985247,-0.33971494,-3.0367625,0.60290104,3.627165,-1.2284501,-1.2857187
813,1778317322.708993,-0.4466724,-2.9016325,0.50356597,3.535688,-0.5340489,-1.0891727
814,1778317322.7189527,-0.5471661,-2.6473496,0.4063652,3.3993123,0.50243664,-0.7263188
815,1778317322.7290504,-0.6490623,-2.4008718,0.31306705,3.3234124,1.4089607,-0.27137688
816,1778317322.7386656,-0.6831496,-2.181347,0.28324825,3.391371,1.7800614,0.09712757
817,1778317322.7486405,-0.87883174,-1.829497,-0.37691224,4.8533244,0.47342056,-0.094989546
818,1778317322.7589877,-0.87883174,-1.829497,-0.37691224,5.158146,-1.3675746,-0.30207285
819,1778317322.7687032,-1.2569027,-1.2892216,-2.736318,1.804954,-5.13081,-0.06505715
820,1778317322.7788513,-0.90572363,-1.1899475,-1.7785794,0.6601926,-5.2430563,0.036651913
821,1778317322.78879,-0.7740086,-1.1324441,-0.7836433,0.28512135,-4.439158,0.20143281
822,1778317322.7987745,-0.72327393,-1.1712879,-0.509359,0.44440445,-3.7818668,0.3013093
823,1778317322.8090425,-0.72327393,-1.1712879,-0.509359,0.44440445,-3.7818668,0.3013093
824,1778317322.8188453,-0.72327393,-1.1712879,-0.509359,0.44440445,-3.7818668,0.3013093
825,1778317322.8285804,-0.72327393,-1.1712879,-0.509359,0.44440445,-3.7818668,0.3013093
826,1778317322.8386328,-0.72327393,-1.1712879,-0.509359,0.44440445,-3.7818668,0.3013093
827,1778317322.848626,-0.2093415,-1.223425,-0.23983108,1.4398094,0.97524637,0.23289238
828,1778317322.858894,-0.046832,-0.82614577,-0.649916,-0.18280143,1.3715452,-0.30741793
829,1778317322.8688,-0.26044202,-0.64759874,-0.681991,-0.8436049,0.279929,-0.1255328
830,1778317322.878776,-0.3070301,-0.6225363,-0.65619683,-1.122923,-0.061850104,-0.01817324
831,1778317322.8890386,-0.389352,-0.5984496,-0.55960584,-1.5335772,-0.3895793,0.16829337
832,1778317322.8990586,-0.4455748,-0.56619155,-0.40069413,-2.1815524,-0.6087272,0.6027713
833,1778317322.9085488,-0.45972195,-0.5435683,-0.30282256,-2.5298984,-0.28008172,1.1673635
834,1778317322.9191313,-0.35867947,-0.3460568,-0.02201348,-2.5515842,0.04932737,1.481501
835,1778317322.9286323,-0.2697718,-0.25531977,0.051283482,-2.484847,0.39522982,1.6850718
836,1778317322.938862,-0.16653411,-0.155131,0.063967146,-2.3571763,0.8723156,1.8446603
837,1778317322.9490485,-0.064820856,-0.03670946,0.040917024,-2.1971295,1.4330899,1.909412
838,1778317322.9585288,-0.0069516255,0.005732042,0.029757833,-2.111303,1.7510452,1.9025398
839,1778317322.9689124,0.03811198,0.056161813,-0.019940188,-2.085494,1.8606955,1.8920023
840,1778317322.9790926,0.1887915,-0.05286894,-0.03609967,-2.0034852,3.159395,1.666135
841,1778317322.9890275,0.181474,-0.19098675,-0.025306353,-1.9636264,3.721391,1.5028812
842,1778317322.999098,0.13842271,-0.34495914,-0.05433244,-1.9210185,4.326606,1.1950052
843,1778317323.0085642,0.110067405,-0.47295445,-0.06994311,-1.9022343,4.484209,1.0680978
844,1778317323.0190227,0.06213777,-0.81864536,-0.073175006,-1.861001,4.669301,0.81122905
845,1778317323.0285804,0.0954324,-1.2043995,-0.08018761,-1.7444785,4.555986,0.5884159
846,1778317323.0386083,0.16909523,-1.609789,-0.095920235,-1.6151277,4.121966,0.32421672
847,1778317323.0487552,0.082626775,-2.5475876,-0.15183812,-1.3359623,2.1859813,-0.54168475
848,1778317323.058612,0.013720313,-3.226225,-0.23165986,-1.3063353,0.47678033,-1.1588113
849,1778317323.0688252,-0.23623328,-3.9034593,-0.3237384,-1.5221235,-1.6833919,-1.8504635
850,1778317323.0785174,-0.6565627,-3.9393153,-0.30154198,-1.7055358,-2.214081,-1.7733418
851,1778317323.0886106,-0.9206025,-3.3676355,-0.23781876,-1.6971364,-1.8793269,-0.68859786
852,1778317323.0988498,-0.60948676,-2.1742733,-0.13842271,-1.5074627,-1.2415836,0.56016344
853,1778317323.1089125,-0.3144086,-1.5284429,-0.073540874,-1.2982414,-0.70952,1.1791227
854,1778317323.1184978,-0.16689998,-1.1140285,-0.00512225,-0.8863655,0.119729586,1.5800029
855,1778317323.1287813,-0.16689998,-1.1140285,-0.00512225,-0.8863655,0.119729586,1.5800029
856,1778317323.138822,-0.16689998,-1.1140285,-0.00512225,-0.8863655,0.119729586,1.5800029
857,1778317323.1485853,0.033355605,-0.55076385,-0.025306353,0.53893584,1.4628695,1.3420709
858,1778317323.1587694,0.078663126,-0.42746398,-0.13604453,0.95386606,1.5079209,1.1472049
859,1778317323.168589,0.0983594,-0.37276566,-0.21110988,1.7843374,1.2114985,0.7189884
860,1778317323.1790066,0.10921369,-0.32745814,-0.30221277,2.277611,0.782213,0.4550946
861,1778317323.1885335,0.11640923,-0.30343235,-0.43850118,2.8238773,0.017715093,0.16554448
862,1778317323.1993277,0.11878742,-0.30373722,-0.5658257,3.0036244,-0.5742133,-0.0125227375
863,1778317323.2088194,0.115555525,-0.30812773,-0.64528155,2.9216158,-0.97097033,-0.1459968
864,1778317323.2190728,0.06555261,-0.33672696,-0.6127797,2.4859161,-1.4785993,-0.33292156
865,1778317323.2289407,0.037075333,-0.33447072,-0.5438122,1.9167424,-1.8031214,-0.47112983
866,1778317323.2389522,-0.0034758127,-0.3460568,-0.47252756,1.3298537,-1.9398025,-0.5476407
867,1778317323.2488973,-0.038294915,-0.3316657,-0.4369767,0.48349985,-1.8286251,-0.57971114
868,1778317323.258631,-0.11037229,-0.2365382,-0.68674743,-0.5520695,-1.2906055,-0.5357288
869,1778317323.2687914,-0.16763173,-0.21702486,-0.76772773,-1.0994047,-0.8732319,-0.47433686
870,1778317323.2785816,-0.3012371,-0.1718393,-0.9648734,-3.3377676,1.1198688,-0.04841107
871,1778317323.2888966,-0.23787974,-0.16049717,-0.7124196,-4.5814896,1.9138408,0.2134974
872,1778317323.2990246,-0.11573846,-0.09488358,0.10049367,-5.0799556,1.9304869,0.3388775
873,1778317323.3088481,-0.07768746,0.07445556,0.5547885,-4.7740645,1.4637859,0.35140023
874,1778317323.3189154,-0.02207446,0.124641426,0.69723576,-3.477045,-0.04520403,0.34972036
875,1778317323.329071,0.07805333,0.10646963,0.67808837,-2.1632266,-1.079857,0.20357084
876,1778317323.338596,0.12695862,0.08018761,0.61918247,-1.4492778,-1.4136949,0.051618114
877,1778317323.3486974,0.07335794,-0.21232945,0.5302139,-0.6012441,-1.6369661,-0.16539176
878,1778317323.3589985,0.03420931,-0.34093451,0.49948034,0.13729197,-1.9049833,-0.311694
879,1778317323.3688922,0.009085896,-0.46283188,0.44825786,0.5233588,-2.0447187,-0.43203443
880,1778317323.378645,-0.029087063,-0.59338826,0.4166097,0.6948592,-2.1012237,-0.5123632
881,1778317323.388904,-0.08750511,-1.7612003,0.58424145,1.2841915,-2.7366762,-0.7845037
882,1778317323.3987443,-0.21080498,-2.733818,0.80285174,1.589624,-3.5618026,-1.2618948
883,1778317323.4088635,-0.4555144,-3.6719217,1.0721357,1.9346102,-3.8580723,-1.9552269
884,1778317323.4187315,-0.54539764,-3.887605,1.009998,2.250733,-3.444211,-2.2282836
885,1778317323.429017,-0.6665633,-3.7395475,0.8735875,2.5227208,-2.6755898,-2.2421808
886,1778317323.4385686,-0.81608415,-3.2517142,0.6444889,2.8101327,-1.1861476,-1.6565138
887,1778317323.4485383,-0.79260725,-2.6918035,0.47551554,3.059824,0.14630222,-0.8191703
888,1778317323.458626,-0.71168786,-2.3079395,0.33642206,3.232699,1.0108292,-0.23335053
889,1778317323.468889,-0.61552376,-1.8692554,0.4608196,4.4426703,0.9425651,0.09239337
890,1778317323.4788017,-0.5539957,-1.6257046,0.36331388,4.4426703,0.9425651,0.09239337
891,1778317323.488662,-0.5539957,-1.6257046,0.36331388,4.4426703,0.9425651,0.09239337
892,1778317323.4988563,-0.5144203,-1.1347613,-0.8319997,6.392094,-1.4541647,-0.1928807
893,1778317323.5086997,-0.7002848,-0.8171818,-1.5719819,-0.24465153,-3.4811683,-0.47784933
894,1778317323.5185335,-0.56100833,-1.0195106,-0.13080032,-0.28787026,-3.0234776,-0.11530081
895,1778317323.52853,-0.529726,-1.0929296,0.14720371,0.14950927,-2.3791673,0.1151481
896,1778317323.5389078,-0.48014995,-1.0491467,0.12384869,0.45265114,-1.348485,0.120493166
897,1778317323.5486693,-0.48899198,-0.9966435,0.09567632,0.54702985,-0.54260105,0.0021380284
898,1778317323.558669,-0.47569847,-0.92657846,-0.10585984,0.5723807,0.20097467,-0.17287487
899,1778317323.5690556,-0.44581872,-0.8330974,-0.29489526,0.5390886,0.39553526,-0.2519819
900,1778317323.5790195,-0.39727926,-0.76772773,-0.45886827,0.15974127,0.089491755,-0.3155119
901,1778317323.5886245,-0.26678386,-0.6972968,-0.90115017,-0.37125334,-0.21074851,-0.23365596
902,1778317323.598619,-0.2745282,-0.68674743,-0.7748623,-1.0102184,-0.31322116,-0.08735373
903,1778317323.6089995,-0.28373605,-0.68382037,-0.54460496,-1.6920967,-0.31138855,0.18600847
904,1778317323.6187408,-0.25824678,-0.679186,-0.27056456,-2.1815524,-0.28603765,0.548557
905,1778317323.6290395,-0.24666072,-0.6629045,-0.16872935,-2.2795963,-0.28787026,0.6617198
906,1778317323.6390219,-0.17122951,-0.5939371,-0.0693943,-2.4382687,-0.23487769,0.98670006
907,1778317323.6486692,-0.08573671,-0.47832057,-0.0016464376,-2.453235,-0.16966783,1.1052079
908,1778317323.6592028,-0.01981823,-0.37752202,0.04085604,-2.4475844,-0.020616703,1.1863003
909,1778317323.6686392,0.018781584,-0.31050593,0.06225973,-2.4362833,0.114689946,1.1905763
910,1778317323.6789763,0.102384016,-0.2250741,0.14147167,-2.4191792,0.21456642,1.1765264
911,1778317323.6887655,0.18397415,-0.122507155,0.21903718,-2.2359195,0.6444628,0.9309586
912,1778317323.6989663,0.22696446,-0.05847902,0.23995303,-2.0373883,0.8049677,0.6623306
913,1778317323.708875,0.26922303,-0.028782167,0.22501312,-1.870622,0.8339838,0.42256603
914,1778317323.7185435,0.25336844,-0.07701669,0.15757017,-1.6391041,0.75640386,0.044593163
915,1778317323.7289793,0.21403688,-0.18537667,0.08823685,-1.4932601,0.5893322,-0.17806722
916,1778317323.738985,0.18738899,-0.2889193,0.00804925,-1.4366024,0.5328272,-0.2773328
917,1778317323.7489326,0.19001108,-0.6127797,-0.24666072,-1.4327844,0.8228355,-0.48181996
918,1778317323.7589235,0.18757193,-1.018596,-0.41343874,-1.4471397,1.4782939,-0.72601336
919,1778317323.76865,0.18964522,-1.4820378,-0.4305739,-1.2163854,1.9701931,-1.0088439
920,1778317323.7785542,0.18964522,-1.4820378,-0.4305739,-1.2163854,1.9701931,-1.0088439
921,1778317323.7890124,0.084578104,-2.3889809,-0.39935255,-0.35063666,1.313513,-1.3730724
922,1778317323.7990868,-0.012500729,-2.909316,-0.38020512,-0.05421429,0.12950343,-1.5305228
923,1778317323.808575,-0.14098383,-3.1303656,-0.36367974,-0.10629055,-0.8883508,-1.6061175
924,1778317323.8188856,-0.33587328,-3.0845704,-0.3128841,-0.37782016,-1.841606,-1.4773777
925,1778317323.828796,-0.6344882,-2.5689304,-0.2423312,-0.6731735,-2.150551,-0.7228063
926,1778317323.838757,-0.66138005,-2.1050007,-0.22952558,-0.8555168,-1.954158,0.19624045
927,1778317323.8488152,-0.49332145,-1.6489376,-0.14153264,-0.93935806,-1.7369953,0.70341134
928,1778317323.8586216,-0.3059325,-1.4593534,-0.032562874,-0.91813046,-1.1078042,1.4747814
929,1778317323.869032,-0.12695862,-1.3305655,0.037807085,-0.72158456,-0.63270366,1.7160732
930,1778317323.8785477,0.014817937,-1.1848862,0.07323598,-0.20799962,0.038179077,1.6765196
931,1778317323.889337,0.062686585,-1.0973811,0.09274931,0.14813483,0.3724751,1.5479325
932,1778317323.8989658,0.09311519,-0.878222,0.006219875,0.8784242,0.9896017,1.2738068
933,1778317323.909027,0.1030548,-0.7383357,-0.18995011,1.6975945,1.3923146,1.0074695
934,1778317323.9187815,0.11592139,-0.64729387,-0.3808759,2.2482896,1.3132075,0.85154617
935,1778317323.9287791,0.16269243,-0.5758263,-0.506371,2.5100453,0.5143485,0.7339546
936,1778317323.938853,0.21611017,-0.5184449,-0.538629,2.3658812,-0.21074851,0.70280045
937,1778317323.948822,0.34959355,-0.4235613,-0.50887114,1.6723963,-2.196977,0.59681535
938,1778317323.958974,0.34959355,-0.4235613,-0.50887114,1.0564915,-3.5850153,0.47891834
939,1778317323.9686267,0.55228835,-0.31514034,-0.3471544,0.15485434,-5.167462,0.22159137
940,1778317323.9789586,0.55228835,-0.31514034,-0.3471544,0.15485434,-5.167462,0.22159137
941,1778317323.9889815,0.73778695,-0.19988972,-0.5615572,-1.1290317,-5.5263453,-0.4503604
942,1778317323.9987092,0.77876496,-0.122934,-0.6690634,-1.7447839,-4.798041,-0.79152864
943,1778317324.0085883,0.73528683,-0.05116152,-0.59582746,-2.200642,-3.6296086,-1.0673343
944,1778317324.0189116,0.57088697,0.030184686,-0.24580702,-2.1641428,-2.0172298,-1.2380711
945,1778317324.0285928,0.41380462,0.033294626,0.004268542,-1.6395624,-1.4741706,-1.2487613
946,1778317324.0385482,0.16671704,-0.09463967,0.38666892,-0.905455,-1.493871,-1.2177598
947,1778317324.0487306,-0.019391375,-0.26861322,0.5839975,-0.28878653,-1.5502232,-1.2125676
948,1778317324.058748,-0.10287185,-0.35355723,0.6540625,0.004428773,-1.5624406,-1.1873693
949,1778317324.0688148,-0.28458977,-0.57247245,0.62381685,0.8361218,-1.474476,-0.84665924
950,1778317324.0789528,-0.30081022,-0.67290515,0.48704064,0.9408852,-1.4433218,-0.72387534
951,1778317324.0886686,-0.30081022,-0.67290515,0.48704064,1.0019717,-1.4547756,-0.56016344
952,1778317324.0985112,-0.22330572,-1.1407983,0.24105065,0.44974953,-1.7227927,-0.3744604
953,1778317324.1086884,-0.24184339,-1.3734949,0.26763758,-0.0015271631,-1.9785925,-0.41325033
954,1778317324.1187286,-0.2736135,-1.6317415,0.27446723,-0.46792278,-2.4721715,-0.46929723
955,1778317324.1289084,-0.22641563,-1.9663953,0.32068944,-1.0343475,-3.5068247,-0.57451874
956,1778317324.1389802,-0.2669058,-2.262876,0.45563635,-1.4892895,-4.87333,-0.73273283
957,1778317324.1489258,-0.3503863,-2.4476428,0.65369666,-1.6319265,-6.0689464,-0.80924374
958,1778317324.1589074,-0.5118591,-2.4496553,0.7921194,-1.4512631,-6.4962463,-0.7324274
959,1778317324.1691866,-0.6896744,-2.2414722,0.8149256,-0.89843005,-6.3128343,-0.31581733
960,1778317324.179012,-0.62625605,-1.7812015,0.56119126,-0.004581489,-6.5597763,0.06169739
961,1778317324.1888304,-0.6061939,-1.6564381,0.45002624,0.46731192,-6.7810626,0.17867808
962,1778317324.1985261,-0.61723113,-1.5760067,0.3503863,0.79549927,-6.5188484,0.26221392
963,1778317324.2086508,-0.690772,-1.580458,0.3389222,0.82512623,-5.2396965,0.22770002
964,1778317324.2185214,-0.7273595,-1.6200945,0.3217261,0.6093381,-3.7778962,0.14355333
965,1778317324.228852,-0.7241886,-1.603813,0.27233297,0.2507602,-2.0480785,0.04428773
966,1778317324.2388723,-0.71674913,-1.4319129,-0.18452296,0.183565,-1.3005321,-0.27458394
967,1778317324.248705,-0.7098585,-1.2103145,-0.8983451,0.063988134,-3.2377386,-0.50701815
968,1778317324.2588544,-0.43307403,-1.162019,-0.57588726,-0.7457138,-4.9620585,-0.39675698
969,1778317324.2688174,-0.20007265,-1.1331758,-0.25129515,-0.90026265,-4.8585167,-0.1919644
970,1778317324.2787879,-0.20007265,-1.1331758,-0.25129515,-0.90026265,-4.8585167,-0.1919644
971,1778317324.2889502,0.1515942,-0.9970704,0.28550446,-0.5673411,-2.3037255,0.26221392
972,1778317324.2989159,0.23666015,-0.9335301,0.37459502,-0.4280638,-1.4764613,0.26465738
973,1778317324.3087635,0.35111806,-0.84267116,0.38294917,-0.30726522,-0.47357327,0.06704246
974,1778317324.318795,0.3744121,-0.822304,0.36227724,-0.30726522,-0.47357327,0.06704246
975,1778317324.3290067,0.60631585,-0.558996,-0.5333238,-1.543351,-0.44119743,-0.82619524
976,1778317324.339011,0.60899895,-0.43837923,-0.6014985,-2.696512,-1.4940237,-1.1713341
977,1778317324.3486743,0.51905465,-0.39142528,-0.36313096,-3.415653,-2.4288,-1.3067935
978,1778317324.3588686,0.47734493,-0.37630245,-0.2133661,-3.9507709,-3.4886515,-1.3020593
979,1778317324.3685033,0.39008373,-0.36831418,-0.033233646,-4.1464005,-4.240932,-1.2005029
980,1778317324.3785126,0.2626373,-0.3421541,0.086834334,-4.1963387,-4.8165197,-1.0726794
981,1778317324.3887973,0.0778704,-0.3225798,0.23440392,-3.908316,-6.0894103,-0.50656
982,1778317324.3985865,-0.088114895,-0.26092985,0.32556778,-3.6882517,-6.5083113,-0.21471913
983,1778317324.408936,-0.19104773,-0.17135146,0.35776478,-3.3599117,-6.8113003,0.3268129
984,1778317324.418667,-0.32386038,-0.0951275,0.36142352,-3.222925,-6.6840873,0.66431594
985,1778317324.4286475,-0.40862137,-0.05573496,0.33209255,-3.2766812,-6.133698,1.0560333
986,1778317324.4385054,-0.5179571,-0.050429773,0.24446549,-3.4881933,-5.315749,1.3469579
987,1778317324.4489596,-0.64967203,-0.079638794,0.17372964,-3.998724,-3.719864,1.6946929
988,1778317324.458566,-0.76498365,-0.14909407,0.06866254,-4.4704647,-2.3357959,1.8681786
989,1778317324.4688828,-0.8618186,-0.23178181,-0.04177073,-4.7661233,-1.6604844,1.890017
990,1778317324.4790154,-1.2136683,-0.48472342,-0.36691165,-5.2618403,-1.5628988,1.8680259
991,1778317324.488718,-1.3648357,-0.6696122,-0.4223417,-5.1234794,-2.7536278,1.817935
992,1778317324.4986286,-1.4482552,-1.1629947,-0.15854584,-3.0502028,-6.753268,1.4136949
993,1778317324.5085542,-1.4000818,-1.6281438,-0.2054998,-2.0215058,-7.146818,1.0703887
994,1778317324.518886,-1.4008135,-2.0834143,-0.55100775,-1.054048,-6.1816506,0.26450464
995,1778317324.528798,-1.6535112,-2.570089,-0.8556597,-0.43967026,-2.4598017,-1.1290317
996,1778317324.5387433,-1.9607853,-2.3245258,-0.94944566,-0.2919936,1.6093245,-1.4237741
997,1778317324.5487263,-1.7554073,-1.7113802,-1.0387801,-0.5535966,4.0156755,-0.7780896
998,1778317324.5588048,-1.3571523,-1.0853072,-0.8451712,-0.7997753,4.3026295,-0.43417248
999,1778317324.5689025,-1.1379932,-0.8552938,-0.5975958,-0.9801333,2.8959594,-0.10934488
1000,1778317324.579015,-0.986521,-0.73485994,-0.4612464,-0.6423248,0.9256136,-0.10293079
