id,timestamp,acc_x,acc_y,acc_z,gyro_x,gyro_y,gyro_z
1,1778316181.8764145,0.37447307,-1.5598471,-0.6307075,-3.226743,0.72173727,-2.7430904
2,1778316181.8764322,0.37447307,-1.5598471,-0.6307075,-3.226743,0.72173727,-2.7430904
3,1778316181.886198,0.18653527,-1.4777691,-0.5469831,-3.6457965,0.31230485,-3.0395126
4,1778316181.8957286,-0.089700356,-1.3165402,-0.54119015,-4.104556,0.046883907,-3.2679763
5,1778316181.9058452,-0.38770556,-1.1682389,-0.50454164,-4.6024113,0.016035212,-3.3712125
6,1778316181.9162664,-0.6547333,-1.0673184,-0.37740007,-5.0391803,0.2454151,-3.3611333
7,1778316181.9262848,-0.9603609,-0.9760935,-0.1773884,-5.2462635,0.52580225,-3.3454034
8,1778316181.9359925,-1.466671,-0.7891314,0.18330337,-5.518709,1.1936307,-3.3383787
9,1778316181.9459429,-2.1052449,-0.5256404,0.6740027,-5.647144,1.945453,-3.3486106
10,1778316181.9564106,-2.883156,-0.21915914,1.2388527,-5.7344975,2.682004,-3.2378912
11,1778316181.9658656,-3.4182482,0.115555525,2.0268257,-5.6401186,3.378085,-3.1598532
12,1778316181.9760933,-4.077616,0.5571057,2.8767533,-5.127908,3.680463,-3.3113477
13,1778316181.9862306,-4.7355204,0.8825515,3.2739108,-4.5350637,3.079677,-3.2838588
14,1778316181.9959633,-5.3354945,0.93846935,3.6016126,-3.7249036,1.8765781,-2.627026
15,1778316182.006021,-5.301407,1.1433594,3.5776477,-2.8255572,0.6395759,-1.4628695
16,1778316182.0161746,-4.739118,1.4336811,3.2567143,-2.1736112,-0.11362094,-0.50503284
17,1778316182.0260339,-3.6689947,1.6538769,2.6908276,-1.465313,-0.6826419,0.45265114
18,1778316182.036342,-2.7679052,1.7399186,2.2033603,-1.1717923,-0.82512623,0.7096727
19,1778316182.045969,-1.7295521,1.741626,1.5147225,-0.79427755,-1.0601566,0.7857254
20,1778316182.0557559,-1.0288405,1.4720371,0.992253,-0.87017757,-1.0132728,0.41890085
21,1778316182.0657904,-0.7833994,1.1917769,0.8410857,-1.2308935,-0.5523749,-0.23945917
22,1778316182.0757787,-0.7100414,1.1218338,0.83017033,-1.2308935,-0.5523749,-0.23945917
23,1778316182.085999,-0.58094853,1.0793923,0.7590077,-1.193478,-0.21930063,-0.37965274
24,1778316182.0960736,-0.36313096,1.0393289,0.60759646,-1.122923,0.00076358154,-0.44593164
25,1778316182.106057,-0.28733385,1.0523175,0.58003384,-0.8384125,0.50442195,-0.5542075
26,1778316182.1158686,-0.3430078,1.0648792,0.40788963,-0.7124216,0.66767573,-0.56184334
27,1778316182.12579,-0.3430078,1.0648792,0.40788963,-0.7124216,0.66767573,-0.56184334
28,1778316182.1360974,-0.3556915,1.0109736,0.29172435,-0.7678576,0.65118235,-0.45372015
29,1778316182.145917,-0.32386038,0.9963996,0.22879384,-0.95447695,0.48563787,-0.21930063
30,1778316182.155828,-0.2271474,1.0060343,0.21147576,-1.1863003,0.25305092,0.012064588
31,1778316182.166243,-0.024391668,0.96841013,0.29227313,-1.4359915,0.07727446,0.14538592
32,1778316182.1759448,-0.024391668,0.96841013,0.29227313,-1.6056592,0.024892759,0.14660765
33,1778316182.1861312,0.044331856,0.9941434,0.4299641,-1.7435621,0.1348485,-0.02687807
34,1778316182.1958742,-0.030672522,1.0379264,0.6361347,-1.7206547,0.37843102,-0.27656925
35,1778316182.206086,-0.12634884,1.0634158,0.80102235,-1.5613716,0.5519168,-0.40439278
36,1778316182.216242,-0.21056107,1.0748188,0.90358925,-1.2536482,0.49571714,-0.39736784
37,1778316182.2260337,-0.3000175,1.0462196,0.92938346,-0.9586003,0.009315695,-0.19624045
38,1778316182.2359178,-0.35404503,1.0110346,0.9209684,-0.8135198,-0.4269948,0.016798794
39,1778316182.2459342,-0.40557244,0.92944443,0.837244,-0.57604593,-1.4972308,0.647059
40,1778316182.2558668,-0.31715265,0.8491349,0.80693734,-0.35628715,-2.2030854,1.2780828
41,1778316182.2659066,-0.17171735,0.7603492,0.81846243,0.010079277,-2.5011878,1.8413006
42,1778316182.2758288,-0.025367333,0.65955067,0.7959611,0.54168475,-2.4979806,2.243097
43,1778316182.2858875,0.158058,0.48960173,0.7168101,1.0267117,-2.3559546,2.4120014
44,1778316182.2957706,0.29660267,0.3192869,0.58503413,1.5523612,-2.1282544,2.4443772
45,1778316182.3059156,0.38374192,0.21373199,0.4978339,1.9445368,-1.9782871,2.2773056
46,1778316182.3161094,0.38953492,0.15317966,0.49630946,2.2276728,-1.7956384,2.0544925
47,1778316182.325924,0.38953492,0.15317966,0.49630946,2.2276728,-1.7956384,2.0544925
48,1778316182.3359928,0.16110696,0.18507177,0.66778284,3.151912,-1.0473285,1.7295122
49,1778316182.3462381,-0.017196124,0.26269826,0.7285791,3.6885571,-0.7246389,1.7282904
50,1778316182.3560903,-0.17757133,0.441977,0.7418116,4.3090434,-0.22815818,1.6694947
51,1778316182.3661563,-0.41545108,0.69016224,0.8326705,4.4623704,0.15745051,1.347416
52,1778316182.3757772,-0.8110839,0.89560103,1.0247549,4.4220533,0.40286562,0.9634872
53,1778316182.3861892,-1.4968556,1.082929,1.5175886,4.543616,0.690125,0.48655418
54,1778316182.3957906,-2.7794304,1.2101315,2.1984818,6.000071,1.1397219,0.36774087
55,1778316182.4058595,-2.7794304,1.2101315,2.1984818,6.000071,1.1397219,0.36774087
56,1778316182.4166312,-3.4502015,1.2648299,1.3175769,6.9107184,1.981036,0.81336707
57,1778316182.4260912,-3.4502015,1.2648299,1.3175769,6.9107184,1.981036,0.81336707
58,1778316182.4363685,-3.5170956,1.141347,0.70302886,6.614907,2.601675,1.329701
59,1778316182.4458432,-3.389161,0.9310299,0.26233238,6.240294,2.7864618,1.6675094
60,1778316182.4558184,-2.318001,0.39666948,-0.64729387,4.3250785,2.4448354,2.9961412
61,1778316182.4662104,-2.318001,0.39666948,-0.64729387,4.3250785,2.4448354,2.9961412
62,1778316182.4758842,-1.2386699,0.03439225,-0.9114556,1.5712981,1.409877,3.339753
63,1778316182.4862802,-1.0134737,-0.09433477,-0.80462015,0.58032197,1.0483974,3.3169982
64,1778316182.496229,-0.73979926,-0.27288178,-0.605889,-0.52534413,0.6383542,3.3257031
65,1778316182.5057254,-0.73979926,-0.27288178,-0.605889,-0.52534413,0.6383542,3.3257031
66,1778316182.5157888,-0.5671672,-0.37575364,-0.49722412,-1.0604621,0.43768495,3.3336444
67,1778316182.5260541,-0.41258505,-0.4688688,-0.39886475,-1.4698945,0.27320948,3.30753
68,1778316182.53591,-0.22287886,-0.5746677,-0.2833702,-1.8958203,0.11942416,3.2044463
69,1778316182.5458648,-0.12872702,-0.6216216,-0.21787858,-2.0124955,0.077579886,3.131906
70,1778316182.5560205,0.051344458,-0.70473623,-0.07329696,-1.9903517,0.15836681,2.9576569
71,1778316182.5660264,0.4499043,-0.7800455,0.30928633,-1.6487253,0.68523806,2.642145
72,1778316182.5759559,0.4499043,-0.7800455,0.30928633,-1.0589349,1.6581937,2.1248949
73,1778316182.58572,0.5948518,-0.81242543,0.29605386,0.09865474,3.45765,0.6053675
74,1778316182.5957742,0.5046026,-0.825414,0.24025792,0.09865474,3.45765,0.6053675
75,1778316182.6062624,0.5046026,-0.825414,0.24025792,0.3023783,3.9002218,-0.00870483
76,1778316182.6158524,0.31806734,-0.8129743,0.19860914,0.34605515,4.269643,-0.6261369
77,1778316182.62625,0.10872585,-0.7827895,0.16909523,0.21273382,4.4005203,-1.0114402
78,1778316182.6358953,-0.13958131,-0.708334,0.11933623,-0.30909783,4.018577,-1.1704178
79,1778316182.645809,-0.13958131,-0.708334,0.11933623,-0.30909783,4.018577,-1.1704178
80,1778316182.6559048,-0.19281614,-0.6637582,0.06646729,-0.8381071,3.4271069,-1.0835222
81,1778316182.665938,-0.15446024,-0.6107673,0.031343292,-1.4559973,2.7140744,-0.9465357
82,1778316182.676074,-0.04408794,-0.5909491,0.008537084,-2.0998492,2.0373883,-0.8707884
83,1778316182.6857796,0.099822894,-0.6013156,-0.0102445,-2.7792842,1.406059,-0.9810496
84,1778316182.6961105,0.16165577,-0.6086331,-0.002500146,-3.3449454,0.9589057,-1.2470814
85,1778316182.7062004,-0.08610259,-0.40313327,0.28922418,-4.4283147,0.519999,-2.550057
86,1778316182.716071,-0.47045428,-0.18641332,0.49576062,-4.4283147,0.519999,-2.550057
87,1778316182.7261147,-1.0620133,0.08512692,0.7097365,-4.754364,1.3196217,-3.8747182
88,1778316182.7357938,-1.0620133,0.08512692,0.7097365,-4.754364,1.3196217,-3.8747182
89,1778316182.746259,-1.9270025,0.54917836,1.0179863,-4.761542,1.7643316,-4.093408
90,1778316182.7557507,-2.6758268,1.0398167,1.2867824,-4.6865582,2.0819814,-3.931376
91,1778316182.7659128,-3.1778073,1.390447,1.5028926,-4.6865582,2.0819814,-3.931376
92,1778316182.77616,-3.5025826,1.6113745,1.7639443,-4.3854017,0.70081514,-2.2220223
93,1778316182.7857878,-3.254946,1.9056599,1.8251675,-4.3854017,0.70081514,-2.2220223
94,1778316182.7961001,-2.9158409,1.9197462,1.5980201,-4.0937133,-0.6122397,-0.9755518
95,1778316182.8059049,-2.4264832,1.8276677,1.3453834,-4.0937133,-0.6122397,-0.9755518
96,1778316182.8159053,-2.4264832,1.8276677,1.3453834,-4.1546474,-1.3179418,-0.33307427
97,1778316182.8261817,-2.0024338,1.7196734,1.1901304,-4.2514696,-1.8193095,0.23289238
98,1778316182.8359592,-1.5007583,1.5712502,0.9808499,-4.3357687,-2.0888536,0.6114761
99,1778316182.8462088,-1.2333037,1.463439,0.85322046,-4.44603,-2.2979224,0.9411906
100,1778316182.8559377,-0.7753501,1.247268,0.66455096,-4.6022587,-2.4431555,1.3147347
101,1778316182.8659868,-0.45764863,1.0830511,0.57527745,-4.7268753,-2.4341452,1.6238326
102,1778316182.8761215,-0.23507468,0.92889565,0.5281406,-4.8044553,-2.2721133,1.8400788
103,1778316182.8858547,-0.11744587,0.80333954,0.518018,-4.8236976,-2.0349448,2.0042489
104,1778316182.8961673,0.12445848,0.62589014,0.5744238,-4.6517386,-1.682781,2.248595
105,1778316182.905882,0.12445848,0.62589014,0.5744238,-4.6517386,-1.682781,2.248595
106,1778316182.915976,0.19616999,0.5563739,0.6265,-4.448168,-1.5667167,2.3373232
107,1778316182.926108,0.36483836,0.4475261,0.7097975,-3.5810447,-1.3116804,2.4776695
108,1778316182.9361868,0.36483836,0.4475261,0.7097975,-3.5810447,-1.3116804,2.4776695
109,1778316182.9457836,0.4226466,0.43276918,0.69565034,-3.1645875,-1.2302825,2.4698808
110,1778316182.9557354,0.4856381,0.39526698,0.6406471,-2.6876543,-1.2066116,2.3823745
111,1778316182.9657536,0.50795645,0.3791075,0.6300368,-2.2382102,-1.3367258,2.2566888
112,1778316182.975841,0.54777586,0.3677044,0.6099746,-1.7600555,-1.5170839,2.060143
113,1778316182.9860017,0.5740579,0.48606494,0.7134563,-0.80863285,-1.3457361,1.3695599
114,1778316182.995834,0.5740579,0.48606494,0.7134563,-0.80863285,-1.3457361,1.3695599
115,1778316183.0058458,0.3876446,0.63058555,0.78748494,-0.1386664,-0.9282097,0.8961393
116,1778316183.0158002,0.14409378,0.7646788,0.8216333,0.9063713,0.17379116,0.6568329
117,1778316183.026232,-0.28141886,0.97895956,0.95615333,0.9063713,0.17379116,0.6568329
118,1778316183.0358481,-0.64253753,1.1515917,1.138603,1.4899004,0.75762564,1.1936307
119,1778316183.045724,-0.910419,1.2320231,1.1776297,1.7037032,0.8405506,1.6826283
120,1778316183.055927,-1.0434146,1.2367185,1.1427495,1.6792686,0.6658431,2.0567832
121,1778316183.0661166,-1.1556162,1.1975088,1.1896425,1.3507757,0.022449298,2.6798658
122,1778316183.0761168,-1.1173213,1.1214678,1.5256988,0.9014844,-0.9265299,3.366173
123,1778316183.0857723,-1.0637816,0.8090106,2.145918,0.9210321,-1.6626225,4.0268235
124,1778316183.0958307,-1.0637816,0.8090106,2.145918,0.9210321,-1.6626225,4.0268235
125,1778316183.1060421,-1.0039,0.5392997,2.4316661,1.4301883,-1.585348,4.1749587
126,1778316183.1161864,-0.901577,0.251722,2.5139883,2.2368357,-1.241889,4.2076397
127,1778316183.1262665,-0.5807046,-0.06969919,2.0351799,3.58303,-0.29138273,3.915799
128,1778316183.13594,-0.5807046,-0.06969919,2.0351799,3.58303,-0.29138273,3.915799
129,1778316183.1462421,-0.43746454,-0.12165344,1.6288756,3.7974439,0.17715092,3.5891387
130,1778316183.1558697,-0.3808759,-0.1302515,1.4307543,3.7265835,0.42332962,3.3706017
131,1778316183.1659415,-0.30837163,-0.13714215,1.1926305,3.3982434,0.7237226,2.9906435
132,1778316183.1761725,-0.23452587,-0.1326297,1.0578055,2.8832839,0.9211848,2.5094345
133,1778316183.1862044,-0.16446081,-0.12756842,0.9351765,2.3142629,1.0566442,1.8148806
134,1778316183.195918,-0.12055582,-0.15537491,0.85724515,2.1470387,1.1328496,1.4692836
135,1778316183.2062016,-0.12055582,-0.15537491,0.85724515,2.1470387,1.1328496,1.4692836
136,1778316183.2163334,-0.081468165,-0.17446141,0.7768136,2.058005,1.1968378,1.1293371
137,1778316183.22624,-0.045734376,-0.17311986,0.603023,1.9614882,1.1878275,0.8032878
138,1778316183.2358344,-0.009878625,-0.15122834,0.43746454,1.783421,1.043816,0.5175556
139,1778316183.2459912,0.02268425,-0.11153089,0.313189,1.5948164,0.82359904,0.3275765
140,1778316183.2561872,0.057381395,-0.053966567,0.23074517,1.4263704,0.6000224,0.20372356
141,1778316183.2661426,0.12110463,0.049637042,0.09372498,1.0994047,0.13607024,0.002443461
142,1778316183.2757127,0.12512925,0.12811723,-0.008293167,0.7441866,-0.3119994,-0.21960606
143,1778316183.2862523,0.022867188,0.18312044,-0.042136606,0.47678033,-0.46853364,-0.35308012
144,1778316183.296072,-0.11427496,0.20915854,-0.023476979,0.5215262,0.20799962,-0.048258353
145,1778316183.3058927,-0.22141537,0.22117145,-0.05116152,0.70738196,0.62018096,0.24465153
146,1778316183.3158193,-0.22141537,0.22117145,-0.05116152,0.70738196,0.62018096,0.24465153
147,1778316183.3258696,-0.2151345,0.14037405,-0.16470474,0.9103419,1.1534663,0.67149365
148,1778316183.33592,-0.21476863,0.0024391667,-0.28708994,0.88071495,1.4326317,0.89919364
149,1778316183.3460305,-0.21367101,-0.10689648,-0.35800868,0.7247916,1.6310102,1.0764973
150,1778316183.3560257,-0.19836523,-0.25507587,-0.39941353,0.41355577,1.7331774,1.2431108
151,1778316183.365749,-0.15939954,-0.35996002,-0.37727812,0.119729586,1.7250835,1.3110695
152,1778316183.376115,-0.11829959,-0.45716083,-0.30105415,-0.2209805,1.7266107,1.321607
153,1778316183.3860538,-0.06305246,-0.52850646,-0.23141594,-0.43860126,1.7945694,1.2712106
154,1778316183.3962185,-0.01097625,-0.58655864,-0.22281788,-0.56596667,1.9793562,1.184315
155,1778316183.4060204,0.031099375,-0.6805885,-0.26660094,-0.7130325,2.3125832,1.0404562
156,1778316183.4161916,0.056039855,-0.799132,-0.32526287,-0.96577793,2.7585146,0.7828238
157,1778316183.4260402,0.030672522,-0.8704776,-0.33788556,-1.2712106,3.1848986,0.52320606
158,1778316183.436019,-0.05049075,-0.88877136,-0.30343235,-1.7368426,3.8046215,0.1742493
159,1778316183.445892,-0.10854292,-0.8131572,-0.24044085,-2.298075,4.46573,-0.21578814
160,1778316183.456099,-0.49795586,-0.6399154,0.26891813,-2.6891816,4.9345694,-0.5290093
161,1778316183.4658716,-0.49795586,-0.6399154,0.26891813,-3.5133915,6.004958,-1.3991868
162,1778316183.4759827,-0.8711484,-0.55344695,0.72467643,-3.9257255,6.413169,-2.0948095
163,1778316183.486368,-1.4800863,-0.37270468,1.3344681,-4.071875,6.1631722,-2.8354838
164,1778316183.4960103,-2.0103612,-0.08268775,1.7793721,-3.8224893,5.161659,-3.2725577
165,1778316183.505759,-2.2548876,0.18860857,1.89694,-3.442531,4.1267004,-3.5463781
166,1778316183.515869,-2.373492,0.34995946,1.925844,-3.112053,3.7995818,-3.87594
167,1778316183.5259554,-2.9793203,0.746507,2.528623,-2.7058277,4.2557454,-4.1877866
168,1778316183.5358987,-2.9793203,0.746507,2.528623,-1.7353154,5.3980637,-4.4402266
169,1778316183.5458834,-3.2204926,0.9707273,2.7674785,-0.2660318,6.4427958,-4.443281
170,1778316183.555925,-3.389405,1.2303767,2.5938098,0.8678868,6.6314006,-4.373948
171,1778316183.5657241,-3.4081259,1.4041673,2.0418265,1.4801265,5.987854,-4.351346
172,1778316183.5757887,-3.3062906,1.5289917,1.2529389,1.2542591,4.214054,-4.3278275
173,1778316183.586002,-3.0841434,1.5698477,0.61314553,0.30298916,2.094504,-4.0952406
174,1778316183.5960863,-2.2727544,1.6675974,0.20184104,-1.5847372,0.16814066,-2.6904032
175,1778316183.6061766,-1.7316253,1.5841779,0.23495273,-2.1836905,0.5177083,-1.840537
176,1778316183.6158285,-1.7316253,1.5841779,0.23495273,-2.1836905,0.5177083,-1.840537
177,1778316183.6259313,-1.2744036,1.364043,0.33989787,-2.538145,1.244027,-1.1861476
178,1778316183.635752,-0.8832222,1.1368346,0.4855771,-2.7194192,1.7534887,-0.70173144
179,1778316183.6460383,-0.23525764,0.9218831,0.7262009,-2.6708555,1.8629863,-0.26206118
180,1778316183.656234,-0.23525764,0.9218831,0.7262009,-2.6708555,1.8629863,-0.26206118
181,1778316183.6660945,-0.06969919,0.9024917,0.75480014,-2.5547912,1.8593211,-0.25671613
182,1778316183.6760063,0.13354437,0.9119435,0.7152246,-2.315332,1.7988454,-0.39858958
183,1778316183.6865065,0.19915795,0.9474333,0.6948576,-2.1383338,1.6067283,-0.5320636
184,1778316183.6960046,0.093481064,1.0288405,0.6676609,-1.5971072,1.1615603,-0.57360244
185,1778316183.705956,0.093481064,1.0288405,0.6676609,-1.3058772,1.057255,-0.45738536
186,1778316183.71573,-0.03750219,1.0886611,0.6313783,-1.3058772,1.057255,-0.45738536
187,1778316183.726004,-0.20952442,1.1410422,0.56161815,-0.8907942,1.0147998,-0.14523321
188,1778316183.736016,-0.33995885,1.1544576,0.43844023,-0.45891252,1.0607675,0.29978213
189,1778316183.7461474,-0.4121582,1.1353711,0.2787358,-0.20066923,1.1055133,0.70173144
190,1778316183.7558806,-0.4928946,1.0968933,0.052381106,-0.11652254,1.0885619,1.1895074
191,1778316183.7659402,-0.5294821,1.0531102,-0.071162686,-0.26328292,0.88086766,1.5352571
192,1778316183.7761474,-0.6195483,0.9663978,-0.19860914,-0.65209866,0.44806966,1.883603
193,1778316183.7861655,-0.8463909,0.80443716,0.043051295,-1.2522738,-0.35643986,2.4711027
194,1778316183.7958598,-0.8463909,0.80443716,0.043051295,-1.2522738,-0.35643986,2.4711027
195,1778316183.8061657,-0.89157635,0.7462021,0.17677861,-1.1473577,-0.43967026,2.6360362
196,1778316183.8159018,-0.96670276,0.67205137,0.2579419,-0.7267769,-0.21945333,2.8220446
197,1778316183.8262467,-1.0309747,0.5580813,0.14574021,-0.16142114,0.34804046,3.0471485
198,1778316183.8360317,-1.0309747,0.5580813,0.14574021,-0.16142114,0.34804046,3.0471485
199,1778316183.8461134,-1.0266452,0.5749116,0.029513916,-0.05513059,0.8394816,3.1383202
200,1778316183.8559349,-1.0528663,0.6266829,0.02774552,-0.20021108,1.1415545,3.1096096
201,1778316183.865935,-1.1051254,0.67833227,0.08646846,-0.37873647,1.2826643,3.0439415
202,1778316183.8757973,-1.2768428,0.7627884,0.31160355,-0.70234233,1.3061826,2.8609874
203,1778316183.886114,-1.9047453,1.0432925,1.0226816,-1.0100657,0.95646226,2.6051877
204,1778316183.896176,-1.9047453,1.0432925,1.0226816,-1.066418,0.44791695,2.5027149
205,1778316183.90582,-2.3875175,1.179703,1.569055,-0.4905248,-0.24770586,2.5883887
206,1778316183.9158726,-2.3875175,1.179703,1.569055,-0.4905248,-0.24770586,2.5883887
207,1778316183.925745,-2.523196,1.1322612,1.7047945,0.1647809,-0.258396,2.6823094
208,1778316183.936062,-2.549295,1.0122542,1.6443032,0.8428413,-0.13072516,2.7178922
209,1778316183.9459817,-2.520757,0.92541987,1.5028926,1.6575829,-0.124769226,2.7472138
210,1778316183.9560962,-2.4425814,0.8759048,1.2426335,1.6575829,-0.124769226,2.7472138
211,1778316183.9661016,-2.3393438,0.8116327,1.0374995,1.78617,-0.20861048,2.8409815
212,1778316183.976204,-2.2170806,0.679186,0.8679165,1.8063285,-0.29092458,2.9159653
213,1778316183.9859464,-1.9732248,0.45728278,0.68607664,1.7411187,-0.41080686,3.0503557
214,1778316183.9958935,-1.6548527,0.24574605,0.5293601,1.6256652,-0.59773165,3.1571043
215,1778316184.005882,-1.3002588,0.04177073,0.40910926,1.527774,-0.81214535,3.1758883
216,1778316184.015823,-0.948531,-0.16397297,0.31129867,1.487915,-0.9246973,3.072652
217,1778316184.0262942,-0.2359284,-0.51088345,0.3093473,2.012343,-0.093462385,2.5001187
218,1778316184.035781,-0.2359284,-0.51088345,0.3093473,2.012343,-0.093462385,2.5001187
219,1778316184.0462422,0.21324414,-0.6133285,0.34032473,2.6371052,0.93111134,2.0630445
220,1778316184.0561142,0.75620264,-0.6646729,-0.114153,4.2277985,4.1850376,0.54367006
221,1778316184.066264,0.75620264,-0.6646729,-0.114153,4.2277985,4.1850376,0.54367006
222,1778316184.0757182,0.7959611,-0.7158954,-0.49630946,4.2862887,4.8270574,0.06414085
223,1778316184.0863547,0.6779664,-0.81059605,-0.8841369,3.7662897,5.299714,-0.6765333
224,1778316184.0957668,0.5831438,-0.90511376,-1.082746,2.6629143,5.1401258,-1.2428054
225,1778316184.1057482,0.48374772,-0.9594462,-1.1075037,1.1928672,4.501924,-1.7643316
226,1778316184.1160245,0.37282664,-1.0381703,-0.97938645,-0.44119743,3.520569,-2.2621868
227,1778316184.1259198,0.2326965,-1.1771418,-0.7224202,-1.9628627,2.2334762,-2.6957483
228,1778316184.1360614,0.0922005,-1.322821,-0.44984335,-3.1940618,0.88254756,-2.9827023
229,1778316184.1461267,0.03207504,-1.3929472,-0.26824737,-3.90068,-0.03268129,-3.0779972
230,1778316184.1559217,-0.013659334,-1.4178267,-0.03670946,-4.376239,-0.7339546,-3.0288227
231,1778316184.1658618,-0.002134271,-1.3997767,0.04311227,-4.427246,-0.8542951,-2.9668198
232,1778316184.1760204,0.21464668,-1.2181809,0.19982874,-4.028351,-0.6374379,-2.7304149
233,1778316184.1859884,0.4050846,-1.085795,0.22141537,-3.726736,-0.40759984,-2.771343
234,1778316184.1962688,0.576741,-0.99060655,0.06860156,-3.2177327,0.12675454,-3.0584495
235,1778316184.2059171,0.5302139,-0.95420206,-0.12421457,-2.911231,0.9072876,-3.5645514
236,1778316184.2159808,-0.034636166,-0.92816395,-0.35489875,-2.9605584,1.227381,-3.8570032
237,1778316184.2259054,-0.034636166,-0.92816395,-0.35489875,-3.2707253,1.2803736,-4.023006
238,1778316184.2360168,-0.40923122,-0.9196878,-0.57411885,-3.8240163,0.9665415,-3.9764273
239,1778316184.2461948,-0.8152305,-0.9478602,-0.7276644,-4.96496,0.1779145,-3.886172
240,1778316184.2559085,-1.1663485,-0.91340697,-0.69296724,-6.301075,-0.5004513,-3.9555051
241,1778316184.2660434,-1.4833792,-0.8639529,-0.53314084,-7.286095,-0.56062156,-4.3774605
242,1778316184.275931,-2.8207743,-0.71339524,0.29013887,-8.108167,0.43157628,-5.286428
243,1778316184.2860286,-4.280067,-0.3855713,1.2660495,-8.015926,1.7957911,-5.8038306
244,1778316184.296175,-6.020534,0.74071395,2.0206666,-6.8962107,3.0451632,-5.384777
245,1778316184.3062465,-6.813507,0.8659651,2.264949,-5.059644,1.7799087,-1.4462235
246,1778316184.3157442,-6.477512,0.36435053,1.7039409,-5.059644,1.7799087,-1.4462235
247,1778316184.325825,-5.3373847,0.316116,1.1584213,-5.5008416,-0.24480425,0.4016439
248,1778316184.3361797,-3.693691,0.5540567,1.0169495,-6.221968,-1.5908458,1.069625
249,1778316184.3462865,-1.8922446,0.3958158,1.5497855,-6.1065145,-2.462245,1.4989105
250,1778316184.355793,-1.8922446,0.3958158,1.5497855,-6.1065145,-2.462245,1.4989105
251,1778316184.3659172,-1.246963,0.24483135,1.7177222,-5.1008773,-1.9413297,1.4891367
252,1778316184.375964,-1.0021316,0.26001516,1.738577,-4.3876925,-1.5265522,1.4080443
253,1778316184.3859253,-0.7585198,0.32361645,1.6897327,-3.1746666,-0.84116143,1.1759156
254,1778316184.395856,-0.3305071,0.4935044,1.1612263,-1.2730432,0.13973543,0.6910413
255,1778316184.405838,-0.19879209,0.5542397,0.8829783,-0.8312349,0.300393,0.462425
256,1778316184.4162774,-0.19879209,0.5542397,0.8829783,-0.8312349,0.300393,0.462425
257,1778316184.425799,-0.06610142,0.6510136,0.6034498,-0.70539665,0.0759,0.1910481
258,1778316184.4358926,-0.06610142,0.6510136,0.6034498,-0.70539665,0.0759,0.1910481
259,1778316184.4457111,0.030489584,0.73120123,0.5431415,-0.84314674,-0.376293,0.14401148
260,1778316184.45598,0.0661624,0.7655325,0.5700942,-0.8651379,-0.5163339,0.16676621
261,1778316184.4660683,0.0661624,0.7655325,0.5700942,-0.8651379,-0.5163339,0.16676621
262,1778316184.476085,0.07408969,0.7804114,0.6050963,-0.7881689,-0.5626069,0.17638734
263,1778316184.4860904,0.046405144,0.7818749,0.60857207,-0.70386946,-0.57360244,0.18692477
264,1778316184.4961932,-0.016464375,0.7837042,0.5799119,-0.49357912,-0.61483586,0.2396119
265,1778316184.5061686,-0.0570765,0.790229,0.53606784,-0.33169982,-0.7130325,0.34193182
266,1778316184.516247,-0.06890646,0.80510795,0.49356538,-0.21242839,-0.8791878,0.4925101
267,1778316184.5262823,-0.058113147,0.81773067,0.40368208,-0.1151481,-1.2550226,0.84864455
268,1778316184.5359678,-0.058113147,0.81773067,0.40368208,-0.1151481,-1.2550226,0.84864455
269,1778316184.546124,-0.16976601,0.9510311,0.32684833,-0.13469578,-1.3037392,1.5280794
270,1778316184.5562992,-0.16976601,0.9510311,0.32684833,-0.13469578,-1.3037392,1.5280794
271,1778316184.5657928,-0.27086946,0.9390182,0.35056922,-0.06001751,-1.044885,2.3228152
272,1778316184.5758345,-0.27379647,0.8707215,0.3606918,0.0154243475,-0.84039783,2.7508788
273,1778316184.5857394,-0.099822894,0.5483857,0.35044727,0.14431691,-0.47739118,3.4518468
274,1778316184.5957787,0.18275456,0.43496442,0.33910516,0.1957823,-0.4642576,3.623958
275,1778316184.6060934,0.585339,0.2344649,0.5406413,0.25350907,-0.64873886,3.5401168
276,1778316184.6162462,0.7327257,0.24507529,0.75437325,0.64721173,-0.9335548,3.1720705
277,1778316184.6257987,0.7946805,0.13891055,1.0384142,1.3384057,-0.79168135,2.65818
278,1778316184.6360037,0.7946805,0.13891055,1.0384142,2.0444133,-0.6082691,2.1427627
279,1778316184.6460407,0.86553836,0.31135964,0.971642,2.6864326,-0.5520695,1.0862712
280,1778316184.656128,0.61808485,0.61436516,0.860721,2.7369816,-1.052368,-0.4092797
281,1778316184.666092,-0.12134854,1.0891489,0.7013214,2.1458168,-1.7673858,-1.7957911
282,1778316184.676214,-0.8835272,1.3326998,0.7358966,1.0612257,-2.510656,-3.023783
283,1778316184.6857228,-2.5602105,1.574848,1.2801965,-0.13271047,-2.9987376,-3.7189476
284,1778316184.6959493,-4.4458694,1.4102043,2.4133115,-0.97509366,-2.8608346,-3.5482109
285,1778316184.706249,-5.851439,0.95176286,3.6748486,-0.02687807,-1.7374535,-1.8573358
286,1778316184.7157862,-5.8574147,0.42569554,4.1787195,1.8147279,-0.5111415,-0.22266038
287,1778316184.7261686,-5.620389,-0.046405144,4.0396256,3.7565157,0.24358252,0.9779953
288,1778316184.7359931,-5.061637,-0.6111942,3.2372012,6.2011986,-0.10903945,2.2288945
289,1778316184.7461255,-4.0978003,-0.936579,2.0057268,8.173224,-1.9381227,3.7441459
290,1778316184.756202,-3.190247,-1.1254315,1.1314684,8.173224,-1.9381227,3.7441459
291,1778316184.7661147,-2.1538453,-1.2512925,0.3447762,8.069836,-2.1774292,3.859752
292,1778316184.7759514,-2.1538453,-1.2512925,0.3447762,8.069836,-2.1774292,3.859752
293,1778316184.7862077,-2.1538453,-1.2512925,0.3447762,8.069836,-2.1774292,3.859752
294,1778316184.7959,-0.73510385,-1.270623,-0.48844314,6.462649,-1.598329,2.8695395
295,1778316184.805948,-0.32434818,-1.2484266,-0.59247357,5.7619863,-1.3391694,2.5250115
296,1778316184.8162055,-0.13683724,-1.302515,-0.64997697,4.785671,-1.0390818,2.7154486
297,1778316184.8262591,-0.13683724,-1.302515,-0.64997697,4.785671,-1.0390818,2.7154486
298,1778316184.835778,0.04756375,-1.4052649,-0.7471777,4.40388,-0.68386364,3.0317242
299,1778316184.845808,0.20537783,-1.4940506,-0.8098033,3.9665008,-0.26221392,3.2415564
300,1778316184.8558915,0.20537783,-1.4940506,-0.8098033,3.9665008,-0.26221392,3.2415564
301,1778316184.8658233,0.20537783,-1.4940506,-0.8098033,3.9665008,-0.26221392,3.2415564
302,1778316184.8758073,0.20537783,-1.4940506,-0.8098033,3.9665008,-0.26221392,3.2415564
303,1778316184.885943,1.3420905,-1.2825749,-0.82602376,2.112983,2.5657868,1.0390818
304,1778316184.8959825,1.2622688,-1.2429993,-0.83053625,1.796402,3.215442,0.35995236
305,1778316184.905792,0.9699956,-1.2856847,-0.7920584,1.2076806,3.817297,-0.6059783
306,1778316184.9158406,0.6896134,-1.3058078,-0.8190721,0.5103779,3.716657,-1.2705997
307,1778316184.9258616,0.5198474,-1.2490363,-0.81035215,-0.37583485,3.0602822,-1.7489072
308,1778316184.9363427,0.42868355,-1.1466522,-0.7591906,-1.3067935,2.1178699,-2.1461222
309,1778316184.9458146,0.3732535,-1.0700015,-0.7591297,-2.0172298,1.428203,-2.4602597
310,1778316184.955819,0.29056573,-1.0262184,-0.86950195,-2.9503264,0.73929965,-2.862362
311,1778316184.9662251,0.18665724,-1.0471343,-0.9354814,-3.992157,0.30863968,-3.3017266
312,1778316184.9762275,-0.03457519,-1.0590253,-0.8982841,-5.055826,0.12370021,-3.7862954
313,1778316184.985765,-0.27422333,-1.0317676,-0.84382975,-5.882938,-0.039858956,-4.148691
314,1778316184.9958925,-0.59863245,-0.9859112,-0.7093097,-6.6427016,-0.27137688,-4.464814
315,1778316185.0059245,-1.1720196,-0.81754774,-0.44148916,-7.4339247,-0.51144695,-4.7488666
316,1778316185.016219,-2.0991468,-0.57863134,-0.06415008,-8.604495,-0.45723262,-4.514294
317,1778316185.0261018,-3.128841,-0.30513975,0.44831884,-8.604495,-0.45723262,-4.514294
318,1778316185.0358543,-3.6596038,-0.0065857503,1.0029244,-8.771109,-0.27748555,-3.9635992
319,1778316185.0457122,-4.545143,0.8452932,2.4922795,-8.12802,0.5360342,-2.8383853
320,1778316185.0562963,-4.545143,0.8452932,2.4922795,-8.12802,0.5360342,-2.8383853
321,1778316185.0660548,-4.8742476,0.99121636,3.0046265,-7.2080574,1.0102184,-2.037541
322,1778316185.0761323,-4.768083,0.9432867,3.1559768,-6.26931,1.151481,-1.2644911
323,1778316185.0859725,-4.2342105,0.8474275,3.0725572,-4.866458,1.0355693,-0.28145617
324,1778316185.0957463,-3.5627077,0.8219992,2.860045,-4.2180247,0.9335548,0.08093964
325,1778316185.1057403,-2.6380808,0.8212065,2.5449047,-3.2307136,0.86635965,0.36651915
326,1778316185.1160483,-1.9750541,0.7944976,2.2884872,-2.3793201,0.97112304,0.20540343
327,1778316185.1262262,-1.6269242,0.7782161,2.1171358,-1.5622878,1.0456486,-0.13271047
328,1778316185.1357665,-1.4011793,0.7680936,1.7620541,-0.75441855,1.0341948,-0.37125334
329,1778316185.1459267,-1.4011793,0.7680936,1.7620541,-0.14065172,0.9326385,-0.39400807
330,1778316185.1559033,-1.2232422,0.72876203,1.4961239,0.54290646,0.77732605,-0.2322815
331,1778316185.1659906,-0.90218675,0.6505867,1.2691594,1.0891727,0.50915617,0.03726278
332,1778316185.1761286,-0.59466887,0.7516902,1.1355541,1.6427693,0.29978213,0.129198
333,1778316185.1861963,-0.44478208,0.77583796,1.0165228,1.7979292,0.28527406,0.14920384
334,1778316185.1962483,-0.17324181,0.6726002,0.69034517,2.1945333,0.24923302,0.29856038
335,1778316185.206136,-0.023659917,0.61875564,0.52015233,2.3484714,0.27687466,0.46517387
336,1778316185.216223,0.18525472,0.61601156,0.32751912,2.3658812,0.35720345,0.6666067
337,1778316185.2259061,0.40349916,0.6324759,0.16061912,2.199573,0.35918877,0.79733187
338,1778316185.2360077,0.55283713,0.6243657,0.040307228,1.8603901,0.3107777,0.8350528
339,1778316185.2457187,0.63034165,0.59698606,-0.03963646,1.3603969,0.18768835,0.7799222
340,1778316185.2558727,0.67888105,0.5880221,-0.07043094,0.87949324,-0.04886922,0.6934848
341,1778316185.266246,0.75254387,0.6209509,-0.030306645,-0.32452217,-0.7678576,0.33108896
342,1778316185.2758183,0.75254387,0.6209509,-0.030306645,-0.98792183,-1.2867876,0.06856962
343,1778316185.285883,0.6274147,0.57344806,0.09573729,-1.4401149,-1.7928895,-0.05971208
344,1778316185.2960215,0.6274147,0.57344806,0.09573729,-1.4401149,-1.7928895,-0.05971208
345,1778316185.3057783,0.51789606,0.5315554,0.18690115,-1.7829629,-2.3070853,-0.09056077
346,1778316185.315862,0.3998404,0.47063723,0.3530084,-2.0239494,-2.9924762,-0.007483099
347,1778316185.3258665,0.34691048,0.43203738,0.4997243,-1.9248364,-3.40985,0.10781772
348,1778316185.33625,0.2909316,0.37197292,0.7344331,-1.6496416,-3.5862372,0.19135354
349,1778316185.345842,0.2909316,0.37197292,0.7344331,-1.0742066,-3.6300666,0.25167647
350,1778316185.3558965,0.27306473,0.32148215,0.77730143,-0.3436117,-3.5645514,0.27885997
351,1778316185.3659112,0.26428372,0.30288354,0.7725451,0.29031372,-3.5037704,0.29184088
352,1778316185.37594,0.3403857,0.41953668,0.69010127,1.7846428,-3.0024028,0.322995
353,1778316185.3858542,0.3403857,0.41953668,0.69010127,1.7846428,-3.0024028,0.322995
354,1778316185.3961048,0.2836141,0.57058203,0.7096146,2.2214115,-2.3139575,0.13958271
355,1778316185.4058132,0.0910419,0.68564975,0.8291947,2.3188446,-1.619251,-0.04046982
356,1778316185.41594,-0.47606438,1.0285357,1.293795,2.2812762,0.10567969,-0.33628133
357,1778316185.4258401,-1.1981187,1.2428774,1.9615779,2.0373883,1.4375186,-0.5688683
358,1778316185.4361238,-1.9341372,1.3157475,2.5621617,1.7556267,1.947133,-0.82986045
359,1778316185.4458392,-2.9170604,1.2429993,3.138049,1.4298828,1.3918564,-0.9625709
360,1778316185.4558702,-3.5926487,1.2064728,3.4358711,1.1330023,-0.32482758,-0.97692627
361,1778316185.465763,-4.2692127,0.9726787,3.6546645,0.91538155,-2.3803892,-0.7771733
362,1778316185.4757743,-4.592951,0.38618106,3.6957035,1.0377073,-3.8351648,-0.30833423
363,1778316185.485738,-4.4996524,-0.14811839,3.5228276,1.6059648,-4.9631276,0.48670688
364,1778316185.4959028,-3.659726,-0.5657647,2.909865,3.2065845,-5.8085647,1.7878499
365,1778316185.5057802,-3.00048,-0.6489403,2.4539237,4.104709,-5.7496166,2.196824
366,1778316185.515809,-1.9578581,-0.78864354,1.6311927,5.413793,-4.9206724,2.369699
367,1778316185.5257394,-0.837366,-1.036097,0.3822784,6.8100786,-1.7107282,1.4779885
368,1778316185.5359929,-0.837366,-1.036097,0.3822784,6.8100786,-1.7107282,1.4779885
369,1778316185.5461576,-0.60491335,-1.0394509,0.010122542,6.9814262,-0.15103643,0.9957104
370,1778316185.5562959,-0.5013097,-1.0581106,-0.23342825,6.856046,1.4619533,0.79779
371,1778316185.5661747,-0.28971204,-1.1648241,-0.57796055,6.6469774,1.6465873,0.8888089
372,1778316185.5762417,-0.039026666,-1.1686656,-0.78626543,6.220441,1.6985108,0.98899084
373,1778316185.5857935,-0.039026666,-1.1686656,-0.78626543,6.220441,1.6985108,0.98899084
374,1778316185.596295,0.13073933,-1.1577505,-0.9077358,5.8722477,1.6913332,0.981355
375,1778316185.6060307,0.35819164,-1.1395786,-1.1074426,5.0101643,1.7967074,0.79641557
376,1778316185.6160026,0.54051936,-1.1131138,-1.2401333,4.3337836,2.0372355,0.5839872
377,1778316185.6261399,0.6677219,-1.0877464,-1.317211,3.4035885,2.4329236,0.22434026
378,1778316185.6360362,0.6512575,-1.164946,-1.4034355,2.3848178,2.7537806,-0.33124167
379,1778316185.6459684,0.6512575,-1.164946,-1.4034355,1.1746938,2.7128525,-0.71791935
380,1778316185.6559222,0.57247245,-1.1963502,-1.2737329,-0.0067195175,2.4944682,-1.1073459
381,1778316185.6658857,0.4935044,-1.1648241,-1.0801849,-1.0009027,2.1096232,-1.3843733
382,1778316185.6757865,0.4318545,-1.1559821,-0.9235295,-1.6658295,1.7119498,-1.5522085
383,1778316185.685868,0.39538893,-1.1865326,-0.8085838,-2.3759604,1.1569787,-1.7189748
384,1778316185.6961572,0.39032766,-1.1821421,-0.73687226,-2.8269317,0.7958047,-1.8515326
385,1778316185.7057412,0.34813008,-1.1265291,-0.59430295,-3.2070425,0.6391178,-2.0367775
386,1778316185.7157776,0.3008712,-1.1024424,-0.49484593,-3.3629658,0.7626653,-2.1894937
387,1778316185.7257705,0.12708059,-1.1188458,-0.39142528,-3.4359643,1.1113166,-2.376724
388,1778316185.7363832,-0.023903834,-1.1173823,-0.31892106,-3.4558175,1.4811954,-2.4885123
389,1778316185.7459538,-0.16061912,-1.0707942,-0.21208555,-3.4880404,1.7035505,-2.6056457
390,1778316185.756087,-0.29361472,-1.0317065,-0.13549572,-3.5393531,1.7683022,-2.7904325
391,1778316185.7659764,-0.5486296,-0.97780097,-0.043661084,-3.7479637,1.5775595,-3.3901494
392,1778316185.776006,-1.0212791,-0.8338291,0.01097625,-4.074013,1.2198979,-3.9994874
393,1778316185.7860594,-2.1597602,-0.45051408,0.19702369,-4.7160325,0.8700248,-4.540867
394,1778316185.7963648,-2.674912,-0.25184396,0.32160413,-4.992296,0.8078693,-4.5755334
395,1778316185.8057678,-4.1034713,0.29288295,0.92657846,-5.784741,0.78542,-4.0555344
396,1778316185.8159208,-4.85321,0.62534136,1.5858243,-6.213874,0.66523224,-3.1051807
397,1778316185.826009,-5.0366964,0.82577986,2.2398868,-6.29405,0.3397938,-1.9958495
398,1778316185.836145,-4.423246,1.0467074,2.9963944,-5.3771415,0.026267206,-0.61727935
399,1778316185.8460267,-4.423246,1.0467074,2.9963944,-5.3771415,0.026267206,-0.61727935
400,1778316185.8561475,-3.3513541,1.0858561,2.7522948,-3.636328,-0.24587326,0.37568212
401,1778316185.866368,-3.3513541,1.0858561,2.7522948,-3.636328,-0.24587326,0.37568212
402,1778316185.8758726,-2.5593567,1.0793313,2.371114,-2.6621506,-0.26083946,0.8384125
403,1778316185.8862517,-1.9960312,1.0578055,2.0002997,-2.0491474,-0.26740626,1.0256428
404,1778316185.8961055,-1.3296508,0.9724348,1.4955751,-1.4332426,-0.24190263,1.0645854
405,1778316185.9057739,-1.1604335,0.9451161,1.3568474,-1.2345587,-0.18020524,1.0189233
406,1778316185.915843,-0.7648007,0.8844418,1.0407925,-1.0057896,-0.019089539,0.8712466
407,1778316185.9257286,-0.57863134,0.7926682,0.8962108,-0.81596327,0.2359467,0.72204274
408,1778316185.9358895,-0.43356186,0.71876144,0.79644895,-0.59513545,0.5193882,0.6568329
409,1778316185.9459426,-0.24964872,0.71266353,0.68680835,-0.37888917,0.68844515,0.63270366
410,1778316185.9558427,-0.09823744,0.7505316,0.58472925,-0.2576324,0.73899424,0.5056437
411,1778316185.9660585,-0.09823744,0.7505316,0.58472925,-0.2576324,0.73899424,0.5056437
412,1778316185.9761412,0.085004956,0.66070926,0.43959883,-0.2098322,0.634689,0.38606682
413,1778316185.9861834,0.28166276,0.6658315,0.33331212,-0.2941316,0.22602014,0.28328875
414,1778316185.9962432,0.3744121,0.66412413,0.29556602,-0.2941316,0.22602014,0.28328875
415,1778316186.006206,0.3744121,0.66412413,0.29556602,-0.35521814,-0.062002823,0.17852537
416,1778316186.0161674,0.44734317,0.6503428,0.28038222,-0.40378192,-0.29031372,0.083383106
417,1778316186.0262039,0.50905406,0.64826953,0.26904008,-0.46639562,-0.54458636,-0.07651087
418,1778316186.0359159,0.46527106,0.72729856,0.2519659,-0.61926466,-0.9286679,-0.36254853
419,1778316186.0463288,0.46527106,0.72729856,0.2519659,-0.61926466,-0.9286679,-0.36254853
420,1778316186.055793,0.38057098,0.77900887,0.24153848,-0.6939429,-0.9579894,-0.37782016
421,1778316186.0660653,0.24739249,0.8035835,0.2660521,-0.7652614,-0.97081757,-0.2770274
422,1778316186.07626,0.10232304,0.7882167,0.3708753,-0.7487681,-0.9621128,-0.029932396
423,1778316186.0857122,0.032440916,0.7296767,0.5338726,-0.6160576,-1.111622,0.2770274
424,1778316186.0961869,-0.003963646,0.6696122,0.72327393,-0.37934732,-1.5163202,0.49296826
425,1778316186.10571,-0.033233646,0.63363457,0.78541166,-0.25350907,-1.7707456,0.55955255
426,1778316186.1158466,-0.11799469,0.6006448,0.8902349,0.13820826,-2.531731,0.6818783
427,1778316186.1260426,-0.40288937,0.64491564,0.9354204,0.64736444,-3.433979,0.8533788
428,1778316186.1360316,-0.6331467,0.7857775,0.88858837,1.2502885,-3.9713876,1.5705346
429,1778316186.1460903,-0.6331467,0.7857775,0.88858837,1.2502885,-3.9713876,1.5705346
430,1778316186.1558764,-0.5082614,0.8823075,0.9481041,1.2686144,-3.4713945,1.6438384
431,1778316186.166143,-0.40063316,1.3229431,2.0651205,1.1766791,-1.4340062,0.5308419
432,1778316186.1759229,-0.40063316,1.3229431,2.0651205,1.1766791,-1.4340062,0.5308419
433,1778316186.1861753,-0.8843199,1.2597686,2.6383247,1.6713274,0.14538592,-0.26419923
434,1778316186.1966326,-1.7194296,0.9646295,3.1096325,2.417652,1.1533136,-0.59299743
435,1778316186.2061396,-2.4813035,0.72254217,3.1657336,3.470631,1.493871,-0.6072
436,1778316186.2162313,-3.0728621,0.6611971,2.8611426,4.1996984,0.89552844,-0.32482758
437,1778316186.225719,-3.3134859,0.6354639,2.564296,4.355011,0.25030205,0.009010263
438,1778316186.23606,-3.4171505,0.5099078,2.0044463,4.0795107,-1.0929906,1.0070114
439,1778316186.2461019,-2.6060667,-0.06835765,1.156165,3.0431778,-2.4200954,2.474615
440,1778316186.2561085,-2.0248742,-0.36111864,0.9092604,2.651766,-2.8043296,2.8128817
441,1778316186.2662094,-1.6153991,-0.5222866,0.76022726,2.4996605,-2.837927,2.8739684
442,1778316186.2757757,-1.191289,-0.6589409,0.6349151,2.561358,-2.6035078,2.764776
443,1778316186.2858167,-0.8463298,-0.7144319,0.5189937,2.561358,-2.6035078,2.764776
444,1778316186.2959747,-0.5397876,-0.705468,0.40313327,3.261104,-1.1647673,2.31915
445,1778316186.3060992,-0.5397876,-0.705468,0.40313327,3.261104,-1.1647673,2.31915
446,1778316186.3161802,-0.28251648,-0.6630875,0.25153908,3.7172678,-0.2171626,2.059685
447,1778316186.3260362,-0.14574021,-0.6291221,0.14513041,3.9391646,0.32895094,1.9075794
448,1778316186.336017,0.03286777,-0.56661844,-0.08354146,4.1276164,1.0694723,1.6520851
449,1778316186.3459787,0.32544583,-0.46533203,-0.6551602,3.7951531,1.2707524,1.2162327
450,1778316186.3562434,0.32544583,-0.46533203,-0.6551602,2.4776695,1.5673275,0.5009095
451,1778316186.3657966,0.275138,-0.41020685,-0.5846682,2.4776695,1.5673275,0.5009095
452,1778316186.3758068,0.24159946,-0.41990253,-0.5728383,1.9521726,1.6930131,0.2527455
453,1778316186.386248,0.18299848,-0.4841746,-0.623451,1.0025826,1.7553213,-0.032986723
454,1778316186.3962975,0.17824212,-0.5108225,-0.5954616,1.0025826,1.7553213,-0.032986723
455,1778316186.406207,0.17824212,-0.5108225,-0.5954616,0.4118759,1.7001907,-0.14049901
456,1778316186.4157841,0.16385102,-0.5295431,-0.52594537,-0.16172658,1.6840028,-0.2593123
457,1778316186.425997,0.15677744,-0.5584472,-0.4794792,-0.47861293,1.6702583,-0.3417791
458,1778316186.4362013,0.12799528,-0.6007668,-0.38057098,-0.95371336,1.5732834,-0.50854534
459,1778316186.4460998,0.050063897,-0.68516195,-0.14464259,-1.570229,1.218218,-0.9068295
460,1778316186.456248,0.050063897,-0.68516195,-0.14464259,-1.570229,1.218218,-0.9068295
461,1778316186.4660301,0.04256346,-0.6979676,-0.084029295,-1.5801557,0.7284568,-1.3472633
462,1778316186.4762697,6.0979168e-05,-0.7045533,-0.125861,-1.4996742,0.6702719,-1.5150986
463,1778316186.4857523,6.0979168e-05,-0.7045533,-0.125861,-1.4996742,0.6702719,-1.5150986
464,1778316186.4961798,-0.063113436,-0.70851696,-0.2125124,-1.3909402,0.7435757,-1.6873626
465,1778316186.505963,-0.16531453,-0.708334,-0.3381295,-1.3489432,0.8891144,-1.8205311
466,1778316186.5160034,-0.2719061,-0.6735149,-0.47228366,-1.4421002,1.065349,-1.8918496
467,1778316186.525845,-0.30288354,-0.63302475,-0.5564349,-1.5838208,1.1749994,-1.9257526
468,1778316186.5358505,-0.35581344,-0.5379582,-0.66186786,-2.0332649,1.2873985,-2.127949
469,1778316186.5458407,-0.5001511,-0.3849615,-0.6387568,-2.7630963,1.4059063,-2.6036603
470,1778316186.5562587,-1.7100389,-0.034270294,-0.05866196,-4.578893,1.779756,-4.166712
471,1778316186.5665863,-1.7100389,-0.034270294,-0.05866196,-4.578893,1.779756,-4.166712
472,1778316186.5762992,-2.5747845,0.14915505,0.3501424,-5.207779,1.5906931,-4.4764204
473,1778316186.585761,-3.5249617,0.46905175,1.0142665,-5.6796722,0.9671524,-4.2502475
474,1778316186.5958078,-4.062981,0.75711733,1.6933914,-5.67112,0.4083634,-3.479183
475,1778316186.6061594,-3.8185153,1.001034,2.2905605,-5.307808,0.26984972,-2.6977336
476,1778316186.6162102,-3.3656232,1.0437194,2.2595222,-4.555986,0.30375275,-1.7602082
477,1778316186.626283,-3.3656232,1.0437194,2.2595222,-3.8803687,0.33200526,-1.2029464
478,1778316186.6359296,-2.8052247,1.1292123,2.212751,-3.1219795,0.52564955,-0.90377516
479,1778316186.6460555,-2.4270318,1.1956185,2.2290325,-2.3794727,0.9014844,-0.9737192
480,1778316186.6561275,-2.2633638,1.1586041,2.1728096,-1.5131133,1.1756102,-1.1149818
481,1778316186.6662447,-2.165553,1.0615253,1.9587119,-0.6027713,1.2681563,-1.052368
482,1778316186.6761975,-2.0123734,0.9842038,1.7101607,0.045814894,1.2177598,-0.84436846
483,1778316186.6861,-1.7201004,0.8998086,1.3418466,0.656222,1.052368,-0.49373183
484,1778316186.6961682,-1.3387367,0.83931726,0.98145974,1.0147998,0.8698721,-0.17562376
485,1778316186.7057352,-1.3387367,0.83931726,0.98145974,1.0147998,0.8698721,-0.17562376
486,1778316186.7158668,-1.3387367,0.83931726,0.98145974,1.0147998,0.8698721,-0.17562376
487,1778316186.7258525,-0.43905002,0.8029737,0.29580995,0.8677341,0.52595496,-0.029932396
488,1778316186.7365153,-0.2570272,0.7827286,0.18580353,0.6348417,0.4633413,-0.13225232
489,1778316186.7462919,-0.15702136,0.760959,0.14915505,0.35430184,0.4129449,-0.2452624
490,1778316186.7558832,-0.034148335,0.73254275,0.20812188,0.028252518,0.41340306,-0.41218132
491,1778316186.7659678,-0.034148335,0.73254275,0.20812188,0.028252518,0.41340306,-0.41218132
492,1778316186.7757747,0.002927,0.71900535,0.23794071,-0.01740966,0.40454552,-0.47907108
493,1778316186.785945,0.053112853,0.6991262,0.25647837,-0.040011674,0.3359759,-0.55573463
494,1778316186.795986,0.08433419,0.6757711,0.2697718,-0.033444874,0.1797471,-0.61498857
495,1778316186.8060114,0.058113147,0.6553431,0.2894681,-0.004428773,-0.044593163,-0.61529404
496,1778316186.8158796,-0.05408852,0.64351314,0.3352025,0.1067487,-0.4100433,-0.37797287
497,1778316186.8257523,-0.05408852,0.64351314,0.3352025,0.1067487,-0.4100433,-0.37797287
498,1778316186.835737,-0.07250423,0.62217045,0.36075276,0.1957823,-0.5491679,-0.18463401
499,1778316186.8461108,-0.0831146,0.57302123,0.3913643,0.34147367,-0.77442443,0.0786489
500,1778316186.8561728,-0.064272046,0.5333848,0.36965573,0.6122397,-1.2733486,0.45265114
501,1778316186.8662515,0.043722063,0.44008666,0.36764342,0.7298313,-1.4422529,0.5458081
502,1778316186.8762944,0.076102,0.41410953,0.43264723,0.85047716,-1.5192219,0.52946746
503,1778316186.8858504,0.076102,0.41410953,0.43264723,0.85047716,-1.5192219,0.52946746
504,1778316186.8960726,0.053478733,0.40234053,0.49862665,0.9790643,-1.588097,0.42623124
505,1778316186.9057238,0.053478733,0.40234053,0.49862665,0.9790643,-1.588097,0.42623124
506,1778316186.9159973,0.053478733,0.40234053,0.49862665,0.9790643,-1.588097,0.42623124
507,1778316186.9261708,0.053478733,0.40234053,0.49862665,0.9790643,-1.588097,0.42623124
508,1778316186.9364207,-0.4429527,0.4510629,0.92865175,1.7777706,-2.0864103,0.028710667
509,1778316186.946136,-0.5341775,0.5080174,0.980606,2.1395555,-2.2007947,0.10170906
510,1778316186.955915,-0.7079681,1.0315237,0.9879235,2.573728,-2.3503041,0.2134974
511,1778316186.9659948,-0.7079681,1.0315237,0.9879235,2.2102633,-2.3417518,-0.046120327
512,1778316186.9757152,-0.87938064,1.4662441,1.4729518,1.653765,-2.174833,-0.5525276
513,1778316186.9859083,-0.87938064,1.4662441,1.4729518,1.653765,-2.174833,-0.5525276
514,1778316186.9958737,-1.2950146,1.3416027,2.0498757,1.4274393,-1.6546812,-1.0419834
515,1778316187.0057428,-1.8083371,1.0983567,2.5483804,1.658041,-0.78801614,-1.4097242
516,1778316187.0159109,-2.2455578,0.9856063,2.850593,2.1067214,-0.011148291,-1.4834863
517,1778316187.0259044,-2.7629662,0.9185901,3.0434704,2.9651399,0.77732605,-1.1316279
518,1778316187.0358775,-3.002919,0.84242725,3.0318232,3.520722,1.1607966,-0.70616025
519,1778316187.045799,-3.202016,0.6197313,2.698816,4.224897,1.2348641,0.2228131
520,1778316187.0561283,-3.0450556,0.28251648,2.1170137,4.3854017,0.43371433,1.2803736
521,1778316187.0661707,-1.9115748,-0.17586392,1.0978689,3.5023959,-1.481501,2.806162
522,1778316187.0763807,-1.2269619,-0.30166394,0.76412994,3.5023959,-1.481501,2.806162
523,1778316187.0861878,-1.2269619,-0.30166394,0.76412994,2.9567406,-2.0604484,2.944523
524,1778316187.0958004,-1.2269619,-0.30166394,0.76412994,2.9567406,-2.0604484,2.944523
525,1778316187.1060386,-0.32745814,-0.53606784,0.41606086,2.2146919,-1.6345227,2.0916026
526,1778316187.1159906,-0.12390967,-0.6277195,0.36410663,2.322357,-0.8098546,1.6207782
527,1778316187.1262646,-0.12390967,-0.6277195,0.36410663,2.322357,-0.8098546,1.6207782
528,1778316187.135779,-0.031099375,-0.65436745,0.32703125,2.520888,-0.13942999,1.2394456
529,1778316187.1457725,0.02555027,-0.66497785,0.2742843,2.6601653,0.183565,1.0277808
530,1778316187.156158,0.12189735,-0.65576994,0.03597771,3.0662382,0.906524,0.4662429
531,1778316187.1662235,0.12189735,-0.65576994,0.03597771,3.0662382,0.906524,0.4662429
532,1778316187.1760082,0.14689882,-0.63942754,-0.16031423,3.061351,1.0601566,0.27107146
533,1778316187.1860561,0.16811956,-0.62717074,-0.30971318,2.8393016,1.071763,0.14263703
534,1778316187.1959934,0.22983049,-0.59741294,-0.46179524,2.4491115,0.9776898,0.05131268
535,1778316187.206013,0.30922535,-0.56680137,-0.5587521,2.0622811,0.840856,-0.042455133
536,1778316187.216135,0.4531362,-0.51484716,-0.59747386,1.6410894,0.6808093,-0.17119499
537,1778316187.2258039,0.47368616,-0.50191957,-0.5605815,0.63270366,0.27382034,-0.71975195
538,1778316187.2359204,0.47368616,-0.50191957,-0.5605815,0.63270366,0.27382034,-0.71975195
539,1778316187.2460036,0.48014995,-0.5012488,-0.5376533,0.3032946,0.15806139,-0.98272943
540,1778316187.2559667,0.45844138,-0.5136885,-0.49216285,-0.070554934,0.03940081,-1.3347405
541,1778316187.2662926,0.42941532,-0.51673746,-0.43935493,-0.408058,-0.05375614,-1.7004961
542,1778316187.2757614,0.36605796,-0.51813996,-0.3582526,-0.89675015,-0.1498147,-2.39337
543,1778316187.2857733,0.30306646,-0.5225305,-0.278065,-0.89675015,-0.1498147,-2.39337
544,1778316187.296139,0.24007498,-0.51582277,-0.22336671,-1.0383182,-0.22082779,-2.6943738
545,1778316187.3062696,-0.0032318959,-0.50978583,-0.12726352,-1.1155926,-0.27183503,-2.90161
546,1778316187.3161902,-0.0032318959,-0.50978583,-0.12726352,-1.2038627,-0.2864958,-3.1236594
547,1778316187.3258832,-0.18318142,-0.51344454,-0.095615335,-1.281748,-0.2967278,-3.2467487
548,1778316187.3362167,-0.44618458,-0.49600452,-0.056161813,-1.3510813,-0.37766743,-3.3524284
549,1778316187.3457887,-0.6957113,-0.4226466,-0.04494165,-1.4277447,-0.50503284,-3.4590244
550,1778316187.3560097,-1.1189067,-0.28288236,-0.041587792,-1.7133243,-0.6542367,-3.5837936
551,1778316187.3662477,-2.3272698,0.049576063,0.436184,-2.2466097,-0.64751714,-3.5327864
552,1778316187.3758953,-2.7653444,0.43380582,0.8026688,-3.2045991,0.044898596,-3.0923526
553,1778316187.3859873,-3.5014849,0.97798395,1.6627189,-3.591124,0.80680025,-2.837927
554,1778316187.3960564,-3.5014849,0.97798395,1.6627189,-3.591124,0.80680025,-2.837927
555,1778316187.4061973,-4.4679437,1.2343403,3.3278162,-1.9662225,1.9730947,-1.9517145
556,1778316187.4161367,-4.4679437,1.2343403,3.3278162,-1.9662225,1.9730947,-1.9517145
557,1778316187.4258168,-4.4109282,1.100552,3.249153,-0.46609017,1.0432051,-1.1782063
558,1778316187.4361105,-2.8598619,1.2223884,1.8156546,1.6730071,-1.9333885,0.37843102
559,1778316187.445978,-2.8598619,1.2223884,1.8156546,1.6730071,-1.9333885,0.37843102
560,1778316187.456227,-1.8548644,1.2347062,0.94359165,1.5496124,-2.7294986,0.5140431
561,1778316187.4658332,-1.2608054,1.0693917,0.38544932,1.0300715,-3.1784847,0.3529274
562,1778316187.4759257,-0.649733,0.8952351,0.0453685,0.020158553,-2.9208522,0.1339322
563,1778316187.4861336,-0.40642616,0.8595624,0.058296088,-0.1873829,-2.414445,0.03848451
564,1778316187.4959452,-0.2519659,0.79644895,0.11744587,-0.2443461,-1.6314683,-0.05787948
565,1778316187.506106,-0.2519659,0.79644895,0.11744587,-0.2443461,-1.6314683,-0.05787948
566,1778316187.5158534,-0.00024391667,0.65180635,0.18671821,0.03940081,-0.56138515,-0.19333886
567,1778316187.5260546,-0.00024391667,0.65180635,0.18671821,0.03940081,-0.56138515,-0.19333886
568,1778316187.535981,0.1349469,0.57796055,0.17135146,0.25259277,-0.3950771,-0.30069843
569,1778316187.546286,0.2116587,0.5470441,0.14945993,0.39095375,-0.41034874,-0.41890085
570,1778316187.5562053,0.32770205,0.5036879,0.09146875,0.52381694,-0.5039638,-0.5868888
571,1778316187.5657105,0.38355896,0.47228366,0.0705529,0.73975784,-0.58383447,-0.93034774
572,1778316187.5760605,0.41624376,0.4323423,0.09079798,0.73975784,-0.58383447,-0.93034774
573,1778316187.586066,0.42307347,0.37636343,0.117506854,0.90133166,-0.47998735,-1.0812315
574,1778316187.5960872,0.4422819,0.3352025,0.16805859,1.1325442,-0.34193182,-1.2179126
575,1778316187.6060066,0.37605852,0.24659975,0.28977302,1.3822353,-0.19639318,-1.3228287
576,1778316187.6159987,0.37605852,0.24659975,0.28977302,1.767844,0.033292156,-1.4010195
577,1778316187.625871,0.33203158,0.17482726,0.35819164,2.2050707,0.2667954,-1.4414892
578,1778316187.6361792,0.3035543,0.1273245,0.418622,2.4933991,0.3810272,-1.4511104
579,1778316187.6459546,0.2941635,0.09128582,0.50478554,3.0428724,0.5158757,-1.4831808
580,1778316187.6557512,0.26891813,0.07768746,0.5195425,3.59876,0.37140608,-1.5825992
581,1778316187.6659167,0.19263318,-0.2125734,0.47795472,4.01033,-0.039858956,-1.6626225
582,1778316187.6760013,0.18153499,-0.23117203,0.38929102,4.659833,-1.2235631,-1.9385809
583,1778316187.6859512,0.18153499,-0.23117203,0.38929102,4.659833,-1.2235631,-1.9385809
584,1778316187.6958618,0.051039565,-0.2361723,0.13695921,4.6873217,-1.6737708,-2.2693644
585,1778316187.705847,0.051039565,-0.2361723,0.13695921,4.6873217,-1.6737708,-2.2693644
586,1778316187.7160077,-0.10835998,-0.17702252,0.05933273,4.525595,-1.5340353,-2.3596196
587,1778316187.7261894,-0.24044085,-0.05860098,0.098725274,4.205349,-1.1629347,-2.4817927
588,1778316187.7359562,-0.421427,0.046039272,0.1949504,3.9359574,-0.8906415,-2.6406178
589,1778316187.7462573,-0.7626055,0.21769562,0.3808149,3.3944254,-0.56673026,-2.9507847
590,1778316187.75637,-1.3216624,0.46057564,0.69680893,2.8918362,-0.49037206,-3.0729575
591,1778316187.7657137,-1.8563279,0.7383357,1.1286634,2.152231,-0.69058317,-2.981786
592,1778316187.7758703,-2.461668,1.1023204,1.7624809,1.6658295,-1.0097603,-2.795014
593,1778316187.785714,-3.2200658,1.3542863,2.5808213,1.7392861,-1.1844677,-1.7398969
594,1778316187.796066,-3.2200658,1.3542863,2.5808213,1.7392861,-1.1844677,-1.7398969
595,1778316187.806207,-3.2187243,1.3801415,2.661131,2.0511327,-0.9848675,-1.05023
596,1778316187.8161767,-3.0232253,1.3304435,2.5244765,2.3060162,-0.82970774,-0.27305678
597,1778316187.825744,-2.833275,1.2101926,2.3546495,2.3133466,-0.9512699,0.24129178
598,1778316187.8360069,-2.5420995,1.0353043,2.1977503,2.1676552,-1.3979651,0.77549344
599,1778316187.8460999,-2.2729375,0.91072387,2.1278071,2.0563252,-1.9135354,1.1774428
600,1778316187.8557491,-1.8646818,0.76016635,2.0392654,2.066099,-2.2363777,1.420109
601,1778316187.8661437,-1.7028433,0.68132025,2.0009093,2.1077905,-2.2727242,1.4443909
602,1778316187.875981,-1.4776472,0.5189937,1.8991961,2.341141,-2.2374468,1.4587462
603,1778316187.8857532,-1.2681228,0.34672755,1.7653469,2.9552133,-1.824349,1.5312865
604,1778316187.8962011,-1.1870205,0.28739482,1.7363209,3.4251215,-1.4818064,1.5964963
605,1778316187.9059563,-1.1513476,0.2900779,1.7688836,3.9913936,-1.1930199,1.660179
606,1778316187.916135,-1.1513476,0.2900779,1.7688836,3.9913936,-1.1930199,1.660179
607,1778316187.9262285,-0.9609098,0.23861149,1.3571523,4.5086436,-1.0491611,1.728596
608,1778316187.93622,-0.9609098,0.23861149,1.3571523,5.0147457,-1.0926852,1.8235855
609,1778316187.9457712,-0.813584,0.1923283,1.0006073,5.13814,-1.2924381,1.8715384
610,1778316187.956205,-0.69241846,0.12964171,0.65979457,5.024367,-1.5992452,1.8907807
611,1778316187.9662092,-0.5817413,0.043783043,0.3743511,4.6760206,-1.977829,1.9193386
612,1778316187.9757843,-0.42892745,-0.017379062,0.27934557,4.3388233,-2.0787745,1.926669
613,1778316187.985775,-0.31416467,-0.11317733,0.27147925,4.2035165,-1.8156443,1.8903224
614,1778316187.996206,-0.20147517,-0.24513626,0.25074634,4.236809,-1.2799155,1.8487836
615,1778316188.0061998,-0.094212815,-0.35727695,0.20306063,4.298048,-0.68462723,1.7562376
616,1778316188.016208,0.00804925,-0.4764912,0.11976309,4.2255077,-0.26267207,1.59558
617,1778316188.026056,0.027196707,-0.56570375,0.06280854,4.071111,-0.08155051,1.483028
618,1778316188.0361958,0.030855458,-0.6397324,0.01603752,3.8521163,-0.024587326,1.4191927
619,1778316188.0461743,0.072870106,-0.69333315,-0.04610025,3.4744487,-0.19379699,1.4004086
620,1778316188.0561194,0.11354321,-0.743397,-0.08140719,3.012024,-0.5653558,1.365742
621,1778316188.065714,0.17921777,-0.7683375,-0.09067602,2.6326766,-0.89568114,1.3170254
622,1778316188.0757813,0.42337835,-0.81291324,-0.09817646,1.8167132,-1.7476854,0.9468411
623,1778316188.085987,0.53240913,-0.8343169,-0.082199916,1.5106697,-2.0103576,0.56581396
624,1778316188.0960848,0.5927785,-0.84163445,-0.07494339,1.2922854,-2.1065688,0.10751228
625,1778316188.1062968,0.5927785,-0.84163445,-0.07494339,1.2922854,-2.1065688,0.10751228
626,1778316188.1157973,0.6746735,-0.78291154,-0.04969802,1.0853548,-1.9408716,-0.83169305
627,1778316188.1258752,0.6222924,-0.7460191,-0.012805625,1.0552697,-1.7096591,-1.3330606
628,1778316188.1362517,0.6222924,-0.7460191,-0.012805625,1.0552697,-1.7096591,-1.3330606
629,1778316188.1460338,0.57436275,-0.69930905,0.03872177,1.1110111,-1.4243851,-1.7777706
630,1778316188.1562145,0.5433854,-0.6697952,0.069760166,1.2237158,-1.1351403,-2.1175644
631,1778316188.166103,0.49637043,-0.6650998,0.11616532,1.4179709,-0.6195701,-2.5262332
632,1778316188.1757886,0.45703888,-0.63351256,0.24141651,1.6850718,-0.08536842,-2.846174
633,1778316188.1858757,0.4402086,-0.5930224,0.39526698,2.254398,0.70631295,-3.3061554
634,1778316188.196046,-0.065369666,-0.48710158,0.6043645,3.8773143,2.5497515,-4.327064
635,1778316188.2057562,-0.065369666,-0.48710158,0.6043645,3.8773143,2.5497515,-4.327064
636,1778316188.2157965,-0.64704996,-0.22903776,0.6218656,4.8392744,3.3712125,-4.854546
637,1778316188.226047,-2.78937,0.804986,0.35904533,5.901111,1.8341229,-5.7932935
638,1778316188.23614,-2.78937,0.804986,0.35904533,5.901111,1.8341229,-5.7932935
639,1778316188.2462077,-3.587831,1.2142172,-0.049515083,5.8684297,0.14034629,-5.5999546
640,1778316188.2562432,-4.254029,1.735406,-1.205985,4.7922378,-2.9943087,-4.0327797
641,1778316188.266093,-4.254029,1.735406,-1.205985,4.7922378,-2.9943087,-4.0327797
642,1778316188.2758148,-4.0005383,1.8541325,-1.7985805,3.8147008,-3.255759,-2.8877127
643,1778316188.2862864,-3.5192907,1.7675422,-2.1204896,2.5911376,-2.5798366,-1.6942347
644,1778316188.29574,-2.8552275,1.5517979,-2.2389112,1.1433871,-2.4517076,-0.64599
645,1778316188.3062818,-1.7266251,1.1378103,-1.636437,-1.4749341,-3.4611626,0.34269542
646,1778316188.3161407,-1.3342241,1.0168276,-1.2164124,-2.2870796,-3.8250854,0.57696223
647,1778316188.3262026,-1.3342241,1.0168276,-1.2164124,-2.2870796,-3.8250854,0.57696223
648,1778316188.3359985,-0.70644367,0.8924301,-0.7061388,-2.5369234,-3.5425603,0.7545713
649,1778316188.3460474,-0.70644367,0.8924301,-0.7061388,-2.5369234,-3.5425603,0.7545713
650,1778316188.356144,-0.41136545,0.8606599,-0.54216576,-2.332589,-2.8900034,0.67179906
651,1778316188.365967,-0.28507763,0.84151256,-0.4764912,-2.189952,-2.4727826,0.56123245
652,1778316188.3761253,-0.1694611,0.78443605,-0.38654694,-1.9897408,-1.9199494,0.28084528
653,1778316188.386113,-0.13653237,0.7215055,-0.30715206,-1.9057468,-2.0485365,-0.06291912
654,1778316188.3961077,-0.3902667,0.6875401,-0.12634884,-1.9060522,-2.244777,-0.0693332
655,1778316188.4061384,-0.3902667,0.6875401,-0.12634884,-1.9060522,-2.244777,-0.0693332
656,1778316188.4157429,-0.7148588,0.7624225,0.19915795,-1.7632625,-2.4181101,0.12522738
657,1778316188.4258347,-0.7148588,0.7624225,0.19915795,-0.9957104,-2.01387,0.8061894
658,1778316188.435744,-0.7213226,0.8000467,0.2789187,-0.9957104,-2.01387,0.8061894
659,1778316188.4461668,-0.6549772,0.831268,0.2004995,-0.4213443,-1.553583,1.2800682
660,1778316188.4562585,-0.6549772,0.831268,0.2004995,-0.4213443,-1.553583,1.2800682
661,1778316188.4663582,-0.63759816,0.82809705,0.16098501,-0.3924809,-1.5711454,1.397507
662,1778316188.4760854,-0.63076854,0.78961927,0.17488825,-0.45982882,-1.7944167,1.5764905
663,1778316188.4861522,-0.6655876,0.72309095,0.23690407,-0.57619864,-2.2258403,1.7823521
664,1778316188.4962065,-0.68333256,0.67473453,0.3123963,-0.6403395,-2.56991,1.9190332
665,1778316188.506179,-0.71266353,0.64845246,0.39465716,-0.65041876,-3.4272594,2.2131648
666,1778316188.5159886,-0.71266353,0.64845246,0.39465716,-0.65041876,-3.4272594,2.2131648
667,1778316188.526081,-0.71052927,0.63674444,0.3234945,-0.70646566,-3.8799107,2.3270912
668,1778316188.5362277,-0.6741857,0.58631474,0.29940772,-0.82756966,-4.207487,2.3490822
669,1778316188.545761,-0.48612595,0.57613117,0.47222266,-0.9239337,-4.3956337,2.2379048
670,1778316188.5557404,-0.29867595,0.7120538,0.8279142,-0.7478518,-4.108985,1.873371
671,1778316188.5660112,-0.24458744,0.8827344,1.1777517,-0.29184088,-3.2192597,1.2739595
672,1778316188.5759254,-0.2962978,0.9576168,1.364104,0.09468412,-2.47095,0.8874345
673,1778316188.585887,-0.5053344,1.0598788,1.6145455,1.69622,0.12721269,-0.02687807
674,1778316188.5958638,-0.83675617,1.1029912,1.7057093,1.69622,0.12721269,-0.02687807
675,1778316188.6062603,-1.2242178,1.0784776,1.6725975,2.2811236,0.9776898,-0.19608775
676,1778316188.615831,-1.6811957,1.0979909,1.6495476,2.527913,1.642922,-0.15806139
677,1778316188.6259222,-1.9711516,1.1250046,1.6607066,2.5369234,1.856114,0.04520403
678,1778316188.6360955,-2.1767733,1.0729284,1.6020447,2.5372288,1.6134478,0.4636467
679,1778316188.646299,-2.2105558,0.91480947,1.4539872,2.5616634,0.960891,1.2522738
680,1778316188.655982,-1.5729576,0.60759646,1.0782946,2.6687176,0.0076358155,2.558151
681,1778316188.6660411,-1.5729576,0.60759646,1.0782946,2.6687176,0.0076358155,2.558151
682,1778316188.6762276,-1.1790932,0.50588316,0.9186512,2.819296,-0.17256944,2.8211284
683,1778316188.6858637,-0.7274814,0.41173133,0.7241886,3.1227431,-0.11026118,2.880077
684,1778316188.6957662,0.16293633,0.2856874,0.045124583,3.6946657,0.64828074,2.1363485
685,1778316188.7060723,0.20147517,0.14677685,-0.14128873,3.4950655,1.2965615,1.4382823
686,1778316188.7160194,0.20147517,0.14677685,-0.14128873,3.075401,1.866346,0.8752172
687,1778316188.7260883,0.21239044,0.0690894,-0.3100181,3.075401,1.866346,0.8752172
688,1778316188.7361743,0.1837912,0.015854584,-0.38709575,2.701857,1.971873,0.5343544
689,1778316188.7460997,0.09695688,-0.055186145,-0.4293543,2.1786509,1.9720258,0.28053987
690,1778316188.7561603,0.06658925,-0.17354672,-0.4644783,1.5987871,1.838857,0.16966783
691,1778316188.76612,0.108298995,-0.3064203,-0.4680151,1.0118983,1.5465581,0.11957687
692,1778316188.7763438,0.108298995,-0.3064203,-0.4680151,1.0118983,1.5465581,0.11957687
693,1778316188.7862763,0.24111164,-0.45972195,-0.4603317,0.0870483,1.0454959,-0.008093964
694,1778316188.7961385,0.32093337,-0.51972544,-0.447892,-0.4454735,0.77091193,-0.13454308
695,1778316188.8061783,0.4698445,-0.5805827,-0.4224027,-1.3530666,0.5369505,-0.46181414
696,1778316188.816233,0.4698445,-0.5805827,-0.4224027,-1.7319556,0.45173484,-0.7228063
697,1778316188.8261323,0.5043587,-0.6006448,-0.42722008,-1.7319556,0.45173484,-0.7228063
698,1778316188.8358245,0.5024074,-0.60948676,-0.43545225,-2.919325,-0.036957346,-1.2938126
699,1778316188.8460562,0.45319718,-0.61345047,-0.44606262,-2.919325,-0.036957346,-1.2938126
700,1778316188.8560307,0.39673045,-0.65790427,-0.44655046,-3.6221254,-0.6889033,-1.5909985
701,1778316188.8660972,0.37581462,-0.6896134,-0.44484302,-4.0538545,-1.1294898,-1.7747163
702,1778316188.8759215,0.34093451,-0.7556538,-0.38819337,-4.7676506,-1.8154916,-2.0581577
703,1778316188.8860397,0.29873693,-0.7498608,-0.24373372,-5.312237,-2.297617,-2.2887595
704,1778316188.8960881,0.16921718,-0.7065656,-0.044758707,-5.542991,-2.4104743,-2.4384212
705,1778316188.9061933,-0.07335794,-0.6171092,0.112201676,-5.4939694,-2.263103,-2.450486
706,1778316188.9157684,-0.27934557,-0.5248477,0.17927876,-5.3330064,-2.0883956,-2.347097
707,1778316188.9259195,-0.6734539,-0.2906267,0.3706314,-5.303532,-1.5807666,-2.4255931
708,1778316188.9360263,-0.6734539,-0.2906267,0.3706314,-5.303532,-1.5807666,-2.4255931
709,1778316188.9460545,-1.290807,0.25281963,1.5914342,-5.130963,0.37980548,-3.0761647
710,1778316188.956228,-1.290807,0.25281963,1.5914342,-5.130963,0.37980548,-3.0761647
711,1778316188.9661014,-2.538014,0.92657846,2.8414464,-3.9926152,2.1378756,-3.2311716
712,1778316188.9759276,-2.538014,0.92657846,2.8414464,-3.9926152,2.1378756,-3.2311716
713,1778316188.9862602,-3.0351772,1.1607994,3.1832345,-3.4826956,2.4396431,-3.0141618
714,1778316188.9960833,-3.3192182,1.089271,3.4463596,-2.961933,2.2602015,-2.5772405
715,1778316189.005873,-3.2653732,0.9487749,3.3179986,-2.4026856,1.1136073,-1.8544341
716,1778316189.0158906,-2.7783937,0.8215113,2.9720027,-1.4411838,-1.6948457,-0.39171734
717,1778316189.026166,-1.5092955,0.80254686,2.1908596,-1.006095,-2.4741569,-0.030848695
718,1778316189.0362606,-1.5092955,0.80254686,2.1908596,-1.006095,-2.4741569,-0.030848695
719,1778316189.045833,-0.95127505,0.8601112,1.8194354,-0.6041457,-2.4436138,0.00076358154
720,1778316189.0557318,-0.5914369,0.87779516,1.5414314,-0.17944166,-1.7600555,-0.17272215
721,1778316189.065987,-0.44819686,0.81120586,1.3635552,0.1777618,-1.0034989,-0.39263365
722,1778316189.0762248,-0.40203565,0.73278666,1.2430604,0.516792,-0.22876903,-0.6041457
723,1778316189.0860698,-0.37898555,0.61399925,1.0668305,0.818254,0.46609017,-0.7622071
724,1778316189.095997,-0.33800754,0.53911686,0.88047814,1.1403327,1.1557571,-0.94989544
725,1778316189.1061287,-0.28733385,0.5130178,0.772728,1.3066407,1.4993688,-1.1372783
726,1778316189.1158884,-0.22470824,0.4750887,0.6411349,1.5855007,1.7679968,-1.4596626
727,1778316189.1260457,-0.22470824,0.4750887,0.6411349,1.5855007,1.7679968,-1.4596626
728,1778316189.135747,-0.1349469,0.47716197,0.436062,1.8718438,1.5583172,-1.6818647
729,1778316189.1457214,-0.1349469,0.47716197,0.436062,1.8718438,1.5583172,-1.6818647
730,1778316189.1560943,-0.0734799,0.4853332,0.26269826,1.9307923,1.3825408,-1.7573066
731,1778316189.1660986,-0.0734799,0.4853332,0.26269826,1.9485074,1.0144944,-1.7690657
732,1778316189.176489,-0.058722936,0.48490632,0.19245026,1.9485074,1.0144944,-1.7690657
733,1778316189.1860678,-0.04664906,0.48807728,0.15726528,1.9401081,0.89766645,-1.7365372
734,1778316189.1962152,-0.0046344167,0.5296041,0.0866514,1.8402315,0.65194595,-1.660179
735,1778316189.2061799,0.019513333,0.57564336,0.031099375,1.3523029,-0.10170906,-1.6033685
736,1778316189.2160676,0.024330689,0.6062549,0.009939604,1.3523029,-0.10170906,-1.6033685
737,1778316189.2259665,0.024025792,0.61436516,0.05232013,0.9243918,-0.7687739,-1.5460999
738,1778316189.2360315,0.047197875,0.6113771,0.12982465,0.710589,-1.1447614,-1.4720325
739,1778316189.2458346,0.085614756,0.6144871,0.23702602,0.58383447,-1.4440855,-1.3913983
740,1778316189.2559497,0.114701815,0.6630875,0.43270817,0.61575216,-1.5315919,-1.3570372
741,1778316189.2660162,0.09470064,0.6784542,0.5394827,0.73914695,-1.5193746,-1.3406965
742,1778316189.276098,0.009939604,0.6478427,0.6408301,0.9773844,-1.5717562,-1.3148874
743,1778316189.28619,-0.08866371,0.6291221,0.6875401,1.1389582,-1.6409367,-1.2544118
744,1778316189.295729,-0.29270002,0.6389397,0.764008,1.4140003,-1.8567249,-1.0065532
745,1778316189.3057494,-0.8580378,0.781509,0.9734714,1.6465873,-3.062573,-0.010995574
746,1778316189.3159745,-0.8580378,0.781509,0.9734714,1.6458237,-3.9431353,0.7322747
747,1778316189.3261166,-0.9554216,0.81956,1.1934233,1.6458237,-3.9431353,0.7322747
748,1778316189.3361757,-0.7410798,0.81083995,1.3695922,1.7176003,-4.2885795,1.0920744
749,1778316189.3462763,0.018903542,0.91688275,1.5744821,2.07572,-4.2236753,0.95004815
750,1778316189.3561578,0.05945469,1.1264682,2.0538394,2.2681427,-2.35626,-0.48808134
751,1778316189.3658688,-0.2745282,1.135676,2.3456857,2.6615398,-1.4756978,-0.97203934
752,1778316189.3759215,-0.2745282,1.135676,2.3456857,2.6615398,-1.4756978,-0.97203934
753,1778316189.3862243,-0.6276586,1.1079304,2.4925234,3.0508137,-1.0731375,-1.0790935
754,1778316189.3962293,-1.0207913,0.9597511,2.516915,3.4168746,-0.8523097,-0.9931142
755,1778316189.4058018,-1.3118448,0.73601854,2.414287,3.7963748,-0.58078015,-0.74220127
756,1778316189.416188,-1.498868,0.5236281,2.174822,4.042706,-0.29611692,-0.35842517
757,1778316189.4260452,-1.5284429,0.44886765,1.9241976,4.0381246,-0.14065172,0.0018325958
758,1778316189.4360945,-1.5266744,0.41380462,1.7102827,3.8841867,-0.08536842,0.29856038
759,1778316189.4459352,-1.5013071,0.33873928,1.5000875,3.6005924,-0.11407909,0.59650993
760,1778316189.4558406,-1.3986181,0.15903367,1.191411,3.0723467,-0.4654793,0.91706145
761,1778316189.4658015,-1.2136074,-0.029391957,0.8948083,2.3758078,-1.1438452,1.1339186
762,1778316189.475901,-0.9620684,-0.15086246,0.68491805,1.6612481,-1.8095356,1.2331842
763,1778316189.4858954,-0.9620684,-0.15086246,0.68491805,1.6612481,-1.8095356,1.2331842
764,1778316189.4957945,-0.9620684,-0.15086246,0.68491805,1.6612481,-1.8095356,1.2331842
765,1778316189.5058784,-0.3743511,-0.22117145,0.32507995,0.5018258,-2.6108382,0.9798279
766,1778316189.5157413,-0.25861263,-0.19037697,0.18757193,0.3089451,-2.5445592,0.81061816
767,1778316189.526055,-0.16324124,-0.1817789,-0.149277,0.07376198,-2.383138,0.68523806
768,1778316189.5361052,-0.16324124,-0.1817789,-0.149277,0.07376198,-2.383138,0.68523806
769,1778316189.5462544,-0.07774844,-0.22373258,-0.29891986,-0.06872234,-2.3608415,0.73746705
770,1778316189.5561497,0.08835881,-0.3030055,-0.47289345,-0.17165314,-2.4011586,0.6954701
771,1778316189.5660648,0.1905599,-0.39124236,-0.6832106,-0.33551773,-2.3839016,0.49571714
772,1778316189.5761395,0.15775311,-0.42228076,-0.72827417,-0.63804877,-2.0399845,0.2866485
773,1778316189.5860028,0.15555786,-0.3927668,-0.6855278,-0.7982482,-1.7249308,0.19547687
774,1778316189.5958867,0.12195834,-0.32123825,-0.57771665,-0.93294394,-1.125061,0.027030786
775,1778316189.6059968,-0.049332146,-0.33270234,-0.4674663,-1.0143417,-0.2556471,-0.08078693
776,1778316189.6157749,-0.2409287,-0.38733968,-0.31544524,-1.1307116,0.7707592,-0.0067195175
777,1778316189.6260827,-0.35081315,-0.415695,-0.17013188,-1.2896893,1.472338,0.15851954
778,1778316189.6359599,-0.35081315,-0.415695,-0.17013188,-1.2896893,1.472338,0.15851954
779,1778316189.6462605,-0.4106947,-0.6772956,0.31190842,-1.4761559,1.55847,0.52381694
780,1778316189.6562445,-0.3175795,-0.68040556,0.3614845,-1.4179709,1.5410603,0.46838093
781,1778316189.6658485,-0.3175795,-0.68040556,0.3614845,-1.4179709,1.5410603,0.46838093
782,1778316189.676087,-0.33569032,-0.63467115,0.5655818,-1.3752104,1.8455766,0.24281894
783,1778316189.6862154,-0.33569032,-0.63467115,0.5655818,-1.2815952,2.4384212,-0.092240654
784,1778316189.6962223,-0.47368616,-0.59899837,0.7207128,-1.042747,3.1928399,-0.47540587
785,1778316189.7059667,-0.6741857,-0.4938703,0.8116327,-0.805884,3.7530034,-0.75609845
786,1778316189.7159004,-0.92688334,-0.3675824,0.857611,-0.61529404,4.0903535,-0.9816604
787,1778316189.725868,-1.141347,-0.228306,0.86633104,-1.0635164,3.549585,-1.2099713
788,1778316189.736195,-1.3427613,-0.081346214,0.8593794,-1.0635164,3.549585,-1.2099713
789,1778316189.746245,-1.4910016,0.03305071,0.8724899,-1.5981762,3.0647109,-1.2545645
790,1778316189.7561524,-1.6541209,0.140496,0.9462137,-2.2791383,2.5008824,-1.2623531
791,1778316189.765954,-1.8738288,0.27257687,1.2081803,-3.3116531,1.6184875,-1.1759156
792,1778316189.7761104,-1.9768227,0.36983865,1.4589267,-3.907094,0.9106474,-0.9828822
793,1778316189.785827,-1.99597,0.4730154,1.6328391,-4.1833577,0.43066,-0.75487673
794,1778316189.795946,-1.9568825,0.57106996,1.7735182,-4.340656,0.041233405,-0.47433686
795,1778316189.8058753,-1.8214477,0.65644073,1.926271,-4.4139595,-0.24923302,-0.09560041
796,1778316189.81599,-1.6148503,0.6980285,2.102074,-4.2992697,-0.17440203,0.22143865
797,1778316189.8258345,-1.3895932,0.73303056,2.3178792,-3.9293907,0.33093625,0.43585235
798,1778316189.8360505,-1.1330539,0.73931146,2.4743516,-3.2586606,1.094976,0.50625455
799,1778316189.845712,-0.9521897,0.6986993,2.5503926,-1.6627752,2.0693061,0.117438845
800,1778316189.8557682,-0.85230577,0.63095146,2.4916089,-1.6627752,2.0693061,0.117438845
801,1778316189.8659084,-0.8543791,0.6182068,2.3341606,-1.0549643,2.048384,-0.07819075
802,1778316189.876174,-0.8473665,0.64912325,2.0417044,-0.44700065,1.5737416,-0.17623462
803,1778316189.8857946,-0.790229,0.6625996,1.8580962,-0.20219639,1.1800389,-0.17470746
804,1778316189.8962283,-0.7354088,0.6835155,1.7002821,-0.0777326,0.8695667,-0.12858713
805,1778316189.9058228,-0.59704703,0.7283961,1.3864833,0.068264194,0.27351493,0.08017606
806,1778316189.9161794,-0.42868355,0.7595565,1.1502501,0.07941248,-0.020005837,0.32498032
807,1778316189.925854,-0.21830542,0.7871191,0.95792174,0.03436117,-0.17119499,0.53038377
808,1778316189.9360366,-0.006341833,0.77730143,0.8038274,-0.027183503,-0.24480425,0.6571383
809,1778316189.9457846,0.14659391,0.76547146,0.71626127,-0.06490443,-0.26908615,0.6733262
810,1778316189.9562922,0.31325,0.7591906,0.65790427,-0.07284568,-0.24755314,0.59620446
811,1778316189.9660773,0.41484126,0.7673619,0.64400095,0.014049901,-0.15958855,0.43371433
812,1778316189.9760923,0.54369026,0.7130294,0.6308905,0.41599923,0.07223482,0.06795876
813,1778316189.9862478,0.54369026,0.7130294,0.6308905,0.41599923,0.07223482,0.06795876
814,1778316189.996178,0.5567398,0.6811983,0.6135724,0.6021604,0.12767084,-0.032528576
815,1778316190.0061264,0.5603985,0.6306466,0.56759405,0.93828905,0.160963,-0.15821409
816,1778316190.0157456,0.52314025,0.512347,0.39630362,1.3098478,0.099265605,-0.2593123
817,1778316190.0258868,0.52314025,0.512347,0.39630362,1.5303701,0.023365596,-0.31413746
818,1778316190.0359738,0.50789547,0.45161173,0.36410663,1.689806,-0.05024367,-0.37843102
819,1778316190.045772,0.41508517,0.3445323,0.4124021,1.7831156,-0.1067487,-0.45448375
820,1778316190.055968,0.41508517,0.3445323,0.4124021,1.8796324,-0.21105394,-0.6087272
821,1778316190.066258,0.30550563,0.28367507,0.5086882,1.996613,-0.34972036,-0.7800749
822,1778316190.0760095,0.30550563,0.28367507,0.5086882,1.996613,-0.34972036,-0.7800749
823,1778316190.0859494,0.07262619,0.19592606,0.68156415,2.3762658,-0.86422163,-1.0282389
824,1778316190.095863,-0.158058,0.22641563,0.78236276,2.632982,-1.2606732,-1.0793989
825,1778316190.1060903,-0.36599696,0.26702777,0.8585867,2.8028026,-1.5187637,-1.0178542
826,1778316190.1162908,-0.64192766,0.36282605,0.94383556,3.0998356,-1.9097174,-0.73273283
827,1778316190.1259854,-0.6400983,0.5702162,1.0043269,3.2459853,-2.1418462,-0.40576723
828,1778316190.1359892,-0.62009716,1.1631776,1.7311375,2.7650816,-1.3055718,-1.0407617
829,1778316190.1460803,-1.0504881,1.4165461,2.5648448,2.7650816,-1.3055718,-1.0407617
830,1778316190.1560552,-1.0504881,1.4165461,2.5648448,2.8318186,-0.66782844,-1.3892603
831,1778316190.1663103,-2.0864024,1.0795141,3.4247122,4.4200683,0.33337972,-1.3072516
832,1778316190.175813,-2.0864024,1.0795141,3.4247122,4.4200683,0.33337972,-1.3072516
833,1778316190.1861372,-2.4858158,0.7680326,2.7888212,5.6483655,-0.29061913,-0.5371033
834,1778316190.1957817,-2.4858158,0.7680326,2.7888212,5.6483655,-0.29061913,-0.5371033
835,1778316190.206016,-2.4192874,0.6719294,2.188908,5.523749,-0.91675603,-0.09040806
836,1778316190.216181,-2.2340329,0.5311895,1.715405,5.1132474,-1.6136005,0.36086863
837,1778316190.2262564,-2.2340329,0.5311895,1.715405,5.1132474,-1.6136005,0.36086863
838,1778316190.2360568,-2.2340329,0.5311895,1.715405,5.1132474,-1.6136005,0.36086863
839,1778316190.245917,-1.4495358,0.09567632,0.89145446,3.5181258,-2.8570168,1.234406
840,1778316190.2558422,-0.78492385,-0.2206836,0.7016263,2.7156014,-2.594192,1.306488
841,1778316190.2658696,-0.4864308,-0.38654694,0.6563188,2.650697,-1.9237673,1.1458305
842,1778316190.2758002,-0.2909926,-0.54923934,0.65119654,2.8015807,-1.1792754,0.93202764
843,1778316190.2860157,-0.10006681,-0.8014492,0.61308455,3.2171218,-0.19792034,0.6102544
844,1778316190.296104,-0.07854117,-0.98786247,0.5549104,3.7245982,0.5731443,0.38927388
845,1778316190.3058667,-0.07854117,-0.98786247,0.5549104,3.7245982,0.5731443,0.38927388
846,1778316190.3159587,-0.043783043,-1.32587,0.071467586,5.1198144,2.5810583,0.27320948
847,1778316190.325745,0.22361061,-1.2964171,-0.90541863,5.5423803,3.4345899,0.44990227
848,1778316190.3362014,0.22361061,-1.2964171,-0.90541863,5.5669675,4.4208317,0.7680103
849,1778316190.3457985,0.44825786,-1.2606224,-1.4139849,4.743827,5.076596,0.96684694
850,1778316190.3557386,0.50722474,-1.3095276,-1.7254665,3.1430545,5.200296,0.94042706
851,1778316190.3657413,0.6495501,-1.4082528,-1.6596699,1.0665708,4.4932194,0.6739371
852,1778316190.3759732,0.70827305,-1.302332,-1.3567255,-0.6243043,3.5219436,0.25335637
853,1778316190.385778,0.5968641,-1.1496402,-0.9160901,-2.2886066,2.321746,-0.34865135
854,1778316190.3958058,0.53283596,-1.127139,-0.75711733,-3.0121765,1.730734,-0.6545421
855,1778316190.406205,0.18305947,-0.8952351,-0.31367683,-4.7053423,0.15561792,-1.4527903
856,1778316190.415827,0.18305947,-0.8952351,-0.31367683,-4.7053423,0.15561792,-1.4527903
857,1778316190.4259748,-0.0013415418,-0.7935219,-0.2125124,-5.102863,-0.08781188,-1.6497943
858,1778316190.4360342,-0.2800773,-0.6589409,-0.1006766,-5.4115024,-0.106595986,-1.768913
859,1778316190.4457319,-0.7618737,-0.20037755,0.27507702,-5.5272613,0.16264287,-1.7977765
860,1778316190.4562817,-0.9482261,0.020610958,0.47142997,-5.4669385,0.61086524,-1.8223637
861,1778316190.4661405,-0.9482261,0.020610958,0.47142997,-5.337588,0.9819659,-1.9019289
862,1778316190.4757094,-1.1934843,0.35160586,0.7651666,-5.1531067,1.2609786,-2.1051943
863,1778316190.4857328,-1.8815123,0.9595072,1.3548961,-5.0039024,1.2786937,-2.422997
864,1778316190.4958544,-1.8815123,0.9595072,1.3548961,-4.922963,1.0386237,-2.656042
865,1778316190.5060172,-2.4612412,1.209095,1.7348573,-4.820338,0.45112398,-2.7003298
866,1778316190.516206,-2.83047,1.331968,2.0796335,-4.6450195,-0.019547688,-2.5057693
867,1778316190.5259912,-3.1811001,1.442828,2.4542286,-4.2578835,-0.34406984,-2.111303
868,1778316190.5363479,-3.3882465,1.507222,2.597164,-3.828598,-0.6730208,-1.619251
869,1778316190.5460114,-3.284094,1.4564874,3.0704231,-3.2976034,-0.4812091,-1.0067059
870,1778316190.5557215,-3.0332258,1.4345958,3.2500677,-2.1583397,-0.116675265,-0.41584653
871,1778316190.565749,-2.6486301,1.3087958,2.9837718,-1.0885619,-0.16172658,-0.06490443
872,1778316190.575985,-2.212934,1.1175652,2.4817913,-0.1217149,-0.30665436,0.2518292
873,1778316190.5858462,-1.7879701,1.001095,2.077804,0.3491095,-0.3173445,0.36147952
874,1778316190.5959647,-1.2333037,0.92609066,1.5078928,0.7806858,-0.30100384,0.25610524
875,1778316190.6058893,-0.9948142,0.8712703,1.1867765,0.88499105,-0.20540343,0.13988814
876,1778316190.6159914,-0.8357805,0.81602323,0.95023835,0.8857546,-0.023060163,0.049785517
877,1778316190.6261356,-0.6808324,0.761081,0.76547146,0.8199339,0.23869559,0.0096211275
878,1778316190.6357636,-0.5247867,0.7353478,0.6345492,0.75319684,0.37659842,0.048563786
879,1778316190.6458378,-0.36721656,0.7241276,0.4923458,0.5374087,0.32910365,0.2556471
880,1778316190.6560209,-0.21354906,0.71296847,0.3545329,0.5374087,0.32910365,0.2556471
881,1778316190.6662114,0.0248795,0.64394003,0.26038104,0.3840815,0.25167647,0.35979962
882,1778316190.6757684,0.0248795,0.64394003,0.26038104,0.19822577,0.1684461,0.5056437
883,1778316190.686096,0.18714507,0.61308455,0.32264078,0.16646078,0.15836681,0.6600399
884,1778316190.696014,0.40538952,0.7485193,0.12854409,0.13133603,-0.12797627,0.42928556
885,1778316190.7059803,0.40538952,0.7485193,0.12854409,0.13133603,-0.12797627,0.42928556
886,1778316190.7160785,0.45350206,0.60448647,0.13823977,0.118507855,-0.13561209,0.3559817
887,1778316190.726098,0.5161277,0.6328418,0.21690291,0.5459608,0.03359759,0.1554652
888,1778316190.7362034,0.5161277,0.6328418,0.21690291,0.5459608,0.03359759,0.1554652
889,1778316190.7460022,0.4552095,0.5717407,0.204829,0.8744536,0.13332134,0.13591751
890,1778316190.7557049,0.39709634,0.5031391,0.16250949,1.2029464,0.2593123,0.2751948
891,1778316190.7657752,0.37300956,0.4607586,0.10726235,1.3900238,0.35048392,0.46089783
892,1778316190.7759213,0.37300956,0.4607586,0.10726235,1.3900238,0.35048392,0.46089783
893,1778316190.7861552,0.4119143,0.32879966,0.007683375,1.4799738,0.32238412,0.9193522
894,1778316190.7961001,0.52673805,0.20489,0.026830835,1.3069462,-0.061850104,1.0458013
895,1778316190.8062735,0.5839365,0.14531335,0.104701236,1.3069462,-0.061850104,1.0458013
896,1778316190.8160563,0.5839365,0.14531335,0.104701236,1.2664764,-0.29168814,0.8978192
897,1778316190.8262677,0.6143041,0.124580435,0.15263085,1.2848023,-0.44119743,0.7516697
898,1778316190.8358924,0.6143041,0.124580435,0.15263085,1.2848023,-0.44119743,0.7516697
899,1778316190.8462958,0.66638035,0.05512517,0.28324825,1.578934,-1.0564915,-0.14767668
900,1778316190.856221,0.57844836,0.13750802,0.42039037,1.660179,-1.2698362,-0.8530733
901,1778316190.8659322,0.38422972,0.33501956,0.60424256,1.6426166,-1.506241,-1.5383114
902,1778316190.876194,-0.6278415,1.2459873,1.3915446,1.188591,-1.781894,-3.4564283
903,1778316190.886261,-0.6278415,1.2459873,1.3915446,1.0323622,-1.248914,-4.054007
904,1778316190.89609,-1.7801039,1.694916,2.227386,1.0323622,-1.248914,-4.054007
905,1778316190.9060712,-2.9318783,1.8167524,3.2279932,1.5407549,-0.44257188,-3.8101192
906,1778316190.916085,-3.667653,1.7266251,3.6922274,2.446668,0.16508633,-3.1138856
907,1778316190.9258099,-4.4539795,1.3660553,3.851688,3.530801,0.36178493,-2.0201313
908,1778316190.9358954,-4.412026,1.0511589,3.2358596,4.616156,-0.43050727,-0.38087448
909,1778316190.946002,-4.412026,1.0511589,3.2358596,4.616156,-0.43050727,-0.38087448
910,1778316190.9560163,-2.698999,0.7596785,1.3777024,4.1137195,-2.3510675,2.2463043
911,1778316190.966175,-1.1351881,0.3621553,0.50887114,2.4211645,-3.439935,2.6241243
912,1778316190.9763258,-0.714066,0.13750802,0.36569205,1.8359555,-3.458719,2.2423337
913,1778316190.9860158,-0.714066,0.13750802,0.36569205,1.8359555,-3.458719,2.2423337
914,1778316190.9962423,-0.3445933,-0.10835998,0.33593425,1.4590516,-2.372448,1.4317154
915,1778316191.0057676,-0.3445933,-0.10835998,0.33593425,1.4590516,-2.372448,1.4317154
916,1778316191.0159338,-0.25605154,-0.13323948,0.33733675,1.5861117,-1.609019,1.1213958
917,1778316191.0257947,-0.13939838,-0.18568157,0.31800637,1.8135062,-0.79076505,0.8223773
918,1778316191.0361195,-0.052076213,-0.29733443,0.26836932,2.1884248,0.19165897,0.46777007
919,1778316191.0458376,0.15214302,-0.45685592,0.13982524,2.6340508,1.1290317,0.116675265
920,1778316191.0558538,0.31038398,-0.47795472,0.05427146,3.7041342,2.89825,-0.68645984
921,1778316191.066002,0.31038398,-0.47795472,0.05427146,3.7041342,2.89825,-0.68645984
922,1778316191.076022,0.4578316,-0.5346044,-0.4051456,4.4090724,4.245055,-1.8976529
923,1778316191.0857658,0.4578316,-0.5346044,-0.4051456,4.4090724,4.245055,-1.8976529
924,1778316191.0963242,0.33758068,-0.60143757,-0.6385738,4.3047676,4.597372,-2.556929
925,1778316191.1065817,0.11726294,-0.699553,-0.7217494,4.0187297,4.5191813,-3.076012
926,1778316191.1163266,0.075980045,-0.7335184,-0.68632054,3.822642,4.362036,-3.3017266
927,1778316191.1260495,-0.10348164,-0.7236398,-0.6727832,3.4634533,4.0231586,-3.6086864
928,1778316191.136241,-0.35258156,-0.6799177,-0.7949854,2.9200885,3.726889,-3.694513
929,1778316191.1462357,-0.6818081,-0.68071043,-0.86498946,2.1201606,3.3056972,-3.4684927
930,1778316191.1557276,-0.6818081,-0.68071043,-0.86498946,1.0375546,2.7898216,-2.9712486
931,1778316191.1657424,-0.6324759,-0.67631996,-0.7022361,-0.27382034,2.2127066,-2.3241894
932,1778316191.1757905,-0.6324759,-0.67631996,-0.7022361,-1.655903,1.5358679,-1.6664404
933,1778316191.185971,-0.5544836,-0.65394056,-0.55625194,-2.6946793,0.9578367,-1.1690434
934,1778316191.1958551,-0.45319718,-0.63235396,-0.30538365,-3.7716348,0.33307427,-0.5317582
935,1778316191.2059793,-0.3855713,-0.64070815,-0.080614455,-4.3802094,-0.052687127,-0.03191771
936,1778316191.2159948,-0.30550563,-0.63936657,0.21385394,-4.8605022,-0.49220467,0.66691214
937,1778316191.2257175,-0.25068536,-0.64034224,0.29568797,-4.955339,-0.6953174,0.9401216
938,1778316191.2360425,-0.17104656,-0.7320549,0.38447365,-4.9980993,-1.0024298,1.1658363
939,1778316191.2460759,-0.15128931,-0.8086447,0.47618634,-4.9411364,-1.3567317,0.9995282
940,1778316191.2562306,-0.14269125,-0.63601273,0.5192986,-4.7494774,-1.7608191,0.40317106
941,1778316191.2660701,-0.14269125,-0.63601273,0.5192986,-4.7494774,-1.7608191,0.40317106
942,1778316191.275987,-1.4095944,0.19342592,0.29849303,-5.7074666,-1.3558154,-2.7669141
943,1778316191.2860894,-1.4095944,0.19342592,0.29849303,-5.7074666,-1.3558154,-2.7669141
944,1778316191.2961712,-2.782967,0.60046184,1.2195224,-7.134295,-0.35735616,-3.0433307
945,1778316191.3062763,-2.782967,0.60046184,1.2195224,-7.477754,-0.4550946,-2.8962648
946,1778316191.3159447,-3.0227983,0.641074,1.9143801,-7.477754,-0.4550946,-2.8962648
947,1778316191.3262737,-3.0072486,0.51649356,2.2864747,-7.5339537,-0.9392053,-2.9706378
948,1778316191.3357456,-3.0630445,0.24739249,3.0538979,-7.2407384,-2.7864618,-3.4174857
949,1778316191.3459432,-3.3788557,0.40380403,3.8333945,-6.1885233,-4.372879,-3.336546
950,1778316191.3557107,-2.7327814,1.1639094,3.231347,-1.398576,-3.4900258,-1.3950635
951,1778316191.366271,-2.1761637,1.1645802,2.195494,0.10430524,-2.0019581,-0.7324274
952,1778316191.3760352,-1.5335652,1.0367678,1.0067661,0.82619524,-0.5516113,-0.13820826
953,1778316191.3862345,-1.0884781,0.90486985,0.31605503,0.54092115,-0.021227567,0.15210545
954,1778316191.3959873,-0.88145393,0.8543791,0.1393374,-0.03191771,0.036957346,0.27885997
955,1778316191.4061189,-0.88145393,0.8543791,0.1393374,-0.03191771,0.036957346,0.27885997
956,1778316191.416054,-0.65137947,0.8466348,0.23891638,-0.8023715,-0.031001411,0.474795
957,1778316191.4259737,-0.59082717,0.8391954,0.29983455,-1.0386237,-0.034055736,0.56688297
958,1778316191.435812,-0.49496788,0.8296825,0.4191708,-1.2466233,-0.08078693,0.68936145
959,1778316191.4458852,-0.38307112,0.7812651,0.4109996,-1.4631749,-0.31871894,0.84238315
960,1778316191.455869,-0.26160064,0.746385,0.38660794,-1.6103935,-0.45463645,0.93935806
961,1778316191.4658895,-0.26160064,0.746385,0.38660794,-1.6103935,-0.45463645,0.93935806
962,1778316191.4757395,-0.20793895,0.7188224,0.42618343,-1.6357445,-0.49449542,0.9837985
963,1778316191.48585,-0.051649354,0.72083473,0.6746125,-0.1253801,0.039553523,1.1861476
964,1778316191.4958339,-0.03506302,0.67229533,0.5705211,0.5412266,0.5122105,1.2544118
965,1778316191.5057793,-0.03506302,0.67229533,0.5705211,0.5412266,0.5122105,1.2544118
966,1778316191.5157633,0.112140685,0.6181458,0.1925722,1.5326608,1.2904528,1.2605205
967,1778316191.5259395,0.112140685,0.6181458,0.1925722,1.5326608,1.2904528,1.2605205
968,1778316191.536097,0.040551145,0.59338826,0.06360127,1.4792101,1.1010846,1.1577424
969,1778316191.5458536,-0.07043094,0.5499711,0.059820563,1.2632693,0.6585127,1.1097895
970,1778316191.5561957,-0.07043094,0.5499711,0.059820563,1.2632693,0.6585127,1.1097895
971,1778316191.56579,-0.34971553,0.56802094,0.27733323,0.7699956,-0.78801614,1.2311989
972,1778316191.5761995,-0.34971553,0.56802094,0.27733323,0.68218374,-1.4647021,1.3697126
973,1778316191.5857742,-0.6424765,0.7000409,0.29898086,0.63514715,-2.4223862,1.8113682
974,1778316191.5960832,-0.6424765,0.7000409,0.29898086,0.63514715,-2.4223862,1.8113682
975,1778316191.6058004,-0.7030898,0.7254692,0.22720838,0.46761733,-2.8367054,2.0236437
976,1778316191.615858,-0.8144987,0.787546,0.22702545,0.07941248,-3.0886874,2.2634084
977,1778316191.6261375,-0.93029815,0.83974415,0.45179462,-0.42088616,-2.8243356,2.4278839
978,1778316191.6357195,-1.0314626,0.8659651,0.80693734,-0.79626286,-2.1496348,2.5517368
979,1778316191.6458561,-1.1436033,0.86706275,1.2081193,-0.88453287,-1.6815593,2.595261
980,1778316191.6561294,-1.5890561,0.5075906,2.0209715,-0.38744128,-0.25793785,2.4898868
981,1778316191.6659129,-1.5890561,0.5075906,2.0209715,-0.38744128,-0.25793785,2.4898868
982,1778316191.675929,-2.0797555,0.097322755,1.9079771,0.23426682,-0.14859296,2.489276
983,1778316191.686217,-2.0797555,0.097322755,1.9079771,0.23426682,-0.14859296,2.489276
984,1778316191.6959343,-2.0848167,-0.034636166,1.6528404,0.16600263,-0.70264775,2.771343
985,1778316191.7057223,-1.9931042,-0.1323248,1.489904,0.16600263,-0.70264775,2.771343
986,1778316191.7160485,-1.9931042,-0.1323248,1.489904,0.16600263,-0.70264775,2.771343
987,1778316191.7261162,-1.9931042,-0.1323248,1.489904,0.16600263,-0.70264775,2.771343
988,1778316191.7360015,-1.9931042,-0.1323248,1.489904,0.16600263,-0.70264775,2.771343
989,1778316191.746012,-1.4297175,-0.38209546,0.9320055,-0.87674433,-3.112053,3.2678237
990,1778316191.7562745,-0.68022263,-0.37416816,0.51563984,-1.5706873,-3.6225836,2.9820914
991,1778316191.7662582,-0.68022263,-0.37416816,0.51563984,-1.5706873,-3.6225836,2.9820914
992,1778316191.7761536,-0.4323423,-0.30666426,0.31660384,-1.4883732,-3.0769281,2.9361238
993,1778316191.7858837,-0.4323423,-0.30666426,0.31660384,-1.4033102,-2.4130704,2.9249754
994,1778316191.796154,-0.34837398,-0.27233297,0.26830834,-1.3573426,-1.8379408,2.9145908
995,1778316191.8062751,-0.26623505,-0.23983108,0.23672113,-1.3272575,-1.1290317,2.8754954
996,1778316191.8158922,-0.23318435,-0.22519606,0.23458686,-1.3110695,-0.52870387,2.8136454
997,1778316191.8261359,-0.22769623,-0.22403745,0.26574722,-1.2925909,-0.1611157,2.7676778
998,1778316191.83628,-0.20659742,-0.2394042,0.31215236,-1.2388347,0.10048734,2.7061331
999,1778316191.8458729,-0.17470531,-0.25123417,0.36538717,-1.1513283,0.1525636,2.6516132
1000,1778316191.8557696,-0.124885336,-0.25586858,0.41258505,-0.968985,0.11178834,2.547919
