id,timestamp,acc_x,acc_y,acc_z,gyro_x,gyro_y,gyro_z
1,1778317043.0243764,-0.23684308,0.03664848,0.9604219,0.34773505,0.48609602,-0.0143553335
2,1778317043.0243928,-0.23684308,0.03664848,0.9604219,0.34773505,0.48609602,-0.0143553335
3,1778317043.0344996,-0.041587792,0.096347086,0.9888382,0.17821993,0.7501425,0.13713925
4,1778317043.0447626,-0.075675145,0.14354497,0.96566606,0.15225816,0.36896262,0.1563815
5,1778317043.0546525,-0.04530752,0.15702136,1.012803,0.13255776,0.35918877,0.14920384
6,1778317043.0645516,-0.07646788,0.15604569,1.0104249,0.09819659,0.4746423,0.09987647
7,1778317043.0745165,-0.110616215,0.16519257,0.9870088,0.044898596,0.6392705,0.13118331
8,1778317043.084572,-0.15549688,0.18116911,0.96310496,0.020158553,0.73853606,0.22510384
9,1778317043.0946326,-0.09244442,0.091529734,0.92505395,-0.014813482,1.1016954,0.22602014
10,1778317043.1044981,-0.013476395,0.14933798,0.95426303,-0.015882496,1.4935656,0.1518
11,1778317043.1144018,0.043783043,0.20812188,0.9068822,0.101556346,1.8263344,-0.034055736
12,1778317043.1244848,0.09531044,0.30648127,0.8748072,0.30298916,1.7814357,-0.20631973
13,1778317043.1344652,-0.055978876,0.2315379,0.90151596,0.5911648,1.6245961,-0.34681875
14,1778317043.1441507,-0.20251182,0.11092111,0.8963937,0.83291477,1.6939293,-0.36942077
15,1778317043.1545026,-0.27708933,0.054149497,0.8720631,1.0216721,1.892766,-0.29810223
16,1778317043.1643934,-0.29952967,0.051588375,0.8521839,1.1717923,1.9981402,-0.16982053
17,1778317043.1744635,-0.29148042,0.08451713,0.80602264,1.338253,2.0650299,0.047800206
18,1778317043.1842287,-0.26336902,0.11988505,0.76522756,1.4223998,2.0986276,0.19394971
19,1778317043.194151,-0.21226847,0.1797056,0.6485744,1.5201381,2.1636846,0.50518554
20,1778317043.204554,-0.09585925,0.19324298,0.33069003,0.63071835,1.2731959,0.46715918
21,1778317043.214682,0.058905877,0.13323948,0.34349567,0.04841107,0.9860892,0.030390546
22,1778317043.224608,0.045002624,0.050917607,0.29337075,-0.24098633,0.61834836,-0.3930918
23,1778317043.2343705,-0.053966567,0.021098793,0.36258212,-0.50518554,0.31764993,-1.0520626
24,1778317043.244295,-0.15378946,0.020976834,0.34233707,-0.6786713,0.34238997,-1.2455542
25,1778317043.254603,-0.28019926,0.0039026667,0.25586858,-0.9465357,0.5174029,-1.3341297
26,1778317043.2646542,-0.27166218,-0.03744121,0.21031716,-1.1980594,0.66996646,-1.5377005
27,1778317043.2743354,-0.17000991,-0.036587503,0.19299906,-1.4831808,0.9477574,-2.0144808
28,1778317043.2845926,-0.0035977708,0.020549979,0.19714566,-1.6966782,0.9418015,-2.4683537
29,1778317043.294219,0.19184047,0.033172667,0.27074748,-1.6125315,0.21899518,-2.5143213
30,1778317043.3041396,-0.049637042,-0.26800343,0.50807846,-1.1656836,-0.18478674,-2.1222985
31,1778317043.3144715,-0.14470357,-0.547471,0.63082945,-0.73975784,0.6488916,-1.8046486
32,1778317043.3244724,-0.15781409,-0.64503765,0.6442449,-0.20219639,1.6064229,-1.7844901
33,1778317043.3344696,-0.17153439,-0.6144261,0.6147919,0.72295904,2.4952319,-2.0341814
34,1778317043.3447437,-0.17397358,-0.638147,0.49887055,1.5033394,3.275154,-2.1688771
35,1778317043.3545866,-0.15799703,-0.68449116,0.26647896,1.805565,3.9683332,-2.3881776
36,1778317043.3644776,-0.19940189,-0.7041264,0.017927876,1.6597209,4.346917,-2.7084239
37,1778317043.3746269,-0.38996178,-0.70382154,-0.17190027,1.1438452,4.382347,-2.962391
38,1778317043.3843257,-0.58515614,-0.72217625,-0.30788383,0.49266282,4.1867175,-3.136182
39,1778317043.3942955,-0.8684653,-0.80346155,-0.4305739,-0.58459806,3.3670893,-3.1783319
40,1778317043.4047277,-1.0957347,-0.8322436,-0.4411233,-1.5995506,2.2537873,-2.9831605
41,1778317043.4144049,-1.2444018,-0.8938326,-0.38179058,-2.853657,0.79458296,-2.5291348
42,1778317043.424595,-1.2511096,-0.89249104,-0.2461729,-3.6199875,0.058948494,-2.3214407
43,1778317043.4343483,-1.4766105,-0.638147,0.12805626,-4.012621,-0.21288654,-2.1745276
44,1778317043.4443245,-1.7529072,-0.44429418,0.35313037,-3.643353,0.31016684,-2.0595322
45,1778317043.4542837,-2.5949686,-0.10866488,0.11397006,-3.0230193,1.2072225,-1.7299703
46,1778317043.4642687,-2.678388,-0.09244442,0.054027542,-2.5593727,1.8976529,-1.0778717
47,1778317043.474223,-2.9429767,-0.13000758,-0.25971028,-2.7478247,1.8666514,-0.28725937
48,1778317043.4846592,-3.1783562,-0.2775772,-0.73687226,-3.6242635,1.3939945,0.35170567
49,1778317043.494453,-3.568562,-0.2947733,-0.7868752,-4.7320676,0.86422163,0.7501425
50,1778317043.5044544,-4.2492113,-0.1364104,-0.3314218,-6.519612,-0.32238412,1.5167783
51,1778317043.514278,-4.718385,-0.046039272,0.20208496,-7.4275107,-1.1091785,2.4083362
52,1778317043.524213,-4.972424,-0.038172957,0.6635753,-7.9055123,-1.6455183,3.450167
53,1778317043.5341454,-5.330799,-0.14189851,1.5421631,-7.9462876,-1.9252945,4.4478626
54,1778317043.5446608,-5.4980645,-0.30343235,2.6310072,-6.095061,-2.401464,6.698901
55,1778317043.5545082,-5.5403233,-0.4094141,3.9381568,-6.095061,-2.401464,6.698901
56,1778317043.5646498,-5.5450797,-0.6377811,5.043709,-3.8802161,-1.9871446,7.588779
57,1778317043.5748174,-5.436598,-0.9287127,5.4402566,-1.1455251,-1.0415252,8.318915
58,1778317043.5846305,-5.28354,-1.2749524,5.438061,0.7472409,-0.18891008,8.666651
59,1778317043.5943177,-5.104993,-1.4245343,5.108469,2.1939225,0.6267477,9.128617
60,1778317043.6042259,-4.8252816,-1.545456,4.9887667,2.9915597,1.2414309,9.551489
61,1778317043.6142282,-4.4325757,-1.7966902,5.046331,3.467424,1.9317086,9.701762
62,1778317043.6244948,-4.0432844,-2.0043242,5.1971936,4.2636867,3.1125112,9.815993
63,1778317043.634555,-3.6839347,-2.0885973,5.1609106,5.260466,4.4808493,9.914648
64,1778317043.6444554,-3.3186083,-2.1829932,4.687164,5.80154,5.127908,9.977873
65,1778317043.6544752,-3.0405433,-2.1678092,3.931815,5.539479,4.2998805,10.048428
66,1778317043.6643338,-2.5441728,-2.130734,3.4841666,3.890448,-0.10751228,9.832792
67,1778317043.6744878,-2.0412166,-2.0993907,3.4442866,3.890448,-0.10751228,9.832792
68,1778317043.684369,-1.4148387,-2.052559,3.4718487,3.7815614,-1.5425875,9.412211
69,1778317043.6942139,-1.0016438,-2.1068301,3.3942225,4.4078507,-1.8422168,8.793099
70,1778317043.7046263,-0.6481476,-2.1724439,3.2251883,5.189911,-1.2278391,8.245765
71,1778317043.7144036,-0.4422819,-2.1492717,3.1187186,6.29741,0.23762658,7.6176424
72,1778317043.7244968,-0.34654462,-2.1443324,2.9731002,7.348709,1.7336355,6.9640164
73,1778317043.7343242,-0.45417285,-2.1954331,2.8390682,8.073653,2.6655104,6.561151
74,1778317043.7441823,-0.63522,-2.2554367,2.6072254,8.78806,3.6317465,6.389345
75,1778317043.7542288,-0.76114196,-2.2045188,2.166163,8.879538,3.9891028,6.469063
76,1778317043.7645829,-0.97036153,-2.0529857,1.5616155,6.9695144,2.4210117,6.7488394
77,1778317043.774512,-0.97036153,-2.0529857,1.5616155,6.9695144,2.4210117,6.7488394
78,1778317043.7845407,-0.9462137,-2.1245143,1.5206375,5.2403073,0.8167268,6.8847566
79,1778317043.7944016,-0.6510746,-2.110489,1.8213258,3.762319,-0.83031857,6.8038173
80,1778317043.8043869,-0.4631368,-2.1562233,2.0914636,3.0260737,-1.7916678,6.500981
81,1778317043.8144639,-0.33465368,-2.3554423,2.4784982,2.6563475,-2.2876904,5.984341
82,1778317043.8243592,-0.1943406,-2.6399102,2.9085233,2.9443705,-2.0546453,5.413793
83,1778317043.8345487,-0.12012896,-2.8362632,3.1249385,3.6581664,-1.5483906,4.9076915
84,1778317043.8443646,-0.16592431,-3.0195055,3.0215178,4.8895183,-0.9476047,4.3357687
85,1778317043.8544705,-0.40142587,-3.304827,2.5972857,5.916383,-0.67363167,3.9438987
86,1778317043.864365,-0.4603927,-3.4724588,2.0249352,6.340781,-0.77488256,3.7313175
87,1778317043.8741958,-0.32050648,-3.3768435,1.483989,6.198297,-1.4845552,3.40649
88,1778317043.8842723,-0.30739596,-3.2864113,1.1150041,5.8636956,-2.2050707,3.0462322
89,1778317043.8942287,-0.34471524,-3.2307982,0.79077786,5.521764,-2.8831313,2.689487
90,1778317043.9044943,-0.32837284,-3.1601233,0.38587618,5.3418636,-3.4568865,2.2382102
91,1778317043.9142005,-0.34587383,-3.1807954,-0.18226673,5.450598,-3.485139,1.7469219
92,1778317043.9245112,-0.29343176,-3.1239629,-0.6910769,5.558721,-2.9323058,1.2395983
93,1778317043.9342394,-0.2759917,-3.0201154,-1.1781785,5.5318427,-2.3173172,0.9430232
94,1778317043.944653,-0.4159389,-2.9310858,-1.621436,5.2102222,-0.5710063,0.52778757
95,1778317043.954585,-0.51131034,-2.689852,-2.0068853,4.742605,0.8604037,0.42210788
96,1778317043.9643996,-0.50515145,-2.3876393,-2.3198304,4.126089,1.4799738,0.4877759
97,1778317043.974252,-0.31483543,-2.2234833,-2.6829004,3.4048102,1.5289958,0.6986771
98,1778317043.9845264,0.061162103,-2.1886644,-3.1771367,1.87444,0.90392786,0.7867944
99,1778317043.9943557,0.4191708,-2.3298311,-3.4061744,-0.10888673,-0.14996742,0.6302602
100,1778317044.0041811,0.7862044,-2.4677658,-3.3503785,-1.6189456,-0.8756753,0.33582318
101,1778317044.0145054,1.2072046,-2.5874069,-3.1816492,-3.0019445,-1.2832751,-0.36346483
102,1778317044.0243263,1.3936789,-2.5458193,-2.6974745,-3.6221254,-0.68569624,-1.4576772
103,1778317044.0342882,1.3368464,-2.3991034,-2.3486736,-3.477503,0.32162055,-2.411696
104,1778317044.0444992,0.83815867,-2.1207945,-1.9130385,-2.5277603,2.3345742,-4.3580656
105,1778317044.0542967,0.7672399,-2.0743282,-1.9010255,-2.470492,2.3956609,-4.5495715
106,1778317044.064149,0.49405318,-1.9206609,-1.8541936,-2.5529585,2.0011945,-5.3951616
107,1778317044.0744143,0.24525821,-1.7999221,-1.6882082,-3.0500503,1.050841,-5.9014163
108,1778317044.0842059,0.19714566,-1.6350955,-1.3395293,-3.9072468,-0.39538252,-6.437298
109,1778317044.0944653,0.2628202,-1.551737,-0.89444244,-4.679533,-1.813048,-7.07046
110,1778317044.1041472,0.17086363,-1.5514929,-0.54301953,-5.113553,-2.698039,-7.6422296
111,1778317044.1146975,-0.28147984,-1.4791716,-0.1659853,-5.3985214,-3.3394475,-8.238281
112,1778317044.124618,-0.72827417,-1.3068446,0.11909231,-5.4573174,-3.4426837,-8.411157
113,1778317044.1341643,-1.0357921,-1.1518965,0.44008666,-5.4495287,-3.3279939,-8.361524
114,1778317044.1447206,-1.4598414,-1.0985397,1.0620742,-5.458234,-3.0935743,-8.269588
115,1778317044.154616,-1.7357719,-1.1195166,1.5174665,-5.546046,-3.1884112,-8.238129
116,1778317044.1643932,-1.8437052,-1.1205531,2.1211603,-5.6538634,-3.6364808,-8.201018
117,1778317044.1745534,-1.7484558,-1.1846423,2.5740526,-5.630803,-3.8736491,-8.336936
118,1778317044.184541,-1.6760124,-1.329163,2.806688,-5.5588737,-3.9376373,-8.684671
119,1778317044.194425,-1.8332167,-1.3391635,2.9163287,-5.5666623,-3.856087,-8.923519
120,1778317044.2042303,-2.122563,-1.3000759,3.061093,-5.6979985,-3.6925278,-8.888089
121,1778317044.2144642,-2.391969,-1.4258758,3.2332983,-5.895766,-3.30585,-8.6048
122,1778317044.2244341,-2.3780046,-1.5709454,3.225554,-6.0865088,-3.0940325,-8.192467
123,1778317044.234556,-2.3295262,-1.9304785,2.8929737,-6.6373563,-3.4671185,-8.291274
124,1778317044.2445412,-2.3537347,-2.162992,2.7210734,-7.2732673,-4.1030293,-8.57777
125,1778317044.254696,-2.2445822,-2.4337397,2.6803393,-8.370992,-5.038264,-8.788213
126,1778317044.2643259,-2.2118974,-2.5638082,2.959258,-8.919549,-5.945246,-9.142668
127,1778317044.2746024,-2.5718572,-2.4238,3.5409384,-8.472854,-5.4243307,-9.447642
128,1778317044.284657,-3.5458167,-1.4514871,3.5345354,-4.450764,-1.4430164,-8.932224
129,1778317044.2944386,-3.5458167,-1.4514871,3.5345354,-4.450764,-1.4430164,-8.932224
130,1778317044.3045907,-3.7574143,-0.7176638,2.7477212,-1.6172657,0.77366084,-7.942317
131,1778317044.314655,-3.6600308,-0.30587152,1.7777257,-0.07742717,1.590235,-6.610936
132,1778317044.324627,-3.4877644,0.09140777,0.9115166,-0.2773328,1.3242031,-5.339573
133,1778317044.334687,-3.2512262,0.32093337,0.31227434,-1.7087429,0.4008803,-4.512767
134,1778317044.3442934,-2.9493794,0.37209487,-0.006768687,-3.8127155,-1.2760975,-3.8664715
135,1778317044.354293,-2.5422215,0.21037814,0.22519606,-3.8127155,-1.2760975,-3.8664715
136,1778317044.3643098,-2.0295696,-0.042441502,0.80394936,-9.2216215,-6.3869014,-1.7641789
137,1778317044.3746002,-1.5931418,-0.1589727,1.3931301,-9.2216215,-6.3869014,-1.7641789
138,1778317044.38464,-0.95883644,0.15567982,2.6938157,-8.872359,-6.11583,-1.6439911
139,1778317044.3942711,-0.95883644,0.15567982,2.6938157,-8.872359,-6.11583,-1.6439911
140,1778317044.4044056,-0.8537083,0.45959997,3.1162186,-7.4030757,-5.5513906,-1.8845193
141,1778317044.414244,-0.8841979,0.52179873,3.15244,-5.899431,-5.4857225,-1.9992093
142,1778317044.424164,-1.1143333,1.1038449,3.0657887,-3.9135082,-5.2984924,-2.147955
143,1778317044.4345846,-1.16769,1.1987286,3.0934732,-2.7719538,-4.878217,-2.2719605
144,1778317044.44437,-1.3857516,1.4208146,3.1450007,-1.4688255,-4.3756275,-2.5098925
145,1778317044.4542177,-1.3857516,1.4208146,3.1450007,0.11453723,-4.0057487,-2.460107
146,1778317044.4643743,-2.0240204,1.4852697,2.81864,1.4523321,-3.5805867,-2.1143572
147,1778317044.4744134,-2.0916464,1.273123,2.6183846,2.4611762,-2.6422975,-1.7701348
148,1778317044.4844177,-2.277938,1.2052532,2.531977,3.3382258,-1.2592987,-1.680643
149,1778317044.4945142,-2.5778332,1.232389,2.4870963,4.01369,0.027641652,-1.5674802
150,1778317044.5043478,-3.1532938,1.2812942,2.397274,4.5454483,1.2707524,-1.231657
151,1778317044.5146978,-3.9101672,1.2664763,2.3346484,4.6190577,1.2927436,-0.5225952
152,1778317044.5245495,-4.4633093,1.2072046,2.3567839,4.387845,0.4802928,0.41141775
153,1778317044.5346136,-4.862052,0.8940156,2.4681928,3.827987,-1.2255484,2.166739
154,1778317044.5447106,-4.8477826,0.6601605,2.5430753,3.5789068,-1.9106338,2.9914072
155,1778317044.5546649,-4.7007623,0.22293983,2.742965,3.382208,-2.3580925,4.048204
156,1778317044.5642369,-4.6088057,-0.14000817,3.032738,3.5107954,-2.0780108,4.7190866
157,1778317044.5745196,-4.5480094,-0.47563753,3.3096445,3.7901134,-1.6001616,5.243667
158,1778317044.5841956,-4.525691,-0.75089747,3.5608785,4.0280457,-1.0393872,5.787643
159,1778317044.594529,-4.274091,-1.106284,3.9736464,4.137696,-0.61208695,6.17035
160,1778317044.6041737,-3.9037032,-1.3995328,4.39983,4.3446264,-0.51083606,6.230978
161,1778317044.6145885,-3.779367,-1.615826,4.71869,4.9614477,-1.0273226,5.8455224
162,1778317044.6245973,-3.7842453,-1.7813845,4.8623567,5.788254,-1.4818064,5.454874
163,1778317044.6343548,-3.7915628,-1.8894395,4.765583,7.061297,-1.6140587,5.2274795
164,1778317044.6444793,-3.626858,-1.920356,4.593256,8.026922,-1.3423764,5.301089
165,1778317044.6545882,-2.9371836,-1.8792561,4.1699996,8.954674,-0.6791294,5.475796
166,1778317044.6643758,-2.3101957,-1.8243138,3.7725983,8.954674,-0.6791294,5.475796
167,1778317044.674623,-1.9504187,-1.8087641,3.4692876,9.451001,0.5707009,5.4739633
168,1778317044.6841397,-1.5618594,-1.8721216,3.1957352,9.038973,0.643852,5.214346
169,1778317044.6947055,-1.2508047,-2.0229838,3.1327438,8.82349,0.52824575,4.989853
170,1778317044.7046347,-1.2255594,-2.0435948,3.1191454,8.859989,0.4083634,4.668385
171,1778317044.71421,-1.0852462,-2.1118305,3.061764,9.103877,0.52626044,4.432591
172,1778317044.7242353,-0.9636538,-2.1297584,2.933342,9.64541,0.9653198,4.0869937
173,1778317044.734168,-0.94066465,-2.130551,2.7304032,10.3634815,1.6453656,3.9655845
174,1778317044.7446532,-0.91480947,-2.1407347,2.5162444,11.108432,2.7521007,4.0963097
175,1778317044.7545495,-0.8716362,-2.1186602,2.3759923,11.494193,3.565315,4.2465825
176,1778317044.7641413,-0.89364964,-2.0118248,1.9762738,11.762057,4.754975,4.5769076
177,1778317044.7742832,-1.0489026,-1.9418817,1.6049107,11.117747,4.8789806,4.9411364
178,1778317044.7845628,-1.0426219,-1.8562669,1.475452,10.108598,4.6179886,5.25451
179,1778317044.7943256,-0.9595682,-1.7111975,1.6371686,8.602357,3.9440515,5.30735
180,1778317044.8043914,-1.0534761,-1.6599139,1.8721216,7.2714343,2.916118,5.028032
181,1778317044.8143258,-1.0990885,-1.6868666,2.01091,6.517932,2.0357084,4.8484373
182,1778317044.8246748,-1.0765262,-1.7609563,2.1865299,6.1399593,1.35551,4.7364964
183,1778317044.8345625,-0.9620073,-1.8796829,2.253485,6.3459735,1.4208726,4.6688433
184,1778317044.844206,-0.8266336,-1.917368,2.172017,6.73708,1.8883371,4.6288314
185,1778317044.8549142,-0.7010775,-1.890781,2.0524979,7.251887,2.64917,4.569272
186,1778317044.864375,-0.5702772,-1.8293141,1.8991352,7.607563,3.2750013,4.5017715
187,1778317044.8745255,-0.57857037,-1.76492,1.4235586,7.8164787,4.2817073,4.1383066
188,1778317044.8843434,-0.57857037,-1.76492,1.4235586,7.8164787,4.2817073,4.1383066
189,1778317044.8944724,-0.5524712,-1.7027214,1.1435424,7.4151406,4.3592873,4.009414
190,1778317044.9043477,-0.44130626,-1.6572919,0.84053683,6.746243,4.2907176,3.9025126
191,1778317044.9143405,-0.34386152,-1.7147342,0.6450986,5.9728875,4.266588,3.8547125
192,1778317044.9245572,-0.17427845,-1.8390096,0.6139383,4.9419,4.2082505,3.8098137
193,1778317044.9346437,0.052990895,-1.9862745,0.6457084,4.0621014,3.8458548,3.6322048
194,1778317044.9441502,0.2860533,-2.1726267,0.6816861,3.479183,3.4072535,3.329521
195,1778317044.9546971,0.5871074,-2.3098297,0.77766734,3.0641,2.9787316,2.919325
196,1778317044.9645655,1.1664095,-2.373675,0.5095419,2.6537514,1.7980819,1.3002267
197,1778317044.9746242,1.1664095,-2.373675,0.5095419,2.6537514,1.7980819,1.3002267
198,1778317044.9841473,1.2345233,-2.3636746,0.16397297,2.2679899,1.1297953,0.46395215
199,1778317044.9941819,1.3302605,-2.3387952,-0.22373258,1.7269161,0.41554108,-0.09941832
200,1778317045.0042481,1.5723479,-2.2003112,-0.6340614,1.1149818,-0.2733622,-0.46914452
201,1778317045.0143087,1.7111975,-2.1857371,-0.9485919,0.52595496,-0.66599584,-0.8026769
202,1778317045.024717,1.9087089,-2.382456,-1.3949594,-0.9645562,-1.0467176,-1.4952455
203,1778317045.0342019,1.9513334,-2.40075,-1.4300225,-1.1362094,-1.1104003,-1.58321
204,1778317045.0443764,1.9920064,-2.4274588,-1.4801472,-1.8012888,-1.3168727,-1.9758437
205,1778317045.054646,1.8893784,-2.4127018,-1.4673417,-2.3625214,-1.3277156,-2.2476788
206,1778317045.0645149,1.7994342,-2.3845294,-1.334651,-2.8345675,-1.2392929,-2.3651175
207,1778317045.0744488,1.7821771,-2.3458686,-1.1695803,-2.988811,-1.144456,-2.424677
208,1778317045.0846505,1.7923607,-2.244704,-1.074209,-2.964529,-1.077719,-2.4691174
209,1778317045.0941548,1.867365,-2.1909206,-1.0640255,-2.860682,-1.0639745,-2.6314547
210,1778317045.104274,1.9276125,-2.1857371,-1.0905514,-2.9382617,-1.2244794,-3.0179799
211,1778317045.114327,1.9287101,-2.0537782,-1.0729895,-3.173903,-1.5166256,-3.4556646
212,1778317045.1242921,1.6444862,-1.9055381,-0.88078314,-3.6222782,-2.1432207,-4.0274343
213,1778317045.1345787,1.586312,-1.9105992,-0.83767086,-4.22001,-3.0039299,-4.621501
214,1778317045.1442726,1.279282,-1.9100505,-0.60723054,-4.7378707,-3.6682458,-5.1584516
215,1778317045.154609,0.822426,-1.8862077,-0.24934383,-5.192813,-4.139681,-5.661194
216,1778317045.1647196,0.21885422,-1.8695604,0.27233297,-5.2816935,-4.150371,-6.2992425
217,1778317045.174198,-0.21982989,-1.8379121,0.7774234,-5.2816935,-4.150371,-6.2992425
218,1778317045.1842122,-0.5565569,-1.7949828,1.226657,-4.8437033,-3.940081,-6.561151
219,1778317045.1942227,-0.8423662,-1.6975992,1.6314367,-4.3371434,-3.9863539,-6.7535734
220,1778317045.2044249,-1.038902,-1.5932027,1.8466932,-3.801109,-4.2954516,-6.8520756
221,1778317045.2142074,-1.129944,-1.5546639,1.8383389,-3.536299,-4.6373835,-6.9682927
222,1778317045.2243924,-1.2578174,-1.498685,1.7265031,-3.5920403,-5.066058,-7.1714053
223,1778317045.234374,-1.3888005,-1.3850808,1.6927818,-4.0682096,-5.4122663,-7.251276
224,1778317045.2442112,-1.4697199,-1.2259862,1.7542487,-4.5793514,-5.477476,-7.1854553
225,1778317045.2546775,-1.4732567,-1.1553113,1.8157157,-5.240613,-5.260466,-6.9817314
226,1778317045.2643218,-1.4628903,-1.1828738,2.0909758,-5.75206,-4.7433686,-6.710813
227,1778317045.2743795,-1.4011183,-1.4786838,2.4861815,-6.1850104,-3.8183658,-6.4887633
228,1778317045.284487,-1.3029419,-1.7791891,2.8447392,-6.288094,-3.0972395,-6.5270953
229,1778317045.2945232,-1.5090514,-2.0178616,3.3947103,-6.0930753,-2.52043,-6.871318
230,1778317045.3042586,-1.5090514,-2.0178616,3.3947103,-5.75038,-2.107638,-7.339088
231,1778317045.3145509,-1.9094406,-2.0452414,3.5250227,-5.156619,-1.9581286,-7.8242674
232,1778317045.3244333,-2.309952,-1.9501138,3.4964845,-4.42297,-2.220037,-7.9681263
233,1778317045.3343844,-2.5202081,-1.8147401,3.3466587,-3.8531852,-2.325564,-7.8413715
234,1778317045.3444746,-2.67601,-1.654365,3.0692644,-3.307377,-2.2134702,-7.5370083
235,1778317045.3544369,-2.7060115,-1.5304551,2.7440624,-2.9695687,-2.154827,-7.27006
236,1778317045.364446,-2.7247932,-1.4658172,2.5367944,-2.8480065,-2.223855,-7.1799574
237,1778317045.374454,-2.8410804,-1.3647138,2.0704868,-2.7786732,-2.7096455,-7.1095552
238,1778317045.384523,-3.0941439,-1.2067168,1.3357487,-3.5509596,-3.6780195,-6.673092
239,1778317045.3943043,-3.1001809,-1.1919597,1.2770867,-3.7189476,-3.716504,-6.578866
240,1778317045.4042356,-3.020908,-1.129822,1.1491524,-4.4962735,-3.7285688,-6.188676
241,1778317045.4144166,-2.956697,-0.91352886,1.2274497,-5.3904276,-3.6259434,-5.7370934
242,1778317045.4244103,-3.0406044,-0.49582162,1.3387367,-5.8044415,-3.41886,-5.1213417
243,1778317045.4342132,-2.965234,-0.18123008,1.2884898,-5.832694,-3.3018794,-4.660444
244,1778317045.4442868,-2.8141274,0.107628234,1.1870205,-5.9127173,-3.5488217,-4.3675337
245,1778317045.454407,-2.8762655,0.611682,1.1400665,-5.96739,-3.9177842,-4.095088
246,1778317045.46451,-2.939074,0.92877364,1.0871977,-6.0255747,-4.4064765,-3.4449747
247,1778317045.474446,-2.7793694,1.314284,1.0620742,-5.952271,-4.4118214,-2.601217
248,1778317045.4844766,-2.5421605,1.5377117,1.197021,-5.5052705,-3.566384,-1.9191859
249,1778317045.4946504,-2.4238,1.7749816,1.4316078,-4.8792863,-2.54685,-1.6881261
250,1778317045.5046377,-2.5856998,1.9983484,1.7717497,-3.7129917,-1.3997977,-1.7203492
251,1778317045.5146062,-3.202504,2.0962808,1.7904702,-2.3472497,-0.6795876,-1.7835737
252,1778317045.5243258,-3.7923553,2.2097023,1.630461,-1.1774428,-0.3193298,-1.5219707
253,1778317045.534451,-4.6043544,2.4095309,1.38441,-0.6406449,-0.12034045,-0.9633345
254,1778317045.5445006,-5.3381777,2.6090548,1.3304435,-0.52626044,-0.13347405,0.4810564
255,1778317045.5541527,-5.649232,2.5750892,1.6577187,-0.689056,-0.59849524,1.6895006
256,1778317045.5641916,-5.666672,2.4602656,2.0332284,-0.71929383,-1.2281445,2.8612928
257,1778317045.5743182,-5.479954,2.013715,2.7682104,-0.44944412,-1.8668042,3.992157
258,1778317045.5859606,-4.927117,1.0986006,3.1590257,0.49449542,-2.284636,5.242598
259,1778317045.5943506,-4.454894,0.36428955,3.1043274,1.564426,-2.3461807,5.4492235
260,1778317045.6045625,-4.368304,0.15519199,3.011517,2.4037547,-2.1174116,5.4638844
261,1778317045.6141741,-4.410501,0.24958774,3.0348113,3.1111367,-1.093296,5.6442423
262,1778317045.6245365,-4.5530095,0.27221102,3.2822645,3.57066,0.110872045,5.9695277
263,1778317045.6345828,-4.708689,0.10634767,3.538438,3.9061778,0.6620252,6.327037
264,1778317045.6442153,-4.7841206,-0.2206836,3.699545,4.284303,0.678824,6.7529626
265,1778317045.6544151,-4.7804008,-0.479967,3.6950936,4.6433396,0.36636642,7.155981
266,1778317045.664431,-4.6901517,-0.59351027,3.6625307,4.9179235,0.25809056,7.6504765
267,1778317045.6744251,-4.511178,-0.6600385,3.6441152,5.0013065,0.22876903,7.887492
268,1778317045.6842284,-4.139693,-0.7000409,3.5913682,4.99871,0.08353582,8.0545635
269,1778317045.6942892,-3.734852,-0.62131673,3.4757516,4.9512157,-0.30268374,7.821824
270,1778317045.704676,-3.541792,-0.6135114,3.3270233,5.010317,-0.64751714,7.622529
271,1778317045.714596,-3.1457324,-0.7428482,3.1163404,5.1612005,-0.9810496,7.449349
272,1778317045.7243118,-2.531916,-1.0255476,2.9902356,5.3788214,-0.93202764,7.2961745
273,1778317045.7346394,-1.8738898,-1.2812333,2.9618802,5.791308,-0.54137933,7.021285
274,1778317045.7441535,-1.1699463,-1.4584998,2.8382144,6.337727,-0.17516561,6.529233
275,1778317045.7541468,-1.0064611,-1.4558166,2.493926,6.9844804,0.14538592,5.8997364
276,1778317045.7642105,-1.0529273,-1.5178934,2.0968907,7.125896,0.1600467,5.6944857
277,1778317045.774369,-0.9832891,-1.6180212,1.7823601,6.910566,0.052687127,5.6607356
278,1778317045.7844841,-0.7720573,-1.6611944,1.6832079,6.5066314,0.0047342055,5.5362716
279,1778317045.7942252,-0.64259845,-1.7024165,1.811508,6.400493,0.08093964,5.202434
280,1778317045.804411,-0.6202801,-1.7701032,1.917307,6.6863785,0.23533584,4.704426
281,1778317045.814482,-0.6008277,-1.8418148,1.9270637,7.2233286,0.61758476,4.245361
282,1778317045.8247476,-0.5443001,-1.8346193,1.8341923,7.8700824,1.1334605,3.9220603
283,1778317045.8346024,-0.538568,-1.6494255,1.5421022,8.17353,1.3874277,3.6131153
284,1778317045.8444717,-0.66369724,-1.5036852,1.2725742,7.8754272,1.313513,3.4292448
285,1778317045.8545716,-0.8921862,-1.3020881,1.1706171,7.243335,1.1039863,3.370449
286,1778317045.8646297,-1.0065222,-1.1945208,1.2734889,6.426455,0.6954701,3.4680347
287,1778317045.874629,-0.95115304,-1.2453775,1.4937457,5.8545327,0.35308012,3.626096
288,1778317045.8846035,-0.77358174,-1.3220893,1.7236981,5.6469913,0.3118467,3.6581664
289,1778317045.8946652,-0.4913701,-1.580824,2.124941,5.9353194,0.5871942,3.44696
290,1778317045.9045224,-0.4616733,-1.6262534,2.1227458,6.123771,0.46593747,3.3486106
291,1778317045.9143848,-0.21684194,-1.797117,2.0585957,6.1318655,0.40973786,3.3169982
292,1778317045.9244266,0.0512225,-1.8140693,1.9400523,6.0736804,0.13561209,3.0825787
293,1778317045.9346547,0.26458862,-1.7288814,1.7526631,5.8664446,-0.08093964,2.666427
294,1778317045.9445949,0.32507995,-1.6583894,1.5505173,5.6469913,-0.02275473,2.3787093
295,1778317045.9546254,0.21525647,-1.6001543,1.3386757,5.2404604,0.21029036,2.1719313
296,1778317045.9644105,0.112140685,-1.6332661,1.1186628,4.670981,0.6238461,2.2101104
297,1778317045.9744253,0.043600105,-1.8585231,0.9340789,4.121966,0.893085,2.3834434
298,1778317045.984414,0.07360186,-2.090183,0.8220601,3.2982142,0.77304995,2.6435194
299,1778317045.9944835,0.152204,-2.37959,0.69132084,2.404671,0.10064005,2.8150198
300,1778317046.0042236,0.2534904,-2.760161,0.655831,1.6930131,-0.8332202,2.8715248
301,1778317046.014692,0.5284454,-3.0601785,0.48082075,1.4176655,-1.7912096,2.8044822
302,1778317046.0245607,0.82071865,-3.1775024,0.237087,1.3183999,-2.3385448,2.5239425
303,1778317046.0346336,1.1775078,-3.2605562,-0.06451596,1.24082,-2.6163359,1.8246545
304,1778317046.0441859,1.3866053,-3.248848,-0.4484408,1.2770138,-2.520888,0.75945824
305,1778317046.0543036,1.3866053,-3.248848,-0.4484408,1.2770138,-2.520888,0.75945824
306,1778317046.0646992,1.1020765,-3.1688435,-1.0137787,1.1429288,-1.6097827,-0.8923214
307,1778317046.0743735,0.6417448,-2.9932234,-1.2872093,0.7819075,-0.6133087,-1.8750509
308,1778317046.0846887,0.32648247,-2.8718138,-1.4073992,0.453262,-0.26908615,-2.4743097
309,1778317046.0942388,0.018049834,-2.7866259,-1.5331992,0.047647487,-0.5439755,-3.1005993
310,1778317046.1047935,-0.649733,-2.4628265,-1.8540715,-1.0627528,-1.7411187,-3.7659843
311,1778317046.1143277,-0.68040556,-2.400445,-1.8749874,-1.2144,-1.8519907,-3.7754526
312,1778317046.1247132,-0.7052851,-2.1443934,-1.9250513,-2.4066563,-2.4419339,-3.7212384
313,1778317046.1347215,-0.7016263,-1.8182158,-1.9191364,-2.4066563,-2.4419339,-3.7212384
314,1778317046.144217,-0.7243106,-1.5764945,-1.9188924,-2.8878655,-2.4478898,-3.7244453
315,1778317046.1545842,-0.77858204,-1.3761169,-1.890964,-3.2475123,-2.4920247,-3.8101192
316,1778317046.1643293,-0.84346384,-1.1307367,-1.8482176,-3.6528215,-2.7068965,-3.9278636
317,1778317046.1743762,-0.7838262,-0.93157876,-1.6951598,-4.0559926,-3.0448577,-4.0570617
318,1778317046.1843455,-0.85498893,-0.67906404,-1.3022101,-4.5732427,-3.6677876,-4.857295
319,1778317046.1943016,-0.85498893,-0.67906404,-1.3022101,-4.5732427,-3.6677876,-4.857295
320,1778317046.204587,-1.741382,-0.48283303,-0.9568241,-4.6847258,-3.7617083,-5.565746
321,1778317046.2143927,-1.8691335,-0.43959883,-0.91688275,-4.646852,-3.6522105,-5.5885005
322,1778317046.2242625,-2.3810537,-0.2133661,-0.8374269,-4.4710755,-2.951548,-5.5550556
323,1778317046.2344337,-3.067069,0.048051585,-0.7582759,-4.5871396,-1.7369953,-5.13814
324,1778317046.24417,-3.1074984,0.21946402,-0.44337955,-5.1341696,-0.50411654,-4.5474334
325,1778317046.254555,-2.9824913,0.15641156,0.019269416,-5.868277,-0.3277292,-4.439769
326,1778317046.2646437,-3.038775,-0.14500846,0.6805885,-7.0454144,-1.5128077,-4.69847
327,1778317046.2745397,-3.1175601,-0.3139817,1.5273452,-8.078999,-3.2120821,-4.93854
328,1778317046.2844396,-3.0717037,-0.2757478,2.010849,-8.329453,-3.9019017,-4.981301
329,1778317046.2945893,-2.9751737,-0.14177656,2.5067315,-7.5551815,-3.4093916,-4.4060183
330,1778317046.3042886,-2.4922185,-0.22178122,2.004812,-7.1840806,-2.4859161,-3.9452732
331,1778317046.3142662,-2.3977618,-0.23855051,1.9032208,-7.180874,-2.2918136,-3.8741074
332,1778317046.3242228,-1.896574,-0.36105764,1.7005872,-7.4010906,-1.505172,-3.7517817
333,1778317046.3343692,-1.3397123,-0.7959611,2.0469487,-7.732638,-0.65316767,-4.178471
334,1778317046.3444593,-1.0528053,-1.1801908,2.5310621,-7.5629697,0.23900102,-5.029406
335,1778317046.3543496,-0.96505636,-1.1865326,2.696255,-7.069085,0.6765333,-5.8629317
336,1778317046.3643699,-1.1614702,-0.8305972,2.6819248,-6.3907194,0.52656585,-6.7422724
337,1778317046.3742623,-1.4735616,-0.439111,2.5763087,-6.0645175,0.20326541,-7.0070825
338,1778317046.384376,-1.5463707,-0.29379764,2.470083,-6.040999,-0.118202426,-6.734026
339,1778317046.394427,-1.2987343,-0.18019344,2.2209222,-6.402326,-1.2072225,-5.8174224
340,1778317046.4043632,-0.5025903,-0.13098325,2.0036535,-7.044956,-2.1962132,-5.349805
341,1778317046.4143543,-0.5025903,-0.13098325,2.0036535,-7.799833,-2.8754954,-5.0739994
342,1778317046.4243991,-0.29715148,-0.021098793,2.2531803,-8.15383,-2.9830077,-4.704273
343,1778317046.434269,0.05366167,-0.03292875,2.4831936,-8.100684,-2.8915308,-4.4553456
344,1778317046.4446044,0.052381106,-0.09409086,2.53777,-7.447058,-2.6212227,-4.6491427
345,1778317046.4545321,-0.0866514,-0.073175006,2.437947,-6.5947485,-2.218357,-4.8936415
346,1778317046.464597,-0.42545164,0.078663126,2.0414605,-5.370116,-1.5167783,-5.0549097
347,1778317046.47448,-0.6736979,0.12592198,1.7792501,-4.816978,-0.84421575,-5.015051
348,1778317046.4845514,-0.86864823,0.104945146,1.6998553,-4.5779767,-0.4335616,-4.9695415
349,1778317046.4944918,-1.1334198,0.082016975,1.6849765,-4.3860126,-0.10369437,-5.004208
350,1778317046.5043528,-2.1417713,0.68339354,2.0052388,-3.7371209,0.35353827,-5.362786
351,1778317046.5143476,-2.1417713,0.68339354,2.0052388,-2.713158,0.45631635,-5.6227093
352,1778317046.5242069,-3.021396,1.071343,1.8634014,-1.9727893,0.10048734,-5.34782
353,1778317046.5346675,-3.582221,1.5597861,1.4835012,-1.4950926,-0.56596667,-4.1618247
354,1778317046.544629,-3.582221,1.5597861,1.4835012,-1.4799738,-0.9940305,-2.8542678
355,1778317046.5545845,-3.0656056,1.7172954,1.3139181,-1.8501581,-1.5816828,-1.5900823
356,1778317046.5646896,-2.8588254,1.6952208,2.0043242,-2.6400068,-2.3345742,-0.7470882
357,1778317046.5746481,-2.9634047,1.6833909,2.1334171,-2.617405,-2.385276,-0.6614143
358,1778317046.5842814,-3.2413478,1.6571089,2.452765,-2.214081,-2.7331638,-0.04428773
359,1778317046.59449,-3.4136748,1.5244792,2.6970477,-0.20952678,-3.4651332,1.5451837
360,1778317046.6042993,-3.3511102,1.2314743,2.6936328,-0.20952678,-3.4651332,1.5451837
361,1778317046.6144433,-3.3172057,0.9831671,2.5783212,1.075581,-3.5074356,1.9559906
362,1778317046.6246371,-3.383124,0.7560197,2.5508194,1.8842138,-3.5031595,2.1578815
363,1778317046.6343355,-3.5669155,0.5177741,2.391542,2.816547,-3.5155294,2.4178047
364,1778317046.644512,-3.840651,0.3117255,2.227752,3.4028249,-3.361897,2.7267497
365,1778317046.6543727,-4.1862807,0.04524654,2.0002387,3.8502836,-3.0279064,3.2447634
366,1778317046.6643467,-4.671797,-0.13915445,1.9270025,3.9739838,-2.6273315,3.8906007
367,1778317046.6748273,-4.982059,-0.28757775,1.9907259,3.957185,-2.4361305,4.550488
368,1778317046.6844702,-5.181339,-0.40715793,2.0642667,3.768733,-2.8055513,5.402645
369,1778317046.6946359,-5.335006,-0.52997,2.0942686,3.465744,-3.5842519,6.0322943
370,1778317046.704716,-5.048221,-0.7567515,2.0674376,2.9232957,-4.9577823,6.613685
371,1778317046.7142148,-4.574596,-0.9080408,2.2582417,2.4894285,-5.96571,6.745938
372,1778317046.7247424,-4.0320644,-1.09793,2.9866986,2.744312,-5.901722,6.191119
373,1778317046.7342277,-3.9684632,-1.1193945,3.0687156,2.8758008,-5.7949734,6.112623
374,1778317046.7442677,-3.656189,-1.2281204,3.410748,3.5295794,-5.3268976,5.754045
375,1778317046.75467,-3.2536047,-1.340627,3.7058258,4.5222354,-4.707022,5.121036
376,1778317046.7645211,-2.9171214,-1.4840499,3.900715,5.630345,-4.171446,4.424039
377,1778317046.7746844,-2.7143657,-1.5818605,3.8834584,6.581615,-3.9591703,3.8788416
378,1778317046.7844827,-2.4644122,-1.5738113,3.6223454,7.615199,-3.6613736,3.3938146
379,1778317046.7944903,-2.2490947,-1.5146616,3.3273282,8.248972,-3.2255213,3.143207
380,1778317046.8043087,-1.891147,-1.5006973,2.9279149,8.826086,-2.549446,2.9405525
381,1778317046.8142715,-1.5025266,-1.5744212,2.5563688,9.228341,-1.952478,2.7394252
382,1778317046.824399,-1.1786664,-1.615948,2.181347,9.542326,-1.3765849,2.4839308
383,1778317046.8344953,-0.963227,-1.5883853,1.917246,9.753075,-0.8208502,2.3000603
384,1778317046.8442252,-0.8846248,-1.4942945,1.504661,9.948246,-0.04337143,2.1116085
385,1778317046.85469,-0.89444244,-1.4744763,1.2426335,9.862572,0.344528,2.1749856
386,1778317046.8647192,-0.93042016,-1.4602681,1.021645,9.59089,0.6041457,2.3871086
387,1778317046.8744087,-0.9673125,-1.3933129,0.79486346,9.033781,0.77350813,2.805704
388,1778317046.8846385,-0.8709654,-1.3545913,0.67046595,8.4614,0.79168135,3.1945198
389,1778317046.8945606,-0.72260314,-1.352701,0.66820973,7.562512,0.7386888,3.6688566
390,1778317046.9045887,-0.5200913,-1.352396,0.79894906,7.052134,0.7678576,3.8492146
391,1778317046.9142928,-0.35874045,-1.3892884,0.994997,6.6723285,1.0135782,3.9591703
392,1778317046.9244833,-0.19062088,-1.4511822,1.1779956,6.5547366,1.4645494,3.9785655
393,1778317046.9345837,-0.07378479,-1.472281,1.3451395,6.5469484,1.9219347,3.8331795
394,1778317046.9447162,-0.12067777,-1.4611218,1.3832514,6.4898324,2.1474967,3.6490035
395,1778317046.9546134,-0.21470766,-1.4539872,1.3512374,6.1576743,2.0835087,3.4933856
396,1778317046.964474,-0.27123535,-1.3573962,1.328675,5.557652,1.6067283,3.362355
397,1778317046.9741702,-0.29215118,-1.2889166,1.4302053,5.0187163,1.1068878,3.249345
398,1778317046.9846952,-0.34648362,-1.2489144,1.5719819,4.5804205,0.808022,3.1396947
399,1778317046.9941623,-0.40404797,-1.243975,1.888159,4.3576074,0.68951416,3.0816624
400,1778317047.004569,-0.48984566,-1.3631893,2.105306,4.489554,0.68951416,3.0931163
401,1778317047.014548,-0.5049075,-1.5658841,2.0209715,4.7284026,0.743423,3.1758883
402,1778317047.0241544,-0.4997243,-1.5832021,1.9869453,4.877759,0.7632761,3.2372804
403,1778317047.0341456,-0.49466303,-1.6619263,1.8094349,5.0368896,0.7147123,3.2866077
404,1778317047.0441597,-0.46453932,-1.7486386,1.4583168,5.033835,0.5888741,3.2407928
405,1778317047.054478,-0.34428838,-1.691501,1.0024976,4.457178,0.07360926,2.9593368
406,1778317047.0641756,-0.1381788,-1.3128206,0.2022679,4.3544,-0.004428773,2.951701
407,1778317047.0742466,-0.1381788,-1.3128206,0.2022679,3.9353466,-0.31474832,2.9949195
408,1778317047.0844142,-0.0140252095,-1.1834227,-0.257515,3.3600643,-0.5571091,3.179401
409,1778317047.0947266,0.13183697,-1.2238518,-0.62192655,2.7719538,-0.6611089,3.2679763
410,1778317047.1044137,0.24830718,-1.3516642,-0.9090165,2.024102,-0.7377725,3.2142203
411,1778317047.1142595,0.38014415,-1.4561216,-0.898833,1.002888,-0.5884159,2.7962356
412,1778317047.1246684,0.24727054,-1.5671036,-0.775777,0.8361218,-0.08277224,2.0937407
413,1778317047.1345458,0.09762765,-1.615826,-0.8380368,1.1337659,0.14385876,1.6858354
414,1778317047.1444457,0.060369372,-1.6302781,-1.1221997,1.897042,-0.1966986,1.4173601
415,1778317047.154523,0.12104365,-1.6547307,-1.7382721,2.5665503,-1.0491611,1.3096951
416,1778317047.164274,0.35837457,-1.6742442,-2.3449538,2.726597,-1.8168659,1.3026701
417,1778317047.1746175,0.7843141,-1.6296073,-3.2311032,2.2608123,-2.7719538,1.0862712
418,1778317047.1844795,1.2039727,-1.5181373,-3.8830316,0.9069822,-3.3588426,0.5674938
419,1778317047.1946683,1.3128206,-1.422766,-3.9312658,-0.7425067,-3.0863967,-0.12492194
420,1778317047.2043293,1.1856179,-1.3314191,-3.5389872,-1.4842498,-2.515085,-0.45845437
421,1778317047.2144833,0.9734714,-1.2580001,-2.2786086,-1.5210545,-0.5395467,-1.0404562
422,1778317047.224588,1.1683608,-1.2731841,-2.2028115,-0.79549927,-0.1337795,-1.434617
423,1778317047.2343457,1.3411758,-1.2416579,-2.3039148,-0.49571714,-0.12721269,-2.0103576
424,1778317047.2444823,1.3148938,-1.2076924,-2.4231293,-0.46883908,-0.14767668,-2.182927
425,1778317047.2544103,1.3148938,-1.2076924,-2.4231293,-0.4642576,-0.18555032,-2.8900034
426,1778317047.264635,1.0649402,-1.1875083,-2.4052014,-0.64950246,-0.25060746,-3.6581664
427,1778317047.2745628,0.5984496,-1.1820202,-2.2549486,-0.9036224,-0.29458976,-4.1703773
428,1778317047.2842085,0.5780825,-1.1872644,-2.2318985,-1.1435398,-0.32375857,-4.402506
429,1778317047.2942533,0.5439342,-1.2428164,-2.1363442,-1.560608,-0.29810223,-4.6668577
430,1778317047.304397,0.59832764,-1.5124053,-1.7632736,-1.8096883,-0.10995574,-5.034446
431,1778317047.3141944,0.7454703,-1.9401742,-1.3039175,-1.6617062,0.23136522,-5.911954
432,1778317047.3247123,0.8341341,-2.3600767,-0.9888382,-0.97020674,-0.45845437,-8.39787
433,1778317047.3341515,0.7033947,-2.6175916,-1.0228037,-1.0210613,-0.7142542,-8.610451
434,1778317047.3442678,0.5291162,-2.6827786,-1.1472621,-1.6348281,-1.9921843,-9.307754
435,1778317047.3546655,-0.20586567,-2.5647838,-1.1250657,-3.2291863,-3.2837062,-9.67351
436,1778317047.3642118,-0.75461715,-2.2944021,-0.7882777,-4.5967607,-3.4016032,-9.291413
437,1778317047.3745475,-1.1451888,-2.040241,0.020489,-5.8076487,-2.5810583,-8.3874855
438,1778317047.3842702,-1.4180706,-2.025606,0.8497447,-6.528622,-1.6783522,-7.809912
439,1778317047.3943737,-1.7326621,-2.0737796,1.4829525,-6.9382076,-1.3871223,-7.603287
440,1778317047.4044118,-2.0387776,-2.0088975,2.1582355,-7.1358223,-1.5259414,-7.382459
441,1778317047.4143932,-2.2828772,-1.4711224,3.4992287,-6.369034,-3.5891387,-6.481433
442,1778317047.4241467,-2.2828772,-1.4711224,3.4992287,-6.369034,-3.5891387,-6.481433
443,1778317047.4341593,-2.350259,-1.086283,3.7356446,-5.5492525,-4.523152,-6.0768876
444,1778317047.444249,-2.6310072,-0.6504038,3.7808914,-4.7897944,-4.7557387,-5.5284834
445,1778317047.454646,-2.7053409,-0.3468495,3.7622316,-4.1690025,-4.3898306,-4.717865
446,1778317047.464191,-2.5195372,-0.08622454,3.8262599,-3.7331502,-4.049273,-4.11769
447,1778317047.4742,-2.184152,0.010915271,3.8375409,-3.1245756,-3.8771617,-3.765068
448,1778317047.484624,-1.9089528,0.041038983,3.6732633,-2.4888177,-3.9121337,-3.6512942
449,1778317047.4941866,-1.7392478,0.07323598,3.5258763,-2.0636556,-3.9936843,-3.5934148
450,1778317047.504214,-1.3454443,0.16098501,2.9795032,-1.2104294,-4.2917867,-3.4271069
451,1778317047.5142303,-1.0462196,0.20184104,2.4990482,-0.8006916,-4.4727554,-3.2965343
452,1778317047.5246968,-0.67205137,0.18690115,1.923222,-0.590554,-4.589736,-3.2594242
453,1778317047.5341709,-0.39313272,0.10207913,1.4997827,-0.69043046,-4.6097417,-3.3834298
454,1778317047.5444639,-0.18708408,-0.0031709166,1.226474,-0.9068295,-4.551099,-3.5880697
455,1778317047.5545952,-0.058052167,-0.08750511,1.0257916,-1.1010846,-4.318359,-3.8266127
456,1778317047.5641985,-0.017257104,-0.128788,0.90602845,-1.2168436,-3.9574904,-4.020868
457,1778317047.5745604,-0.026647896,-0.17555903,0.763947,-1.3151928,-3.4917057,-4.213443
458,1778317047.5843027,-0.19104773,-0.1967188,0.6605873,-1.4387404,-3.0853276,-4.312556
459,1778317047.594622,-0.31629896,-0.18720604,0.61296254,-1.54442,-2.8828259,-4.2847614
460,1778317047.604707,-0.5893027,-0.13506886,0.58637565,-1.7661642,-2.6720774,-4.0825653
461,1778317047.6144154,-0.85523283,-0.10092052,0.6422936,-2.0169244,-2.7861564,-3.7905715
462,1778317047.6244686,-1.1192727,-0.06823569,0.78608245,-2.0169244,-2.7861564,-3.7905715
463,1778317047.634288,-1.7605907,0.081468165,1.1078086,-2.3490822,-4.104709,-3.196047
464,1778317047.644449,-2.6748512,0.39654753,1.4041063,-2.1241312,-5.289024,-2.254398
465,1778317047.6543803,-3.1138403,0.5899125,1.4646586,-1.7511979,-6.340934,-1.1527027
466,1778317047.6642017,-3.1932352,0.9181023,1.4005086,-1.2469287,-7.1184125,-0.004276057
467,1778317047.6744757,-2.977003,1.3790439,0.79425365,-1.1924089,-7.478823,0.5172501
468,1778317047.6845312,-2.6922913,1.8039467,0.055430062,-1.7724255,-7.6477275,0.5459608
469,1778317047.6946368,-2.6478374,2.1904936,-0.19531627,-3.2415564,-7.129561,0.25381452
470,1778317047.7043417,-2.795285,2.5258791,0.32794595,-4.2499423,-5.550474,0.14828753
471,1778317047.7144668,-3.0464582,2.8191888,1.537041,-4.114788,-3.6215146,0.21517728
472,1778317047.7243986,-3.4679463,2.5403922,2.8268113,-3.0702088,-0.70081514,-0.12232576
473,1778317047.73457,-4.0418825,2.2078729,3.728022,-1.568702,1.2507466,-0.74174315
474,1778317047.7444828,-4.643686,2.1493936,4.109325,0.16905695,1.19134,-1.2084441
475,1778317047.7547517,-5.141154,2.1712244,4.06292,1.7318029,0.6036876,-1.1378893
476,1778317047.7643776,-5.626609,2.2873895,3.7309496,2.751337,0.58001655,-0.47357327
477,1778317047.7746751,-5.71198,2.3119032,3.2007356,3.503312,1.0073168,0.91599244
478,1778317047.7841754,-5.560995,2.1882374,2.795956,3.5570683,1.348485,2.5216517
479,1778317047.7943103,-5.175729,1.8560839,2.479474,3.190702,1.2527319,3.7076466
480,1778317047.8042264,-4.7763762,1.4877087,2.6158843,2.6998718,1.0201449,4.590194
481,1778317047.814326,-4.306349,1.089088,3.1484764,2.3762658,0.9992228,5.4304395
482,1778317047.8245957,-3.4935575,0.5275307,3.8654084,3.0262265,1.4715744,5.884312
483,1778317047.834592,-3.4034305,0.4739911,3.8973007,3.1360295,1.5007432,5.8760657
484,1778317047.844653,-3.1171942,0.30337137,3.9530356,3.5837936,1.486846,5.813452
485,1778317047.8546486,-2.8087003,0.18013246,3.8596153,4.16717,1.3109168,5.8023033
486,1778317047.864214,-2.5266109,0.09262736,3.623016,4.7036624,1.1808025,5.891337
487,1778317047.874141,-2.163297,0.0015854583,3.3644037,5.060255,1.2156218,6.0579505
488,1778317047.8847122,-1.3955083,-0.30111513,3.1783562,5.114164,1.4396566,6.0380974
489,1778317047.8941808,-1.3137352,-0.30111513,3.1783562,5.114164,1.4396566,6.0380974
490,1778317047.9043293,-0.93987197,-0.50045604,3.2502506,5.1503577,1.4920384,5.797875
491,1778317047.9144688,-0.4080726,-0.73931146,3.1742096,5.9078307,1.5121969,4.84126
492,1778317047.9247744,-0.11518965,-0.85120827,2.9455986,6.4840293,1.7658587,4.2687263
493,1778317047.9344249,-0.06726002,-0.86864823,2.8900466,6.4840293,1.7658587,4.2687263
494,1778317047.9444087,0.053600688,-0.9320055,2.6063106,7.194771,2.4706445,3.3078353
495,1778317047.9542735,0.023111105,-0.96444654,2.411482,7.194771,2.4706445,3.3078353
496,1778317047.9642491,-0.11067719,-0.9579827,2.19275,7.3850555,2.7737863,3.0469959
497,1778317047.974152,-0.23586741,-0.91987073,2.0381067,7.433772,2.9100094,3.004388
498,1778317047.984151,-0.37179,-0.9043211,1.8685236,7.343822,2.828917,3.0787609
499,1778317047.9944482,-0.5614962,-0.94536,1.7775427,7.0173144,2.549599,3.2436945
500,1778317048.0046284,-0.64802563,-1.0540249,1.8077885,6.5339675,2.053118,3.5402696
501,1778317048.0141501,-0.6152188,-1.1268951,1.8696822,6.3099327,1.6594155,3.7038288
502,1778317048.024417,-0.4177683,-1.2194613,1.9831035,6.1431665,1.1728612,3.8637226
503,1778317048.0344067,-0.26519838,-1.2308645,2.0413995,6.1882176,1.2360858,3.8289034
504,1778317048.0444756,-0.15921661,-1.2373283,2.0260937,6.340018,1.6236799,3.6425896
505,1778317048.0544746,-0.1671439,-1.2565367,1.996519,6.368881,1.8996382,3.5370624
506,1778317048.064339,-0.26586917,-1.325992,1.9035867,6.2404466,2.078469,3.4733799
507,1778317048.0746202,-0.35026434,-1.4365473,1.8596817,5.725487,2.0193677,3.5269833
508,1778317048.084197,-0.28580934,-1.7249178,1.9684684,4.8038445,1.3387111,3.5382843
509,1778317048.0942214,-0.117506854,-1.9067577,2.098659,4.3545527,0.5936083,3.3635767
510,1778317048.1044307,0.041465834,-1.9443208,2.19214,4.319581,-0.23487769,2.9089403
511,1778317048.114346,0.26660094,-1.8836465,2.1411006,4.7392454,-0.6627888,2.4509442
512,1778317048.1244643,0.39032766,-1.8393147,1.820472,5.54574,-0.74067414,1.8626808
513,1778317048.1344013,0.4463675,-1.7960804,0.55667883,6.580546,-0.36483926,1.3651311
514,1778317048.1444244,0.4463675,-1.7960804,0.55667883,6.6278877,-0.37125334,1.326952
515,1778317048.154582,0.6045475,-1.817789,-0.24446549,6.6055913,-0.6012441,1.1569787
516,1778317048.1642609,0.8003516,-1.8740728,-1.1128088,5.991519,-1.257008,0.8078693
517,1778317048.1743133,0.90090626,-1.9218804,-1.718027,4.9612947,-1.9011654,0.32895094
518,1778317048.184477,0.8701117,-1.8845003,-2.2240932,3.1537445,-2.9213104,-0.3475823
519,1778317048.19447,0.6919306,-1.814862,-2.2529364,1.2371548,-4.0990586,-0.8906415
520,1778317048.2047045,0.41520718,-1.5665549,-1.9151728,-0.16081028,-4.736649,-1.0735956
521,1778317048.2142,0.081956,-1.2810503,-1.4891723,-0.818254,-4.7175593,-0.97784257
522,1778317048.2243004,0.19397473,-1.4582559,-1.320321,-0.95905846,-4.555833,-1.048703
523,1778317048.2345448,0.34587383,-1.5488099,-1.2756232,-1.0780244,-3.9484801,-1.4156802
524,1778317048.2445679,0.22873287,-1.4571582,-0.9131021,-0.9654725,-2.1036673,-2.0676262
525,1778317048.254588,0.011708,-1.3450174,-0.71150494,-0.30207285,-0.82695884,-2.2809708
526,1778317048.2646103,-0.056283772,-1.3127595,-0.7930341,0.6220135,0.069027774,-2.3423629
527,1778317048.274599,0.015732625,-1.2093998,-1.2730011,1.5158621,0.9120218,-2.5011878
528,1778317048.2844057,-0.09232246,-1.1577505,-1.5302112,1.1569787,1.5630515,-2.9390254
529,1778317048.2944553,-0.43935493,-1.3112351,-1.6449132,1.0542006,1.5859588,-2.9678888
530,1778317048.3046603,-0.8094985,-1.3221503,-1.6176554,0.39202276,1.1085677,-2.758362
531,1778317048.3145864,-0.834378,-1.2958683,-1.6260705,0.35827246,0.9848675,-2.670703
532,1778317048.3241916,-0.84992766,-1.1917158,-1.7560781,0.28527406,0.3866777,-2.1975877
533,1778317048.3343754,-0.7160784,-1.1319562,-2.1070132,0.08277224,-0.54260105,-1.4735597
534,1778317048.344564,-0.4619172,-1.0690868,-2.4275806,-0.4390594,-1.5125023,-0.84039783
535,1778317048.3546996,-0.23476979,-1.0484759,-2.560393,-1.1636983,-2.1569653,-0.44868052
536,1778317048.3647006,-0.014208145,-0.9815207,-2.5345383,-1.8070921,-2.2994494,-0.24220806
537,1778317048.3746479,0.14354497,-0.89017385,-2.523867,-2.1610885,-2.2053761,-0.24281894
538,1778317048.38422,0.3003224,-0.9471284,-2.4847791,-2.6116016,-1.8858937,-0.46563202
539,1778317048.3944926,0.3734974,-0.9565802,-2.206775,-3.2701144,-1.4993688,-0.91629785
540,1778317048.4042294,0.28117493,-0.898833,-1.724613,-3.7701075,-0.8416196,-1.4511104
541,1778317048.4141784,0.0892735,-0.85322046,-1.3133084,-3.8716638,-0.24862215,-1.7776178
542,1778317048.4242926,-0.09622513,-0.84047586,-1.0051806,-3.6841283,0.1525636,-1.9091066
543,1778317048.4345942,-0.23434295,-0.834256,-0.8707825,-3.4967453,0.051923547,-1.8229746
544,1778317048.4441783,-0.29635876,-0.8432809,-0.91883403,-3.5431712,-0.37323865,-1.5734361
545,1778317048.4546375,-0.21763465,-0.9059065,-0.92737114,-4.064239,-0.92927873,-1.2542591
546,1778317048.4646099,-0.10982348,-0.97767895,-0.8480373,-4.749019,-1.4338534,-1.1131492
547,1778317048.474189,-0.06457694,-1.0967714,-0.6043645,-5.7932935,-2.0470095,-1.0352639
548,1778317048.484289,-0.027562585,-1.2925754,-0.21861032,-6.820463,-2.573728,-0.9592112
549,1778317048.4945276,0.06561358,-1.458012,0.102384016,-7.7005672,-3.137404,-0.9718866
550,1778317048.5046532,0.18818171,-1.5961907,0.5762531,-8.250346,-3.5532503,-1.0888673
551,1778317048.5142355,0.22123243,-1.6021667,1.0240232,-8.648325,-3.9248092,-1.3330606
552,1778317048.5243173,0.20068243,-1.539846,1.2226323,-8.731097,-3.9985712,-1.4581354
553,1778317048.5343962,0.09457869,-1.3325168,1.6535721,-8.613658,-2.7754662,-1.491733
554,1778317048.5446413,0.026586918,-1.200131,2.124941,-8.613658,-2.7754662,-1.491733
555,1778317048.5542846,0.055978876,-1.1425056,2.5141711,-8.351139,-2.5508206,-1.3831517
556,1778317048.5646484,0.15872878,-1.1202483,2.8762655,-7.870235,-3.3739614,-1.251052
557,1778317048.574176,0.16909523,-1.1234192,2.9132798,-7.870235,-3.3739614,-1.251052
558,1778317048.5846257,0.193182,-1.0821364,2.9583433,-7.270365,-4.15144,-1.2179126
559,1778317048.5946,0.20617057,-1.0565251,2.921024,-7.18347,-4.148997,-1.1976013
560,1778317048.604713,0.31739658,-0.96584904,2.7416234,-6.826877,-3.8061485,-1.0876455
561,1778317048.6143193,0.5771678,-0.9548118,2.4989872,-6.400493,-2.6710083,-1.110553
562,1778317048.6247485,0.7693132,-1.0498173,2.3817244,-6.001751,-0.99189246,-1.5260941
563,1778317048.634596,0.73711616,-1.1167725,2.3691018,-5.607285,0.36926803,-2.118786
564,1778317048.6446216,0.30800578,-1.0818924,2.3805048,-4.288121,2.7111726,-3.3544137
565,1778317048.6542373,0.24812423,-1.0585374,2.3673332,-4.1250205,2.881146,-3.4663548
566,1778317048.6642087,-0.01683025,-0.91987073,2.2820234,-3.5115588,3.3782375,-3.8444805
567,1778317048.6747227,-0.43374482,-0.6891866,2.1412225,-2.957504,3.5107954,-4.081038
568,1778317048.6844413,-0.7723621,-0.5053344,2.0167642,-2.7218628,2.9848404,-3.9782598
569,1778317048.694637,-1.1654338,-0.26733267,1.8827319,-2.7731755,2.1239784,-3.6508362
570,1778317048.7041955,-1.4280102,-0.0687845,1.7672372,-3.2027664,0.20555615,-2.9022207
571,1778317048.71454,-1.3991671,-0.011220166,1.6789393,-3.7007744,-1.3341297,-2.4071145
572,1778317048.7246828,-1.2876362,-0.012073875,1.7045507,-4.0958514,-2.4750733,-2.0932825
573,1778317048.7342067,-1.0557934,0.026038107,1.8779145,-4.5307875,-4.2438335,-1.6085609
574,1778317048.7446413,-0.895723,0.12964171,1.9713956,-4.331493,-4.6981645,-1.3174837
575,1778317048.754242,-0.8509643,0.2066584,1.9561508,-3.7074938,-4.2719336,-1.0700831
576,1778317048.764381,-0.85712314,0.24739249,1.7543707,-2.9584203,-3.4898732,-0.81290895
577,1778317048.7742052,-0.8120596,0.22415942,1.4817938,-2.5993843,-2.9684997,-0.58276546
578,1778317048.7843087,-0.7041264,0.13037346,1.2465972,-2.6051877,-2.747061,-0.41248676
579,1778317048.7945635,-0.5142983,0.049515083,1.050671,-3.078608,-3.048065,-0.47051895
580,1778317048.8046134,-0.3293485,0.03000175,1.0670135,-3.7287214,-3.2950072,-0.6649268
581,1778317048.8141713,-0.28751677,0.06451596,1.2778794,-4.5520153,-3.3805282,-1.0192287
582,1778317048.8242269,-0.3634968,0.15494807,1.5959468,-5.045136,-3.2710307,-1.3312281
583,1778317048.8345335,-0.5363728,0.40648714,1.9885917,-5.148067,-3.1094568,-1.4243851
584,1778317048.8444364,-0.6474158,0.6024742,2.1703706,-5.130199,-2.5659394,-1.4185818
585,1778317048.8547122,-0.7297987,0.49368733,2.2576928,-5.188689,-1.9184223,-1.5253305
586,1778317048.8645875,-0.9145046,0.20306063,2.6996696,-5.3780575,-0.73853606,-1.9349157
587,1778317048.8741493,-1.756383,0.22556195,4.2925673,-4.287205,1.0511464,-3.233768
588,1778317048.8845356,-1.8874272,0.24775836,4.478554,-3.9891028,1.2108877,-3.4150422
589,1778317048.8941398,-2.523196,0.3621553,5.0902967,-2.4252877,1.8338175,-4.099364
590,1778317048.904581,-3.2878747,0.5684478,5.334397,-0.37384954,2.1827743,-4.5049787
591,1778317048.914244,-4.3826947,1.047683,4.7884502,2.3316727,1.9020816,-4.3438625
592,1778317048.9242752,-5.020476,1.4658782,3.7092407,4.279875,1.0183123,-3.1070135
593,1778317048.9346437,-5.2609167,1.8097397,2.6444225,4.293619,0.41080686,-1.430341
594,1778317048.9446733,-5.297138,1.9668831,2.1613455,3.615864,-0.23900102,0.030543262
595,1778317048.9545357,-5.053953,1.964261,1.6813177,2.5607471,-0.9593639,1.487915
596,1778317048.96426,-4.6122813,1.6480839,1.8065689,1.1921035,-1.8012888,3.185204
597,1778317048.974658,-4.1792684,1.2191565,2.333124,0.36132678,-2.6163359,4.469243
598,1778317048.9844458,-3.7313154,0.7746184,2.7065604,0.07498371,-3.185204,5.162575
599,1778317048.9944348,-3.1190844,0.3339829,3.153355,0.23044892,-3.7832413,5.6698985
600,1778317049.00441,-2.707353,0.10921369,3.6833246,0.82436264,-3.5921931,5.681352
601,1778317049.0143936,-2.496975,-0.011342125,4.0920067,1.7796031,-2.7586675,5.5686474
602,1778317049.0241816,-2.4393497,-0.20543882,4.516239,3.3409748,-1.0900891,5.3565245
603,1778317049.0341651,-2.4908772,-0.42337835,4.797902,4.992296,1.0520626,5.3114734
604,1778317049.0442111,-2.5675278,-0.5376533,4.867723,6.1818037,2.499355,5.3805013
605,1778317049.0542514,-2.72522,-0.6705879,4.7587533,7.202254,3.157715,5.5411587
606,1778317049.0643082,-2.7909555,-0.8026688,4.4096475,7.5447965,2.6077838,5.7276254
607,1778317049.0744796,-2.777601,-0.8462079,4.0060267,7.4017015,1.6279559,5.892406
608,1778317049.0845928,-2.6657653,-0.8580378,3.7639391,7.12727,0.9540188,6.071084
609,1778317049.0946944,-2.350442,-0.9312738,3.5456948,6.9802046,0.6965391,6.20914
610,1778317049.1043108,-1.9566387,-1.076953,3.3776362,6.990589,0.68233645,6.3045874
611,1778317049.1146374,-1.5061245,-1.2742207,3.166831,7.1810265,1.0144944,6.2332687
612,1778317049.1242542,-1.1904353,-1.428498,2.9438913,7.3597045,1.3558154,6.0542855
613,1778317049.134192,-0.8465128,-1.641986,2.7119875,7.547393,1.7672331,5.757405
614,1778317049.1444776,-0.56100833,-1.7774818,2.6035666,7.695833,2.0250182,5.4530416
615,1778317049.1546757,-0.22922069,-1.8798658,2.4894745,8.0030985,2.3099868,5.0057354
616,1778317049.1641908,-0.014513042,-1.9198072,2.285865,8.863655,3.1187725,4.1265473
617,1778317049.174177,0.065674566,-1.8487054,2.025667,8.952383,3.2621732,4.0506473
618,1778317049.184176,-0.04311227,-1.7195516,1.8269358,9.20803,3.8030944,3.844633
619,1778317049.1942725,-0.23135497,-1.6279609,1.478379,9.143126,4.13739,3.909385
620,1778317049.20442,-0.22348866,-1.522223,1.135615,8.50859,4.0172024,4.1635046
621,1778317049.2146816,-0.060186442,-1.399411,0.9519458,7.1949234,3.3498323,4.322788
622,1778317049.2241635,0.14805742,-1.3219674,0.9333471,6.2832074,2.68796,4.192063
623,1778317049.234374,0.1515942,-1.270257,1.0764043,5.5771995,2.1653645,3.9235876
624,1778317049.2442424,0.03963646,-1.1723244,1.276416,5.202892,2.0705278,3.6939023
625,1778317049.2544682,-0.057564333,-1.0018268,1.516369,5.176625,2.4168882,3.5430183
626,1778317049.2646158,-0.39032766,-0.7821188,1.7325401,5.357441,2.9535334,3.43291
627,1778317049.2741988,-0.44033056,-0.77126455,1.7482117,5.403561,3.5169039,3.289204
628,1778317049.2841525,-0.6476597,-0.7408359,1.8435832,5.2568007,3.8806741,3.1842878
629,1778317049.294205,-0.91791934,-0.66595346,2.0162761,5.0061936,3.9805508,3.1351132
630,1778317049.3043237,-1.1459814,-0.6372933,2.0531685,4.413043,2.664136,3.4376442
631,1778317049.3144453,-1.2067778,-0.75120234,1.9541385,4.311945,2.4840834,3.4941492
632,1778317049.324288,-1.1642752,-0.8331583,1.8892566,3.8654025,1.7933476,3.6911533
633,1778317049.334172,-1.0598788,-0.8832222,1.8508397,3.4052682,1.1253664,3.845244
634,1778317049.344329,-0.8473056,-0.980484,1.8423026,2.9581149,0.3866777,3.9628356
635,1778317049.3543649,-0.7204689,-1.1256144,1.829436,2.7795897,-0.08811731,4.0201044
636,1778317049.3645039,-0.51295674,-1.2511096,1.6840616,2.8177686,-0.2350304,4.1050143
637,1778317049.374735,-0.23568448,-1.3205649,1.44295,2.8959594,-0.2180789,4.09463
638,1778317049.3843892,-0.07311402,-1.3961791,1.2334256,2.9168816,-0.0983493,3.9434407
639,1778317049.394337,0.069638215,-1.4912456,0.9469455,2.807842,0.073303826,3.6813793
640,1778317049.4048004,0.25599056,-1.5030146,0.7197981,2.337934,0.18219055,3.0364585
641,1778317049.414412,0.49746805,-1.5083196,0.50862724,2.2774584,0.20005837,2.9449813
642,1778317049.4242933,0.64820856,-1.4579508,0.368863,2.042886,0.3211624,2.5702155
643,1778317049.4344616,0.7182126,-1.4016672,0.23659918,1.8703166,0.5306892,2.304642
644,1778317049.4444244,0.82035273,-1.3693483,-0.12872702,1.3585643,1.043816,1.8501581
645,1778317049.4545338,0.6748565,-1.4610609,-0.34965453,0.82619524,1.1856894,1.6667458
646,1778317049.4645417,0.56545985,-1.6469864,-0.65345275,0.3669773,0.9408852,1.8701639
647,1778317049.4744375,0.8149866,-1.7776648,-1.0032902,0.021991149,0.48655418,2.5326474
648,1778317049.4844425,1.5289917,-1.9145628,-1.3892274,-0.22128594,0.091477074,2.9116893
649,1778317049.494471,2.4103236,-2.0977442,-1.6746709,-0.6606508,-0.014660766,2.6224444
650,1778317049.5046089,2.6918643,-2.2722666,-1.4569752,-0.8881981,0.4738787,1.4665347
651,1778317049.5142932,2.5034997,-2.1929328,-1.0443293,-0.38606682,0.8562804,0.09850202
652,1778317049.5244617,2.2819014,-2.0535345,-0.86547726,0.5377141,0.86193085,-0.81382525
653,1778317049.5343013,2.0651815,-1.9320639,-1.0399997,1.3596333,0.63529986,-1.4269812
654,1778317049.5442424,1.8046786,-1.7630906,-1.8157768,2.1500928,-0.2576324,-2.2117903
655,1778317049.5541892,1.598142,-1.5625302,-2.4694734,1.653154,-1.6574302,-2.912911
656,1778317049.5644474,1.1875083,-1.241231,-2.8679724,0.5873469,-2.7817276,-3.1737504
657,1778317049.5742352,0.99255794,-1.0811605,-2.9604168,-0.37934732,-3.4938438,-3.1412218
658,1778317049.5846517,0.81077904,-0.95523864,-2.827787,-1.4622587,-4.12105,-2.978579
659,1778317049.5944064,0.7077852,-0.8364513,-2.5737476,-2.0874794,-4.269643,-2.7991374
660,1778317049.6044862,0.6669292,-0.6413179,-2.3726385,-2.264783,-4.0753875,-2.6949847
661,1778317049.6146986,0.5880221,-0.52314025,-2.2894628,-2.7076602,-3.2036827,-2.6439774
662,1778317049.6246111,0.4399647,-0.4278908,-2.2176294,-3.326314,-2.9608638,-2.638938
663,1778317049.634597,0.25044146,-0.41435343,-2.1641505,-3.4959817,-2.95109,-2.6354253
664,1778317049.644424,0.14860623,-0.48136955,-1.9551141,-4.035834,-2.9837713,-2.64917
665,1778317049.6541555,-0.049027253,-0.5580204,-1.5053928,-4.8875327,-3.223536,-2.680782
666,1778317049.6641767,-0.17543708,-0.6027181,-1.0071929,-5.7016635,-3.7401752,-2.526386
667,1778317049.6741524,-0.1823277,-0.68406427,-0.43636695,-6.180887,-4.351651,-2.308918
668,1778317049.6841369,-0.10896978,-0.7264448,-0.11037229,-6.384153,-4.811175,-2.1401663
669,1778317049.6942353,0.013720313,-0.77900887,0.15311868,-6.505104,-5.212666,-2.05434
670,1778317049.7042925,0.23044027,-0.8729168,0.44551378,-6.492429,-5.403256,-2.1329887
671,1778317049.7142959,0.23044027,-0.8729168,0.44551378,-6.492429,-5.403256,-2.1329887
672,1778317049.7243059,0.38538834,-0.9338349,0.6236949,-6.2587724,-4.8676796,-2.6656632
673,1778317049.734316,0.37429014,-0.94255495,0.63936657,-6.240752,-4.714505,-2.741105
674,1778317049.7443209,0.22336671,-1.0391461,0.8740754,-6.180582,-3.7061195,-3.0560062
675,1778317049.7544534,0.2045851,-1.0544518,0.9205415,-6.127895,-2.9831605,-3.18215
676,1778317049.7645836,0.15391143,-1.1087842,1.1376274,-5.907525,-1.622,-3.365104
677,1778317049.7744098,0.06915038,-1.1222606,1.4720981,-5.3479724,0.122020334,-3.68535
678,1778317049.7843392,-0.25019753,-1.0924418,2.0062146,-4.050953,1.775938,-4.150371
679,1778317049.794167,-0.36160645,-1.0232915,2.1210992,-3.2191072,1.772731,-4.4306054
680,1778317049.804458,-0.45325816,-0.95676315,2.0622544,-2.685211,1.3912456,-4.651128
681,1778317049.8143842,-0.60558414,-0.8965767,1.9250513,-2.3318253,0.8248208,-4.8204904
682,1778317049.8243906,-0.708334,-0.8339511,1.7809577,-2.3014348,0.22250767,-4.886311
683,1778317049.8344903,-0.7574832,-0.78157,1.6519256,-2.4611762,-0.35140023,-4.9083023
684,1778317049.8445451,-0.7702888,-0.7280913,1.6154602,-2.8249464,-1.0225884,-4.9247956
685,1778317049.85417,-0.79882705,-0.699553,1.647962,-3.133128,-1.3868169,-4.9223523
686,1778317049.8642225,-0.79260725,-0.70235807,1.741626,-3.3649511,-1.5410603,-4.8601966
687,1778317049.8744268,-0.7748013,-0.69656503,1.8108373,-3.35365,-1.4811954,-4.827515
688,1778317049.8845344,-0.9743861,-0.57503355,1.8762681,-3.198185,-1.2997686,-4.815909
689,1778317049.894658,-0.9934116,-0.5574716,1.8727312,-3.0053043,-1.135904,-4.6870165
690,1778317049.9044485,-1.0484759,-0.48197934,1.8371803,-2.9471195,-1.5893186,-4.4967318
691,1778317049.9142807,-1.123846,-0.36111864,1.7189418,-2.9471195,-1.5893186,-4.4967318
692,1778317049.924549,-1.2867824,-0.2622714,1.5966176,-3.3858733,-2.207667,-4.423733
693,1778317049.9346948,-1.4375839,-0.19635291,1.5886292,-3.8982365,-2.743854,-4.2455134
694,1778317049.9445267,-1.5121614,-0.086712375,1.7802258,-4.355469,-3.106097,-3.9057198
695,1778317049.9543867,-1.0900027,0.10433535,2.288609,-4.2514696,-3.2895093,-3.35365
696,1778317049.9646935,-1.0900027,0.10433535,2.288609,-4.2514696,-3.2895093,-3.35365
697,1778317049.974166,-1.0529273,0.283919,2.2764742,-3.7824776,-3.4521523,-3.6346483
698,1778317049.984239,-1.2079364,0.55216634,2.0651205,-3.4261904,-3.600287,-3.9774964
699,1778317049.994456,-1.6393639,0.9722519,1.9196242,-3.2650747,-3.5268304,-4.337296
700,1778317050.0044887,-2.3194036,1.4663051,1.8887076,-3.2690454,-3.294549,-4.426482
701,1778317050.0145984,-3.0565808,2.1534793,1.8892566,-3.3947308,-2.8599184,-3.8282926
702,1778317050.0242064,-3.331597,2.5073414,1.9282223,-3.7821722,-2.6687176,-2.7366762
703,1778317050.0342546,-3.2392743,2.4019084,2.2522047,-4.320192,-2.73408,-2.0050125
704,1778317050.0444162,-3.0638983,2.116648,2.9324272,-4.8409543,-2.8418977,-1.7296649
705,1778317050.0544593,-3.0037727,1.7390039,4.2189045,-4.6470046,-2.9210048,-1.9017762
706,1778317050.0645473,-3.0668254,1.4581338,4.885956,-3.8831177,-2.8292224,-1.9924897
707,1778317050.0743,-2.9538918,1.1305537,5.2905526,-2.4265094,-2.1682663,-1.9776763
708,1778317050.0843124,-2.7127192,0.7332135,5.5504456,-0.68203104,-1.0998629,-2.0853412
709,1778317050.094589,-2.1723218,-0.18397415,5.759848,1.3083206,0.1685988,-2.3434317
710,1778317050.104399,-2.1723218,-0.18397415,5.759848,5.103932,1.5157094,-3.2307136
711,1778317050.114545,-2.183847,-0.59905934,5.281467,5.5805593,1.5464053,-3.3475416
712,1778317050.1245956,-2.2263494,-1.1541528,3.3617206,8.478809,1.1888965,-3.8614318
713,1778317050.1344357,-2.2263494,-1.1541528,3.3617206,8.478809,1.1888965,-3.8614318
714,1778317050.1445138,-1.9987142,-1.4177656,2.4480088,9.3132515,1.2415836,-3.9756637
715,1778317050.1547039,-1.8535228,-1.5755798,1.8181548,9.865626,1.5957327,-4.002847
716,1778317050.1645641,-1.7098559,-1.6350955,1.0528663,10.379975,2.0395262,-3.880827
717,1778317050.1745253,-1.5532004,-1.6074109,0.3401418,10.602483,2.0393736,-3.67298
718,1778317050.1846297,-1.411058,-1.5594813,-0.33611718,10.428538,1.6184875,-3.3370042
719,1778317050.1945481,-1.1725684,-1.4991728,-0.9053577,9.947788,1.1217014,-2.8593075
720,1778317050.2047334,-0.90529674,-1.4134362,-1.2333647,8.975595,0.4175264,-2.244319
721,1778317050.2141554,-0.5833877,-1.2026922,-1.5550908,7.6164207,-0.46853364,-1.7337883
722,1778317050.224306,-0.31629896,-0.9732885,-1.7105267,5.988159,-1.3206906,-1.3012956
723,1778317050.2341502,-0.20269476,-0.8738925,-1.6597921,4.6928196,-1.8193095,-1.0096076
724,1778317050.2442067,-0.0895784,-0.8338291,-1.4959409,3.4142785,-2.17972,-0.61834836
725,1778317050.254672,0.107750185,-0.7805943,-1.326053,2.6352727,-2.252871,-0.26083946
726,1778317050.2642362,0.266357,-0.7608371,-1.2114122,2.2858577,-2.0900755,-0.13836098
727,1778317050.2743511,0.38160762,-0.75297076,-1.1204922,2.053118,-1.6575829,-0.1611157
728,1778317050.2843347,0.43136662,-0.7279083,-1.0895758,1.9178114,-1.0864239,-0.24862215
729,1778317050.2944763,0.4101459,-0.69296724,-1.050793,1.7238617,-0.54458636,-0.32360587
730,1778317050.3045993,0.3544719,-0.67839324,-0.98145974,1.5143349,-0.1740966,-0.31429017
731,1778317050.314495,0.34123942,-0.67979574,-0.8980402,1.2415836,0.07742717,-0.25625798
732,1778317050.3246243,0.3302022,-0.7058948,-0.860721,1.0172434,0.07284568,-0.21456642
733,1778317050.3341384,0.3377636,-0.7998637,-0.88889337,0.69027776,-0.115453534,-0.13454308
734,1778317050.3441553,0.4774059,-0.9088945,-0.98737466,0.27870727,-0.41462478,-0.07925977
735,1778317050.354357,0.6590018,-0.96389776,-1.1060401,-0.22708915,-0.72219545,-0.23609942
736,1778317050.3643699,0.79876614,-0.9730446,-1.1573846,-0.7791586,-0.90026265,-0.5476407
737,1778317050.3745162,0.8130962,-0.992253,-1.1079915,-1.5731307,-0.991587,-1.0636691
738,1778317050.3846257,0.66430706,-1.0200596,-0.95627534,-2.0948095,-0.9202685,-1.5289958
739,1778317050.3947172,0.40557244,-1.0003633,-0.70900476,-2.4278839,-0.6027713,-1.7968601
740,1778317050.4042487,0.1557408,-0.96401966,-0.53265303,-2.3832908,-0.17379116,-1.9814942
741,1778317050.4144056,-0.03585575,-0.9276761,-0.5061271,-2.0683897,0.25702155,-2.0676262
742,1778317050.4245346,-0.14159364,-0.8820636,-0.55015403,-1.7435621,0.6206391,-2.1557434
743,1778317050.4345472,-0.29398057,-0.8219382,-0.69997984,-1.64674,0.7272351,-2.2779164
744,1778317050.444402,-0.46575886,-0.784375,-0.9471894,-1.8387043,0.52534413,-2.4410176
745,1778317050.4546607,-0.46575886,-0.784375,-0.9471894,-2.1374176,0.29611692,-2.513863
746,1778317050.4641912,-1.1052474,-0.8212065,-1.3153207,-2.4258986,0.1414153,-2.5199718
747,1778317050.4744558,-1.5041732,-0.96316594,-1.3972766,-4.017813,-0.02855795,-2.0934353
748,1778317050.484238,-1.8980376,-1.1048815,-1.1978139,-5.3029213,0.4098906,-1.5726726
749,1778317050.4943373,-2.1684802,-1.214888,-0.92865175,-5.9282947,0.6601926,-1.3107641
750,1778317050.5046911,-2.5692353,-1.4825865,-0.4989925,-7.059159,0.8165741,-0.8567385
751,1778317050.514732,-3.1210966,-1.8604134,-0.12476338,-7.795557,0.3199407,-0.6088799
752,1778317050.5241387,-3.6045396,-2.1260996,0.08012662,-8.361829,-0.38912117,-0.42332962
753,1778317050.5345583,-4.282872,-2.1973844,0.4299641,-8.970098,-1.0865766,-0.13103059
754,1778317050.5441852,-4.970412,-2.0360336,0.7458972,-9.334327,-1.4115568,0.3755294
755,1778317050.5541358,-5.5361767,-1.7796161,0.96816623,-9.521862,-1.6106989,1.1473577
756,1778317050.5643475,-5.947359,-1.5371628,1.1541528,-9.560499,-1.7562376,1.7453947
757,1778317050.5743134,-6.161701,-1.2870263,1.4016061,-9.479101,-1.9388863,2.9008462
758,1778317050.5844517,-6.217558,-1.2195834,1.8719386,-9.112124,-1.8602374,3.961461
759,1778317050.5944686,-6.1771283,-1.3506886,2.3718457,-8.536841,-1.6088663,4.780326
760,1778317050.6045063,-6.115906,-1.4086797,2.9340737,-7.6886554,-1.4193454,5.6637897
761,1778317050.6144626,-5.7741785,-1.372702,3.3159864,-6.541298,-1.3466524,6.60101
762,1778317050.6242673,-5.3795214,-1.3755682,3.336597,-5.6198077,-1.4411838,7.225925
763,1778317050.634423,-4.8661375,-1.4369131,3.236896,-4.7542114,-1.5222762,7.872068
764,1778317050.6446424,-4.2967753,-1.5971663,3.1660383,-4.0958514,-1.5428929,8.416348
765,1778317050.6541758,-3.7646708,-1.744431,3.141098,-3.5204165,-1.5995506,8.794932
766,1778317050.6642187,-2.9748688,-1.8137645,3.173051,-2.999501,-1.7745636,8.929628
767,1778317050.6744757,-2.9748688,-1.8137645,3.173051,-2.999501,-1.7745636,8.929628
768,1778317050.6846285,-1.8598647,-1.4731348,3.4237366,-1.08902,-1.9695823,8.3940525
769,1778317050.6942062,-1.6639994,-1.3098326,3.4664829,0.48334712,-1.42973,7.8813834
770,1778317050.704603,-1.6111306,-1.2950146,3.419407,2.1972823,-0.42394048,7.4574428
771,1778317050.7143455,-1.4561216,-1.3539205,3.1521962,3.8136318,0.7312057,7.174001
772,1778317050.7244465,-1.3270286,-1.4168509,2.8484588,5.689141,2.2725713,6.6814914
773,1778317050.7344806,-1.2392186,-1.4809401,2.4541066,5.689141,2.2725713,6.6814914
774,1778317050.7447057,-1.2444628,-1.5605179,2.1420152,6.0355015,2.7236955,6.537785
775,1778317050.7546883,-1.2624518,-1.6488158,1.920295,6.0449696,2.9109256,6.4682994
776,1778317050.764705,-1.3011125,-1.645401,1.7593709,5.740759,3.0326405,6.4095035
777,1778317050.7746544,-1.3759949,-1.5824094,1.76492,5.401423,3.0767756,6.4334803
778,1778317050.784625,-1.457463,-1.5703355,1.814801,5.003139,3.0886874,6.561762
779,1778317050.7945206,-1.4878917,-1.6709511,2.1189651,4.478253,3.1931453,6.903388
780,1778317050.8045144,-1.4789886,-1.6799151,2.163419,4.4565673,3.2104023,6.935306
781,1778317050.8144333,-1.4502676,-1.7304059,2.2900727,4.416861,3.2485814,7.012428
782,1778317050.8242445,-1.4844768,-1.8435832,2.3841636,4.301713,2.9659035,7.0243397
783,1778317050.8345518,-1.5491757,-1.9532847,2.3987374,3.9967387,2.1658227,7.0533557
784,1778317050.8443823,-1.4482552,-2.0154226,2.4667902,3.5682166,1.20371,7.0948944
785,1778317050.8542702,-1.3058078,-2.104879,2.6817417,3.3108897,0.82451534,7.0296845
786,1778317050.8643246,-1.164885,-2.2339718,3.1214015,3.3400583,1.1510228,6.7929745
787,1778317050.8742168,-1.1779956,-2.3537347,3.9496207,4.2270346,3.2377386,6.1020856
788,1778317050.884449,-1.5256988,-2.3599548,5.040599,5.7415223,5.557041,5.6900573
789,1778317050.894678,-1.8804147,-2.5656984,5.3097,8.679479,8.384583,5.6425624
790,1778317050.904713,-1.9651756,-2.801688,4.7345448,10.995269,10.149679,6.029698
791,1778317050.914402,-1.8706578,-3.0659106,3.4109306,12.523349,11.359956,6.827641
792,1778317050.924416,-1.6229606,-2.9351711,1.7826649,11.718228,11.211515,7.340462
793,1778317050.9344711,-1.3719703,-2.543441,0.42215878,8.664665,9.549198,7.8845906
794,1778317050.944628,-1.2421457,-2.3255625,-0.0918956,5.4055467,7.222718,8.183762
795,1778317050.954132,-0.96414167,-2.4480088,-0.14086188,0.7725918,3.3568573,8.255233
796,1778317050.9643376,-0.66046536,-2.9167554,0.17409553,-1.5580118,1.1137601,8.269283
797,1778317050.974542,-0.22995245,-3.4467254,0.4686859,-2.9396362,-0.5458081,8.346863
798,1778317050.9846363,0.5096029,-3.873092,0.6389397,-3.4567337,-1.4999796,8.2911215
799,1778317050.9941416,1.917063,-4.004685,0.9626781,-2.9448287,-1.1904236,7.4348407
800,1778317051.0044723,2.586919,-3.8901658,1.0340238,-1.6826283,-0.15378532,5.681047
801,1778317051.0146594,2.9803567,-3.6253333,0.70248,-0.4961753,0.52824575,4.148386
802,1778317051.0243328,3.0309086,-3.4024546,-0.040246252,0.41401392,0.7431176,2.4874432
803,1778317051.0344865,2.9922478,-3.290802,-0.45411184,0.44211373,0.54519725,1.6978999
804,1778317051.044472,2.872119,-3.0517025,-0.9448722,-0.42821655,-0.5028948,0.4381431
805,1778317051.0544767,2.6280801,-2.9471233,-0.7826676,-1.4004086,-1.8078557,-0.33383787
806,1778317051.0644705,2.531855,-2.8676672,-0.65668464,-1.7209601,-2.9825497,-0.84497935
807,1778317051.0746984,2.6534474,-2.7707715,-0.6854668,-1.5737416,-3.5358407,-1.3142766
808,1778317051.08433,2.6307023,-2.7285738,-0.6598556,-1.1751521,-3.5860844,-2.2401955
809,1778317051.0945294,2.0655472,-2.6100304,-0.6165604,0.3266602,-2.8802297,-4.0698895
810,1778317051.1046062,1.9866405,-2.5803945,-0.6454035,0.52106804,-2.8237245,-4.215734
811,1778317051.1146758,1.7777867,-2.4358127,-0.80596167,1.2505939,-2.6607764,-4.6674685
812,1778317051.1246526,1.6349735,-2.2898288,-1.1203703,1.8040378,-2.7087293,-5.131879
813,1778317051.1345084,1.3800805,-2.2106779,-1.3496519,1.752267,-3.1972687,-5.605147
814,1778317051.144453,1.0907953,-2.1764073,-1.4239246,1.3330606,-3.9229765,-5.997933
815,1778317051.154176,0.6823569,-2.1246362,-1.3677628,0.41706824,-5.020549,-6.481433
816,1778317051.1642284,0.22336671,-2.0220082,-1.0645744,-0.5861252,-6.0261855,-6.8827715
817,1778317051.174277,-0.12549512,-2.0042024,-0.7283352,-1.666135,-6.9925747,-7.2569265
818,1778317051.1846843,-0.6714416,-1.993348,-0.037990022,-2.9216158,-7.922006,-7.770817
819,1778317051.194443,-1.267635,-1.899501,0.7304085,-3.3757942,-8.009818,-8.077318
820,1778317051.2044992,-1.6526574,-1.87639,1.0398778,-3.4092388,-7.652309,-8.21461
821,1778317051.214659,-2.0675597,-1.8165694,1.2955024,-3.3275356,-6.752199,-8.24271
822,1778317051.224802,-2.3715408,-1.7256494,1.5325284,-3.306308,-5.5568886,-8.240114
823,1778317051.2343593,-2.5569785,-1.609789,1.8555351,-3.3530393,-4.6115746,-8.297077
824,1778317051.2443616,-2.9529772,-1.3156865,2.6439958,-3.4510832,-3.8644862,-8.492249
825,1778317051.2545254,-2.9899914,-1.2852579,2.7472944,-3.457039,-3.9132028,-8.4809475
826,1778317051.2646494,-3.0990832,-1.1331758,3.1659164,-3.3153183,-4.2493315,-8.218276
827,1778317051.2747154,-3.0744476,-0.9634709,3.4392252,-3.0535626,-4.523457,-7.9566727
828,1778317051.284179,-2.903645,-0.8503545,3.4244072,-2.292119,-5.3832498,-7.350236
829,1778317051.294218,-2.875229,-0.84273213,3.2379327,-2.2858577,-5.3953147,-7.3258014
830,1778317051.3045516,-2.9031572,-0.79718065,3.1864665,-2.2595906,-5.2829156,-7.260439
831,1778317051.3145025,-2.845898,-0.75864184,3.0279815,-2.059074,-5.0153565,-7.1100135
832,1778317051.3243318,-2.8261404,-0.7526049,2.976698,-1.7530305,-4.8582115,-6.8655143
833,1778317051.334457,-2.706926,-0.7338233,2.6353366,-1.5746579,-4.9620585,-6.6726336
834,1778317051.344512,-2.628995,-0.75345856,2.3075125,-1.6108516,-5.221065,-6.569703
835,1778317051.3541825,-2.6305804,-0.7841311,1.9365155,-1.7983873,-5.529705,-6.4311895
836,1778317051.364406,-2.622226,-0.746263,1.592288,-1.967597,-5.558721,-6.190203
837,1778317051.3745449,-2.5920415,-0.63082945,1.2445848,-2.038152,-5.307197,-5.869193
838,1778317051.3844328,-2.5243547,-0.52686,1.0080466,-2.070375,-5.048954,-5.6537104
839,1778317051.3946548,-2.4539237,-0.23031832,0.5764971,-2.2171354,-4.39151,-5.3049064
840,1778317051.404171,-2.3994083,-0.039270584,0.43892804,-2.574797,-3.5037704,-4.965571
841,1778317051.4146068,-2.414226,0.13055639,0.58405846,-2.856864,-2.3312144,-4.688238
842,1778317051.42467,-2.6322267,0.16257046,0.9237734,-2.618932,-1.561677,-4.5367436
843,1778317051.434246,-2.8848636,0.2734306,1.2328159,-1.8249599,-0.79198676,-4.309196
844,1778317051.4443583,-3.1844542,0.65296495,1.0906734,-0.21365012,-0.2687807,-3.8369973
845,1778317051.454283,-3.4500182,1.000973,0.36630186,0.92149025,-0.22220223,-3.2348368
846,1778317051.4642947,-3.5088634,1.2389138,-0.46551496,1.2925909,-0.1815797,-2.4284947
847,1778317051.4743576,-3.395015,1.6342417,-1.572043,-0.41263947,-0.9466884,-1.6740762
848,1778317051.4845555,-2.7816257,1.5478952,-1.1464083,-3.4208453,-3.3089044,-0.9651671
849,1778317051.4945703,-2.7816257,1.5478952,-1.1464083,-5.296507,-5.3142223,-0.408058
850,1778317051.5042815,-2.072804,1.3402001,0.4861869,-5.6747856,-5.653405,-0.301462
851,1778317051.5145285,-1.9655416,1.5719819,1.3169671,-1.2742649,-2.2860105,-2.0147862
852,1778317051.5244558,-3.8729699,1.7147952,1.5054537,3.1454978,0.087201014,-2.5792258
853,1778317051.5343277,-3.8729699,1.7147952,1.5054537,3.1454978,0.087201014,-2.5792258
854,1778317051.5445254,-5.078528,1.439962,0.069638215,6.6388836,1.5467108,-2.0607538
855,1778317051.5546148,-5.649598,1.3181866,-1.3774585,7.688197,1.4605788,-0.98624194
856,1778317051.5646207,-6.040596,1.2798308,-3.0602396,5.652336,0.7680103,0.10751228
857,1778317051.574749,-6.381226,1.1976918,-3.4105647,2.5633433,0.67088276,1.0261009
858,1778317051.5841584,-6.5225143,1.1811665,-2.8613863,-0.055741455,0.26710084,2.2919664
859,1778317051.5942683,-6.2015204,0.8846858,-1.7013798,-2.2522602,-0.5513059,3.9892554
860,1778317051.6045194,-5.7771053,0.31654286,-0.42014647,-3.4549012,-0.82756966,5.0772066
861,1778317051.6142662,-5.3466535,-0.16013129,0.66430706,-3.8449385,-0.97509366,5.706703
862,1778317051.624485,-4.9773026,-0.46825904,1.5237474,-2.9938505,-1.534799,6.145915
863,1778317051.634331,-4.818574,-0.66412413,2.0560346,-2.803108,-1.5919148,6.1830254
864,1778317051.644548,-4.7816815,-0.92773706,2.5354528,-1.8548924,-1.6844609,6.2951193
865,1778317051.654137,-4.8807116,-1.1156139,2.8491907,-0.31856623,-1.2021828,6.3960648
866,1778317051.664204,-4.8458314,-1.23245,2.8343725,1.2631166,-0.24663684,6.587418
867,1778317051.6742837,-4.756619,-1.2953805,2.763393,2.1951442,0.52656585,6.8164926
868,1778317051.6843274,-4.6409416,-1.3375171,2.748819,2.8701503,1.2362386,6.9631004
869,1778317051.6946335,-4.4716024,-1.3177598,2.6327145,3.476434,1.7241671,7.1271176
870,1778317051.704466,-4.2374425,-1.299649,2.420873,3.8081338,1.7814357,7.3891788
871,1778317051.714432,-3.8979714,-1.2775136,2.1565282,3.8314996,1.5317446,7.6251254
872,1778317051.724584,-3.0407262,-1.3305655,1.9023671,3.3060026,0.46883908,7.9491897
873,1778317051.7345243,-3.0407262,-1.3305655,1.9023671,3.3060026,0.46883908,7.9491897
874,1778317051.744519,-2.6003957,-1.3494691,2.0259109,3.1338913,-0.15393804,7.9042907
875,1778317051.7542171,-2.2559853,-1.4296566,2.2525704,3.310126,-0.4503604,7.859392
876,1778317051.7644572,-1.9766397,-1.5391752,2.3922737,3.8374555,-0.4569272,7.835416
877,1778317051.7746418,-1.7634565,-1.6333269,2.4193485,4.825072,-0.17150041,7.735081
878,1778317051.7842803,-1.4172778,-1.8257164,2.2721448,5.6537104,0.3631594,7.5585413
879,1778317051.7941902,-1.2886118,-1.8741947,2.1044521,6.509533,1.3947581,7.330536
880,1778317051.8041723,-1.2181199,-1.8377292,1.8532789,6.968751,2.2088888,7.1842337
881,1778317051.8143668,-1.1281146,-1.7458336,1.4831352,6.8132854,2.5396724,7.0661836
882,1778317051.8244963,-1.1189067,-1.6709511,1.355262,6.1259093,2.529593,6.9284334
883,1778317051.8345346,-1.0929296,-1.5994835,1.3883737,5.476407,2.3344216,6.8171034
884,1778317051.8441546,-1.0914661,-1.5551517,1.6046059,4.8349986,2.1169536,6.6446867
885,1778317051.8542218,-1.0954298,-1.4968556,1.8685846,4.564996,2.1184807,6.4530277
886,1778317051.864687,-1.0115224,-1.4551458,1.978835,4.6190577,2.14093,6.3229136
887,1778317051.8746896,-0.8063885,-1.455024,1.929076,4.791627,2.0674734,6.061463
888,1778317051.884355,-0.55533725,-1.4148387,1.8126667,4.8543935,2.0627391,5.6268325
889,1778317051.8945897,-0.38575423,-1.3211137,1.7374794,4.817436,2.1800253,5.233741
890,1778317051.904193,-0.27410138,-1.2337306,1.6624141,4.782464,2.484389,4.7343583
891,1778317051.914352,-0.14043503,-1.1464083,1.50149,4.705953,3.172376,3.9741366
892,1778317051.9244804,-0.14043503,-1.1464083,1.50149,4.691903,3.1867313,3.90068
893,1778317051.9343166,-0.033721477,-1.0740261,1.2978196,4.572632,3.0427198,3.6329684
894,1778317051.9444876,-0.0020123124,-0.9651173,1.0647572,4.1488442,2.568841,3.3858733
895,1778317051.9542584,-0.059515666,-0.8991378,0.91706574,3.4871242,2.0207422,3.3509014
896,1778317051.9643195,-0.14391084,-0.9477383,0.8761487,2.944065,1.5781704,3.48239
897,1778317051.9743598,-0.077809416,-1.0856122,0.7677887,2.2919664,1.1047498,3.7481165
898,1778317051.98429,0.0515274,-1.2036678,0.64003736,1.5257887,0.6114761,3.9301543
899,1778317051.9944563,0.42453694,-1.5088686,0.41459736,0.8686504,0.19929479,3.8211148
900,1778317052.004301,0.8962718,-2.005178,0.550337,0.25137106,0.045814894,3.097545
901,1778317052.0146992,0.92706627,-2.3337338,0.8707215,0.4083634,0.3361286,1.7933476
902,1778317052.024424,0.5864976,-2.3039148,0.8600502,1.4057536,0.8501717,0.4841107
903,1778317052.0341964,0.12756842,-2.1031713,0.4644783,2.4110851,1.1395692,-0.19394971
904,1778317052.0441635,-0.5792411,-1.6074109,-0.386364,3.2879822,1.5346462,-0.08002335
905,1778317052.054283,-0.8687092,-1.3294678,-1.4633172,3.0089695,1.1936307,1.0685561
906,1778317052.0646524,-0.47289345,-1.2415968,-2.918463,1.7163786,0.16554448,2.3674083
907,1778317052.074413,0.8207796,-1.5828972,-3.7105212,-1.0054842,-1.1099422,3.2846224
908,1778317052.0846822,1.7405285,-1.9523699,-3.4995944,-3.8988473,-1.9549215,2.698192
909,1778317052.0944097,2.019691,-2.1502473,-2.5783212,-5.1379876,-1.7026341,1.6791159
910,1778317052.1045206,2.019691,-2.1502473,-2.5783212,-4.828584,-0.1516473,0.7715228
911,1778317052.1142294,1.7405285,-1.7268691,-0.41252404,-2.7936394,1.2198979,0.42821655
912,1778317052.1243834,2.063657,-1.4206927,-0.5554592,-0.7480045,1.3240504,0.27580565
913,1778317052.1344407,2.5274644,-1.3687993,-1.355384,0.9228647,0.80954915,-0.07192938
914,1778317052.144144,2.8587034,-1.522101,-2.0423143,1.2654073,0.1067487,-0.678824
915,1778317052.15427,2.8372388,-1.7085143,-2.2613516,0.9630291,-0.3755294,-1.3744467
916,1778317052.1642911,2.654972,-1.7350403,-2.2164097,0.31306845,-0.8481864,-2.3102922
917,1778317052.1741962,2.2084215,-1.5464318,-1.9801766,-0.3239113,-1.2793045,-3.0091221
918,1778317052.1841996,1.9290149,-1.4509383,-1.7919948,-0.61315596,-1.4596626,-3.2769866
919,1778317052.1942382,1.34642,-1.3681285,-1.3834953,-1.0848967,-1.58321,-3.6467128
920,1778317052.2045803,0.9724348,-1.3560548,-1.1047596,-1.4072808,-1.5583172,-3.8136318
921,1778317052.2146397,0.5919248,-1.325809,-0.6650998,-1.7763962,-1.4498887,-4.052938
922,1778317052.2242277,0.25769794,-1.3022101,-0.19037697,-1.9358319,-1.3148874,-4.35608
923,1778317052.2346485,-0.030977417,-1.3123327,0.13177599,-1.918575,-1.4052955,-4.6347876
924,1778317052.2441895,-0.21086596,-1.3205649,0.28440684,-1.8860464,-1.7267634,-4.808426
925,1778317052.254419,-0.4059383,-1.3085519,0.39886475,-1.9839376,-2.2678373,-5.0681963
926,1778317052.2643216,-0.6354639,-1.2914168,0.5499711,-2.3380868,-2.6881125,-5.3075027
927,1778317052.2744925,-0.80712026,-1.2722083,0.8063275,-2.826779,-2.7789788,-5.4901514
928,1778317052.2845078,-0.9832891,-1.2378161,1.1362249,-3.175583,-2.6309967,-5.635537
929,1778317052.2946048,-1.5620424,-0.8822466,2.066096,-3.2210925,-1.8606955,-5.839719
930,1778317052.3041332,-1.8943179,-0.6269268,2.5025241,-2.7714956,-1.581072,-5.684712
931,1778317052.3146806,-1.9505405,-0.58265597,2.5589297,-2.65986,-1.568702,-5.629123
932,1778317052.3245714,-2.1420152,-0.44496498,2.7071092,-2.2099578,-1.628414,-5.3586626
933,1778317052.3341668,-2.2637298,-0.31434762,2.660582,-1.7941113,-1.93797,-4.8727193
934,1778317052.3442795,-2.157016,-0.18775485,2.4545333,-1.7096591,-2.446057,-4.427857
935,1778317052.3542569,-1.873402,-0.10616472,2.0855486,-2.0398319,-3.513086,-3.9483275
936,1778317052.3644311,-1.2040946,-0.17153439,1.5845437,-2.8612928,-4.7051897,-3.657403
937,1778317052.3746152,-1.1438472,-0.187328,1.5645425,-3.6801577,-5.5487943,-3.5859318
938,1778317052.3847244,-0.96676373,-0.2406238,1.5552737,-4.5882087,-6.194174,-3.580892
939,1778317052.394235,-0.840171,-0.2833702,1.5928369,-5.069418,-6.2680883,-3.5628715
940,1778317052.4042673,-0.729006,-0.3357513,1.6529623,-5.340795,-5.9229493,-3.510337
941,1778317052.4142048,-0.67839324,-0.36160645,1.662353,-5.3272033,-5.237864,-3.4526103
942,1778317052.4242997,-0.7038825,-0.38051,1.6083865,-5.194798,-4.406629,-3.3889277
943,1778317052.4342387,-0.7645568,-0.40874338,1.5414314,-5.1315737,-3.520111,-3.2614095
944,1778317052.444682,-0.658697,-0.51563984,1.6263144,-5.1810536,-2.8334985,-3.142138
945,1778317052.4542022,-0.658697,-0.51563984,1.6263144,-5.318498,-2.3133466,-3.1645875
946,1778317052.4641814,-0.6914428,-0.56363046,1.8306557,-5.4373116,-2.1902573,-3.412904
947,1778317052.4743695,-0.8720631,-0.5185059,2.0185323,-5.3973,-2.2957842,-3.768733
948,1778317052.4841325,-1.0668916,-0.40136486,2.0805483,-5.2551208,-2.5894578,-3.979787
949,1778317052.49457,-1.2443409,-0.21482961,2.078109,-4.9698467,-3.0860913,-4.101502
950,1778317052.5045536,-1.3547132,-0.056161813,2.0708525,-4.816367,-3.2252157,-4.1286855
951,1778317052.5145915,-1.5254549,0.21867129,2.0506685,-4.5185704,-3.3228016,-4.1237984
952,1778317052.5246146,-1.7669934,0.52179873,1.9534067,-4.28018,-3.4116824,-4.0784416
953,1778317052.5346725,-1.9980434,0.81980395,1.8107765,-4.3288965,-3.5964692,-4.0269766
954,1778317052.5446491,-2.2697666,1.1187238,1.8199234,-4.563316,-3.7204747,-3.9920044
955,1778317052.5547915,-2.6822906,1.5419192,2.0099344,-4.6347876,-3.5995235,-3.9321396
956,1778317052.5641623,-3.2419574,2.0703647,2.248302,-4.426788,-3.2247577,-3.7811031
957,1778317052.5742857,-4.1451197,3.1026201,2.2959266,-3.063031,-2.1084013,-2.6972754
958,1778317052.584451,-4.1451197,3.1026201,2.2959266,-2.9555187,-2.0040963,-2.5552492
959,1778317052.5946422,-4.3359237,3.3013513,2.1373198,-2.7020097,-1.5117388,-2.05266
960,1778317052.6046565,-4.686066,3.3668427,2.0571322,-2.6277895,-0.8009971,-1.7212656
961,1778317052.6150024,-4.874675,3.4141624,1.9684684,-2.8232665,-0.22220223,-1.5088371
962,1778317052.624529,-5.1030416,3.6181378,2.2469604,-3.2450688,0.14278975,-0.9805914
963,1778317052.634603,-5.531969,3.7054603,2.757478,-3.1630602,0.57818395,-0.21487185
964,1778317052.6441846,-5.673197,3.407455,3.3462927,-2.3538165,0.78786343,1.0320568
965,1778317052.6543741,-5.133775,2.8280919,3.8566272,-0.8335256,0.92149025,2.0134118
966,1778317052.6645184,-5.133775,2.8280919,3.8566272,1.2347114,1.3449726,2.5541804
967,1778317052.6745257,-4.862784,2.5914316,3.199272,2.97751,1.8668042,2.9950724
968,1778317052.6846664,-4.666187,2.3879442,2.5339894,3.6677876,2.5411994,3.3987014
969,1778317052.6945357,-4.410501,2.0714624,2.0659742,3.549127,2.9718595,3.953978
970,1778317052.7045074,-4.230674,1.8376681,1.9282833,2.9486465,3.0066788,4.487263
971,1778317052.714327,-3.9774883,1.510149,2.0261548,2.0303633,2.9206994,5.1772356
972,1778317052.724275,-3.7776597,0.9098092,2.309159,0.46746463,2.1372647,6.1877594
973,1778317052.7345226,-3.436664,0.35471582,2.7172928,0.46746463,2.1372647,6.1877594
974,1778317052.7443442,-2.89212,-0.08274873,3.2763495,0.15958855,1.2947289,6.4898324
975,1778317052.7547143,-2.3278797,-0.3295924,3.7286322,0.68936145,0.6748534,6.594901
976,1778317052.7641318,-1.8099227,-0.61759704,3.8393095,1.8826867,0.5896377,6.485251
977,1778317052.7743285,-1.4674027,-0.8052299,3.74967,3.061351,0.86574876,6.296952
978,1778317052.7844746,-1.077319,-0.9080408,3.4900815,4.453513,1.5628988,6.0145793
979,1778317052.7943044,-0.7889485,-0.9261516,3.1066446,5.499467,2.124742,5.6555433
980,1778317052.8046138,-0.8222431,-0.8696239,2.4667902,6.002515,2.149482,5.3183455
981,1778317052.8145535,-0.83962214,-0.8764536,2.3903224,6.1764584,1.5615243,4.9971833
982,1778317052.824387,-0.9049918,-0.9225539,2.1288435,5.934861,0.6957755,4.857295
983,1778317052.8345563,-0.95694613,-1.0082905,1.9266369,5.643326,0.095294975,4.847674
984,1778317052.8447065,-0.9458478,-1.1027473,1.8131545,5.3560667,-0.24923302,4.8827987
985,1778317052.85465,-0.8617576,-1.1687877,1.7919948,5.275432,-0.3746131,4.9032626
986,1778317052.8642857,-0.7883387,-1.2289132,1.7859578,5.401423,-0.2649628,4.9043317
987,1778317052.8743184,-0.68046653,-1.2881849,1.7612612,5.646075,0.16737708,4.8872275
988,1778317052.8846734,-0.6099746,-1.3281872,1.7652858,5.8540745,0.66782844,4.8469105
989,1778317052.8945432,-0.5822291,-1.3526399,1.7663836,6.087272,1.239751,4.732526
990,1778317052.9046884,-0.58472925,-1.369775,1.7572367,6.194479,1.4671456,4.6476154
991,1778317052.9141994,-0.6165604,-1.3693483,1.5880805,6.3391013,1.750129,4.5058947
992,1778317052.924352,-0.62918305,-1.378861,1.4744763,6.3363523,1.882534,4.4318275
993,1778317052.9344,-0.62918305,-1.378861,1.4744763,6.210209,1.8471038,4.393648
994,1778317052.944447,-0.646867,-1.4422183,1.337456,5.8581977,1.6412421,4.377155
995,1778317052.954639,-0.6300368,-1.5608228,1.1861058,5.297271,1.1945469,4.4096837
996,1778317052.9646158,-0.49191895,-1.6110086,1.062745,4.543616,0.4196644,4.3568435
997,1778317052.9742408,-0.3614845,-1.6143625,1.0687819,3.7392588,-0.52320606,4.0897427
998,1778317052.9844513,-0.25452703,-1.6747928,1.1739099,3.2765284,-1.2217305,3.7362046
999,1778317052.9946675,-0.11104306,-1.6224728,1.2712327,3.0433307,-1.8471038,3.2023084
1000,1778317053.0044584,-0.08659042,-1.5535053,1.290685,3.0999885,-2.05266,2.8115072
