id,timestamp,acc_x,acc_y,acc_z,gyro_x,gyro_y,gyro_z
1,1778316216.5169404,-4.5680103,0.26336902,3.5039241,0.117744274,-0.7816021,-4.4642034
2,1778316216.5169477,-4.5680103,0.26336902,3.5039241,0.117744274,-0.7816021,-4.4642034
3,1778316216.5273545,0.64528155,0.45819747,-0.056710627,2.1633792,0.39400807,-3.1719177
4,1778316216.5373547,0.64528155,0.45819747,-0.056710627,2.1633792,0.39400807,-3.1719177
5,1778316216.5471966,-0.13061738,0.20793895,0.015122834,1.6895006,0.35170567,-3.8394408
6,1778316216.5574155,-0.13061738,0.20793895,0.015122834,1.6895006,0.35170567,-3.8394408
7,1778316216.5668797,-0.4369767,0.24440451,0.2876997,1.4097242,0.26557365,-4.014759
8,1778316216.577148,-0.8125474,0.56869173,0.6008277,1.7322611,-0.72433347,-2.9509373
9,1778316216.587169,-0.70394355,0.6434522,0.6132065,2.1169536,-0.8390234,-2.2638667
10,1778316216.5972817,-0.59082717,0.6465011,0.5524103,2.5042422,-0.73899424,-1.7479908
11,1778316216.6071947,-0.39526698,0.6343663,0.4223417,2.738356,-0.56596667,-1.4944818
12,1778316216.6171753,-0.26355198,0.68656445,0.26995477,2.738356,-0.56596667,-1.4944818
13,1778316216.6270084,-0.24696562,0.83078015,0.14452063,2.6719246,-0.27779096,-1.6142114
14,1778316216.6373444,-0.24696562,0.83078015,0.14452063,2.6719246,-0.27779096,-1.6142114
15,1778316216.6469564,-0.36922884,0.98030114,0.08024859,2.3367124,-0.30573806,-1.8689423
16,1778316216.6573865,-1.009998,1.5581397,0.24135554,1.2487613,-0.28588495,-2.3554964
17,1778316216.6669,-1.009998,1.5581397,0.24135554,1.2487613,-0.28588495,-2.3554964
18,1778316216.6769128,-2.2222028,2.3498933,1.2392186,0.6559166,-0.03268129,-2.6700919
19,1778316216.686879,-3.006151,2.4577653,1.6625971,1.0629056,0.24388795,-2.1746802
20,1778316216.6975443,-3.480325,2.4901452,1.823887,1.9158261,0.42943826,-1.118647
21,1778316216.7072601,-3.8119297,2.514781,1.7712618,2.9413161,0.44440445,0.18661933
22,1778316216.7172065,-3.7131433,2.4547775,1.5456389,3.6289978,0.5128214,1.1867584
23,1778316216.7271821,-3.7131433,2.4547775,1.5456389,3.6289978,0.5128214,1.1867584
24,1778316216.7368746,-3.1132305,2.0210936,0.78650934,4.036292,0.7473936,2.2377522
25,1778316216.7470834,-3.1132305,2.0210936,0.78650934,3.9891028,0.946383,2.7595837
26,1778316216.7573032,-2.576248,1.6500354,0.34264195,3.5278995,1.270447,3.416722
27,1778316216.7672496,-2.0643888,1.308186,0.04841746,2.7808113,1.3859005,3.7522397
28,1778316216.7770774,-1.6690608,1.0094491,-0.080492504,1.9112446,1.2244794,3.7803395
29,1778316216.786978,-1.2356819,0.4613074,-0.037014354,0.34788775,0.63529986,3.50881
30,1778316216.7973304,-1.1042107,0.23111105,0.015610667,0.34788775,0.63529986,3.50881
31,1778316216.8069627,-1.1042107,0.23111105,0.015610667,-0.055741455,0.42562035,3.45597
32,1778316216.8173637,-0.6419887,-0.25214887,0.20104831,-0.36270124,0.10293079,3.4545956
33,1778316216.8274055,-0.39941353,-0.39959648,0.2923341,-0.19272798,0.10338894,3.3299792
34,1778316216.8369308,-0.24794129,-0.49161404,0.33703187,0.118507855,0.3031419,3.1080823
35,1778316216.847373,-0.15208204,-0.5550324,0.35142294,0.2779437,0.41462478,3.0111074
36,1778316216.8571527,0.015488708,-0.70473623,0.31215236,0.8565858,0.7965683,2.7365236
37,1778316216.8669298,0.015488708,-0.70473623,0.31215236,0.8565858,0.7965683,2.7365236
38,1778316216.877334,0.13177599,-0.8591965,0.21592724,1.3671165,1.154688,2.5175283
39,1778316216.8870096,0.46978348,-1.1302489,-0.24428254,1.9703459,1.5578591,2.1068742
40,1778316216.8969052,0.94255495,-1.0806727,-0.6466231,1.6426166,1.1314751,1.6239853
41,1778316216.9074142,1.1451279,-1.0753067,-0.7227251,1.0114402,1.0114402,1.0019717
42,1778316216.9172752,1.240926,-0.97591066,-0.75095844,0.090713486,0.88438016,0.17730364
43,1778316216.9272933,1.1498841,-0.9615805,-0.64796466,-0.7316638,0.6618725,-0.5177083
44,1778316216.9370296,1.1498841,-0.9615805,-0.64796466,-0.7316638,0.6618725,-0.5177083
45,1778316216.9473386,0.98908216,-1.0367678,-0.3421541,-1.7481437,0.21563543,-1.342529
46,1778316216.9568737,0.98908216,-1.0367678,-0.3421541,-1.7481437,0.21563543,-1.342529
47,1778316216.9673576,0.9360302,-1.0668305,-0.23306239,-2.0146337,0.04337143,-1.6667458
48,1778316216.9772708,0.86309916,-1.0912832,-0.088846646,-2.2423337,-0.051159963,-2.0674734
49,1778316216.9875395,0.73979926,-1.091832,0.20068243,-2.2977695,0.029474247,-2.4921775
50,1778316216.9972908,0.73979926,-1.091832,0.20068243,-2.1740694,0.19730948,-2.9733865
51,1778316217.0071352,0.63363457,-1.1003691,0.31526232,-1.8837557,0.37201694,-3.5472944
52,1778316217.0168734,0.15817997,-1.0843315,0.27995536,-1.5671748,0.4972443,-4.0197988
53,1778316217.0270905,-0.112872444,-1.068477,0.15702136,-0.9295842,0.5850562,-4.8548517
54,1778316217.0373645,-0.47850356,-1.0031073,-0.02555027,-0.78969604,0.7881689,-5.1332536
55,1778316217.0474322,-0.81632805,-0.875173,-0.19696271,-0.86437434,1.0708468,-5.3812647
56,1778316217.0572858,-1.0490856,-0.7954123,-0.25361237,-1.0586295,1.1722504,-5.581323
57,1778316217.0670493,-1.618692,-0.6442449,-0.23397705,-1.7869335,1.041678,-6.139043
58,1778316217.077156,-1.618692,-0.6442449,-0.23397705,-1.7869335,1.041678,-6.139043
59,1778316217.087253,-2.2646444,-0.51387143,-0.09884723,-2.6247354,0.5305365,-6.540229
60,1778316217.0974624,-3.5133147,-0.005183229,0.6079623,-3.568064,-0.049021937,-6.3493333
61,1778316217.107049,-3.5133147,-0.005183229,0.6079623,-3.568064,-0.049021937,-6.3493333
62,1778316217.1169925,-4.0001116,0.46020976,1.0632328,-2.917187,0.569021,-5.3039904
63,1778316217.127292,-4.0001116,0.46020976,1.0632328,-2.917187,0.569021,-5.3039904
64,1778316217.1372182,-4.2227464,0.9024917,1.2756232,-1.809841,1.2409728,-4.6324964
65,1778316217.1469162,-4.2227464,0.9024917,1.2756232,-1.4046847,0.9767735,-4.10868
66,1778316217.1573918,-3.99255,1.1039059,1.018535,-1.4046847,0.9767735,-4.10868
67,1778316217.1671834,-3.6505177,1.1686656,0.7743745,-1.4576772,0.44608435,-3.5686748
68,1778316217.1772404,-3.2590315,1.1412252,0.61515784,-1.6505579,0.15241088,-3.3458617
69,1778316217.1869822,-2.8804119,1.1222606,0.6447328,-2.041359,-0.20311269,-3.114191
70,1778316217.197241,-2.6994867,1.2566587,1.0570129,-1.7273742,0.051159963,-2.4761422
71,1778316217.2070248,-2.6994867,1.2566587,1.0570129,-1.7273742,0.051159963,-2.4761422
72,1778316217.217396,-2.0804265,1.3014174,0.983594,-0.5823073,0.53038377,-1.6105462
73,1778316217.227314,-1.7632736,1.2930633,0.8371221,-0.17989981,0.65087694,-1.3628404
74,1778316217.236971,-1.7632736,1.2930633,0.8371221,-0.17989981,0.65087694,-1.3628404
75,1778316217.2469556,-1.2215346,1.2515974,0.5494223,0.20372356,0.605062,-1.0125091
76,1778316217.2571979,-1.0985397,1.241109,0.51948154,0.24862215,0.4792238,-0.8518516
77,1778316217.2670012,-1.0985397,1.241109,0.51948154,0.30955598,0.3484986,-0.67057735
78,1778316217.277195,-0.8777341,1.2340964,0.49954134,0.30955598,0.3484986,-0.67057735
79,1778316217.2873,-0.6587579,1.2194613,0.5147861,0.44638976,0.15347989,-0.4550946
80,1778316217.2972684,-0.40648714,1.150433,0.57033813,1.0173961,-0.038026363,0.008552114
81,1778316217.3072128,-0.36563107,1.0840876,0.58241206,1.3277156,0.06994407,0.18845193
82,1778316217.317306,-0.32879966,1.0116444,0.55259323,1.7203492,0.22082779,0.40439278
83,1778316217.327278,-0.28483367,0.921944,0.50002915,2.0783162,0.38973203,0.569021
84,1778316217.3372254,-0.31007907,0.9507263,0.5017976,2.3054054,0.41599923,0.73273283
85,1778316217.3471065,-0.31007907,0.9507263,0.5017976,2.5305092,0.26740626,0.9755518
86,1778316217.3573515,-0.37648538,0.8875518,0.46240503,2.5305092,0.26740626,0.9755518
87,1778316217.3673034,-0.54917836,0.781509,0.36599696,2.62275,0.12293663,1.1053606
88,1778316217.3772223,-0.54917836,0.781509,0.36599696,2.648559,-0.14630222,1.3365731
89,1778316217.3875716,-0.6344882,0.7642519,0.33849534,2.5497515,-0.52381694,1.587486
90,1778316217.3969913,-0.9338349,0.7148588,0.54442203,2.3261747,-1.3069462,2.0709858
91,1778316217.4072943,-0.9338349,0.7148588,0.54442203,2.3947444,-1.6432275,2.3243423
92,1778316217.4171166,-1.0423169,0.65881896,0.7894363,2.5908322,-1.9494237,2.4933991
93,1778316217.4270008,-1.0423169,0.65881896,0.7894363,2.5908322,-1.9494237,2.4933991
94,1778316217.436923,-1.068355,0.68699133,0.83754885,2.778826,-2.0189097,2.4901922
95,1778316217.447142,-1.4813058,0.94218916,1.188301,2.9222267,-1.9086485,2.3848178
96,1778316217.4573498,-1.8198622,1.0409753,1.4268516,3.4825428,-1.4114041,2.257758
97,1778316217.4671698,-2.046522,1.0647572,1.5511271,3.7253616,-1.2403619,2.3558018
98,1778316217.4773932,-2.046522,1.0647572,1.5511271,3.7253616,-1.2403619,2.3558018
99,1778316217.486987,-2.367638,0.9846916,1.688513,4.1761804,-0.96593064,2.6650524
100,1778316217.4971507,-2.5711257,0.75095844,1.7028433,4.618294,-0.7305948,2.9781208
101,1778316217.5070148,-2.8007731,0.5371045,1.38441,4.7594037,-0.20097467,3.1349604
102,1778316217.5169225,-2.8007731,0.5371045,1.38441,4.7594037,-0.20097467,3.1349604
103,1778316217.5269156,-2.9896255,0.5214329,1.1351881,3.7201693,-0.1554652,3.599829
104,1778316217.5375037,-2.9896255,0.5214329,1.1351881,3.7201693,-0.1554652,3.599829
105,1778316217.5474057,-2.6461911,-0.051405437,0.98103285,2.6444356,-0.5697846,4.3780713
106,1778316217.5569048,-2.4197752,-0.24513626,0.92828584,2.320677,-0.74296486,4.5448375
107,1778316217.5672333,-2.4197752,-0.24513626,0.92828584,1.8645134,-1.040609,4.6702175
108,1778316217.5774112,-1.4970386,-0.73601854,0.70644367,1.545031,-1.3026701,4.6158504
109,1778316217.587037,-1.4970386,-0.73601854,0.70644367,1.545031,-1.3026701,4.6158504
110,1778316217.5969646,-0.6655876,-0.93974996,0.4914921,1.2731959,-1.2875512,4.0179663
111,1778316217.6071537,-0.31471348,-0.9843867,0.39441326,1.2750285,-0.9477574,3.529274
112,1778316217.616941,-0.31471348,-0.9843867,0.39441326,1.2750285,-0.9477574,3.529274
113,1778316217.6273797,0.12890996,-0.95328736,0.23666015,1.387275,-0.1965459,2.5265386
114,1778316217.6369696,0.12890996,-0.95328736,0.23666015,1.387275,-0.1965459,2.5265386
115,1778316217.6470656,0.26275924,-0.9252369,0.12348281,1.4401149,0.12599096,2.0069978
116,1778316217.656993,0.44075742,-0.948287,-0.11872645,1.2789991,0.16310102,1.1818715
117,1778316217.6670308,0.55369085,-0.9772521,-0.22117145,0.9816604,-0.123547494,0.6589709
118,1778316217.6769598,0.55369085,-0.9772521,-0.22117145,0.9816604,-0.123547494,0.6589709
119,1778316217.687098,0.775716,-1.0173155,-0.2891632,0.26343563,-0.82604253,-0.904386
120,1778316217.69708,1.1865326,-0.8386465,-0.27916262,0.26343563,-0.82604253,-0.904386
121,1778316217.7073908,1.1638484,-0.68516195,-0.25489292,-0.16218472,-0.89934635,-2.8113546
122,1778316217.7172573,1.1638484,-0.68516195,-0.25489292,-0.16218472,-0.89934635,-2.8113546
123,1778316217.7272134,0.8469397,-0.96633685,-0.25556368,-0.15790866,0.051465396,-4.099517
124,1778316217.7374392,0.55527633,-1.0521346,-0.17281497,-0.27473664,0.30115658,-4.5796566
125,1778316217.7472165,0.31635994,-1.0184131,-0.019696271,-0.32268956,0.31581733,-4.7972775
126,1778316217.757104,0.31635994,-1.0184131,-0.019696271,-0.32268956,0.31581733,-4.7972775
127,1778316217.7669382,-0.20940247,-0.8070593,0.18464492,0.2490803,0.020922136,-4.533842
128,1778316217.7770846,-0.20940247,-0.8070593,0.18464492,0.626595,-0.28160888,-4.114941
129,1778316217.7875805,-0.33825144,-0.6666852,0.059027832,0.626595,-0.28160888,-4.114941
130,1778316217.7968762,-0.5073467,-0.68308866,-0.228306,0.65194595,-0.5299256,-3.5999815
131,1778316217.8070652,-0.058357064,-0.49502888,-0.27501604,0.18524489,-2.0508273,-3.0060678
132,1778316217.8174143,-0.058357064,-0.49502888,-0.27501604,0.18524489,-2.0508273,-3.0060678
133,1778316217.8269303,-0.035367917,-0.47734493,-0.485943,-0.06872234,-2.763249,-3.190702
134,1778316217.8373306,-0.53649473,-0.725896,-0.89962566,-1.3901765,-3.492011,-3.585321
135,1778316217.8470454,-0.67680776,-0.7768746,-0.9311519,-1.9326249,-3.3820555,-3.8114936
136,1778316217.8569844,-0.67680776,-0.7768746,-0.9311519,-1.9326249,-3.3820555,-3.8114936
137,1778316217.867284,-1.4930749,-0.54301953,-0.35203275,-3.885561,-1.5233452,-4.5587344
138,1778316217.8772957,-1.9880428,-0.47472283,0.07537025,-4.1276164,-0.4633413,-4.799721
139,1778316217.886968,-1.9880428,-0.47472283,0.07537025,-4.1276164,-0.4633413,-4.799721
140,1778316217.8969452,-3.6869833,-0.25556368,1.2384869,-3.6943603,2.5616634,-4.599357
141,1778316217.9069993,-3.6869833,-0.25556368,1.2384869,-3.6943603,2.5616634,-4.599357
142,1778316217.9173224,-4.3946466,-0.1832424,1.5214303,-2.7119362,2.0442605,-3.0708196
143,1778316217.926947,-4.1147523,-0.113116354,1.4237416,-2.476295,1.2618948,-1.9182696
144,1778316217.9370582,-3.5353894,0.03158721,1.4833792,-2.4527767,0.84971356,-1.3058772
145,1778316217.94694,-3.2361033,0.123604774,1.6069231,-2.2310326,0.95737857,-1.2147056
146,1778316217.9573574,-3.0874362,0.21909817,1.654182,-1.912161,1.1678216,-1.2324207
147,1778316217.9675112,-3.005907,0.35142294,1.5842388,-1.1858422,1.518611,-1.1846204
148,1778316217.9769351,-2.8846195,0.48447952,1.4747202,-1.1858422,1.518611,-1.1846204
149,1778316217.9876926,-2.6105793,0.61967033,1.24678,0.3585779,1.5958854,-0.7283041
150,1778316217.9970548,-2.6105793,0.61967033,1.24678,0.3585779,1.5958854,-0.7283041
151,1778316218.0073276,-1.6519867,0.7253472,0.5517395,1.3900238,0.78694713,-0.61193424
152,1778316218.017209,-1.6519867,0.7253472,0.5517395,1.3900238,0.78694713,-0.61193424
153,1778316218.0274045,-1.0755506,0.78425306,0.16372907,0.979217,0.3744604,-0.7799222
154,1778316218.0374126,-0.8244384,0.8122425,0.04494165,0.44058657,0.5719226,-0.82772243
155,1778316218.0472586,-0.8244384,0.8122425,0.04494165,0.44058657,0.5719226,-0.82772243
156,1778316218.0569396,-0.60314494,0.85456204,0.025123417,-0.11636983,0.8032878,-0.89766645
157,1778316218.0669284,-0.40758476,0.94566494,0.2333063,-0.59223384,0.82756966,-1.1861476
158,1778316218.0769432,-0.40758476,0.94566494,0.2333063,-0.59223384,0.82756966,-1.1861476
159,1778316218.0872784,-0.43539125,0.9857892,0.3242872,-0.5884159,0.7452556,-1.3081679
160,1778316218.09695,-0.57228947,1.0893928,0.48917487,-0.49296826,0.6965391,-1.2803736
161,1778316218.1069243,-0.7299207,1.2551342,0.5907662,-0.15286903,0.5465717,-0.8240572
162,1778316218.116958,-0.7283961,1.2920876,0.48752844,0.4428773,0.0035124752,0.42180246
163,1778316218.1273932,-0.72400564,1.2054362,0.3784367,0.5661194,-0.15485434,1.1241448
164,1778316218.1375482,-0.72400564,1.2054362,0.3784367,0.5661194,-0.15485434,1.1241448
165,1778316218.1474216,-0.6168653,1.0972592,0.41752437,0.7318166,0.06688975,2.5266914
166,1778316218.1574345,-0.5213109,1.0636597,0.35508168,0.7974846,-0.021533,2.8325822
167,1778316218.1668985,-0.5213109,1.0636597,0.35508168,0.7974846,-0.021533,2.8325822
168,1778316218.1773312,-0.1911087,0.9079188,0.22281788,0.48701233,-0.73364913,2.9384146
169,1778316218.187456,-0.1911087,0.9079188,0.22281788,0.48701233,-0.73364913,2.9384146
170,1778316218.1969314,-0.27580878,0.857428,0.33556834,0.21594086,-1.1713341,2.8515189
171,1778316218.2074564,-0.4434405,0.8493178,0.5130787,0.105832405,-1.4391985,2.8829784
172,1778316218.2168877,-0.4434405,0.8493178,0.5130787,0.105832405,-1.4391985,2.8829784
173,1778316218.2271476,-0.7622396,0.75480014,0.8476104,0.41508293,-2.1743748,3.0731103
174,1778316218.2372043,-0.8818807,0.6483915,1.0003633,1.1447614,-2.8515189,2.9642236
175,1778316218.2470949,-1.1542137,0.6771737,1.1368346,1.5922203,-3.101821,2.9077187
176,1778316218.2571418,-1.2742816,0.6961991,1.28477,2.058005,-2.9917126,2.7954721
177,1778316218.2672942,-1.2742816,0.6961991,1.28477,2.058005,-2.9917126,2.7954721
178,1778316218.2770731,-1.6206434,0.89371073,1.6177773,2.9313896,-2.3177755,2.2117903
179,1778316218.2868798,-1.6206434,0.89371073,1.6177773,2.9313896,-2.3177755,2.2117903
180,1778316218.2968774,-2.0543883,0.9817646,1.7863847,3.4997997,-1.9133826,2.0325015
181,1778316218.307002,-2.432581,0.8911496,1.8717556,4.0607266,-1.4837917,2.1922426
182,1778316218.3170404,-2.6567404,0.66436803,1.8309605,4.5367436,-1.0079277,2.3864977
183,1778316218.3272178,-2.9251707,0.46179524,1.6720488,4.9851184,-0.5018258,2.4987442
184,1778316218.3373208,-2.9251707,0.46179524,1.6720488,4.9851184,-0.5018258,2.4987442
185,1778316218.3470912,-2.8096151,0.26233238,1.4073992,4.716185,-0.7855727,2.5176811
186,1778316218.3570511,-2.6638749,0.015671646,1.1606165,4.5706463,-1.2299771,2.559831
187,1778316218.3670554,-2.6638749,0.015671646,1.1606165,4.5706463,-1.2299771,2.559831
188,1778316218.3772607,-2.6638749,0.015671646,1.1606165,4.5706463,-1.2299771,2.559831
189,1778316218.3875465,-2.6638749,0.015671646,1.1606165,4.5706463,-1.2299771,2.559831
190,1778316218.3972402,-1.6115575,-0.6408301,0.53869,3.7041342,-1.900249,2.437505
191,1778316218.407375,-1.150433,-0.8502325,0.41673166,3.4032829,-2.0030272,1.8819231
192,1778316218.4171684,-0.5984496,-0.89291793,0.25001457,3.1283937,-1.5134187,1.5960382
193,1778316218.4273949,-0.3003224,-0.86547726,0.20281671,3.1283937,-1.5134187,1.5960382
194,1778316218.4373612,-0.105067104,-0.910419,0.12756842,3.2146783,-0.27259862,1.4573717
195,1778316218.4472957,0.09848136,-0.96194637,-0.05689356,3.2129984,0.20906863,1.3020593
196,1778316218.4574153,0.09848136,-0.96194637,-0.05689356,3.2129984,0.20906863,1.3020593
197,1778316218.466973,0.27404037,-0.9862771,-0.41904885,2.6018279,0.7266242,0.95814216
198,1778316218.476996,0.27404037,-0.9862771,-0.41904885,2.6018279,0.7266242,0.95814216
199,1778316218.4870365,0.27769914,-1.0037171,-0.47795472,2.2702806,0.7846564,0.86819226
200,1778316218.4971673,0.3052617,-1.0841485,-0.61107224,1.6001616,0.74174315,0.73914695
201,1778316218.5072522,0.3905106,-1.1628118,-0.6940649,0.79152864,0.50732356,0.58001655
202,1778316218.5172653,0.66052634,-1.3746535,-0.66778284,-1.1157454,-0.5015204,-0.049632803
203,1778316218.5272021,0.7716304,-1.4264247,-0.4656369,-1.9440787,-1.1827878,-0.6236934
204,1778316218.537162,0.86358696,-1.4678905,-0.27434528,-2.3813055,-1.8070921,-1.1856894
205,1778316218.5474036,0.85047644,-1.4415475,-0.042319544,-2.6120598,-2.5977044,-1.8692477
206,1778316218.557295,0.9573729,-1.4385595,0.048112564,-2.4801128,-3.2349896,-2.5583036
207,1778316218.5673764,0.9399329,-1.3292239,0.040551145,-2.2209532,-3.3672419,-3.3228016
208,1778316218.5770495,0.7981563,-1.2240958,-0.01603752,-1.9857702,-2.8973339,-3.8342485
209,1778316218.5871317,0.7981563,-1.2240958,-0.01603752,-1.9857702,-2.8973339,-3.8342485
210,1778316218.597154,0.64076906,-1.1682999,-0.08043153,-1.7675385,-2.3677137,-4.1355577
211,1778316218.607362,0.26800343,-1.018718,-0.22757424,-1.2441798,-1.0575604,-4.4619126
212,1778316218.617345,-0.034758125,-0.8949303,-0.50679785,-0.982424,-0.16890424,-4.587751
213,1778316218.6274157,-0.73711616,-0.75461715,-1.050671,-1.9891299,0.44043383,-4.439005
214,1778316218.637246,-1.1824471,-0.71376115,-1.0900027,-2.8677068,0.43967026,-4.200004
215,1778316218.6470027,-1.7361379,-0.6211338,-0.9874967,-4.042859,0.49373183,-3.7649152
216,1778316218.6574163,-2.1792126,-0.56247187,-0.8308411,-5.1466923,0.9275989,-3.1656563
217,1778316218.6672223,-2.1792126,-0.56247187,-0.8308411,-5.1466923,0.9275989,-3.1656563
218,1778316218.6773636,-3.1542695,-0.55869114,0.1039085,-6.6129217,2.6169467,-2.2828035
219,1778316218.6871884,-3.270557,-0.61741406,0.46557596,-6.824128,3.2276592,-2.2391264
220,1778316218.697281,-3.270557,-0.61741406,0.46557596,-6.824128,3.2276592,-2.2391264
221,1778316218.7070622,-3.4641047,-0.5899125,1.4106311,-6.6356764,3.4208453,-2.5471554
222,1778316218.7170286,-3.6801538,-0.4455748,2.0749383,-5.9470787,3.2458324,-2.8722885
223,1778316218.7272017,-4.5801454,0.22879384,2.593932,-2.7475193,3.2253685,-2.9932396
224,1778316218.7373776,-4.7520456,0.34306878,2.4266658,-1.6633861,3.057686,-2.3284657
225,1778316218.7473254,-4.7520456,0.34306878,2.4266658,-0.64965516,2.4570527,-1.3356569
226,1778316218.7573879,-3.6672263,0.7760209,1.6089354,-0.14828753,1.7434094,-0.7699956
227,1778316218.7674286,-3.1074984,0.8129743,1.2952585,-0.07422013,1.1879802,-0.7199047
228,1778316218.7771575,-3.1074984,0.8129743,1.2952585,-0.07422013,1.1879802,-0.7199047
229,1778316218.7873683,-2.2373867,0.7644348,0.76297134,-0.14614952,0.6638578,-0.7622071
230,1778316218.797304,-2.2373867,0.7644348,0.76297134,-0.2968805,0.037873644,-0.6988298
231,1778316218.8072617,-1.5388093,0.7704108,0.49752906,-0.73624533,-0.70295316,-0.52931476
232,1778316218.8172429,-1.5388093,0.7704108,0.49752906,-0.73624533,-0.70295316,-0.52931476
233,1778316218.826873,-1.5388093,0.7704108,0.49752906,-0.73624533,-0.70295316,-0.52931476
234,1778316218.8373663,-0.94566494,0.86736774,0.48917487,-1.1728612,-0.7096727,-0.46181414
235,1778316218.847326,-0.94566494,0.86736774,0.48917487,-1.2864822,-0.62949663,-0.31215215
236,1778316218.8573813,-0.7388236,0.992253,0.48490632,-1.3837625,-0.4877759,0.2125811
237,1778316218.8668854,-0.7388236,0.992253,0.48490632,-1.3837625,-0.4877759,0.2125811
238,1778316218.8773348,-0.30465192,1.1420788,0.49502888,-1.4601207,-0.6754643,0.66798115
239,1778316218.88698,-0.30465192,1.1420788,0.49502888,-1.4601207,-0.6754643,0.66798115
240,1778316218.8973415,-0.16976601,1.1685438,0.509176,-1.449736,-0.89659745,0.7826711
241,1778316218.9069045,-0.09232246,1.1603726,0.5334458,-1.404532,-1.1386528,0.8436049
242,1778316218.9169967,-0.02933098,1.1353102,0.59204674,-1.2895365,-1.4379768,0.9300423
243,1778316218.9272575,0.006524771,1.1065279,0.67607605,-0.98715824,-1.7954856,1.1061243
244,1778316218.937146,0.05366167,1.0344505,0.7848019,-0.2049453,-2.2484422,1.4462235
245,1778316218.946877,0.05366167,1.0344505,0.7848019,-0.2049453,-2.2484422,1.4462235
246,1778316218.9571016,0.10110346,0.9380426,0.7512633,0.8848383,-2.2893703,1.8692477
247,1778316218.9671292,0.10110346,0.9380426,0.7512633,0.8848383,-2.2893703,1.8692477
248,1778316218.9771717,0.23074517,0.813706,0.7030898,1.7628044,-1.8446603,1.9436204
249,1778316218.9874036,0.23074517,0.813706,0.7030898,1.7628044,-1.8446603,1.9436204
250,1778316218.9973037,0.152204,0.699797,0.67479545,2.2201898,-1.5969545,1.8356501
251,1778316219.0075421,0.06988213,0.6533308,0.6592458,2.5506678,-1.4318681,1.7374535
252,1778316219.0174065,-0.17903483,0.65412354,0.7031508,2.8447995,-1.187522,1.6610953
253,1778316219.0273669,-0.57643604,0.7297377,0.8308411,3.202003,-0.6760751,1.647809
254,1778316219.0368934,-0.9943263,0.8954181,1.0637206,3.546531,-0.099571034,1.7273742
255,1778316219.0475268,-1.8730972,1.241231,1.5869828,3.932903,0.20952678,1.90086
256,1778316219.0573921,-1.8730972,1.241231,1.5869828,4.370741,0.25809056,2.1574233
257,1778316219.0673509,-2.3483076,1.4447185,1.7041237,4.7166433,-0.009773844,2.4281893
258,1778316219.076968,-3.0229812,1.4890503,1.7389429,4.8582115,-0.3268129,2.6442828
259,1778316219.087023,-3.0229812,1.4890503,1.7389429,4.9651127,-0.54825157,2.9310842
260,1778316219.0970979,-3.1023152,1.1019546,1.671683,5.0674324,-0.7338019,3.109915
261,1778316219.1072721,-3.1042056,0.94042075,1.6060084,5.1358495,-0.8324566,3.1296153
262,1778316219.117251,-3.09951,0.86767256,1.4572802,5.242751,-0.7903069,3.0466905
263,1778316219.1270146,-3.09951,0.86767256,1.4572802,5.242751,-0.7903069,3.0466905
264,1778316219.1373343,-3.1621358,0.58204615,1.0634158,5.1573825,-0.074830994,3.0865493
265,1778316219.14728,-3.1621358,0.58204615,1.0634158,5.1573825,-0.074830994,3.0865493
266,1778316219.1569293,-3.1621358,0.58204615,1.0634158,5.1573825,-0.074830994,3.0865493
267,1778316219.1670496,-3.1621358,0.58204615,1.0634158,5.1573825,-0.074830994,3.0865493
268,1778316219.1770296,-3.1621358,0.58204615,1.0634158,5.1573825,-0.074830994,3.0865493
269,1778316219.1872978,-3.0623128,0.2983101,0.9018819,4.949841,0.13897185,3.385415
270,1778316219.1971755,-1.4727079,-0.9884723,0.16092403,3.7346773,0.0346666,4.0527854
271,1778316219.206909,-1.4727079,-0.9884723,0.16092403,3.7346773,0.0346666,4.0527854
272,1778316219.2169619,-0.5564349,-1.0988446,-0.03445323,3.059824,0.12110403,3.7493382
273,1778316219.2269444,-0.20580468,-1.0923808,-0.07622396,2.7476718,0.34498614,3.4368806
274,1778316219.2373204,0.32245782,-1.044939,-0.11726294,1.9839376,0.80924374,2.453082
275,1778316219.2472153,0.4867357,-1.076953,-0.15641156,1.5909985,0.8713993,1.9645426
276,1778316219.2573922,0.5984496,-1.1201874,-0.20074342,0.66752297,0.86467975,1.0903945
277,1778316219.267481,0.7154686,-1.1629947,-0.24605095,0.12935072,0.84788096,0.6386596
278,1778316219.277112,0.831268,-1.220681,-0.24635585,-0.34193182,0.9246973,0.13576481
279,1778316219.287209,0.9446283,-1.3431271,-0.22812307,-0.7806858,0.7454083,-0.37950003
280,1778316219.2969844,0.9448722,-1.4027648,-0.16330221,-0.7806858,0.7454083,-0.37950003
281,1778316219.3073585,0.9199317,-1.4305104,-0.06841862,-1.0422888,0.6789767,-0.75808376
282,1778316219.3174362,0.8788927,-1.4955751,0.13945936,-1.1844677,0.6397286,-1.4886786
283,1778316219.3270369,0.80346155,-1.5075879,0.2426361,-1.1157454,0.54275376,-2.091908
284,1778316219.3372433,0.591254,-1.4636829,0.22909874,-0.6243043,0.54641896,-3.1728342
285,1778316219.3470576,0.591254,-1.4636829,0.22909874,-0.6243043,0.54641896,-3.1728342
286,1778316219.3570142,0.44953844,-1.3282483,-0.058905877,-0.25488353,0.7357872,-3.9530618
287,1778316219.3670652,0.44953844,-1.3282483,-0.058905877,-0.25488353,0.7357872,-3.9530618
288,1778316219.3770497,0.014756958,-1.2843432,-0.47045428,-0.7602218,0.39935315,-4.7094655
289,1778316219.387341,-0.14128873,-1.2267789,-0.5617401,-1.2638801,-0.036193766,-4.8546987
290,1778316219.3969166,-0.14128873,-1.2267789,-0.5617401,-1.2638801,-0.036193766,-4.8546987
291,1778316219.4072897,-0.45655105,-1.0898806,-0.699614,-2.029447,-0.66828656,-4.897154
292,1778316219.4171667,-1.056769,-0.9970094,-0.78285056,-3.6279287,-0.98807454,-4.669301
293,1778316219.4271977,-1.056769,-0.9970094,-0.78285056,-3.6279287,-0.98807454,-4.669301
294,1778316219.4373317,-1.2650129,-0.9478602,-0.6632704,-4.910135,-0.06001751,-4.8580585
295,1778316219.447406,-2.0100563,-0.9849355,0.0030489585,-5.227174,0.29565877,-5.3644657
296,1778316219.4569526,-2.5139883,-0.98182553,0.39386442,-5.227174,0.29565877,-5.3644657
297,1778316219.4671826,-3.4458718,-0.7313232,0.907248,-4.923574,0.86849767,-6.2158594
298,1778316219.4770114,-3.4458718,-0.7313232,0.907248,-4.923574,0.86849767,-6.2158594
299,1778316219.4870474,-5.1886563,0.21586627,1.5934466,-3.4562755,1.6265814,-5.592166
300,1778316219.4969826,-5.5006866,0.52807957,1.621619,-2.5592198,1.3451253,-4.5953865
301,1778316219.5071883,-5.5130043,0.67180747,1.571799,-2.1733057,1.0627528,-4.03843
302,1778316219.5171463,-5.5130043,0.67180747,1.571799,-2.1733057,1.0627528,-4.03843
303,1778316219.5271382,-5.2729907,0.88047814,1.4600242,-1.6956092,0.56001073,-3.2252157
304,1778316219.5374966,-5.2729907,0.88047814,1.4600242,-1.6956092,0.56001073,-3.2252157
305,1778316219.5474663,-5.2729907,0.88047814,1.4600242,-1.6956092,0.56001073,-3.2252157
306,1778316219.5569499,-5.2729907,0.88047814,1.4600242,-1.6956092,0.56001073,-3.2252157
307,1778316219.5669665,-4.7229586,1.0884172,1.2421457,-1.2287555,0.10354166,-2.4243715
308,1778316219.5773892,-2.1561015,0.98078895,0.15635058,-1.1255192,-0.45952338,-0.38866302
309,1778316219.5868888,-1.5133809,0.9183462,0.032501895,-1.5974126,-0.73991054,-0.23884831
310,1778316219.5969875,-1.5133809,0.9183462,0.032501895,-1.5974126,-0.73991054,-0.23884831
311,1778316219.6072197,-1.5133809,0.9183462,0.032501895,-1.5974126,-0.73991054,-0.23884831
312,1778316219.617404,-0.5382631,0.9115776,0.39380345,-2.7009406,-0.6536258,-0.3744604
313,1778316219.627296,-0.5382631,0.9115776,0.39380345,-2.7009406,-0.6536258,-0.3744604
314,1778316219.6369717,-0.3646554,0.9607268,0.6057671,-2.5294402,-0.4804455,-0.32498032
315,1778316219.6471314,-0.21714681,1.050976,0.83937824,-2.2478313,-0.33276883,-0.26007587
316,1778316219.6573107,-0.14397182,1.0664037,0.8835272,-1.7362317,-0.14950927,-0.12950343
317,1778316219.6673534,-0.14397182,1.0664037,0.8835272,-1.1059716,-0.05024367,0.041080687
318,1778316219.6769805,0.023964813,1.0554274,0.7768746,0.06261369,0.01786781,0.3494149
319,1778316219.687447,0.0690894,1.0140226,0.6429643,0.6047566,0.03680463,0.5111415
320,1778316219.6974318,0.13939838,0.9437136,0.48576006,1.0183123,-0.015118915,0.6386596
321,1778316219.7074153,0.1773884,0.9121874,0.37416816,1.0183123,-0.015118915,0.6386596
322,1778316219.7170596,0.19940189,0.89456433,0.28794363,1.3768903,-0.09514226,0.7554876
323,1778316219.7272875,0.19940189,0.89456433,0.28794363,1.3768903,-0.09514226,0.7554876
324,1778316219.7372065,0.16403395,0.8746242,0.21739073,1.4700472,-0.11071932,0.8089383
325,1778316219.7472475,-0.02792846,0.7982173,0.17061971,1.5647314,-0.18982637,1.0778717
326,1778316219.7569213,-0.1156165,0.7433361,0.14238635,1.5694655,-0.38973203,1.2660183
327,1778316219.7669637,-0.20623155,0.7183956,0.12769037,1.5399913,-0.52656585,1.440573
328,1778316219.7771099,-0.32361645,0.68455213,0.09939604,1.4682146,-0.72021013,1.680643
329,1778316219.787126,-0.43807435,0.66436803,0.07097975,1.4682146,-0.72021013,1.680643
330,1778316219.7968786,-0.43807435,0.66436803,0.07097975,1.3622295,-0.91981035,1.933083
331,1778316219.8073874,-0.5166155,0.7293108,0.13945936,1.1314751,-0.9407325,2.1058052
332,1778316219.817328,-0.6374762,0.8396832,0.29550505,1.0458013,-0.874759,1.8894062
333,1778316219.8270555,-0.6374762,0.8396832,0.29550505,1.0458013,-0.874759,1.8894062
334,1778316219.8372653,-0.96645886,1.0404875,0.61040145,1.0876455,-0.6985244,1.5787812
335,1778316219.847012,-2.3247697,1.4148996,1.3959961,2.0554087,0.12858713,1.1724031
336,1778316219.857464,-3.0959122,1.3569084,1.5356994,2.0554087,0.12858713,1.1724031
337,1778316219.8670468,-3.667836,1.1561041,1.4042283,3.542255,0.18417588,1.9242256
338,1778316219.8769593,-3.934071,0.99408233,1.1801298,3.779576,-0.02565634,2.3483188
339,1778316219.887262,-4.0327964,0.8368171,0.8620015,3.6483927,-0.32268956,2.846174
340,1778316219.897149,-4.0327964,0.8368171,0.8620015,3.6483927,-0.32268956,2.846174
341,1778316219.9073777,-3.8515053,0.43337893,0.53283596,2.5549438,-0.95829487,3.7233763
342,1778316219.9169285,-3.6367977,0.20354846,0.48234522,2.5549438,-0.95829487,3.7233763
343,1778316219.9270012,-3.6367977,0.20354846,0.48234522,2.207056,-1.1226176,3.9466476
344,1778316219.9370003,-3.3096445,-0.09500554,0.4603927,1.704314,-1.3232869,4.1977134
345,1778316219.947472,-2.520147,-0.62753665,0.368863,1.0729848,-1.3817772,4.3768497
346,1778316219.9572365,-2.1551259,-0.76815456,0.30812773,0.8935431,-1.1771374,4.347528
347,1778316219.9673095,-1.6971112,-0.87956345,0.23672113,0.7454083,-0.9095783,4.2493315
348,1778316219.9769068,-1.2506827,-0.959934,0.20263378,0.5697846,-0.5377141,4.039346
349,1778316219.9871225,-1.2506827,-0.959934,0.20263378,0.5697846,-0.5377141,4.039346
350,1778316219.997229,-0.5080174,-1.0241451,0.35514265,0.6763805,0.5381723,3.3629658
351,1778316220.007283,-0.14567922,-0.99103343,0.43215933,0.99173975,1.0902418,2.9753718
352,1778316220.0170588,-0.14567922,-0.99103343,0.43215933,0.99173975,1.0902418,2.9753718
353,1778316220.0272973,0.27702835,-0.895479,0.2739794,1.920255,2.2050707,2.1481075
354,1778316220.0370688,0.27702835,-0.895479,0.2739794,1.920255,2.2050707,2.1481075
355,1778316220.0471466,0.50789547,-0.84242725,-0.1308613,2.315332,2.784782,1.4442382
356,1778316220.0571294,0.50789547,-0.84242725,-0.1308613,2.315332,2.784782,1.4442382
357,1778316220.0672133,0.65180635,-0.89066166,-0.49759,1.4871514,2.1975877,0.68859786
358,1778316220.0770192,0.65180635,-0.89066166,-0.49759,1.4871514,2.1975877,0.68859786
359,1778316220.087101,0.74443364,-0.88968605,-0.5714967,0.09789115,1.4799738,-0.11560625
360,1778316220.097006,0.7428482,-0.8706606,-0.49893156,-0.647059,1.2341005,-0.58459806
361,1778316220.1073763,0.71260256,-0.8632211,-0.4028284,-1.1285735,1.1129965,-0.9431759
362,1778316220.117328,0.6465621,-0.8485861,-0.25160006,-1.5566374,1.0853548,-1.3590225
363,1778316220.1270156,0.6465621,-0.8485861,-0.25160006,-1.5566374,1.0853548,-1.3590225
364,1778316220.1373746,0.57411885,-0.8433418,-0.11976309,-1.7467692,1.1375839,-1.6542231
365,1778316220.147211,0.48429656,-0.8442565,0.039941356,-1.7928895,1.2551754,-1.9824104
366,1778316220.1573834,0.3918521,-0.8586477,0.15537491,-1.6387987,1.3460416,-2.2896757
367,1778316220.1673844,0.2180615,-0.8655993,0.1299466,-1.1085677,1.3797919,-2.7617218
368,1778316220.1770635,0.13799585,-0.8374269,-0.048112564,-0.99189246,1.3274102,-2.9970577
369,1778316220.186941,0.13799585,-0.8374269,-0.048112564,-1.1850786,1.2435689,-3.186273
370,1778316220.197145,-0.090371124,-0.8010833,-0.33227548,-1.4362969,1.1797335,-3.2896621
371,1778316220.207409,-0.2891632,-0.8249872,-0.49746805,-1.4362969,1.1797335,-3.2896621
372,1778316220.216951,-0.2891632,-0.8249872,-0.49746805,-2.169946,0.8338311,-3.5909712
373,1778316220.2271123,-0.49069935,-0.8227309,-0.5307017,-2.9958358,0.5670357,-3.8719695
374,1778316220.236937,-0.6358298,-0.79242426,-0.4540509,-3.6581664,0.29856038,-4.223828
375,1778316220.24739,-1.0309138,-0.7859605,-0.22104947,-4.341725,0.010842858,-4.7836857
376,1778316220.2574098,-2.5299037,-0.775777,0.16165577,-5.371796,-0.05299256,-5.893628
377,1778316220.266963,-3.5733793,-0.56234986,0.5170424,-5.650198,0.19394971,-5.749311
378,1778316220.2772126,-4.2972016,-0.20251182,0.86822134,-5.5458927,0.69806623,-5.1137056
379,1778316220.2874696,-4.781377,0.06774786,1.0497563,-5.2609243,1.1720977,-4.151135
380,1778316220.2973425,-4.838819,0.19062088,1.0167667,-5.0897293,1.267698,-3.1370986
381,1778316220.3069243,-4.296836,0.28135788,0.87688047,-5.109124,0.9053023,-1.8614591
382,1778316220.3168826,-3.4800203,0.257515,0.8454762,-5.332854,0.33307427,-1.1242975
383,1778316220.326971,-3.4800203,0.257515,0.8454762,-5.332854,0.33307427,-1.1242975
384,1778316220.3368886,-3.0578613,0.2373919,0.9188951,-5.4638844,0.09025534,-0.9682214
385,1778316220.3469982,-2.4220314,0.23605035,1.1243339,-5.3330064,-0.18219055,-0.875828
386,1778316220.3571424,-2.007983,0.29379764,1.2395846,-4.0088034,0.27763826,-0.88621277
387,1778316220.3673158,-1.405021,0.43154958,1.1226264,-3.396869,0.58169645,-0.9305005
388,1778316220.3771718,-1.405021,0.43154958,1.1226264,-3.396869,0.58169645,-0.9305005
389,1778316220.3874576,-1.1419569,0.48265013,0.95627534,-2.7864618,0.82359904,-0.9941832
390,1778316220.3971686,-0.9303591,0.5286284,0.8208406,-2.4083362,0.88025683,-1.066418
391,1778316220.407061,-0.81248647,0.59930325,0.72303,-2.140319,0.53038377,-1.0786353
392,1778316220.4174526,-0.81248647,0.59930325,0.72303,-2.140319,0.53038377,-1.0786353
393,1778316220.427376,-0.7945585,0.7882167,0.7977295,-1.7925841,0.0983493,-0.7151705
394,1778316220.4373567,-0.7945585,0.7882167,0.7977295,-1.7925841,0.0983493,-0.7151705
395,1778316220.4469018,-0.7191273,0.86864823,0.78425306,-1.5641204,-0.0067195175,-0.5093089
396,1778316220.4571135,-0.6180239,0.884076,0.7537025,-1.2892311,-0.17730364,-0.28252518
397,1778316220.4671702,-0.5066759,0.95468986,0.7309573,-0.6751588,-0.49571714,-0.06704246
398,1778316220.4771838,-0.59107107,0.9870698,0.6753443,-0.3202461,-0.49541172,0.03481932
399,1778316220.487253,-0.59107107,0.9870698,0.6753443,-0.3202461,-0.49541172,0.03481932
400,1778316220.4971228,-0.88127095,1.0282307,0.61223084,-0.023518313,-0.44226643,0.19303341
401,1778316220.5070314,-1.0819534,1.0528663,0.55350786,0.19043724,-0.48273626,0.39752057
402,1778316220.517126,-1.428376,1.0224986,0.44862375,0.5891795,-0.8680395,1.0699304
403,1778316220.5268893,-1.428376,1.0224986,0.44862375,0.5891795,-0.8680395,1.0699304
404,1778316220.537407,-1.4603292,1.0240232,0.37941238,0.77946407,-0.93951076,1.3811663
405,1778316220.5473495,-1.4891113,1.0601839,0.2294646,0.96959585,-0.8904888,1.6722436
406,1778316220.5572748,-1.7792501,1.1625679,-0.042380523,1.0146471,-0.754724,1.7899879
407,1778316220.5672498,-2.110611,1.2016554,-0.052625023,0.84436846,-0.37751472,2.140319
408,1778316220.5770454,-2.110611,1.2016554,-0.052625023,0.84436846,-0.37751472,2.140319
409,1778316220.5872583,-2.3323922,1.1779346,-0.02859923,0.8089383,-0.12156218,2.5932758
410,1778316220.5972292,-2.5930781,0.90645534,0.04323423,0.8220719,0.25305092,3.1468723
411,1778316220.6073854,-2.5955174,0.734738,0.06597946,0.8492554,1.0728321,4.017508
412,1778316220.617335,-2.5955174,0.734738,0.06597946,0.8492554,1.0728321,4.017508
413,1778316220.6273823,-2.6664362,0.41252404,0.1445816,0.7502952,1.3374895,4.3020186
414,1778316220.6371453,-2.6664362,0.41252404,0.1445816,0.61468315,1.4610369,4.5934014
415,1778316220.6470497,-2.6508255,0.19745055,0.18025441,0.39446622,1.4419475,4.888449
416,1778316220.6568894,-2.596798,0.01695221,0.20970736,0.09819659,1.3130548,5.144249
417,1778316220.6669066,-2.4600215,-0.10732334,0.248795,-0.3378085,1.0207558,5.3586626
418,1778316220.6769636,-2.3337338,-0.1829375,0.3451421,-0.8921687,0.68875057,5.42372
419,1778316220.6871803,-2.1998234,-0.2637349,0.46697846,-0.8921687,0.68875057,5.42372
420,1778316220.6972952,-1.7953486,-0.43600106,0.655648,-0.9398162,0.68508536,5.4177637
421,1778316220.706922,-1.4586828,-0.50838333,0.65003794,-0.48472157,0.9231701,5.3172765
422,1778316220.7169755,-1.4586828,-0.50838333,0.65003794,-0.48472157,0.9231701,5.3172765
423,1778316220.7273788,-1.1631166,-0.53759235,0.5925346,-0.2133447,1.1158981,5.1579933
424,1778316220.7370036,-0.7777893,-0.53606784,0.4677712,0.118202426,1.3541355,4.8563786
425,1778316220.7472243,-0.4358181,-0.4994194,0.32971436,0.3828598,1.5893186,4.4252605
426,1778316220.757298,-0.21293926,-0.4630758,0.21824445,0.54367006,1.7989981,4.013385
427,1778316220.7672796,0.07585809,-0.41545108,0.043600105,0.7687739,2.4596488,2.9272664
428,1778316220.7770576,0.08695629,-0.430269,0.01243975,0.8353582,2.793334,2.4480424
429,1778316220.7868965,0.08695629,-0.430269,0.01243975,0.8353582,2.793334,2.4480424
430,1778316220.797362,0.08470006,-0.4926507,-0.04268542,0.8753699,3.0590603,2.0340285
431,1778316220.8074296,0.13793488,-0.5758263,-0.22464725,0.655153,3.2206342,1.444849
432,1778316220.8172138,0.12628786,-0.64869636,-0.3172746,0.28512135,3.170238,1.1169671
433,1778316220.827204,0.12628786,-0.64869636,-0.3172746,0.28512135,3.170238,1.1169671
434,1778316220.836985,0.10250599,-0.82346267,-0.39154723,-0.7124216,3.0341678,0.6478226
435,1778316220.847044,0.13720313,-0.8856615,-0.3448372,-1.3651311,2.9394836,0.41599923
436,1778316220.8571386,0.15714332,-0.90060127,-0.23598938,-1.3651311,2.9394836,0.41599923
437,1778316220.8670135,0.13427612,-0.94225013,-0.108298995,-2.410169,2.9897273,-0.071013086
438,1778316220.8771377,0.10153031,-1.0051196,-0.015610667,-2.7203357,3.0717359,-0.2591596
439,1778316220.8874002,0.061649937,-1.0707942,0.106957465,-2.7203357,3.0717359,-0.2591596
440,1778316220.897225,0.047075916,-1.0904905,0.23342825,-3.2508721,3.0370693,-0.64843345
441,1778316220.9069273,0.047075916,-1.0904905,0.23342825,-3.2508721,3.0370693,-0.64843345
442,1778316220.9175463,0.044453815,-1.0806118,0.32410428,-3.2924109,2.8571694,-0.784351
443,1778316220.9269152,0.10293283,-1.0859779,0.32648247,-3.201392,2.5567765,-1.1456778
444,1778316220.9370906,0.20769504,-1.0816485,0.24373372,-3.201392,2.5567765,-1.1456778
445,1778316220.9472878,0.37209487,-1.0481099,-0.0012195833,-3.3738089,2.443461,-1.8304577
446,1778316220.9572554,0.37209487,-1.0481099,-0.0012195833,-3.3738089,2.443461,-1.8304577
447,1778316220.9674575,0.3442274,-1.0588423,-0.15525296,-4.3319507,2.5245533,-2.9520063
448,1778316220.9770687,-0.23050125,-1.0290235,-0.17909582,-5.032919,2.4016168,-3.4292448
449,1778316220.9871447,-0.79248524,-0.922066,0.038477857,-5.4925947,2.2983804,-3.6522105
450,1778316220.9971304,-1.4816718,-0.6716855,0.29666364,-5.9056926,2.1087067,-3.8238637
451,1778316221.0071328,-2.4258122,-0.18708408,0.52984804,-6.28168,2.0152445,-3.8003454
452,1778316221.0173974,-2.4258122,-0.18708408,0.52984804,-6.28168,2.0152445,-3.8003454
453,1778316221.0269077,-3.2565925,0.8729168,0.6561358,-7.0722923,1.9226984,-3.1905491
454,1778316221.037051,-3.2565925,0.8729168,0.6561358,-7.0722923,1.9226984,-3.1905491
455,1778316221.0474,-3.5135589,1.340444,0.45331916,-7.952549,1.3115277,-2.7038424
456,1778316221.05711,-3.7327788,1.270135,0.5225915,-9.531636,0.053603426,-1.8315268
457,1778316221.0672817,-2.7302203,0.6487574,1.5946661,-10.901501,-1.0615311,-0.39599338
458,1778316221.0772295,-1.7847992,0.40953606,2.1016471,-10.617601,-0.6429357,1.1064297
459,1778316221.0872853,-1.7847992,0.40953606,2.1016471,-10.617601,-0.6429357,1.1064297
460,1778316221.0969248,-1.0621351,0.29690757,2.6223483,-9.303325,0.36682457,0.95279706
461,1778316221.1072104,-0.6032059,0.53198224,3.061581,-5.4389915,2.947425,-0.2921463
462,1778316221.1169245,-0.6032059,0.53198224,3.061581,-5.4389915,2.947425,-0.2921463
463,1778316221.1271157,-0.7779722,0.6531479,2.9162068,-3.3935091,3.6926804,-1.0888673
464,1778316221.137171,-1.3538595,1.0475001,2.0911586,-0.6737844,3.6219728,-1.5247196
465,1778316221.1471398,-1.3538595,1.0475001,2.0911586,-0.6737844,3.6219728,-1.5247196
466,1778316221.1570678,-1.387703,1.1348833,1.7759573,-0.43386704,3.3557882,-1.396438
467,1778316221.166983,-1.2618419,1.1809835,1.2724524,-0.6656904,2.490345,-1.0409144
468,1778316221.177304,-0.8991378,1.0726236,0.98804545,-1.1914927,1.5598444,-0.7848091
469,1778316221.1870925,-0.66186786,0.9918262,0.9637148,-1.9321668,-0.03145956,-0.3895793
470,1778316221.1970005,-0.66186786,0.9918262,0.9637148,-1.9321668,-0.03145956,-0.3895793
471,1778316221.2070405,-0.45825842,0.88310033,0.9201756,-2.0143282,-0.67057735,-0.31245756
472,1778316221.2169266,-0.45825842,0.88310033,0.9201756,-2.0143282,-0.67057735,-0.31245756
473,1778316221.2271638,-0.53984857,0.8394393,0.9621293,-1.8617646,-0.8208502,-0.14385876
474,1778316221.2370236,-0.5173473,0.81327915,0.99103343,-1.4894422,-0.7987063,0.17806722
475,1778316221.2472405,-0.40465775,0.77638674,0.95694613,-0.9989174,-0.689056,0.43997568
476,1778316221.2573104,-0.365875,0.7469338,0.9258467,-0.70371675,-0.58016926,0.53801954
477,1778316221.2672803,-0.33636108,0.70071167,0.8812099,-0.22036964,-0.35934147,0.64904433
478,1778316221.2771251,-0.3595332,0.6637582,0.8215723,0.75884736,-0.16065755,0.7632761
479,1778316221.2872386,-0.41490227,0.68272275,0.7322988,1.1893547,-0.10445796,0.8240572
480,1778316221.297269,-0.41490227,0.68272275,0.7322988,1.1893547,-0.10445796,0.8240572
481,1778316221.307044,-0.57131386,0.7450435,0.54192185,1.6012305,-0.05467244,1.0476339
482,1778316221.3172226,-0.57131386,0.7450435,0.54192185,1.6012305,-0.05467244,1.0476339
483,1778316221.3272974,-0.77906984,0.8707215,0.40978,1.5989398,-0.1133155,1.2449434
484,1778316221.3372724,-0.8960889,0.92572474,0.4613074,1.4283557,-0.19120082,1.4775304
485,1778316221.3474696,-0.8960889,0.92572474,0.4613074,1.1982121,-0.2554944,1.7398969
486,1778316221.357006,-1.0259135,0.9832281,0.5919248,1.0858129,-0.27397305,1.9095647
487,1778316221.3671465,-1.1448839,1.0726236,0.7476046,0.97173387,-0.36865717,2.1896465
488,1778316221.3771188,-1.2742207,1.1618361,0.87017274,0.8669705,-0.65118235,2.4388795
489,1778316221.387092,-1.4444746,1.2344012,1.2241569,0.70386946,-1.3191634,2.8247936
490,1778316221.397297,-1.4444746,1.2344012,1.2241569,0.70386946,-1.3191634,2.8247936
491,1778316221.4073548,-1.627717,1.2474508,1.5005754,0.84635377,-1.4891367,2.9581149
492,1778316221.4168842,-1.7904094,1.2208639,1.6962576,1.1812607,-1.4845552,3.17879
493,1778316221.4272814,-1.6237532,1.0921369,1.6499743,2.3109033,-1.2392929,3.802178
494,1778316221.43723,-1.6237532,1.0921369,1.6499743,2.3109033,-1.2392929,3.802178
495,1778316221.447238,-1.4202049,0.9884723,1.4819766,2.7635543,-1.0984885,3.7239873
496,1778316221.4572163,-1.4202049,0.9884723,1.4819766,2.7635543,-1.0984885,3.7239873
497,1778316221.4673696,-1.4184364,0.8970036,1.454841,3.054021,-0.9584476,3.514766
498,1778316221.47733,-1.4639878,0.80779105,1.3951423,3.3959527,-0.70157874,3.2899675
499,1778316221.487353,-1.437157,0.5257014,1.1044546,4.214665,0.11911872,3.0424144
500,1778316221.4973173,-1.437157,0.5257014,1.1044546,4.214665,0.11911872,3.0424144
501,1778316221.5071833,-1.3764218,0.3816686,0.87657547,4.4721446,0.47678033,2.9547553
502,1778316221.517043,-1.2605613,0.193182,0.5699113,4.4904704,0.63255095,2.9232957
503,1778316221.5270839,-1.0633547,0.012622688,0.28050417,4.2937717,0.6386596,2.9133692
504,1778316221.5371828,-0.60857207,-0.21580528,-0.071467586,3.4927747,0.37522396,2.7910433
505,1778316221.5472808,-0.60857207,-0.21580528,-0.071467586,3.4927747,0.37522396,2.7910433
506,1778316221.5573604,-0.4103898,-0.28416294,-0.1372641,3.0677652,0.26267207,2.644894
507,1778316221.56724,-0.20232888,-0.37081432,-0.16879034,2.5502098,0.110413894,2.3759604
508,1778316221.5769556,0.14452063,-0.53399456,-0.16885132,1.7718146,-0.052687127,1.664455
509,1778316221.587231,0.28611428,-0.57881427,-0.15031365,1.5163202,-0.03634648,1.2829697
510,1778316221.5969152,0.3825223,-0.6393056,-0.13299556,1.3930782,-0.0355829,0.9644035
511,1778316221.607483,0.48954073,-0.7344941,-0.12525122,1.3338243,-0.0729984,0.5561928
512,1778316221.6169856,0.6318052,-0.83297545,-0.17311986,1.3390167,-0.129198,0.08903361
513,1778316221.626891,0.6318052,-0.83297545,-0.17311986,1.2583824,-0.18493946,-0.5561928
514,1778316221.6372442,0.7530927,-0.9287127,-0.2502585,1.2583824,-0.18493946,-0.5561928
515,1778316221.6470063,0.8675506,-1.150494,-0.42154896,0.622319,-0.5500842,-2.1375701
516,1778316221.6573138,0.8675506,-1.150494,-0.42154896,0.622319,-0.5500842,-2.1375701
517,1778316221.667421,0.7998028,-1.2388527,-0.42661023,0.19624045,-0.850019,-2.9055805
518,1778316221.677195,0.6276586,-1.27916,-0.3956938,-0.35796702,-1.2883148,-3.7933204
519,1778316221.6870508,0.36544815,-1.3049542,-0.39008373,-0.94134337,-1.7583756,-4.493372
520,1778316221.6970673,-0.091224834,-1.2364745,-0.23544057,-2.0228803,-2.2420282,-5.016731
521,1778316221.7072725,-0.091224834,-1.2364745,-0.23544057,-2.0228803,-2.2420282,-5.016731
522,1778316221.7171025,-0.2672717,-1.1540308,-0.10342067,-2.252871,-2.0465512,-4.9502993
523,1778316221.7273645,-0.71876144,-0.87974644,0.095066525,-1.8982637,-0.85062987,-4.11769
524,1778316221.7373023,-0.71876144,-0.87974644,0.095066525,-1.5282321,0.0664316,-3.4697146
525,1778316221.747073,-1.0241451,-0.7440069,-0.00085370836,-1.1890492,1.4271339,-2.588847
526,1778316221.7570865,-1.1735442,-0.6544894,-0.13677627,-1.1890492,1.4271339,-2.588847
527,1778316221.767265,-1.2559268,-0.40447482,-0.44087937,-0.91858864,3.8802161,-1.3373368
528,1778316221.777009,-1.2474508,-0.40904826,-0.6267439,-0.9482156,6.670801,-0.5847508
529,1778316221.7870655,-1.0953078,-0.42837867,-0.65912384,-1.3251194,8.602662,-0.7350236
530,1778316221.7971811,-1.5505784,-0.14628904,-0.31135964,-1.9853121,9.076236,-1.781894
531,1778316221.8072937,-1.5505784,-0.14628904,-0.31135964,-2.6551259,7.97958,-2.9827023
532,1778316221.8172905,-2.3142815,-0.004573438,-0.17610784,-3.7132971,4.1954226,-4.848132
533,1778316221.8273551,-4.2634196,0.9228587,0.16531453,-5.050634,-0.26160303,-5.6637897
534,1778316221.8370974,-4.2634196,0.9228587,0.16531453,-5.050634,-0.26160303,-5.6637897
535,1778316221.847301,-5.2231708,1.4200219,0.83791476,-4.6431866,0.35506544,-4.0016255
536,1778316221.857447,-5.2231708,1.4200219,0.83791476,-4.6431866,0.35506544,-4.0016255
537,1778316221.8670802,-5.061515,1.5903977,1.077319,-3.9953642,1.3385584,-2.7818804
538,1778316221.876899,-4.1192646,1.5943613,0.8991378,-3.249803,1.9214766,-1.4579827
539,1778316221.8870401,-2.8558373,1.2508047,0.67010003,-3.362355,0.9932669,-0.9645562
540,1778316221.8969102,-2.3556862,1.1136016,0.68656445,-3.362355,0.9932669,-0.9645562
541,1778316221.9071696,-2.3556862,1.1136016,0.68656445,-3.529732,-0.053450707,-0.77488256
542,1778316221.9169095,-1.4515481,0.9237734,0.73815286,-3.529732,-0.053450707,-0.77488256
543,1778316221.9270594,-1.4515481,0.9237734,0.73815286,-3.4049628,-0.18845193,-0.7199047
544,1778316221.9370747,-0.83754885,0.8265117,0.75120234,-3.023783,-0.05681047,-0.8978192
545,1778316221.9469175,-0.83754885,0.8265117,0.75120234,-3.023783,-0.05681047,-0.8978192
546,1778316221.957163,-0.6521722,0.7458972,0.7513853,-2.6763535,0.16584991,-1.1763737
547,1778316221.9671302,-0.6521722,0.7458972,0.7513853,-2.6763535,0.16584991,-1.1763737
548,1778316221.9773626,-0.608877,0.75760514,0.7516902,-2.445599,0.344528,-1.2165382
549,1778316221.986986,-0.53009194,0.7774844,0.73571366,-2.165059,0.53130007,-1.1336132
550,1778316221.9969494,-0.40904826,0.79394877,0.71876144,-1.9665279,0.6339254,-1.0520626
551,1778316222.0070133,-0.40904826,0.79394877,0.71876144,-1.9665279,0.6339254,-1.0520626
552,1778316222.0172675,-0.27617463,0.81053513,0.7197981,-1.4694363,0.4654793,-0.8425359
553,1778316222.02727,-0.23111105,0.8387685,0.78876555,-1.2525792,0.36010507,-0.7173085
554,1778316222.037227,-0.23111105,0.8387685,0.78876555,-1.2525792,0.36010507,-0.7173085
555,1778316222.0469682,-0.21214652,0.8577939,0.7832164,-0.54473907,0.004276057,-0.20845777
556,1778316222.0572453,-0.21214652,0.8577939,0.7832164,-0.54473907,0.004276057,-0.20845777
557,1778316222.0670755,-0.17580293,0.8395002,0.7471777,-0.15928312,-0.1965459,0.1217149
558,1778316222.0771766,-0.17580293,0.8395002,0.7471777,-0.15928312,-0.1965459,0.1217149
559,1778316222.0871077,-0.17580293,0.8395002,0.7471777,-0.15928312,-0.1965459,0.1217149
560,1778316222.0972233,-0.17580293,0.8395002,0.7471777,-0.15928312,-0.1965459,0.1217149
561,1778316222.107008,-0.04835648,0.7415676,0.6344882,0.43127087,-0.5083926,0.6189592
562,1778316222.1168785,0.17470531,0.5631426,0.3738023,1.1714869,-1.0302242,1.0842859
563,1778316222.1270146,0.19690172,0.5247867,0.33306822,1.3023647,-1.1032226,1.1304061
564,1778316222.1372228,0.21226847,0.4864308,0.29135844,1.4601207,-1.1664472,1.1615603
565,1778316222.146879,0.1185435,0.44209895,0.22458628,1.7560849,-1.2429581,1.239751
566,1778316222.1571672,0.1185435,0.44209895,0.22458628,1.8382462,-1.2609786,1.3272575
567,1778316222.1670854,0.0834195,0.44191605,0.19976775,1.8382462,-1.2609786,1.3272575
568,1778316222.1770651,0.0078053335,0.44703826,0.15256988,1.9355265,-1.3078625,1.4187346
569,1778316222.1871133,-0.07408969,0.49021152,0.10464026,1.9507982,-1.3196217,1.497078
570,1778316222.1970255,-0.06896744,0.58698547,0.04439283,1.8823812,-1.3536774,1.5013541
571,1778316222.207139,-0.33440974,0.9978631,0.14836231,1.3471106,-1.0651963,0.7115053
572,1778316222.2174358,-0.33440974,0.9978631,0.14836231,1.3471106,-1.0651963,0.7115053
573,1778316222.2273595,-0.8332803,1.238426,0.41843903,1.1078042,-0.7174612,0.32452217
574,1778316222.237647,-2.4171534,1.7952876,1.2422066,1.4694363,-0.084146686,0.5542075
575,1778316222.2469254,-2.4171534,1.7952876,1.2422066,1.4694363,-0.084146686,0.5542075
576,1778316222.257224,-2.8379095,1.8397415,1.3779463,1.7183639,-0.05390886,0.9753991
577,1778316222.267026,-2.8379095,1.8397415,1.3779463,1.7183639,-0.05390886,0.9753991
578,1778316222.277119,-3.6934474,1.7087582,1.475391,2.1688771,-0.7432703,1.9798143
579,1778316222.287175,-3.8174179,1.6396688,1.510332,2.2293527,-1.2238685,2.3367124
580,1778316222.2973833,-3.8507733,1.337639,1.3828245,2.4529295,-1.6021469,2.935513
581,1778316222.3072648,-3.620333,1.0065222,1.1486646,2.4943156,-1.6409367,3.429703
582,1778316222.3169556,-3.620333,1.0065222,1.1486646,2.4943156,-1.6409367,3.429703
583,1778316222.3271286,-3.2889724,0.7181517,0.96566606,2.4284947,-1.6939293,3.7754526
584,1778316222.3370798,-2.8106518,0.39563283,0.7864483,2.235767,-1.8035797,3.994906
585,1778316222.3469203,-2.0803652,-0.098725274,0.62015814,1.8498527,-2.1157317,3.8948767
586,1778316222.3571107,-2.0803652,-0.098725274,0.62015814,1.8498527,-2.1157317,3.8948767
587,1778316222.366929,-1.9603583,-0.19123067,0.59521765,1.8115209,-2.1928535,3.8342485
588,1778316222.3769474,-1.6077157,-0.43508637,0.4932605,1.8252654,-2.2627976,3.7329974
589,1778316222.387203,-1.6077157,-0.43508637,0.4932605,1.8252654,-2.2627976,3.7329974
590,1778316222.397369,-0.6943698,-0.7574832,0.20092636,1.9837849,-1.9117028,3.1196887
591,1778316222.4070032,-0.46508813,-0.8073032,0.12714157,2.0169244,-1.6053538,2.7620273
592,1778316222.417041,-0.32514092,-0.8330364,0.079211935,2.0346394,-1.3096951,2.455831
593,1778316222.4270086,-0.32514092,-0.8330364,0.079211935,2.0346394,-1.3096951,2.455831
594,1778316222.4369805,-0.18226673,-0.85285467,0.043905,2.078927,-0.9314168,2.090228
595,1778316222.4470317,0.021403689,-0.8385855,-0.0049393126,2.296548,-0.33276883,1.5060883
596,1778316222.4571548,0.14799644,-0.8084618,-0.10738432,2.399784,-0.112704635,1.2229522
597,1778316222.4673665,0.14799644,-0.8084618,-0.10738432,2.399784,-0.112704635,1.2229522
598,1778316222.4769063,0.23964813,-0.7748623,-0.18830366,2.3938282,-0.0355829,1.0439687
599,1778316222.4870906,0.37392426,-0.70241904,-0.31007907,2.164601,0.053450707,0.5849035
600,1778316222.4971602,0.46606377,-0.66052634,-0.40179175,1.7898352,0.024129177,0.09285152
601,1778316222.5069582,0.3954499,-0.6122918,-0.418622,1.3327552,-0.15622878,-0.40882155
602,1778316222.516968,0.28959006,-0.6227193,-0.37050945,0.48349985,-0.5590944,-1.0954341
603,1778316222.5272422,0.19940189,-0.63143927,-0.2906877,0.15974127,-0.6597345,-1.2641857
604,1778316222.5372074,0.19940189,-0.63143927,-0.2906877,-0.0030543262,-0.605062,-1.3197744
605,1778316222.5469697,0.14421573,-0.6211948,-0.21848835,-0.0030543262,-0.605062,-1.3197744
606,1778316222.557331,0.11903133,-0.62351197,-0.19403571,-0.04550946,-0.46731192,-1.3141239
607,1778316222.5672758,0.11598238,-0.6447328,-0.22848894,-0.04841107,-0.26236662,-1.2515101
608,1778316222.5770028,0.14006914,-0.65479434,-0.27525997,-0.060170226,-0.15851954,-1.2078333
609,1778316222.5871565,0.2087317,-0.66229475,-0.37685126,-0.1647809,0.009773844,-1.181108
610,1778316222.5971062,0.28257746,-0.68705225,-0.5119201,-0.5035057,0.21655174,-1.2889256
611,1778316222.6073086,0.29013887,-0.74327505,-0.67497844,-1.538006,0.6776023,-1.738828
612,1778316222.61754,0.18366925,-0.7338843,-0.6621118,-2.0103576,1.0031935,-1.9504927
613,1778316222.6269982,-0.054820273,-0.68339354,-0.5653988,-2.4510968,1.6113098,-2.2137756
614,1778316222.6370084,-0.054820273,-0.68339354,-0.5653988,-2.4510968,1.6113098,-2.2137756
615,1778316222.6471653,-0.34575188,-0.60991365,-0.46234405,-2.7073548,2.394439,-2.5244007
616,1778316222.657428,-1.3967887,-0.4631368,-0.14891112,-3.0705142,3.9591703,-3.397327
617,1778316222.6669042,-2.122258,-0.12951976,0.1565945,-3.185204,4.0775256,-4.0811906
618,1778316222.677017,-2.122258,-0.12951976,0.1565945,-3.185204,4.0775256,-4.0811906
619,1778316222.6872566,-2.6952794,0.11799469,0.27458918,-3.344029,3.5746307,-4.4755044
620,1778316222.6970627,-3.712107,0.55393475,0.45655105,-4.008345,1.8138117,-4.8053713
621,1778316222.7069948,-4.507885,1.0859779,1.0143884,-4.3699775,0.6747007,-4.604397
622,1778316222.7169456,-4.4855056,1.8783413,1.9300517,-4.062712,-0.2959642,-3.8049269
623,1778316222.7273407,-3.940108,1.9461502,1.794678,-2.3965771,-0.23060162,-2.5795312
624,1778316222.7373633,-3.940108,1.9461502,1.794678,-2.3965771,-0.23060162,-2.5795312
625,1778316222.7472832,-3.3055587,1.9370643,1.4675246,-1.7417295,-0.02443461,-2.2456934
626,1778316222.7569063,-1.9967628,1.7379062,0.6749174,-0.98975444,-0.0729984,-1.9269744
627,1778316222.7670739,-1.9967628,1.7379062,0.6749174,-0.93660915,-0.076358154,-1.8550451
628,1778316222.7769177,-1.3482493,1.4919773,0.33965397,-0.95065904,-0.058643065,-1.7595973
629,1778316222.7869263,-1.3482493,1.4919773,0.33965397,-0.95065904,-0.058643065,-1.7595973
630,1778316222.7969074,-1.0053635,1.3739216,0.21440275,-1.0398453,-0.023823744,-1.6221527
631,1778316222.8073173,-0.465393,1.270623,0.19641389,-1.1817188,0.075594574,-1.4946345
632,1778316222.8173032,-0.465393,1.270623,0.19641389,-1.2603678,0.17837265,-1.4248432
633,1778316222.8270874,-0.21147576,1.1794591,0.3111767,-1.3417655,0.47510046,-1.0917689
634,1778316222.837235,-0.21147576,1.1794591,0.3111767,-1.3417655,0.47510046,-1.0917689
635,1778316222.8471336,-0.14897211,1.1583602,0.37361938,-1.2899947,0.59315014,-0.8724683
636,1778316222.8573349,-0.02561125,1.0528663,0.45216054,-0.960891,0.54290646,-0.4447099
637,1778316222.8673255,0.023416,0.99316764,0.4290494,-0.70417494,0.4063781,-0.21074851
638,1778316222.877214,0.023416,0.99316764,0.4290494,-0.70417494,0.4063781,-0.21074851
639,1778316222.8869147,0.08689531,0.9371279,0.37130213,-0.5702427,0.31444287,-0.0777326
640,1778316222.8971603,0.14061797,0.90255266,0.31044495,-0.41722095,0.15485434,0.16325374
641,1778316222.9072328,0.24983165,0.95334834,0.24105065,-0.30909783,0.01863139,0.46303585
642,1778316222.9173675,0.24983165,0.95334834,0.24105065,-0.22693644,-0.076816306,0.85811293
643,1778316222.9270124,0.36081374,1.0012169,0.24727054,-0.23533584,-0.22708915,1.2382239
644,1778316222.9370625,0.36081374,1.0012169,0.24727054,-0.23533584,-0.22708915,1.2382239
645,1778316222.9471323,0.2853825,1.0556104,0.35044727,-0.2845105,-0.39553526,1.3874277
646,1778316222.9572287,0.029696856,1.1709219,0.5087492,-0.29153544,-0.58276546,1.4801265
647,1778316222.9671903,-0.181474,1.2423896,0.6135724,-0.22708915,-1.1856894,1.728596
648,1778316222.9768877,-0.181474,1.2423896,0.6135724,-0.22708915,-1.1856894,1.728596
649,1778316222.9876153,-0.3983159,1.3259311,0.76022726,-0.12599096,-1.4625641,1.9117028
650,1778316222.9968991,-0.6013156,1.4130702,0.9459089,0.17256944,-1.7206547,2.2169826
651,1778316223.0072231,-0.78657025,1.5111248,1.0739042,0.6180429,-1.7119498,2.5115724
652,1778316223.0171905,-1.1186019,1.6943061,1.2362306,1.1662945,-1.260215,2.7482827
653,1778316223.0270977,-1.7526023,1.9527359,1.539602,1.924531,-0.45540005,2.9184086
654,1778316223.0371716,-1.7526023,1.9527359,1.539602,1.924531,-0.45540005,2.9184086
655,1778316223.047085,-2.6468618,1.996275,1.9017574,2.310598,-0.3483459,2.9290988
656,1778316223.0573795,-2.6468618,1.996275,1.9017574,2.630233,-0.4644103,2.912911
657,1778316223.066978,-3.0964,1.8781583,2.0421314,3.032335,-0.65301496,2.9958358
658,1778316223.0771344,-3.4398348,1.525028,2.0039585,3.6618316,-0.9051496,3.2893567
659,1778316223.086887,-3.482886,1.0980519,1.6603407,4.2826233,-1.1406381,3.73819
660,1778316223.0974212,-3.3473904,0.8276703,1.2956854,4.426788,-1.1884383,3.9272528
661,1778316223.106975,-3.0665205,0.6141212,0.89029586,4.4145703,-1.1693488,4.085161
662,1778316223.1170032,-2.6825345,0.24977067,0.5052734,3.7378845,-0.7115053,3.974442
663,1778316223.1274042,-2.6825345,0.24977067,0.5052734,3.7378845,-0.7115053,3.974442
664,1778316223.13729,-2.2829382,-0.24818522,0.37191194,3.3518176,-0.634689,3.9237401
665,1778316223.1473825,-2.2829382,-0.24818522,0.37191194,3.0972395,-0.74204856,3.8768563
666,1778316223.157345,-1.963956,-0.5336897,0.25428313,2.8189905,-0.95325524,3.773162
667,1778316223.1672769,-1.5977762,-0.74162865,0.12086072,2.54517,-1.1624765,3.604563
668,1778316223.1768997,-0.8609649,-0.8850516,-0.0582351,2.2612705,-1.3084733,3.385568
669,1778316223.1872973,-0.8609649,-0.8850516,-0.0582351,1.8069394,-1.328021,2.8793132
670,1778316223.1972694,-0.54631233,-0.9029186,-0.09342009,1.8069394,-1.328021,2.8793132
671,1778316223.2072344,-0.21409786,-0.91188246,-0.10677453,1.6012305,-1.2596041,2.4483478
672,1778316223.217297,0.30190787,-0.9089555,-0.16257046,1.5037975,-1.1462886,1.967597
673,1778316223.227393,0.5073467,-0.8979183,-0.26117378,1.5012014,-0.59589905,0.9958631
674,1778316223.2372894,0.63034165,-0.9246881,-0.39294976,1.410946,-0.29947668,0.6082691
675,1778316223.247227,0.74888515,-1.0052416,-0.54820275,1.410946,-0.29947668,0.6082691
676,1778316223.2568712,0.8485861,-1.1075037,-0.6549772,0.657291,0.2854268,-0.36147952
677,1778316223.2668989,0.9135899,-1.1922036,-0.69016224,0.1731803,0.4636467,-0.8145888
678,1778316223.2769089,0.9359693,-1.2473289,-0.6736979,-0.21899518,0.5653558,-1.1884383
679,1778316223.2874174,0.90279657,-1.3194063,-0.57357,-0.9425651,0.70402217,-1.9775236
680,1778316223.2972548,0.7382138,-1.3707508,-0.36160645,-1.3510813,0.82772243,-2.5923593
681,1778316223.3072245,0.7382138,-1.3707508,-0.36160645,-1.3510813,0.82772243,-2.5923593
682,1778316223.3172417,0.3723388,-1.3848369,-0.12903193,-1.5325081,1.1962268,-3.4238997
683,1778316223.3274221,0.25660032,-1.3398343,-0.12079973,-1.4850134,1.3788756,-3.6464074
684,1778316223.3373854,0.25660032,-1.3398343,-0.12079973,-1.4850134,1.3788756,-3.6464074
685,1778316223.3474038,0.17366867,-1.2262301,-0.3067862,-1.5815301,1.5170839,-4.018577
686,1778316223.3572643,0.08902958,-1.1586041,-0.4251468,-1.9106338,1.5864171,-4.2896485
687,1778316223.36738,-0.054820273,-1.1257974,-0.4982608,-2.42147,1.6099354,-4.515516
688,1778316223.3770015,-0.29873693,-1.1230533,-0.53673863,-2.9326112,1.6022996,-4.618905
689,1778316223.3873243,-0.5593619,-1.1110405,-0.49777296,-3.4884987,1.6267341,-4.649906
690,1778316223.3973498,-0.5593619,-1.1110405,-0.49777296,-3.4884987,1.6267341,-4.649906
691,1778316223.40739,-0.81980395,-1.0748188,-0.42087823,-4.181831,1.7040086,-4.6288314
692,1778316223.4174438,-1.7568707,-0.8762097,0.13927643,-4.824461,1.8318322,-4.699081
693,1778316223.4269085,-2.2288496,-0.7236398,0.46941763,-5.5851407,1.707063,-5.327661
694,1778316223.4374113,-2.9914548,-0.5329579,0.86724573,-5.7447295,1.2394456,-5.5261927
695,1778316223.446913,-3.6692996,-0.23440392,1.2622079,-5.7488527,0.4381431,-5.436701
696,1778316223.4569974,-3.6692996,-0.23440392,1.2622079,-5.447391,0.0036651916,-4.868596
697,1778316223.4669805,-4.1236553,0.124641426,1.5771652,-4.96664,0.14920384,-4.269032
698,1778316223.4773817,-4.186525,0.56869173,1.8428514,-4.96664,0.14920384,-4.269032
699,1778316223.4874125,-4.0750546,0.6389397,1.8371803,-3.7048976,1.3100005,-3.2838588
700,1778316223.4972818,-4.0750546,0.6389397,1.8371803,-3.2075007,1.5835154,-3.1291573
701,1778316223.5072691,-3.8591275,0.76797163,1.7962633,-3.2075007,1.5835154,-3.1291573
702,1778316223.5172598,-3.60021,1.1750685,1.6327171,-2.0702224,1.3640621,-2.8475482
703,1778316223.5269973,-3.5112417,1.2534878,1.375873,-1.8278615,0.96837413,-2.5265386
704,1778316223.5369163,-3.325072,1.2199492,1.0967103,-1.8278615,0.96837413,-2.5265386
705,1778316223.5472414,-3.0023093,1.1874473,0.90645534,-1.7041613,0.43218717,-1.8639026
706,1778316223.557195,-3.0023093,1.1874473,0.90645534,-1.822211,-0.23930646,-0.5213735
707,1778316223.5671306,-1.8479736,1.2038507,0.61601156,-1.9669861,-0.4353942,-0.07162395
708,1778316223.577203,-1.3650796,1.1647631,0.5606425,-2.104889,-0.4989242,0.12034045
709,1778316223.5873263,-1.092076,1.1061621,0.56728923,-2.1690297,-0.40958515,0.18142697
710,1778316223.5972478,-1.092076,1.1061621,0.56728923,-2.1690297,-0.40958515,0.18142697
711,1778316223.607276,-0.8924301,1.0434146,0.61460906,-2.1491766,-0.3193298,0.20173825
712,1778316223.617183,-0.71260256,0.9891431,0.68973535,-1.9752327,-0.15592335,0.24144448
713,1778316223.6269348,-0.40319425,0.96560514,0.68583274,-1.3385584,0.029168816,0.27962357
714,1778316223.6373167,-0.40319425,0.96560514,0.68583274,-1.3385584,0.029168816,0.27962357
715,1778316223.6473153,-0.2508683,0.9848745,0.5711919,-0.7690793,0.021838432,0.34223726
716,1778316223.6574214,-0.2508683,0.9848745,0.5711919,-0.7690793,0.021838432,0.34223726
717,1778316223.6669047,-0.22385453,0.9996925,0.52466476,-0.5103779,0.005497787,0.47769663
718,1778316223.6773572,-0.12884897,1.0235354,0.4355132,-0.18921551,-0.07925977,0.88606006
719,1778316223.6869464,-0.034148335,1.0198156,0.39532796,-0.18921551,-0.07925977,0.88606006
720,1778316223.6969657,-0.034148335,1.0198156,0.39532796,-0.061086524,-0.40759984,1.21608
721,1778316223.7068887,0.0646989,0.9408476,0.41813415,-0.0065668016,-0.65286225,1.3796391
722,1778316223.7168894,0.0646989,0.9408476,0.41813415,-0.0065668016,-0.65286225,1.3796391
723,1778316223.7268832,0.028660208,0.834256,0.54826367,0.3352123,-1.0939069,1.6232216
724,1778316223.7373056,-0.056222793,0.79370487,0.61948735,0.659429,-1.2556335,1.7284433
725,1778316223.7471645,-0.09409086,0.7650446,0.6343663,0.659429,-1.2556335,1.7284433
726,1778316223.7571442,-0.18629137,0.7632762,0.5843634,1.3611605,-1.3892603,1.8750509
727,1778316223.7671118,-0.18629137,0.7632762,0.5843634,1.3611605,-1.3892603,1.8750509
728,1778316223.7771146,-0.48362577,0.84395164,0.43563515,1.6300939,-1.6264287,1.9804251
729,1778316223.787263,-0.48362577,0.84395164,0.43563515,1.5711454,-2.0044017,2.1438315
730,1778316223.796976,-0.7680936,0.9169437,0.4679541,1.5711454,-2.0044017,2.1438315
731,1778316223.8073251,-0.86547726,0.99127734,0.5519834,1.574047,-2.1464279,2.2435553
732,1778316223.817159,-0.9931067,1.1393958,0.73168904,1.6891952,-2.2350032,2.317928
733,1778316223.827433,-1.3617258,1.3646528,1.211839,2.3441954,-1.9048306,2.1361957
734,1778316223.837207,-1.6237532,1.4241076,1.4905138,2.9923234,-1.423316,2.0161607
735,1778316223.8470037,-1.6237532,1.4241076,1.4905138,2.9923234,-1.423316,2.0161607
736,1778316223.8572454,-1.8605963,1.3880078,1.6400347,3.6312885,-0.8915578,1.9546161
737,1778316223.8672132,-2.1328683,1.2508047,1.6996723,4.426635,-0.15042557,1.8703166
738,1778316223.877368,-2.3665404,1.0867708,1.6965014,5.1540227,0.5523749,1.6665931
739,1778316223.887083,-3.234884,0.94243306,1.3023931,5.944024,1.5202909,1.1456778
740,1778316223.8970406,-3.234884,0.94243306,1.3023931,5.944024,1.5202909,1.1456778
741,1778316223.9071453,-3.6763122,0.8911496,1.0442683,5.9470787,1.8550451,1.3177891
742,1778316223.9170458,-3.7104602,0.2900779,0.18873052,5.6677604,2.3286183,2.1039727
743,1778316223.9273603,-3.152623,-0.046039272,-0.27739424,3.6781723,2.15498,4.101502
744,1778316223.9371104,-2.534782,-0.298554,-0.49984625,1.9228511,1.1774428,4.5475864
745,1778316223.946869,-2.534782,-0.298554,-0.49984625,1.9228511,1.1774428,4.5475864
746,1778316223.95723,-1.694733,-0.7490681,-0.13592257,-0.9074403,-0.7835874,4.6318855
747,1778316223.967241,-1.694733,-0.7490681,-0.13592257,-0.9074403,-0.7835874,4.6318855
748,1778316223.9772472,-1.2542804,-0.8963328,0.14756958,-1.6781995,-1.4963144,4.565454
749,1778316223.9872339,-0.65881896,-0.97987425,0.47466183,-1.7385225,-1.8307631,4.2358923
750,1778316223.9970431,-0.19062088,-0.97853273,0.626317,-1.2270756,-1.6552922,3.831805
751,1778316224.0070207,-0.19062088,-0.97853273,0.626317,-1.2270756,-1.6552922,3.831805
752,1778316224.0175555,0.12860507,-0.9230417,0.62131673,-0.49556443,-1.349096,3.275154
753,1778316224.0269277,0.36855808,-0.8573061,0.5192986,0.28069258,-1.0103711,2.6546676
754,1778316224.0372298,0.67406374,-0.80943745,0.14756958,0.9639453,-0.6973027,2.0297525
755,1778316224.0473936,0.7244325,-0.8193771,-0.027562585,1.4654657,-0.3987423,1.4025466
756,1778316224.0570395,0.7327257,-0.8475495,-0.24153848,1.7525724,-0.009773844,0.3539964
757,1778316224.0670662,0.7148588,-0.8859054,-0.4358181,1.5610662,0.034055736,-0.117438845
758,1778316224.0773578,0.6884548,-0.91462654,-0.5746067,1.1528554,0.018784106,-0.5149594
759,1778316224.0871172,0.6692464,-0.94029874,-0.62802446,0.72219545,0.04428773,-0.798859
760,1778316224.097434,0.64778167,-0.9609098,-0.6424155,0.2527455,0.13561209,-1.0954341
761,1778316224.107068,0.64778167,-0.9609098,-0.6424155,0.2527455,0.13561209,-1.0954341
762,1778316224.1171336,0.5827169,-0.9846306,-0.6114381,-0.21013765,0.20082195,-1.2380711
763,1778316224.127188,0.53057975,-1.033231,-0.5050904,-0.81016004,0.25702155,-1.487915
764,1778316224.137137,0.57704586,-1.0034122,-0.336605,-1.3967434,0.182496,-2.0395262
765,1778316224.1471934,0.6116211,-0.9755447,-0.33349505,-1.4967725,0.14676037,-2.3385448
766,1778316224.1571164,0.6144261,-0.9298713,-0.36313096,-1.5987871,0.19318613,-2.7750082
767,1778316224.166958,0.56619155,-0.8855395,-0.3838029,-1.7314975,0.3576616,-3.2520938
768,1778316224.1771045,0.56619155,-0.8855395,-0.3838029,-1.7314975,0.3576616,-3.2520938
769,1778316224.187039,0.35343525,-0.8945034,-0.4188659,-1.8860464,0.48563787,-3.7082574
770,1778316224.197414,0.029574897,-0.8099253,-0.49344343,-2.2015584,0.6556111,-4.3165264
771,1778316224.2073038,-0.26733267,-0.7149198,-0.5358849,-2.4810293,0.82695884,-4.648379
772,1778316224.2174294,-0.63241494,-0.6140602,-0.59290045,-2.8302915,0.9138544,-4.844925
773,1778316224.2272732,-0.63241494,-0.6140602,-0.59290045,-2.8302915,0.9138544,-4.844925
774,1778316224.2369924,-1.5866779,-0.28349215,-0.31812832,-4.2529964,1.0746647,-5.2175527
775,1778316224.2470286,-1.5866779,-0.28349215,-0.31812832,-4.2529964,1.0746647,-5.2175527
776,1778316224.2571158,-3.5667324,-0.015000875,0.9847526,-5.4208183,0.9315695,-5.4177637
777,1778316224.2672865,-4.022247,0.21568331,1.6177163,-5.09538,0.839787,-4.995961
778,1778316224.2769217,-4.410501,0.62625605,2.370687,-3.8970149,1.2260065,-4.66136
779,1778316224.287215,-4.410501,0.62625605,2.370687,-3.8970149,1.2260065,-4.66136
780,1778316224.29726,-4.676492,0.7741305,2.5028899,-3.0729575,1.5015068,-4.5782824
781,1778316224.3072495,-5.0473065,0.880966,2.473681,-1.9384282,1.8044959,-4.297895
782,1778316224.3171844,-5.26549,0.9446283,2.1795175,-0.7492262,1.9909625,-3.5144606
783,1778316224.3273063,-5.0042553,1.0493906,1.6952819,-0.004428773,1.8738291,-2.326633
784,1778316224.337211,-5.0042553,1.0493906,1.6952819,-0.004428773,1.8738291,-2.326633
785,1778316224.3470476,-2.5426486,0.9968874,0.21659799,-0.7809912,-0.35002577,0.29520062
786,1778316224.3569052,-1.8682798,0.8842589,0.11451888,-1.5632042,-1.1878275,0.5279403
787,1778316224.3669748,-1.4476454,0.807974,0.18775485,-2.1152737,-1.6891952,0.6009387
788,1778316224.3769076,-1.0601228,0.7391285,0.35624027,-2.28036,-1.804954,0.5914703
789,1778316224.3868723,-1.0601228,0.7391285,0.35624027,-2.28036,-1.804954,0.5914703
790,1778316224.397342,-0.50948095,0.6787591,0.5676551,-1.791515,-1.389413,0.39813143
791,1778316224.4072719,-0.50948095,0.6787591,0.5676551,-1.791515,-1.389413,0.39813143
792,1778316224.4173281,-0.23861149,0.70382154,0.52637213,-0.9981538,-0.9370673,0.09743301
793,1778316224.427018,-0.23861149,0.70382154,0.52637213,-0.9981538,-0.9370673,0.09743301
794,1778316224.436868,-0.1387886,0.7280913,0.42843962,-0.5154176,-0.68844515,-0.076816306
795,1778316224.4474542,-0.03500204,0.7599224,0.21964696,0.1965459,-0.28420505,-0.29840767
796,1778316224.4573417,-0.020123126,0.7805943,0.1662902,0.44089198,-0.14309518,-0.32635477
797,1778316224.4673028,-0.01103723,0.7857166,0.12775135,0.61575216,-0.012675454,-0.31215215
798,1778316224.4770715,-0.01103723,0.7857166,0.12775135,0.61575216,-0.012675454,-0.31215215
799,1778316224.4874532,-0.012622688,0.7704718,0.10488417,0.8338311,0.18127427,-0.24709499
800,1778316224.496893,-0.01762298,0.7394943,0.07195542,1.039998,0.37293324,-0.15134187
801,1778316224.507151,-0.05292992,0.6957113,0.02262327,1.1979067,0.57971114,0.027794369
802,1778316224.5171077,-0.05292992,0.6957113,0.02262327,1.1979067,0.57971114,0.027794369
803,1778316224.52719,-0.06799178,0.68449116,0.02128173,1.1899655,0.53878313,0.13072516
804,1778316224.537226,-0.058722936,0.6851009,0.039270584,1.1134546,0.2649628,0.4017966
805,1778316224.5470238,-0.112994395,0.6832106,0.20379238,1.1287262,0.10842858,0.52473325
806,1778316224.5572882,-0.16671704,0.6909549,0.28050417,1.1287262,0.10842858,0.52473325
807,1778316224.5674431,-0.16671704,0.6909549,0.28050417,1.21608,-0.08109236,0.6426302
808,1778316224.5769289,-0.29105356,0.7254692,0.31514034,1.4253013,-0.3222314,0.9068295
809,1778316224.587261,-0.31434762,0.77333784,0.31825027,1.4892895,-0.4118759,0.99005985
810,1778316224.5973358,-0.31434762,0.77333784,0.31825027,1.4892895,-0.4118759,0.99005985
811,1778316224.6073513,-0.31434762,0.77333784,0.31825027,1.4892895,-0.4118759,0.99005985
812,1778316224.6168883,-0.46185625,0.936762,0.51832294,1.4292719,-0.25213462,0.78038037
813,1778316224.6269197,-0.60284007,1.0485977,0.7505316,1.4631749,-0.0050396384,0.5196936
814,1778316224.6369755,-0.9987778,1.2428774,1.1104306,1.6698002,0.33399057,0.15577064
815,1778316224.6472838,-2.1732974,1.5385044,1.6455228,2.6725354,0.6436992,0.28160888
816,1778316224.6571846,-2.1732974,1.5385044,1.6455228,3.1178563,0.5510005,0.7490735
817,1778316224.667052,-2.6455202,1.4384986,1.4824035,3.233768,0.34574974,1.116509
818,1778316224.6770267,-2.7533925,1.3677628,1.4114238,3.126103,-0.022602014,1.4958563
819,1778316224.6870406,-2.7802231,1.2769647,1.4150826,2.944676,-0.41065416,1.8107573
820,1778316224.6973002,-2.7876625,1.0563421,1.4186803,2.8255572,-0.72097373,2.1079433
821,1778316224.7071362,-2.7876625,1.0563421,1.4186803,2.8255572,-0.72097373,2.1079433
822,1778316224.7171626,-2.7295496,0.88810056,1.3773364,2.7795897,-0.8865182,2.3660338
823,1778316224.7271054,-2.6136892,0.72107863,1.3055639,2.7517953,-0.999681,2.610227
824,1778316224.737481,-2.6136892,0.72107863,1.3055639,2.7517953,-0.999681,2.610227
825,1778316224.7469194,-2.160187,0.27684543,1.0239011,2.6148088,-1.1772901,3.1086931
826,1778316224.7574046,-1.8593767,0.048173543,0.8537083,2.4912612,-1.3432927,3.2766812
827,1778316224.7675564,-1.2930022,-0.2804432,0.5616791,2.1516201,-1.7424932,3.3368514
828,1778316224.777427,-1.0108516,-0.4042309,0.4561242,1.9700404,-1.8988746,3.239724
829,1778316224.786977,-0.8058397,-0.48143053,0.36111864,1.8356501,-1.9556851,3.074332
830,1778316224.7970333,-0.567838,-0.5538128,0.29965162,1.778076,-1.9346102,2.8947377
831,1778316224.80737,-0.567838,-0.5538128,0.29965162,1.778076,-1.9346102,2.8947377
832,1778316224.8170316,-0.4366718,-0.5892417,0.25721014,1.7611245,-1.8745927,2.733011
833,1778316224.8271875,-0.21702486,-0.6493062,0.19129165,1.8089247,-1.6317738,2.3596196
834,1778316224.836882,-0.21702486,-0.6493062,0.19129165,1.8089247,-1.6317738,2.3596196
835,1778316224.8473153,0.18123008,-0.7165662,-0.088114895,2.2033908,-0.69913524,1.3504703
836,1778316224.8570828,0.24592897,-0.7271156,-0.20525588,2.217899,-0.43967026,1.1081096
837,1778316224.8672874,0.24592897,-0.7271156,-0.20525588,2.217899,-0.43967026,1.1081096
838,1778316224.8770356,0.31684774,-0.74803144,-0.34575188,2.0879374,-0.114689946,0.75625116
839,1778316224.8872888,0.4437454,-0.75772715,-0.4874065,1.4862351,0.3494149,0.2742785
840,1778316224.897373,0.48850408,-0.75431234,-0.48752844,0.98272943,0.46914452,-0.15149458
841,1778316224.9069455,0.52850646,-0.7399822,-0.45844138,0.65316767,0.5018258,-0.46777007
842,1778316224.9169228,0.52850646,-0.7399822,-0.45844138,0.65316767,0.5018258,-0.46777007
843,1778316224.9274356,0.50978583,-0.7015653,-0.39819396,0.051923547,0.5334381,-1.2131784
844,1778316224.9369726,0.50978583,-0.7015653,-0.39819396,0.051923547,0.5334381,-1.2131784
845,1778316224.9472957,0.3120304,-0.67503935,-0.22964753,-0.19379699,0.5181664,-1.5712981
846,1778316224.957044,0.3120304,-0.67503935,-0.22964753,-0.32268956,0.5448918,-1.8397734
847,1778316224.9669545,0.1741565,-0.6433302,-0.16031423,-0.31642818,0.59040123,-1.9941696
848,1778316224.9771986,0.09006623,-0.58704644,-0.14104481,-0.24831672,0.6169739,-2.0289888
849,1778316224.9870465,-0.041221917,-0.40173078,-0.26501545,-0.23701571,0.42959097,-1.9645426
850,1778316224.9971192,-0.11122601,-0.33123884,-0.38782752,-0.50320023,0.16325374,-1.91155
851,1778316225.006929,-0.11122601,-0.33123884,-0.38782752,-0.50320023,0.16325374,-1.91155
852,1778316225.017247,-0.106957465,-0.19354787,-0.5424707,-0.97035944,-0.19120082,-1.9301815
853,1778316225.027011,-0.106957465,-0.19354787,-0.5424707,-1.4738652,-0.4636467,-2.1044307
854,1778316225.037169,-0.2625763,-0.105067104,-0.5330189,-2.0723603,-0.6270532,-2.4193318
855,1778316225.0473168,-1.118053,0.12866604,0.10372557,-3.3228016,0.017562376,-3.2102497
856,1778316225.0570612,-1.118053,0.12866604,0.10372557,-3.3228016,0.017562376,-3.2102497
857,1778316225.0670843,-1.8601695,0.33934906,0.72918886,-3.3530393,0.9062186,-3.3476942
858,1778316225.0773473,-2.6132622,0.68583274,1.2887948,-2.6354253,1.1629347,-3.1270192
859,1778316225.087201,-2.6132622,0.68583274,1.2887948,-2.6354253,1.1629347,-3.1270192
860,1778316225.0971131,-2.9777346,0.8363293,1.3699579,-2.3302982,0.69043046,-3.0469959
861,1778316225.1069162,-3.1566477,0.924932,1.3945936,-2.1723895,0.11377365,-2.8799243
862,1778316225.117287,-3.2203708,1.0590862,1.3761778,-1.704314,-1.0803152,-1.9225457
863,1778316225.1274095,-3.0401165,1.1898865,1.293856,-1.704314,-1.0803152,-1.9225457
864,1778316225.1369703,-2.836141,1.2356209,1.1989114,-1.5334245,-1.1687379,-1.5916094
865,1778316225.1469028,-2.502951,1.2745866,1.044756,-1.3267993,-1.1473577,-1.2221886
866,1778316225.1571202,-2.0662792,1.2426945,0.8825515,-1.1876748,-1.1079569,-0.91614515
867,1778316225.166891,-1.9235268,1.226535,0.8116327,-1.1746938,-1.2961034,-0.77579886
868,1778316225.1774044,-1.8152888,1.2222054,0.74120176,-1.1838568,-1.5025758,-0.6365216
869,1778316225.1874218,-1.6269851,1.1657997,0.6358298,-1.19134,-1.7621936,-0.4454735
870,1778316225.197041,-1.4788668,1.12098,0.5763141,-1.1734722,-1.9466748,-0.29794952
871,1778316225.2071455,-1.293856,1.0632328,0.49191895,-1.0980303,-2.0969477,-0.14966199
872,1778316225.2170591,-1.1424447,1.0065831,0.41447538,-0.9960158,-2.1562016,-0.03863723
873,1778316225.2273796,-1.1424447,1.0065831,0.41447538,-0.9960158,-2.1562016,-0.03863723
874,1778316225.2371573,-0.99292374,0.9426159,0.3463007,-0.93951076,-2.1632266,0.005192355
875,1778316225.2473955,-0.81218153,0.86407477,0.28696796,-0.84879726,-2.1326833,0.044898596
876,1778316225.2572696,-0.670283,0.79644895,0.25397822,-0.66630125,-1.870622,0.07544186
877,1778316225.2670674,-0.43240327,0.6504648,0.26330805,-0.537256,-1.5766432,0.13561209
878,1778316225.277007,-0.28580934,0.6121089,0.3017859,-0.345597,-1.1742357,0.21090123
879,1778316225.2869859,-0.1723881,0.5936932,0.32995826,-0.16401732,-0.7318166,0.2770274
880,1778316225.2969825,-0.1723881,0.5936932,0.32995826,-0.16401732,-0.7318166,0.2770274
881,1778316225.3069656,0.117811754,0.52899426,0.37660733,0.25289822,-0.045662176,0.33383787
882,1778316225.3172348,0.27080846,0.47466183,0.44594067,0.42088616,0.13530666,0.24144448
883,1778316225.327227,0.36453345,0.42685416,0.52801865,0.6041457,0.2134974,0.071013086
884,1778316225.3374426,0.36453345,0.42685416,0.52801865,0.6041457,0.2134974,0.071013086
885,1778316225.3472528,0.5116762,0.354167,0.69900423,0.906524,0.2948952,-0.18448131
886,1778316225.3573554,0.74608016,0.32416525,0.9079798,2.271197,0.79901177,-1.0308352
887,1778316225.36727,0.90486985,0.3084936,0.834073,3.0653217,1.158964,-1.5366315
888,1778316225.3771093,1.0280478,0.2654423,0.74144566,3.5897496,1.4485142,-2.012343
889,1778316225.3874652,1.1312855,0.17549805,0.6579652,4.089285,1.771051,-2.7327056
890,1778316225.397115,0.9451161,0.05390558,0.7197371,4.486958,2.0358613,-3.5170567
891,1778316225.4070973,0.46575886,-0.017318083,0.9446892,5.00207,2.213012,-4.0692787
892,1778316225.4173155,0.12189735,0.0036587503,1.0853072,5.440824,2.2583687,-4.195728
893,1778316225.4270434,-0.49027252,0.097444706,1.2894045,6.5516825,2.1728477,-3.9035816
894,1778316225.4368982,-0.49027252,0.097444706,1.2894045,6.5516825,2.1728477,-3.9035816
895,1778316225.4468987,-0.9624342,0.18458393,1.2361088,7.289913,1.8060231,-3.3971744
896,1778316225.457044,-1.2940999,0.33690992,0.4416111,7.4927206,-0.29061913,-1.9775236
897,1778316225.4671104,-1.2940999,0.33690992,0.4416111,7.4927206,-0.29061913,-1.9775236
898,1778316225.4772131,-1.4250832,0.43258622,0.28117493,5.7135754,-2.5868616,-1.3498595
899,1778316225.4871945,-1.797361,0.679186,0.8060836,4.9422054,-3.2591188,-1.1583532
900,1778316225.497064,-1.9357836,0.7923023,1.3167841,4.728097,-3.0868547,-1.086882
901,1778316225.5070996,-1.9357836,0.7923023,1.3167841,4.728097,-3.0868547,-1.086882
902,1778316225.516937,-2.37709,0.74388486,2.1346369,5.913939,-0.91583973,-0.9993755
903,1778316225.5274432,-2.37709,0.74388486,2.1346369,5.913939,-0.91583973,-0.9993755
904,1778316225.5375593,-2.7351596,0.6726002,2.0471926,7.0797753,0.5357288,-0.8190176
905,1778316225.5470514,-2.7351596,0.6726002,2.0471926,7.0797753,0.5357288,-0.8190176
906,1778316225.5570607,-2.9970653,0.83389014,1.5178325,6.9430943,0.7724391,0.13744467
907,1778316225.5668948,-2.951331,0.8587696,1.2823919,6.2387667,0.32742378,0.93187493
908,1778316225.5774307,-2.951331,0.8587696,1.2823919,5.488319,-0.15118915,1.5958854
909,1778316225.587424,-2.616311,0.72687167,1.1397007,4.5259004,-0.71929383,2.3582454
910,1778316225.5972157,-2.350442,0.5783264,1.2040946,3.7032177,-1.1224649,2.9768991
911,1778316225.6069343,-2.0762796,0.40496266,1.2920876,3.0920472,-1.3500122,3.4504724
912,1778316225.6169794,-1.8529129,0.24739249,1.3181257,2.764318,-1.4262177,3.7378845
913,1778316225.6272726,-1.5772871,0.04396598,1.2809284,2.764318,-1.4262177,3.7378845
914,1778316225.6370401,-1.5772871,0.04396598,1.2809284,2.4817927,-1.4306464,4.01369
915,1778316225.647377,-1.401972,-0.07408969,1.2258033,2.3533583,-1.4080443,4.142888
916,1778316225.6571922,-1.0523175,-0.2786748,1.0909173,2.110234,-1.3912456,4.291023
917,1778316225.6672904,-0.562045,-0.56045955,0.8689531,1.7482964,-1.6299412,4.2711697
918,1778316225.677062,-0.36983865,-0.67388076,0.77376467,1.6679676,-1.7901406,4.1647267
919,1778316225.687537,-0.11976309,-0.77766734,0.6612581,1.6256652,-1.9572122,3.9138136
920,1778316225.6972384,0.10653061,-0.8247433,0.5625938,1.6482671,-2.0494528,3.523776
921,1778316225.7072346,0.27166218,-0.82620674,0.4929556,1.6482671,-2.0494528,3.523776
922,1778316225.7170439,0.44246486,-0.7986442,0.38410777,1.7322611,-2.0161607,3.138931
923,1778316225.7270637,0.5422877,-0.77931374,0.2769064,2.0118847,-1.7392861,2.0847304
924,1778316225.7371209,0.5422877,-0.77931374,0.2769064,2.0118847,-1.7392861,2.0847304
925,1778316225.7468698,0.59863245,-0.78657025,0.13439809,2.0518963,-1.5483906,1.3432927
926,1778316225.7570179,0.6144261,-0.81766963,0.08433419,2.0242548,-1.4691309,0.8978192
927,1778316225.7670023,0.73577464,-0.85133016,0.012134855,1.9960022,-1.3672692,0.35048392
928,1778316225.777366,0.7900461,-0.8599892,-0.03524596,1.9796616,-1.2594514,-0.24709499
929,1778316225.7871087,0.8476714,-0.86669695,-0.09579827,1.909412,-1.2527319,-1.4934129
930,1778316225.7973783,0.895479,-0.8955401,-0.17909582,1.7434094,-1.3106114,-2.3095288
931,1778316225.806957,0.895479,-0.8955401,-0.17909582,1.5037975,-1.4153748,-3.0025554
932,1778316225.8173308,0.8503545,-0.9256028,-0.14805742,1.1786644,-1.6450601,-3.83883
933,1778316225.8273623,0.6940039,-0.9341399,0.04164877,0.97509366,-1.9399554,-4.5555277
934,1778316225.8370423,0.6940039,-0.9341399,0.04164877,0.97509366,-1.9399554,-4.5555277
935,1778316225.8469782,0.47051528,-0.9437745,0.36654577,1.2284501,-2.3490822,-5.3921075
936,1778316225.8571734,0.47051528,-0.9437745,0.36654577,1.2284501,-2.3490822,-5.3921075
937,1778316225.8670695,0.008841979,-0.8681604,0.48704064,2.3278546,-2.2473733,-5.86171
938,1778316225.8772805,-0.2505634,-0.74778754,0.44429418,2.8325822,-1.8290832,-5.7273197
939,1778316225.8870358,-0.4235613,-0.597108,0.24696562,3.4393241,-1.1670581,-5.369658
940,1778316225.8969991,-0.51356655,-0.4927117,-0.0043295207,3.653127,-0.6568329,-4.9586987
941,1778316225.9069488,-0.51356655,-0.4927117,-0.0043295207,3.653127,-0.6568329,-4.9586987
942,1778316225.9169266,-0.84590304,-0.33434877,-0.37398523,2.7882943,-0.3080288,-4.0705004
943,1778316225.9273944,-1.2049484,-0.32123825,-0.24598998,2.0874794,-0.4905248,-3.8438694
944,1778316225.9370487,-1.2049484,-0.32123825,-0.24598998,2.0874794,-0.4905248,-3.8438694
945,1778316225.9472654,-1.6604017,-0.29776126,-0.025184397,1.6163495,-0.8078693,-3.7647624
946,1778316225.956956,-1.9293809,-0.28367507,0.1006766,1.4532484,-1.0503827,-3.7956111
947,1778316225.9674423,-2.9630997,-0.21647604,0.49759,1.4395039,-2.1305454,-4.1329618
948,1778316225.9773211,-3.3795264,-0.12110463,0.73193294,1.9472857,-2.1065688,-4.166712
949,1778316225.986944,-3.6358826,-0.011464084,0.845842,2.8554895,-1.3994923,-4.006818
950,1778316225.9974065,-3.7372303,0.059576645,0.8035835,3.751018,-0.48747048,-3.8050797
951,1778316226.007006,-3.7808914,0.08805392,0.591315,4.8247666,0.77472985,-3.4982727
952,1778316226.017141,-3.693813,0.14238635,0.23172083,5.616906,1.8803959,-3.0863967
953,1778316226.0273182,-3.4402008,0.2359284,-0.33099493,5.843995,2.4437664,-2.5460863
954,1778316226.0370708,-3.2504945,0.33971494,-0.8262678,5.290093,2.2850943,-1.9436204
955,1778316226.0473943,-3.1324997,0.40197468,-1.0050586,4.651281,1.9378172,-1.5599971
956,1778316226.0571673,-3.1324997,0.40197468,-1.0050586,4.651281,1.9378172,-1.5599971
957,1778316226.0672412,-2.895474,0.4774059,-1.1168334,3.3802228,1.081995,-0.86529064
958,1778316226.0773551,-2.5921636,0.51320064,-1.0821364,2.1302397,0.065515295,-0.11484267
959,1778316226.0869648,-1.9151728,0.50155365,-0.805047,0.22266038,-1.4359915,0.990518
960,1778316226.0974145,-1.5596032,0.46764925,-0.59338826,-0.52015173,-2.0158553,1.3918564
961,1778316226.1070569,-1.2640373,0.4174634,-0.40978,-1.016938,-2.435825,1.6624697
962,1778316226.1171057,-1.0204864,0.38526636,-0.23544057,-1.29198,-2.666274,1.842675
963,1778316226.1271174,-0.810718,0.37002158,-0.09140777,-1.3753631,-2.7094927,1.9559906
964,1778316226.1375973,-0.6765029,0.3711192,0.006341833,-1.323745,-2.6494753,2.0054705
965,1778316226.1469784,-0.56710625,0.37209487,0.09244442,-1.1878275,-2.5202773,2.0260873
966,1778316226.1569312,-0.56710625,0.37209487,0.09244442,-1.1878275,-2.5202773,2.0260873
967,1778316226.167483,-0.4133778,0.37477797,0.21110988,-0.6627888,-2.1736112,1.9538525
968,1778316226.177285,-0.42063433,0.35630128,0.22446433,-0.4288274,-2.133905,1.882534
969,1778316226.18704,-0.42063433,0.35630128,0.22446433,-0.4288274,-2.133905,1.882534
970,1778316226.1974423,-0.46819806,0.31544524,0.24678269,-0.06246097,-2.1913264,1.8891008
971,1778316226.2072206,-0.49576062,0.2977003,0.29916382,0.16508633,-2.129018,1.9425515
972,1778316226.217255,-0.53057975,0.2950782,0.3422151,0.43569964,-2.0131063,2.0088303
973,1778316226.2271988,-0.53057975,0.2950782,0.3422151,0.7108944,-1.9081903,2.062892
974,1778316226.2370262,-0.6383909,0.29148042,0.39270583,0.7108944,-1.9081903,2.062892
975,1778316226.2469366,-0.6383909,0.29148042,0.39270583,1.0937542,-1.7325666,2.1111503
976,1778316226.2571084,-0.7424214,0.38880318,0.40929216,1.2093605,-1.6610953,2.043955
977,1778316226.2671535,-0.7424214,0.38880318,0.40929216,1.2093605,-1.6610953,2.043955
978,1778316226.2770693,-0.8979183,0.43691576,0.447831,0.9935723,-1.5709927,1.5603025
979,1778316226.286981,-1.5183203,0.53240913,0.76845944,0.7182248,-1.630552,1.3371841
980,1778316226.297293,-1.8276677,0.5256404,0.9204195,0.48579058,-1.914299,1.3399329
981,1778316226.3071914,-2.0070074,0.42569554,1.0937223,0.30589077,-2.5418103,1.564426
982,1778316226.3173482,-1.8248626,0.3422151,1.2641591,0.33429602,-3.1699324,1.8988746
983,1778316226.327384,-1.5783238,0.37971726,1.3365414,0.57986385,-3.3638823,2.117259
984,1778316226.3369396,-1.247268,0.5142983,1.2421457,0.9433287,-3.082426,2.353511
985,1778316226.347202,-1.1121382,0.512164,1.2155588,1.207986,-2.9006937,2.4367414
986,1778316226.3571367,-1.1121382,0.512164,1.2155588,1.207986,-2.9006937,2.4367414
987,1778316226.3672109,-1.0446341,0.3192869,1.2172662,1.5987871,-2.8070786,2.4277313
988,1778316226.3772702,-0.98127675,0.13336144,1.1555552,2.042428,-2.544101,2.4249823
989,1778316226.3874338,-0.7429702,0.11183579,0.78157,2.7519479,-1.5613716,2.3962717
990,1778316226.3974204,-0.6424765,0.16689998,0.6077794,2.7864618,-1.07665,2.3521366
991,1778316226.4071174,-0.55192244,0.20421924,0.49167505,2.7864618,-1.07665,2.3521366
992,1778316226.4171183,-0.55192244,0.20421924,0.49167505,2.8028026,-0.49571714,2.3028092
993,1778316226.4271252,-0.33148277,0.2637349,0.25660032,2.733622,0.5030475,2.001042
994,1778316226.4369066,-0.22409843,0.28032124,0.1094576,2.5919013,0.8368854,1.7542523
995,1778316226.4471672,-0.18934031,0.27843088,0.043051295,2.4306328,1.023352,1.5303701
996,1778316226.4574063,-0.18190086,0.26379588,-0.032501895,2.0427334,1.2134838,1.0473285
997,1778316226.4671729,-0.18190086,0.26379588,-0.032501895,2.0427334,1.2134838,1.0473285
998,1778316226.4772556,-0.22550097,0.20921952,-0.09640807,1.7176003,1.2018774,0.68233645
999,1778316226.487024,-0.20830485,0.13159303,-0.16513158,1.2353222,0.9405798,0.06490443
1000,1778316226.497123,-0.15647253,0.11372615,-0.21434177,1.0709995,0.8784242,-0.18341228
