id,timestamp,acc_x,acc_y,acc_z,gyro_x,gyro_y,gyro_z
1,1778317920.9354768,-0.52307934,-1.1817763,-0.30105415,-1.2221886,-1.0299188,-1.8089247
2,1778317920.9354844,-0.52307934,-1.1817763,-0.30105415,-1.2221886,-1.0299188,-1.8089247
3,1778317920.9457588,-0.55460554,-1.1976918,-0.26428372,-1.1491902,-1.5607607,-1.7492126
4,1778317920.9553766,-0.6091819,-1.2719644,-0.046039272,-0.8877399,-2.4323127,-1.5618297
5,1778317920.9657161,-0.6675999,-1.4670978,0.20964637,-0.1966986,-3.7832413,-0.9831876
6,1778317920.975086,-0.6675999,-1.4670978,0.20964637,-0.1966986,-3.7832413,-0.9831876
7,1778317920.9854195,-0.7594345,-1.6405836,0.2579419,0.28985557,-4.1254783,-0.66874474
8,1778317920.995249,-0.8465128,-1.8078493,0.28519958,0.82970774,-4.138001,-0.473726
9,1778317921.0053298,-0.9088945,-2.0152395,0.3029445,1.260215,-3.8907535,-0.43844852
10,1778317921.0153224,-0.9124923,-2.2009213,0.2789187,1.6071864,-3.4063373,-0.5028948
11,1778317921.025704,-0.8823686,-2.4928894,0.2034265,1.7609718,-2.6225972,-0.6814202
12,1778317921.0355036,-0.8568183,-2.903706,0.0922005,1.6865989,-0.9108001,-1.1505647
13,1778317921.0454059,-0.8738315,-3.1195722,0.007927292,1.6084082,0.21044308,-1.5544994
14,1778317921.0553985,-1.0404875,-2.6437519,-0.112689495,2.0187569,1.6354389,-1.1539245
15,1778317921.065499,-1.0404875,-2.6437519,-0.112689495,2.2275202,1.7336355,-0.3408628
16,1778317921.0753536,-0.81638914,-2.0388386,-0.2619665,2.2643247,1.696831,-0.1572978
17,1778317921.0853877,-0.6080233,-1.5628351,-0.41856104,2.2849414,1.3315336,0.57360244
18,1778317921.0953631,-0.47636923,-1.2524511,-0.5118591,2.1209242,0.9923506,0.9274462
19,1778317921.1051877,-0.34056866,-0.98170364,-0.5428975,1.7482964,0.68645984,1.1122329
20,1778317921.1155517,-0.26599112,-0.84206134,-0.53289694,1.3645202,0.5160284,1.102001
21,1778317921.1255913,-0.19245026,-0.63979346,-0.4378914,0.9680687,0.37690386,1.0206031
22,1778317921.1355786,-0.14988679,-0.47386914,-0.29190728,0.49296826,0.19364429,0.8848383
23,1778317921.1453505,-0.14988679,-0.47386914,-0.29190728,0.09239337,-0.072540246,0.75151694
24,1778317921.1555753,-0.072016396,-0.10433535,0.012073875,-0.3764457,-0.7154759,0.549626
25,1778317921.1653044,-0.052381106,-0.008476105,0.03280679,-0.45753807,-0.93737274,0.52305335
26,1778317921.1753237,0.009573729,0.07421165,0.063235395,-0.4699081,-0.982424,0.5196936
27,1778317921.1853962,0.009573729,0.07421165,0.063235395,-0.48487428,-1.0922271,0.5030475
28,1778317921.195119,0.070735835,0.0629305,0.13592257,-0.39003745,-1.0584768,0.4289801
29,1778317921.2058678,0.097017854,0.06006448,0.14561825,-0.049021937,-0.50793445,0.21380283
30,1778317921.2155564,0.097017854,0.064394,0.14165461,-0.00992656,-0.40576723,0.18982637
31,1778317921.2256765,0.105493955,0.088846646,0.070248,0.09407325,0.027641652,0.12950343
32,1778317921.2351253,0.09573729,0.12714157,-0.054881252,0.17852537,1.3274102,0.06887506
33,1778317921.2453961,0.081773065,0.09762765,-0.009756667,0.2087632,2.8223503,0.067500606
34,1778317921.2551112,0.056100838,0.030672522,0.13470298,0.27214047,3.7140608,0.04444045
35,1778317921.265423,0.06158896,0.027989438,0.16689998,0.571159,3.9646683,-0.01985312
36,1778317921.2757258,0.06158896,0.027989438,0.16689998,0.571159,3.9646683,-0.01985312
37,1778317921.2851286,0.09817646,0.03298973,0.18873052,0.7160868,3.8887682,-0.06078109
38,1778317921.2950926,0.25922245,0.08171208,0.18025441,0.89659745,3.7001636,-0.22968534
39,1778317921.3054502,0.4103288,0.2555027,0.109335646,0.82359904,2.5071437,-0.95646226
40,1778317921.315676,0.41136545,0.23855051,0.12506826,0.8756753,2.701246,-0.88300574
41,1778317921.3252823,0.38910806,0.31751853,0.03091644,0.4447099,1.6812539,-1.1714869
42,1778317921.3353803,0.3456909,0.34813008,6.0979168e-05,-0.12965615,0.9999864,-1.2724323
43,1778317921.3458614,0.24684367,0.32014063,-0.025855167,-0.8524625,0.6534731,-1.1806498
44,1778317921.3550875,0.2128173,0.32361645,-0.015061854,-1.6972891,0.840856,-0.8582657
45,1778317921.365598,0.18123008,0.28519958,0.008171208,-1.422247,0.7147123,-0.9645562
46,1778317921.3751738,0.10018878,0.2128173,0.059149794,-1.5754215,0.39752057,-0.80680025
47,1778317921.3851457,0.10018878,0.2128173,0.059149794,-1.5754215,0.39752057,-0.80680025
48,1778317921.395591,0.10018878,0.2128173,0.059149794,-1.5754215,0.39752057,-0.80680025
49,1778317921.4056451,-1.0784776,-0.5046636,-1.9647489,-1.6985108,1.2544118,1.0693196
50,1778317921.4154222,-0.71668816,-0.54167795,-1.3155036,-3.26706,4.6230283,1.9862283
51,1778317921.4255605,0.043356188,-0.36697263,-0.28971204,-3.602425,5.636912,2.000431
52,1778317921.4353604,0.15580177,-0.46618572,0.13610551,-3.5159876,5.25283,1.7227927
53,1778317921.445308,0.38947394,-3.1220725,-1.3357487,-2.9837713,3.9790235,1.4295774
54,1778317921.4554994,0.2591005,-3.9365711,-1.2065948,-1.1242975,6.30077,0.601855
55,1778317921.465099,-0.05250306,-4.4055014,-1.176654,3.9907827,5.805663,-0.15485434
56,1778317921.4754393,-1.3154426,-5.228354,-0.78352135,5.7743564,1.609019,0.61712664
57,1778317921.4855556,-1.4481943,-5.2603073,-0.7512633,5.342322,-3.7363572,2.3747387
58,1778317921.4954746,-1.7392478,-5.125299,-0.5633255,4.354706,-7.50677,3.9811616
59,1778317921.5055585,-2.031643,-5.1598134,-0.7912047,3.0709722,-9.585697,5.1761665
60,1778317921.5153644,-1.9960312,-4.8309526,-0.8180965,1.0270172,-9.15687,5.4421983
61,1778317921.52537,-1.8493762,-4.0731034,-0.4170975,-2.0813706,-5.2279377,3.239571
62,1778317921.5355659,-1.7545536,-3.5237422,-0.1700709,-2.0813706,-5.2279377,3.239571
63,1778317921.545663,-1.5511271,-2.7130852,0.17574196,-2.0813706,-5.2279377,3.239571
64,1778317921.5553262,-1.3092227,-2.0159714,0.32233587,-3.2766812,-0.52442783,2.5178337
65,1778317921.5658286,-1.1452497,-1.5906416,0.26038104,-3.2140675,-0.039553523,3.0972395
66,1778317921.5756524,-0.7720573,-1.0766482,0.17726645,-3.1290045,-0.3199407,3.6318994
67,1778317921.5855372,-0.53167737,-0.7737037,0.14622805,-3.0572278,-1.1921035,3.9257255
68,1778317921.5952082,-0.2359284,-0.47691807,0.07122366,-2.9494102,-2.552195,4.0808854
69,1778317921.6056983,0.047258858,-0.26964986,0.042746395,-2.8545732,-3.8615847,3.944815
70,1778317921.6151834,0.2125124,-0.15976542,-0.01597654,-2.725528,-4.7299294,3.573867
71,1778317921.6256182,0.37386328,-0.23464784,-0.040673107,-2.7047586,-5.283984,3.175125
72,1778317921.6359425,0.39868182,-0.08098034,-0.06329638,-2.6080892,-5.4072266,2.7149906
73,1778317921.6452568,0.34081256,-0.06140602,-0.053966567,-2.4799602,-4.8994446,2.443461
74,1778317921.6555808,0.19001108,0.06451596,-0.06829667,-2.189952,-4.079969,2.362216
75,1778317921.6654134,0.19001108,0.06451596,-0.06829667,-1.6629279,-1.6667458,2.3165538
76,1778317921.675254,0.17580293,0.0658575,-0.09409086,-1.3358096,0.26893342,2.2696698
77,1778317921.6855223,0.17232713,0.039819397,-0.11293342,-1.2678508,1.2162327,2.1778872
78,1778317921.6951175,0.15092343,0.03603869,-0.102140106,-1.3539828,1.589624,2.022422
79,1778317921.705437,0.14500846,0.0336605,-0.013293459,-1.4984524,1.4659239,1.6665931
80,1778317921.7154508,0.13769096,0.0336605,-0.009390792,-1.5010486,1.4401149,1.6372715
81,1778317921.7252429,0.117384896,0.035794772,0.013537374,-1.5225816,1.3628404,1.5448782
82,1778317921.7356126,0.10970152,0.037868064,0.038904708,-1.5231925,1.3162619,1.4827226
83,1778317921.7456872,0.15580177,0.1952553,-0.01695221,-1.6584991,1.5100589,1.4740179
84,1778317921.7556427,0.10756725,0.17812014,-0.025001459,-2.1693351,1.806634,1.5294539
85,1778317921.7653794,0.15275282,0.14067894,0.083907336,-2.568841,1.6296358,1.8729129
86,1778317921.7754447,0.15275282,0.14067894,0.083907336,-2.7543914,1.3773484,2.0882428
87,1778317921.7855084,0.18543765,0.08268775,0.10476221,-2.8307495,0.8335256,2.449875
88,1778317921.7951744,0.23647723,0.07683375,0.1042134,-2.8273897,0.4531093,2.6375635
89,1778317921.8056645,0.3312998,0.04524654,0.2110489,-2.7267497,-0.52870387,2.909704
90,1778317921.8156917,0.3312998,0.04524654,0.2110489,-2.7267497,-0.52870387,2.909704
91,1778317921.8256397,0.336605,0.01762298,0.31660384,-2.575866,-0.5693264,2.83808
92,1778317921.8354967,0.34721538,-0.0038416875,0.4030723,-1.949271,-0.39858958,2.4859161
93,1778317921.8457785,0.3501424,-0.0028050416,0.4045358,-1.7377589,-0.377362,2.3561072
94,1778317921.8559117,0.35020337,-0.0031709166,0.42648828,-1.3767376,-0.37384954,2.14093
95,1778317921.865407,0.32940948,-0.021708583,0.35056922,-0.75915277,-0.30558532,1.7429513
96,1778317921.8751829,0.15799703,-0.03585575,0.1905599,-0.23884831,-0.0070249503,1.3590225
97,1778317921.8853457,0.068052754,-0.036953375,0.09323715,-0.033292156,0.14446963,1.2308935
98,1778317921.895114,0.02207446,-0.028965104,0.040551145,0.07880162,0.2501493,1.1710287
99,1778317921.9053044,-0.02628202,-0.022867188,-0.0037807084,0.2359467,0.310625,1.1158981
100,1778317921.9151144,-0.02628202,-0.022867188,-0.0037807084,0.2359467,0.310625,1.1158981
101,1778317921.9252048,-0.14561825,-0.059088815,-0.023233064,0.22831088,0.7093673,1.1543826
102,1778317921.9352448,-0.14561825,-0.059088815,-0.023233064,0.22831088,0.7093673,1.1543826
103,1778317921.9455738,-0.59290045,-0.13019052,-0.86462367,0.19517145,1.0308352,0.90224797
104,1778317921.9556022,-5.269271,-0.8727339,-8.399087,-3.0990722,3.0364585,-3.9548943
105,1778317921.965438,-4.2545166,-1.4989899,-4.0656033,-3.548058,-4.2502475,-7.4919567
106,1778317921.9755094,-2.698816,-1.6696097,-1.100552,-4.351346,-6.3966756,-12.722185
107,1778317921.9850788,-2.0935977,-1.8843173,0.8757828,-4.7169485,-3.0384438,-15.444048
108,1778317921.99584,-2.01713,-1.8730361,1.3594086,-3.6968038,-0.3474296,-15.897768
109,1778317922.0055761,-2.0447536,-1.7069899,1.3631283,-1.2260065,1.7230982,-14.9035845
110,1778317922.0152118,-1.8513886,-1.5060024,1.2681228,1.0914634,2.3675609,-13.56747
111,1778317922.0254617,-1.261415,-1.1421399,0.6871133,3.8876991,3.2797356,-11.577423
112,1778317922.035097,-0.77974063,-1.0879294,0.32514092,4.9852715,3.6618316,-10.674412
113,1778317922.045293,-0.48490632,-1.0701844,-0.022928167,5.590028,3.8542542,-10.1773205
114,1778317922.0554848,-0.78925335,-1.3268458,-1.5589324,4.7951393,3.961003,-9.196576
115,1778317922.0652483,-0.717054,-1.3119668,-1.056769,3.451236,3.8825068,-8.266686
116,1778317922.075158,-0.68504,-1.3452613,-0.37270468,2.2638667,4.443281,-6.2592306
117,1778317922.0850894,-0.5049075,-1.5561274,0.26062497,2.1981986,4.6126432,-5.5964417
118,1778317922.0955155,-0.5049075,-1.5561274,0.26062497,2.1981986,4.6126432,-5.5964417
119,1778317922.1056285,-0.3139817,-1.539785,0.31422567,2.2001839,4.8006372,-4.8559203
120,1778317922.1156685,-0.1870231,-1.3944715,0.28416294,1.9808832,4.481155,-4.2277985
121,1778317922.1250956,-0.07890704,-1.0320115,-0.2250741,1.5377005,3.424358,-3.664428
122,1778317922.1355119,-0.10476221,-0.8101692,-0.039819397,0.7796168,2.473546,-3.1253393
123,1778317922.1454532,-0.1454963,-0.64851344,-0.032623854,0.41554108,2.1638374,-2.7447703
124,1778317922.1555007,-0.15696037,-0.42667124,-0.006890646,0.04046982,1.8658879,-2.2272146
125,1778317922.165764,-0.09354204,-0.23916028,-0.003963646,-0.30207285,1.6378825,-1.5963436
126,1778317922.175522,-0.0757971,-0.09909115,0.1451914,-0.34193182,1.4198035,-1.1594223
127,1778317922.185169,-0.015488708,-0.0020123124,0.13116619,-0.23151793,1.1154399,-0.85994554
128,1778317922.1951933,0.033111688,0.0690894,0.10665256,-0.08399397,0.91767234,-0.68859786
129,1778317922.2051847,0.033111688,0.0690894,0.10665256,-0.08399397,0.91767234,-0.68859786
130,1778317922.2153912,0.033111688,0.0690894,0.10665256,-0.08399397,0.91767234,-0.68859786
131,1778317922.2252772,0.047807667,0.14159364,-0.005610083,-0.04260785,0.88315845,-0.5357288
132,1778317922.235513,0.18281554,0.33904418,-0.43563515,-0.3491095,1.2791518,-0.10888673
133,1778317922.2451205,0.27105242,0.36831418,-0.28434587,-1.5732834,2.8417451,0.3315471
134,1778317922.2555928,0.28141886,0.34197116,-0.12854409,-1.7082846,2.9955304,0.3830125
135,1778317922.2654953,0.2786748,0.36099666,0.028904125,-1.8255708,2.9684997,0.5514586
136,1778317922.2752502,0.3111767,0.4410623,0.1062867,-1.7557794,2.297617,0.86391616
137,1778317922.2850783,0.38422972,0.46941763,0.11762882,-1.6449074,1.6009251,1.1479685
138,1778317922.2956626,0.38422972,0.46941763,0.11762882,-1.6449074,1.6009251,1.1479685
139,1778317922.305681,0.38422972,0.46941763,0.11762882,-1.6449074,1.6009251,1.1479685
140,1778317922.315449,1.2585491,0.0866514,-0.5390558,-1.9840903,0.074067414,0.64599
141,1778317922.3252127,1.2585491,0.0866514,-0.5390558,-2.1400137,0.36575556,0.48288897
142,1778317922.3354795,1.0433536,-0.24367274,-0.983472,-3.2647693,2.7380507,-0.5141958
143,1778317922.3455634,0.6853449,-0.5571057,-1.1418959,-4.4857364,5.2601604,-1.3107641
144,1778317922.355624,0.67564917,-0.7630933,-0.51942056,-5.5284834,7.3771143,-2.2299635
145,1778317922.3650973,0.67564917,-0.7630933,-0.51942056,-5.618128,7.7758565,-2.8712194
146,1778317922.37525,0.9609098,-1.744431,-0.57387495,-5.001459,8.684519,-4.2277985
147,1778317922.3857818,1.6168016,-4.1206064,-3.4603848,-1.6158913,7.5038686,-5.7293053
148,1778317922.395173,1.6168016,-4.1206064,-3.4603848,-1.5844318,4.729471,-5.731901
149,1778317922.4054139,1.2146441,-2.8964496,-0.6782103,-1.7145461,0.021838432,-5.224883
150,1778317922.4152312,0.48246717,-2.230557,0.51996934,-1.0264063,-3.6070065,-4.101502
151,1778317922.4255314,0.418622,-2.0999396,0.4733203,0.9228647,-6.7156997,-0.59391373
152,1778317922.4356384,0.418622,-2.0999396,0.4733203,1.1621711,-6.7079115,-0.26145032
153,1778317922.4452004,0.6064988,-1.9394424,-0.0048783333,1.1621711,-6.7079115,-0.26145032
154,1778317922.4556909,0.81730384,-1.6086304,-0.25647837,2.3522894,-2.0880902,1.6016886
155,1778317922.4654205,0.8843808,-1.4669758,-0.17379062,2.277153,-0.4437936,1.6945401
156,1778317922.47556,1.0760384,-1.3275775,-0.20543882,2.0176878,1.6389514,1.5293012
157,1778317922.4856088,1.665768,-1.4067894,-0.42520773,0.7096727,3.7314703,0.59589905
158,1778317922.4953847,1.665768,-1.4067894,-0.42520773,0.7096727,3.7314703,0.59589905
159,1778317922.5050907,1.0912832,-1.9061477,-0.20178007,-0.03894266,3.7722456,0.40943244
160,1778317922.5154772,1.0912832,-1.9061477,-0.20178007,-0.33185256,3.4494033,0.8349001
161,1778317922.52536,0.9346887,-2.037192,-0.1604362,-0.05971208,3.415195,1.3069462
162,1778317922.535573,0.77358174,-2.0392044,-0.17421748,0.89461213,3.2908838,2.0861049
163,1778317922.5451245,0.67473453,-2.0066414,-0.43276918,2.1983514,2.417194,2.8678596
164,1778317922.5555744,0.67473453,-2.0066414,-0.43276918,2.1983514,2.417194,2.8678596
165,1778317922.5651753,0.76449585,-1.882366,-0.85535485,3.278819,0.71837753,3.3443346
166,1778317922.5751114,0.9885943,-1.7057093,-1.1688486,3.849062,-1.3961325,3.7684276
167,1778317922.5854805,0.7723012,-1.3358096,-0.58814406,3.849062,-1.3961325,3.7684276
168,1778317922.5952947,0.5757653,-1.1768979,-0.48691866,1.977218,-3.6184602,2.702926
169,1778317922.6053066,0.34062964,-0.9579827,-0.31483543,1.3255776,-3.9463422,2.16399
170,1778317922.61536,0.34062964,-0.9579827,-0.31483543,1.2738068,-3.9635992,2.1142046
171,1778317922.6256049,0.19141361,-0.8623674,-0.17275399,1.1198688,-4.046066,1.9540052
172,1778317922.6356835,0.07311402,-0.7709596,-0.08878566,1.0422888,-4.1731257,1.8816177
173,1778317922.6453831,-0.070735835,-0.6274756,0.046588086,1.0596985,-4.34203,1.9558378
174,1778317922.65516,-0.17013188,-0.4850283,0.1062867,1.1571314,-4.46909,2.1235204
175,1778317922.6655989,-0.21287827,-0.37953433,0.110006414,1.2844969,-4.608062,2.3484714
176,1778317922.6755757,-0.19787739,-0.26800343,0.067199044,1.3927728,-4.6395216,2.6380215
177,1778317922.6853614,-0.05799119,-0.09866429,-0.022135438,1.4468343,-4.5410194,2.839149
178,1778317922.695357,-0.033721477,-0.051405437,-0.035733793,1.5079209,-4.1201334,2.9223793
179,1778317922.7053866,-0.02933098,-0.04408794,-0.03969744,1.5079209,-4.1201334,2.9223793
180,1778317922.715101,-0.021586625,-0.024635585,-0.044209898,1.5445728,-3.9704714,2.8895454
181,1778317922.7256029,-0.022989146,-0.023111105,-0.036465544,1.6006197,-3.8038578,2.8418977
182,1778317922.7354603,-0.046832,-0.015000875,-0.14763056,1.6190983,-3.5117116,2.8086057
183,1778317922.7453268,-0.095615335,-0.000365875,-0.30227375,1.4552337,-2.9533808,2.8411343
184,1778317922.7552946,-0.16689998,0.011281146,-0.47734493,0.9647089,-1.7741054,2.9949195
185,1778317922.7651155,-0.18019344,0.010488417,-0.5202133,0.39752057,-0.6055202,3.1871893
186,1778317922.7754664,-0.13769096,0.0005488125,-0.4744179,-0.36667186,0.84971356,3.425885
187,1778317922.7852,-0.0646989,-0.011890938,-0.3500814,-1.041678,2.0069978,3.562566
188,1778317922.795473,0.0070126047,-0.034514207,-0.066650234,-1.5338826,2.7348437,3.584099
189,1778317922.8052495,0.0070126047,-0.034514207,-0.066650234,-1.7669277,3.0149255,3.5498908
190,1778317922.8151715,0.03524596,-0.04256346,0.050429773,-1.8748982,3.107166,3.4582608
191,1778317922.8253038,0.052442085,-0.038904708,0.094212815,-1.8858937,3.0880766,3.3055446
192,1778317922.8352883,0.06085721,-0.03237994,0.1156165,-1.861001,3.043636,3.1673362
193,1778317922.845121,0.089822315,-0.009085896,0.17196125,-1.7731891,2.9269607,3.0389018
194,1778317922.8553452,0.14317909,0.013415418,0.25806385,-1.6340646,2.7762299,2.886949
195,1778317922.8655982,0.16970502,0.030306645,0.3139817,-1.3952162,2.5618162,2.6957483
196,1778317922.8751464,0.19684075,0.046039272,0.40209663,-0.9593639,2.1300871,2.437047
197,1778317922.8854508,0.27727225,0.06256463,0.5486296,-0.3359759,1.5787812,2.1398609
198,1778317922.8951907,0.35556954,0.03945352,0.53399456,0.30543262,1.1305588,1.7686076
199,1778317922.905131,0.45325816,-0.017744938,0.52149385,0.83276206,1.0421361,1.2505939
200,1778317922.9152234,0.400999,-0.11238461,0.38032708,0.83276206,1.0421361,1.2505939
201,1778317922.9255755,0.400999,-0.11238461,0.38032708,0.83276206,1.0421361,1.2505939
202,1778317922.935594,0.22312276,-0.20720722,-0.027806502,0.81596327,0.66813385,-0.12522738
203,1778317922.945219,0.22726935,-0.2880046,-0.07311402,0.40210205,0.07895433,-0.5002986
204,1778317922.9556625,0.20836583,-0.44886765,-0.024086772,0.05207626,-0.59635717,-0.8142834
205,1778317922.9652567,0.20836583,-0.44886765,-0.024086772,0.05207626,-0.59635717,-0.8142834
206,1778317922.9752011,-0.100432694,-1.1813494,0.24775836,-0.1881465,-1.1517864,-0.82848597
207,1778317922.9853294,-1.3589207,-3.9752321,-2.060791,-2.7925704,10.082483,0.17150041
208,1778317922.9952288,-2.2546437,-6.100722,-1.4970386,0.4999932,12.974931,0.66599584
209,1778317923.0054197,-2.2651932,-5.8264985,-1.1458596,3.9817724,3.924351,1.658041
210,1778317923.0154638,-1.6751587,-3.96017,-0.54466593,2.6277895,-7.838928,2.325564
211,1778317923.0255096,-1.6751587,-3.96017,-0.54466593,2.2455406,-8.442158,2.2780693
212,1778317923.0354924,-1.0650011,-2.0309722,-0.027806502,-0.3642284,-8.132144,2.3597724
213,1778317923.045512,-0.71595645,-1.4564265,0.042319544,-1.1794281,-6.343072,2.5787675
214,1778317923.055385,-0.6574774,-1.3567255,0.054637335,-1.2959507,-5.958074,2.5873199
215,1778317923.065271,-0.47819862,-1.0064611,0.1683025,-1.5543466,-4.2427645,2.4937046
216,1778317923.075376,-0.3697167,-0.8482812,0.25422215,-1.5658003,-2.482251,2.2466097
217,1778317923.085592,-0.28032124,-0.6170482,0.3001395,-1.397507,-0.8686504,1.8987219
218,1778317923.0954833,-0.22056165,-0.4603317,0.3793514,-0.87872964,0.8060367,1.3637567
219,1778317923.1052227,-0.23165986,-0.24123359,0.12708059,1.1258247,1.7214183,-0.21288654
220,1778317923.115493,-0.23165986,-0.24123359,0.12708059,2.0086777,0.9789116,-0.9024007
221,1778317923.1253982,-0.35489875,-0.27794304,-0.12653178,2.1844542,0.79290307,-1.0456486
222,1778317923.1351306,-0.646989,-0.5222866,-0.71290743,2.653904,0.43982297,-1.402852
223,1778317923.1454551,-0.646989,-0.5222866,-0.71290743,2.5378397,0.70478576,-1.295798
224,1778317923.1554804,-0.47819862,-0.5125909,-0.7216275,2.0331123,1.2137892,-0.9427178
225,1778317923.1654606,-0.25940537,-0.44630653,-0.65235513,1.3759739,1.3972015,-0.67164636
226,1778317923.1753175,-0.09750569,-0.38392484,-0.58094853,1.1065824,1.3355042,-0.6036876
227,1778317923.1852407,-0.09750569,-0.38392484,-0.58094853,0.3268129,0.7877107,-0.5876524
228,1778317923.1952531,-0.024574606,-0.21885422,-0.26330805,-0.7110472,-0.48395798,-0.8248208
229,1778317923.2051728,-0.028355313,-0.20793895,-0.23556253,-1.0945178,-1.0225884,-0.8969029
230,1778317923.2151325,-0.03237994,-0.15958248,-0.1598264,-1.0945178,-1.0225884,-0.8969029
231,1778317923.2254364,-0.032014064,-0.10835998,-0.082626775,-1.4410311,-1.5013541,-0.91706145
232,1778317923.2354407,-0.032014064,-0.10835998,-0.082626775,-1.4410311,-1.5013541,-0.91706145
233,1778317923.2455227,-0.032014064,-0.10835998,-0.082626775,-1.4410311,-1.5013541,-0.91706145
234,1778317923.2555597,0.036221627,-0.0031099375,0.038416874,-2.1007655,-2.2872322,-0.9801333
235,1778317923.2655969,0.049393125,0.004817354,0.055369087,-2.2295055,-2.2985332,-1.0465649
236,1778317923.2755415,0.03731925,0.011768979,0.07195542,-2.2979224,-2.1562016,-1.0908526
237,1778317923.285407,-0.018171793,-0.0023781876,0.075126335,-2.34389,-1.8784106,-1.0919216
238,1778317923.2951393,-0.07805333,-0.0482955,0.070187025,-2.3693936,-1.2773192,-1.0140363
239,1778317923.3054054,-0.33684894,-0.18305947,-0.018476687,-2.333658,-0.31856623,-0.8219192
240,1778317923.3152,-0.3677044,-0.20379238,-0.054393414,-2.2053761,0.9242391,-0.5656612
241,1778317923.325292,-0.52917725,-0.36410663,-0.24891695,-2.0257819,2.5518897,-0.37522396
242,1778317923.335237,-0.79492444,-0.7354088,-0.44709927,-0.960891,4.0734024,-0.32910365
243,1778317923.34544,-0.825597,-0.7735207,-0.4502092,-0.767094,3.9477167,-0.345597
244,1778317923.3555856,-0.8740754,-0.8948693,-0.49795586,-0.07284568,2.9723175,-0.39278635
245,1778317923.3655465,-0.8351097,-0.96895903,-0.47313735,0.3640757,1.1748465,-0.41981715
246,1778317923.3752627,-0.86877024,-1.0230476,-0.611682,0.2919936,0.0067195175,-0.3622431
247,1778317923.3853,-1.1622629,-1.1978748,-1.1780565,-0.6565274,-1.6502525,0.016187929
248,1778317923.3953292,-1.2518413,-1.369714,-1.1731782,-1.9291124,-2.9345965,0.5636759
249,1778317923.405226,-1.340444,-1.5121614,-0.92609066,-2.8298333,-3.8570032,1.1499538
250,1778317923.415083,-1.126956,-1.3004417,0.06067427,-2.9426906,-4.518112,1.703245
251,1778317923.4253848,-1.126956,-1.3004417,0.06067427,-2.3241894,-4.8236976,2.015397
252,1778317923.4354935,-1.0513418,-1.17702,0.19470648,-1.568091,-4.6535716,2.0259347
253,1778317923.4455364,-0.9995096,-1.153238,0.2587956,-0.47571132,-3.8437169,1.8023579
254,1778317923.4552898,-0.9331032,-1.5070392,0.36221626,0.57833666,-2.0935879,1.3200798
255,1778317923.4658396,-0.7072364,-1.8803537,0.324897,1.3078625,0.07696902,0.79000145
256,1778317923.475311,-0.5098468,-2.134271,0.10049367,1.7438675,1.7324139,0.31306845
257,1778317923.4852777,-0.3769732,-2.2805598,-0.09287128,2.3350325,3.6441166,-0.5477934
258,1778317923.4953249,-0.19135264,-2.3086104,-0.2745282,2.7531698,4.523457,-1.4796684
259,1778317923.5052724,-0.19135264,-2.3086104,-0.2745282,2.7531698,4.523457,-1.4796684
260,1778317923.5151637,-0.43252525,-2.0975006,-0.25897855,2.5199718,3.88831,-2.0318906
261,1778317923.5253031,-0.71595645,-2.4463012,-0.6129016,2.3043363,2.9393308,-1.7799087
262,1778317923.5353742,-0.7260789,-2.6761928,-1.1370175,1.9698877,0.9859365,-1.1982121
263,1778317923.5453002,-0.5810095,-2.550027,-1.2519023,1.1989758,0.8323039,-1.0532844
264,1778317923.555489,-0.5810095,-2.550027,-1.2519023,0.6556111,1.331839,-0.6560693
265,1778317923.5651524,-0.5605205,-2.1636627,-0.840171,0.6556111,1.331839,-0.6560693
266,1778317923.5751739,-0.5008219,-1.7468092,-0.4730764,0.50915617,1.4404203,-0.16615535
267,1778317923.585264,-0.45289227,-1.5183812,-0.33093393,0.495259,1.2402092,-0.02565634
268,1778317923.595605,-0.43222034,-1.1258584,-0.09921311,0.5332854,0.6418667,-0.048716504
269,1778317923.605203,-0.3972183,-0.80986434,0.07207738,0.6765333,0.10720685,-0.2133447
270,1778317923.6151273,-0.40496266,-0.6097917,0.055978876,0.6765333,0.10720685,-0.2133447
271,1778317923.625274,-0.40496266,-0.6097917,0.055978876,0.82970774,-0.30695978,-0.39584067
272,1778317923.635166,-0.36233822,-0.32276276,-0.033538543,0.8052731,-0.52656585,-0.68462723
273,1778317923.645183,-0.24672171,-0.018781584,-0.13305654,0.44776422,-0.38713586,-0.84696466
274,1778317923.6555598,-0.18312044,0.10250599,-0.17848602,0.3915646,-0.3567453,-0.8651379
275,1778317923.6651812,-0.16653411,0.12153149,-0.17866896,0.06001751,-0.21945333,-0.96791595
276,1778317923.675897,-0.1387276,0.18458393,-0.17086363,-0.24831672,-0.13576481,-1.0691669
277,1778317923.6851532,-0.10604277,0.20086539,-0.1408009,-0.48456886,-0.11407909,-1.1522446
278,1778317923.6952634,-0.07439458,0.20647547,-0.028233355,-0.83016586,-0.12095132,-1.3177891
279,1778317923.705453,-0.030062728,0.15604569,0.11201873,-1.0774136,-0.16233744,-1.5558738
280,1778317923.7153137,-0.028843146,0.15305771,0.17397358,-1.0774136,-0.16233744,-1.5558738
281,1778317923.725431,-0.036770437,0.110067405,0.25141713,-0.8312349,-0.31749722,-1.6055065
282,1778317923.735471,-0.036770437,0.110067405,0.25141713,-0.8312349,-0.31749722,-1.6055065
283,1778317923.7455661,-0.028050419,0.099822894,0.25050244,-0.6432411,-0.43066,-1.5816828
284,1778317923.755449,-0.010671355,0.07762648,0.21598822,-0.35628715,-0.61590487,-1.5421293
285,1778317923.765237,-0.00219525,0.0757971,0.15647253,-0.17180584,-0.68279463,-1.5184582
286,1778317923.7753985,0.0026221042,0.0910419,0.026099084,-0.031154128,-0.676686,-1.4937183
287,1778317923.7851999,-0.060918186,0.17452239,-0.29337075,-0.129198,-0.4277584,-1.4318681
288,1778317923.7956235,-0.119641125,0.21141478,-0.48429656,-0.39187005,-0.13713925,-1.3411547
289,1778317923.8050838,-0.17994952,0.22287886,-0.6057061,-1.0600039,0.37980548,-1.1218541
290,1778317923.8153076,-0.16110696,0.10683551,-0.27025968,-2.1178699,1.2623531,-0.6925685
291,1778317923.8251119,-0.16110696,0.10683551,-0.27025968,-2.1178699,1.2623531,-0.6925685
292,1778317923.835452,-0.14793546,0.07390675,-0.14421573,-2.3263276,1.6165022,-0.547488
293,1778317923.8454256,-0.17555903,0.06628435,-0.11872645,-2.434756,1.9292651,-0.4014912
294,1778317923.855427,-0.17555903,0.067503944,0.0017683958,-2.4567473,2.1870503,-0.27412578
295,1778317923.8651037,-0.16208263,0.08073642,0.08604161,-2.297617,2.521499,-0.1348485
296,1778317923.875387,-0.113116354,0.1006766,0.1516552,-1.9448422,2.842356,-0.03573562
297,1778317923.8851736,-0.06067427,0.111165024,0.11976309,-1.6720909,2.9788845,-0.007483099
298,1778317923.8954027,0.07689473,0.020549979,-0.0028050416,-1.2495248,3.0431778,-0.014049901
299,1778317923.905603,0.15946053,-0.14409378,-0.016464375,-0.84421575,2.7852402,-0.13637567
300,1778317923.915547,0.15067953,-0.35459387,-0.33733675,-0.47647488,2.2783747,-0.34422258
301,1778317923.925564,0.14311811,-0.90279657,-1.4777082,-0.63148195,1.9101756,-0.6081163
302,1778317923.9354508,0.27379647,-1.8511446,-2.6598504,-1.4178182,1.5404494,-1.016327
303,1778317923.9455338,0.39349857,-2.2877555,-3.0569465,-1.9335412,1.0569496,-1.4782939
304,1778317923.9555242,0.3690459,-2.0537782,-1.4917943,-0.6910413,-1.1355985,-2.630233
305,1778317923.9652457,0.22458628,-1.5207595,-0.056344748,-0.4196644,-1.3666582,-2.7261388
306,1778317923.9755037,0.1568994,-1.4738055,0.035672814,1.2461652,-2.47095,-3.1297681
307,1778317923.985484,0.04268542,-1.6037521,0.32367742,1.5245669,-2.4443772,-3.1413746
308,1778317923.995619,0.037929043,-2.0835972,0.18623038,2.4103215,-2.0708332,-3.1499267
309,1778317924.0051687,-0.011647021,-2.654728,0.05292992,3.2511775,-0.6133087,-3.018896
310,1778317924.0151072,-0.080614455,-3.2483602,0.05640573,3.6176968,1.4676038,-2.5540276
311,1778317924.0254004,0.16891229,-3.8029656,0.0052442085,3.7221546,3.159395,-1.9659171
312,1778317924.0353518,0.32660443,-4.1867685,0.07506536,3.541033,3.9843686,-1.5209018
313,1778317924.0452888,0.54442203,-4.376597,-0.046953958,3.037222,3.7180314,-1.2327261
314,1778317924.055309,0.5746677,-4.265493,-0.1629973,2.535549,3.1282408,-1.0848967
315,1778317924.0654361,0.2680644,-3.4419084,-0.42100018,1.2118039,1.5019649,-0.44119743
316,1778317924.0753088,0.2680644,-3.4419084,-0.42100018,1.2118039,1.5019649,-0.44119743
317,1778317924.0856333,0.3943523,-2.1264656,-0.32544583,-0.05467244,1.5021176,1.1849259
318,1778317924.095134,0.4843575,-1.691867,-0.16007032,0.5374087,2.658791,1.6226108
319,1778317924.1056342,0.5225305,-1.4115458,-0.14897211,1.3439035,3.2252157,1.9172006
320,1778317924.1150997,0.5429585,-1.1733612,-0.30928633,2.3796256,3.2270484,2.1287127
321,1778317924.1251004,0.47551554,-0.9691419,-0.52966505,2.9093986,2.597399,2.2276728
322,1778317924.135298,0.33099493,-0.801998,-0.66522175,2.9304733,1.5694655,2.303573
323,1778317924.145581,0.20495099,-0.6552211,-0.6947966,2.6155722,0.30787608,2.3935227
324,1778317924.1553814,0.044758707,-0.45752668,-0.6372933,1.6751453,-1.8032742,2.6236663
325,1778317924.16554,0.018110814,-0.41789025,-0.6180239,1.4294246,-2.26463,2.6763535
326,1778317924.1755853,-0.0078053335,-0.3392881,-0.5483247,0.9419542,-3.0130928,2.791807
327,1778317924.1856453,-0.007256521,-0.29623678,-0.5160667,0.49006665,-3.5532503,2.8927524
328,1778317924.1952488,0.0019513334,-0.19220634,-0.4494165,0.095753126,-3.8841867,2.9665143
329,1778317924.2055387,0.020915855,-0.07634591,-0.3497765,-0.31322116,-4.0457606,3.0100386
330,1778317924.215608,0.050429773,0.0031709166,-0.28312626,-0.6160576,-3.9432878,3.0016391
331,1778317924.225254,0.028477272,0.0582351,-0.30398116,-1.1560625,-2.9443705,2.9254336
332,1778317924.2351859,0.032318957,0.06445498,-0.31867713,-1.514793,-1.8840611,2.9272664
333,1778317924.2454927,0.032318957,0.06445498,-0.31867713,-1.4393512,-2.1216877,2.926808
334,1778317924.2555835,0.013354438,0.07476046,-0.3137988,-1.8232801,-0.8567385,2.9413161
335,1778317924.2652164,-0.017805915,0.084029295,-0.31526232,-2.132836,0.26083946,2.973234
336,1778317924.2755883,-0.036953375,0.073175006,-0.25123417,-2.5185974,1.7502817,3.0246992
337,1778317924.2850919,-0.046405144,0.051283482,-0.1700709,-2.6861272,2.4132233,3.029739
338,1778317924.295184,-0.04701494,0.032197,-0.09287128,-2.8115072,2.8469374,3.0051515
339,1778317924.3056448,-0.042502478,0.017805915,-0.056222793,-2.8506026,2.9113839,2.981786
340,1778317924.3152022,-0.029087063,-0.016403396,0.017683959,-2.8852692,2.8501446,2.928488
341,1778317924.3251934,-0.019513333,-0.045673396,0.10323773,-2.8064678,2.2524128,2.807384
342,1778317924.33512,-0.019513333,-0.045673396,0.10323773,-2.819754,2.320677,2.818074
343,1778317924.345261,-0.028294332,-0.04469773,0.1012864,-2.698039,1.5526668,2.7403414
344,1778317924.3553555,-0.03152623,-0.04006331,0.1393374,-2.698039,1.5526668,2.7403414
345,1778317924.3656454,-0.036221627,-0.042746395,0.17543708,-2.5696046,0.9663888,2.7278187
346,1778317924.375471,-0.051466417,-0.045673396,0.25696623,-2.3921483,0.3303254,2.7371345
347,1778317924.3855941,0.0042075627,-0.059027832,0.3032494,-2.0344868,-0.6469063,2.7568347
348,1778317924.3952918,0.28995594,-0.08299265,0.46185625,-1.5351044,-1.4692836,2.5755606
349,1778317924.4055917,0.36947277,-0.104701236,0.5135056,-1.110553,-1.9900463,2.291661
350,1778317924.4151633,0.31306705,-0.14238635,0.4158779,-0.410196,-2.9584203,1.7243198
351,1778317924.425283,0.13683724,-0.1934869,0.28544348,0.08246681,-3.7991238,1.3045027
352,1778317924.4354146,-0.0600035,-0.33264136,0.34880084,0.5001459,-4.5874453,1.1369729
353,1778317924.4453192,-0.2084268,-0.4718568,0.4896627,1.0545062,-5.301852,1.1100949
354,1778317924.4554803,-0.06921136,-1.2240348,0.6104625,3.4836118,-4.241237,-0.40011674
355,1778317924.4655058,-0.79285115,-2.7326593,-2.1998844,3.582572,1.2310462,-3.9695551
356,1778317924.4753983,-0.79285115,-2.7326593,-2.1998844,3.582572,1.2310462,-3.9695551
357,1778317924.4853642,-0.8060836,-2.5067315,-2.1443934,2.9368873,7.621002,-6.868569
358,1778317924.4956052,-1.4870379,-3.3192792,-1.4926481,3.4666603,8.176432,-8.009971
359,1778317924.5052793,-1.4870379,-3.3192792,-1.4926481,3.4666603,8.176432,-8.009971
360,1778317924.5151346,-1.4870379,-3.3192792,-1.4926481,3.4666603,8.176432,-8.009971
361,1778317924.5250967,-2.4857547,-3.993404,-0.65820915,2.9659035,-1.0129673,-3.042109
362,1778317924.535317,-2.321233,-3.6342974,-0.4538679,1.5954273,-3.450167,0.4016439
363,1778317924.5455563,-1.3687993,-2.221776,-0.26574722,0.80939645,-3.7740781,2.188272
364,1778317924.5550916,-0.94005483,-1.5703964,-0.23245259,-0.45051312,-2.6416867,4.6682324
365,1778317924.5654175,-0.94005483,-1.5703964,-0.23245259,-0.45051312,-2.6416867,4.6682324
366,1778317924.5751116,-0.66223377,-1.159031,-0.18677919,-0.51068336,-2.4767532,4.7520733
367,1778317924.5856063,-0.35971612,-0.7181517,-0.17110755,-0.58093286,-1.1410962,4.566218
368,1778317924.5955656,-0.12604393,-0.4487457,-0.18525472,-0.33658674,-0.61666846,3.984674
369,1778317924.6055782,0.14098383,-0.16311927,-0.24653877,-0.035277467,-0.44058657,3.242931
370,1778317924.6153836,0.24781933,-0.09903017,-0.29599288,0.13103059,-0.3846924,2.7669141
371,1778317924.6253843,0.3799612,-0.007256521,-0.36965573,0.13103059,-0.3846924,2.7669141
372,1778317924.6352966,0.4617343,0.045002624,-0.37069237,0.32177326,-0.071013086,1.0548116
373,1778317924.6453798,0.3971573,-0.040612124,-0.3167258,0.2359467,0.087964594,0.48075095
374,1778317924.6555068,0.36313096,-0.06006448,-0.30971318,-0.1797471,0.49877146,-0.6627888
375,1778317924.6653962,0.248795,-0.110311314,-0.30520073,-0.24510968,0.5335908,-0.76159626
376,1778317924.6754823,0.042502478,-0.2087317,-0.28544348,-0.5850562,0.6800457,-1.1946996
377,1778317924.6851523,-0.08835881,-0.27349156,-0.26324704,-0.8578075,0.7643451,-1.4295774
378,1778317924.695463,-0.08835881,-0.27349156,-0.26324704,-0.8578075,0.7643451,-1.4295774
379,1778317924.7051678,-0.29129747,-0.3357513,-0.15305771,-1.3584116,1.1531608,-1.6756034
380,1778317924.715365,-0.25647837,-0.34953257,-0.092078544,-1.4239268,1.3579534,-1.6639969
381,1778317924.7252254,-0.40538952,-0.2787358,-0.10006681,-1.4556919,1.8687896,-1.5989398
382,1778317924.7351506,-0.49698022,-0.23714797,-0.2455631,-1.4556919,1.8687896,-1.5989398
383,1778317924.745177,-0.6394885,-0.2180615,-0.47027132,-1.2823589,3.26706,-1.212873
384,1778317924.7552185,-0.6916867,-0.20586567,-0.62875617,-0.6772968,3.0831897,-0.9231701
385,1778317924.7652516,-0.6911989,-0.19409668,-0.6249145,0.3866777,1.4031575,-0.5384777
386,1778317924.775378,-0.5721066,-0.39673045,-0.39154723,1.3929255,-1.5599971,0.23090707
387,1778317924.7856028,-0.5721066,-0.39673045,-0.39154723,1.4604261,-1.8678732,0.3200934
388,1778317924.7951937,-0.47832057,-0.5813754,-0.16257046,1.6720909,-3.172376,0.6310238
389,1778317924.805259,-0.47832057,-0.5813754,-0.16257046,1.6720909,-3.172376,0.6310238
390,1778317924.8157053,-0.42106113,-0.7462021,-0.052746978,1.7289014,-3.5805867,0.64736444
391,1778317924.8253171,-0.6707099,-1.9151728,0.45825842,1.813659,-5.36187,-0.95340794
392,1778317924.8352883,-1.7617493,-4.113289,-0.28093103,2.026851,-3.0483704,-2.1271856
393,1778317924.84533,-1.7617493,-4.113289,-0.28093103,2.492483,1.4184291,-2.9678888
394,1778317924.8553932,-2.2062871,-4.370194,-0.31660384,2.3316727,3.0560062,-2.0694587
395,1778317924.8652446,-2.514659,-4.3475094,-0.2912365,2.3316727,3.0560062,-2.0694587
396,1778317924.8752687,-2.2912922,-2.6815588,-0.42917135,0.63453627,1.2067643,0.33215797
397,1778317924.88512,-1.6823543,-1.9345031,-0.25013652,-0.021533,0.74082685,1.5387696
398,1778317924.8955338,-1.5936296,-1.8215698,-0.22281788,-0.113162786,0.70524395,1.7266107
399,1778317924.9053888,-1.2800137,-1.4372181,-0.11073817,-0.44425175,0.63453627,2.3738225
400,1778317924.915264,-1.0752456,-1.2009847,-0.04408794,-0.680962,0.52946746,2.7539332
401,1778317924.9255,-0.7253472,-0.7984003,0.020001167,-1.1114693,-0.030390546,3.280499
402,1778317924.9354377,-0.6246706,-0.054820273,-0.21293926,-2.4109323,-2.8344147,2.638938
403,1778317924.9451408,-0.30989614,0.55576414,-0.5483247,-3.379612,-4.0193405,2.6444356
404,1778317924.9556153,-0.14452063,0.395145,0.39246193,-3.6911533,-2.5909848,2.689487
405,1778317924.965136,0.35764283,0.13994719,0.20885365,-2.7450757,-1.3174837,2.3839016
406,1778317924.9754229,0.35764283,0.13994719,0.20885365,-2.7450757,-1.3174837,2.3839016
407,1778317924.9852138,0.75047064,0.004268542,0.38947394,-2.0102048,-1.0454959,1.8115209
408,1778317924.9952333,0.7685205,-0.011220166,0.40465775,-1.8910861,-0.9595166,1.7211128
409,1778317925.0054586,0.93981093,-0.08226089,0.53649473,-1.2449434,-0.46700647,1.1409435
410,1778317925.015284,1.1542137,-0.14671588,0.62040204,-0.94806284,-0.2182316,0.766025
411,1778317925.0252526,1.1542137,-0.14671588,0.62040204,-0.94806284,-0.2182316,0.766025
412,1778317925.0352786,1.1542137,-0.14671588,0.62040204,-0.94806284,-0.2182316,0.766025
413,1778317925.045474,1.4806352,-0.2022679,0.72351784,0.59421915,0.6623306,-1.9101756
414,1778317925.05519,1.2874532,-0.17665665,0.6008277,2.1740694,0.5198463,-4.922963
415,1778317925.0654244,0.93731076,-0.13988622,0.2973954,3.0471485,-0.7341073,-7.1735435
416,1778317925.075443,-0.40087706,1.9023671,-0.6266829,1.8832976,-2.8542678,-6.6080346
417,1778317925.0851915,-0.21403688,1.3800805,0.02207446,1.1007792,-3.7175732,-4.750241
418,1778317925.0952039,-0.23397705,1.4088627,0.021891521,1.0117456,-3.4816265,-3.9359574
419,1778317925.1054096,-0.27306473,1.5217961,-0.035428897,1.0709995,-2.4233024,-2.8805351
420,1778317925.115133,-0.2441606,1.3235528,-0.42526874,1.1904236,-0.3724751,-2.1510093
421,1778317925.1250834,-0.1548261,0.64869636,-1.2892826,0.65194595,5.2027392,-1.5717562
422,1778317925.1350965,0.0015854583,0.024818521,-1.4967947,-1.3023647,9.528887,-1.8280143
423,1778317925.14555,0.32922652,-0.3237384,-1.162324,-3.4994943,12.249375,-2.7566822
424,1778317925.1550863,0.6744296,-0.71199274,-0.47051528,-4.243681,13.042278,-3.8082867
425,1778317925.1652648,0.6015595,-0.9771302,-0.63082945,-3.576616,12.580617,-5.523138
426,1778317925.175614,0.38801044,-1.4947823,-1.814923,-3.3767104,12.281293,-5.669593
427,1778317925.1855354,0.38801044,-1.4947823,-1.814923,-2.0454822,8.395579,-6.0380974
428,1778317925.1951795,0.27989438,-1.5171008,-0.7871801,-0.12370021,1.4352279,-5.5497108
429,1778317925.2054226,0.25660032,-1.2687936,-0.3582526,0.59986967,-2.2261457,-5.2377114
430,1778317925.2154696,0.30520073,-1.1507988,-0.15238695,0.93538743,-4.585918,-5.154939
431,1778317925.2253778,0.43953782,-1.1346394,0.09500554,1.0630583,-6.5403814,-5.1767774
432,1778317925.2352889,0.43953782,-1.1346394,0.09500554,1.0630583,-6.5403814,-5.1767774
433,1778317925.2452235,1.3633112,-3.2536654,-1.4891113,-1.4210253,4.477337,-5.716935
434,1778317925.2554493,1.8260821,-3.6049054,0.19873111,-1.1036807,8.272642,-6.1387377
435,1778317925.2654989,1.2350111,-4.4367833,0.3494716,1.0114402,1.8190039,-4.519639
436,1778317925.275541,1.2350111,-4.4367833,0.3494716,1.2718215,0.95829487,-4.147622
437,1778317925.2854476,-0.1372641,-3.2225661,-1.0367678,1.1485794,-2.8672488,-0.21029036
438,1778317925.2953856,-0.1372641,-3.2225661,-1.0367678,1.1485794,-2.8672488,-0.21029036
439,1778317925.3050966,-0.19696271,-2.3045857,-0.5643012,0.90102625,-2.968958,1.6992744
440,1778317925.315906,-0.28788266,-1.7558951,-0.28080907,1.0943651,-2.8663325,2.9089403
441,1778317925.3254175,-0.32672638,-1.4661222,-0.3164819,1.3411547,-3.0921998,3.966959
442,1778317925.3351693,0.115128666,-1.6492425,-0.14635001,1.3752104,-3.7039814,5.564066
443,1778317925.345081,0.115128666,-1.6492425,-0.14635001,1.3752104,-3.7039814,5.564066
444,1778317925.3554568,0.51948154,-2.1064034,-0.081956,1.5949692,-4.630817,5.417917
445,1778317925.3655705,0.726018,-2.5453925,-0.30605444,1.7863227,-4.1690025,4.7671924
446,1778317925.3755124,0.20763406,-2.6152136,-0.33416584,1.4595097,-1.322676,3.610061
447,1778317925.3851073,0.20763406,-2.6152136,-0.33416584,1.4081972,-1.1061243,3.551876
448,1778317925.395529,-0.06945527,-2.2297032,-0.22464725,1.2776246,-0.56428677,3.4545956
449,1778317925.4055967,-0.24227023,-1.8273017,-0.2950172,1.1415545,-0.58078015,3.549738
450,1778317925.4151256,-0.3231896,-1.5970445,-0.48380873,0.50411654,-1.6934712,3.4402404
451,1778317925.4253445,-0.37166804,-1.3009906,-0.38002217,0.27412578,-1.9593502,3.6044104
452,1778317925.4350877,-0.34904477,-0.93499357,-0.48710158,0.0056505036,-2.3765712,3.717115
453,1778317925.4450946,-0.2894681,-0.66497785,-0.4804549,-0.38163805,-2.95109,3.7943895
454,1778317925.4552355,-0.21525647,-0.4411843,-0.45148978,-0.6797403,-3.4122932,3.8754818
455,1778317925.4655676,-0.14885014,-0.26574722,-0.42709813,-0.9976957,-3.8858666,3.8919752
456,1778317925.475419,0.01683025,0.044575773,-0.29361472,-1.0615311,-3.8009562,3.8394408
457,1778317925.4852812,0.01683025,0.044575773,-0.29361472,-1.0615311,-3.8009562,3.8394408
458,1778317925.495312,0.100554645,0.12970269,-0.19001108,-1.0496192,-3.436117,3.7151296
459,1778317925.5051603,0.1027499,0.15915562,-0.0102445,-0.98471475,-3.0972395,3.5124753
460,1778317925.5155807,0.1027499,0.15915562,-0.0102445,-0.79702646,-2.5981627,3.2016973
461,1778317925.525386,0.05567398,0.15830192,0.010854292,-0.6046039,-2.1739166,3.0517302
462,1778317925.5354657,0.040551145,0.12854409,0.013537374,-0.50823987,-1.9767599,2.9987376
463,1778317925.5454597,0.045978293,0.084761046,0.034819108,-0.3933972,-1.7687603,2.9480357
464,1778317925.55535,0.13073933,0.011281146,0.07421165,-0.28619036,-1.6545285,2.90161
465,1778317925.565268,0.1273245,0.009756667,0.073723815,-0.15363261,-1.5309811,2.795014
466,1778317925.5752606,0.1243975,0.021464668,0.0717115,-0.005497787,-1.4159856,2.6650524
467,1778317925.5852065,0.14336202,0.043905,0.06610142,0.22632557,-1.2211196,2.4277313
468,1778317925.5951028,0.1516552,0.054637335,0.0670161,0.20082195,-1.2392929,2.4585798
469,1778317925.60549,0.18037638,0.11067719,0.05189327,0.32421672,-1.1633929,2.2886066
470,1778317925.6154149,0.16080207,0.17446141,0.017805915,0.31749722,-1.182177,2.200642
471,1778317925.625371,0.110616215,0.3216651,-0.023659917,0.2565634,-1.2307408,2.2354615
472,1778317925.635185,0.012622688,0.80022967,-0.015671646,-0.12140947,-1.5706873,2.869692
473,1778317925.6452155,0.29513916,0.7537635,0.06500379,-0.028099801,-1.7281377,3.3066137
474,1778317925.6551597,0.5622279,0.42508578,-0.017562,0.14782938,-1.6470454,2.9674306
475,1778317925.6652963,0.7455923,0.08329754,-0.092078544,0.06261369,-1.4262177,2.127491
476,1778317925.6753285,0.81980395,-0.14202048,-0.12134854,-0.2666427,-1.0245737,1.1009319
477,1778317925.6851013,0.81980395,-0.14202048,-0.12134854,-0.2666427,-1.0245737,1.1009319
478,1778317925.6955194,0.76998395,-0.33788556,-0.13634941,-0.5551238,0.6203337,-0.7528914
479,1778317925.7054515,0.59113204,-0.36459443,-0.19873111,-0.623388,1.8434386,-1.481501
480,1778317925.7153354,0.3240433,-0.3919741,-0.29794422,-0.6189592,3.645033,-2.2379048
481,1778317925.7254825,0.14348398,-0.48057684,-0.41831708,-0.39752057,6.0193133,-2.9874365
482,1778317925.7351923,0.14348398,-0.48057684,-0.41831708,-0.39752057,6.0193133,-2.9874365
483,1778317925.74547,0.14348398,-0.48057684,-0.41831708,-0.39752057,6.0193133,-2.9874365
484,1778317925.7555704,0.32105532,-1.1018935,-0.4435015,5.4835844,11.359803,-5.8267384
485,1778317925.7653124,-1.1235411,-3.6935084,-1.4331324,7.0548825,6.44585,-5.240918
486,1778317925.775128,-1.1235411,-3.6935084,-1.4331324,7.0548825,6.44585,-5.240918
487,1778317925.7851398,-2.2222028,-4.8092437,-3.350866,6.635829,1.5228871,-3.7901134
488,1778317925.7951567,-3.1692092,-5.441659,-3.6456394,2.5595255,-1.6331482,-1.0374019
489,1778317925.805077,-2.5597835,-5.44733,-1.7245518,-1.3730724,-5.574298,1.6462818
490,1778317925.8151882,-2.3055613,-5.4926376,-0.6169872,-2.9765937,-7.7054543,2.3785565
491,1778317925.8254693,-1.9076723,-4.572218,-0.20507295,-3.380681,-7.5261655,2.8561006
492,1778317925.8354392,-1.478013,-3.3962955,0.08152915,-3.0460796,-5.827349,2.7013988
493,1778317925.8455281,-1.13281,-2.2253737,0.18641332,-2.3709207,-3.7048976,2.0922134
494,1778317925.8554797,-0.7715694,-1.1173823,0.070248,-1.5598444,-1.9208658,1.2808317
495,1778317925.8652709,-0.5347873,-0.66918534,0.079638794,-1.2247849,-1.4369078,0.91797775
496,1778317925.875461,-0.39929157,-0.43709868,0.10396948,-0.86483246,-0.9381363,0.57635134
497,1778317925.8853815,-0.39929157,-0.43709868,0.10396948,-0.86483246,-0.9381363,0.57635134
498,1778317925.8958726,-0.32123825,-0.19153556,0.105920814,-0.86483246,-0.9381363,0.57635134
499,1778317925.9055417,-0.13970327,-0.03439225,0.10293283,-0.026572637,-0.034208454,0.17211129
500,1778317925.915223,-0.13970327,-0.03439225,0.10293283,-0.026572637,-0.034208454,0.17211129
501,1778317925.9254546,-0.13275166,0.3799612,0.075980045,0.025961773,-0.48273626,-0.07315111
502,1778317925.9355152,-0.12476338,0.56411827,0.09171267,-0.06078109,-0.9801333,-0.13988814
503,1778317925.945316,-0.12476338,0.56411827,0.09171267,-0.06078109,-0.9801333,-0.13988814
504,1778317925.955238,-0.015122834,0.688028,0.23105007,-0.10934488,-2.361605,-0.3359759
505,1778317925.9653685,0.14769155,0.59430295,0.31770146,-0.0664316,-3.6102135,-0.7290677
506,1778317925.9752288,0.32636052,0.41630477,0.3634968,-0.0143553335,-4.6072984,-1.2617421
507,1778317925.985097,0.49460202,0.1604362,0.368863,0.041691553,-5.2036557,-1.8257235
508,1778317925.9954138,0.5674112,0.052198168,0.23928225,0.115453534,-5.4324245,-2.2226331
509,1778317926.0051434,0.5674112,0.052198168,0.23928225,0.21777347,-5.3559136,-2.9345965
510,1778317926.015473,0.45844138,0.20415826,0.09598121,0.33857206,-4.227493,-3.3444872
511,1778317926.0254202,0.30452996,0.39471814,-0.2001946,0.22174409,-2.0250182,-3.221245
512,1778317926.0354714,0.33373898,0.38471758,-0.31434762,-0.106901415,0.16554448,-2.8273897
513,1778317926.045506,0.4232564,0.26641798,-0.40490165,-0.43951756,3.495829,-2.5503623
514,1778317926.0555758,0.44215995,0.19360885,-0.41807315,-0.76174897,5.8284183,-2.496148
515,1778317926.0654564,0.43404973,0.10457927,-0.36764342,-1.2073752,7.8728313,-2.543643
516,1778317926.0754735,0.37075335,0.004817354,-0.24044085,-1.3990341,9.381821,-2.6734517
517,1778317926.085572,0.29806617,-0.06982114,-0.15531394,-1.2592987,10.257343,-2.7692049
518,1778317926.0958076,0.24403864,-0.1340322,-0.03670946,-0.56230146,10.906541,-2.7618744
519,1778317926.1054728,0.275138,-0.3460568,-0.13330047,0.8416196,11.36469,-2.4019222
520,1778317926.115148,0.28904125,-0.38337603,-0.17061971,1.0277808,11.436771,-2.3446536
521,1778317926.1255517,0.33178765,-0.61156005,-0.5041757,2.002111,11.429441,-2.031127
522,1778317926.1354406,0.2139759,-0.840171,-1.0704893,2.5386033,10.215041,-1.8976529
523,1778317926.145114,0.2139759,-0.840171,-1.0704893,2.8820622,7.6480327,-1.8358028
524,1778317926.1552196,0.2139759,-0.840171,-1.0704893,2.8820622,7.6480327,-1.8358028
525,1778317926.1655533,0.14470357,-1.4381937,-1.5947882,1.4899004,0.40683624,-2.4442246
526,1778317926.1754885,0.46941763,-1.6650362,-0.70607775,0.3287982,-3.1424434,-3.21758
527,1778317926.185343,0.9214562,-2.350747,-0.71717596,-0.81199265,-5.4921365,-4.118148
528,1778317926.1955533,1.6579015,-3.6448467,-0.56643546,-2.2609649,-5.2774177,-5.1027102
529,1778317926.205091,1.6579015,-3.6448467,-0.56643546,-3.986201,-3.0790663,-6.338796
530,1778317926.21537,1.4451452,-3.728388,-0.120007,-4.0818014,-0.22785273,-6.788851
531,1778317926.2252657,0.53436047,-3.354708,0.40752378,-2.5636487,2.6887233,-5.8163533
532,1778317926.2351131,-0.14214244,-2.8699236,0.52307934,-0.041691553,2.165212,-3.0002646
533,1778317926.245102,-0.272272,-2.7272325,0.45935607,1.0410671,0.8168796,-1.4340062
534,1778317926.2555516,-0.3910594,-2.3871515,0.26739365,2.38268,-1.7837266,0.8549059
535,1778317926.2652307,-0.35160586,-2.3175132,-0.30489585,3.1537445,-3.4002287,2.5894578
536,1778317926.275709,0.05506419,-2.5177689,-0.7628494,2.007914,-1.7345519,3.870595
537,1778317926.2856128,0.39880377,-2.7043653,-0.6758931,1.2198979,-0.88254756,3.641215
538,1778317926.2951388,0.48569906,-2.7524776,-0.4864918,1.0986412,-0.77442443,3.568064
539,1778317926.3058467,0.46874684,-2.7243052,-0.3559354,0.7680103,-0.48731774,3.232088
540,1778317926.3153799,0.33239743,-2.57887,-0.29422447,0.7686212,-0.19013181,2.7510316
541,1778317926.3255434,0.18885247,-2.3948958,-0.3196528,1.0105238,0.0015271631,2.3974934
542,1778317926.3356287,0.014756958,-2.0816457,-0.354228,1.4717271,0.057268616,2.1545217
543,1778317926.345138,-0.058540005,-1.890781,-0.4476481,1.7182112,-0.11560625,2.1783454
544,1778317926.3551838,-0.17385161,-1.5676523,-0.6199752,1.8339702,-0.62018096,2.4040601
545,1778317926.3650854,-0.29050475,-1.1715927,-0.7630933,1.5254833,-1.5183055,2.81166
546,1778317926.3755503,-0.31270117,-0.93224955,-0.7526049,1.0966558,-2.428953,3.1245756
547,1778317926.3851228,-0.30245668,-0.74272627,-0.66180694,0.5936083,-3.3890803,3.313333
548,1778317926.3951333,-0.292761,-0.57570434,-0.5732652,0.070554934,-4.2496367,3.428481
549,1778317926.405309,-0.24806325,-0.42782986,-0.5032611,-0.3791946,-4.800943,3.4938438
550,1778317926.4151835,-0.22519606,-0.24178241,-0.4241711,-0.8032878,-5.2671857,3.5353825
551,1778317926.4255652,-0.16635117,-0.14939895,-0.3293485,-1.24082,-5.717546,3.574478
552,1778317926.4352925,-0.105372004,-0.046953958,-0.18537667,-1.4677565,-5.91455,3.641673
553,1778317926.4454248,-0.04744179,0.036221627,-0.07488242,-1.421178,-5.7477837,3.6198347
554,1778317926.4554977,0.008476105,0.24934383,0.12201932,-1.3087788,-5.7887115,3.4797938
555,1778317926.4652388,0.059881546,0.27952853,0.18458393,-1.0250319,-5.6747856,3.1813862
556,1778317926.4750814,0.19610901,0.19488941,0.083907336,-1.433548,-4.3617306,2.8226557
557,1778317926.4854016,0.18787682,0.1783031,0.090919934,-1.986381,-3.3396003,2.5127943
558,1778317926.4955864,0.22665958,0.050307814,0.081468165,-2.1937697,-2.9946141,2.3031147
559,1778317926.505599,0.28666306,0.07445556,0.11384811,-1.9763018,-2.2667682,2.1746802
560,1778317926.5153508,0.28666306,0.07445556,0.11384811,-1.9763018,-2.2667682,2.1746802
561,1778317926.525235,0.32654345,0.14885014,0.22104947,-1.3979651,-0.34498614,2.0613647
562,1778317926.5351276,0.36246017,0.24452646,0.3031884,-0.0346666,3.6505308,2.0140228
563,1778317926.545471,0.3225798,0.24623388,0.17988855,1.069625,7.5958037,2.1386392
564,1778317926.555338,0.3225798,0.24623388,0.17988855,1.069625,7.5958037,2.1386392
565,1778317926.5652003,0.3225798,0.24623388,0.17988855,1.069625,7.5958037,2.1386392
566,1778317926.5753362,0.74711674,0.10726235,-0.54442203,0.7134906,6.7928214,1.1902709
567,1778317926.5851047,0.5425316,0.109884456,-0.37374133,0.6589709,5.9747205,1.0648909
568,1778317926.5954394,0.5425316,0.109884456,-0.37374133,0.35903606,2.5949554,0.5174029
569,1778317926.6051111,0.3459348,0.090919934,-0.13659334,-0.044745877,-0.82726425,0.18952094
570,1778317926.6154456,0.2506244,0.06317442,0.10573788,-0.17501289,-2.8567114,-0.19257528
571,1778317926.6255322,0.19842622,0.057381395,0.19129165,-0.14782938,-3.8289034,-0.63331455
572,1778317926.6353605,0.17251006,0.017683959,0.16915621,-0.13164146,-4.32065,-1.0005972
573,1778317926.645298,0.17372964,-0.030977417,0.12025091,-0.15500705,-4.7798676,-1.41904
574,1778317926.6554415,0.18482786,-0.06530869,0.09610317,-0.18982637,-5.0668216,-1.7832683
575,1778317926.6654851,0.20995127,-0.103115775,0.060186442,-0.21945333,-5.136155,-1.981036
576,1778317926.675186,0.22178122,-0.31751853,-0.10116444,-0.10705414,-3.9321396,-2.3828325
577,1778317926.6856396,0.06933331,-0.7540074,-0.18257163,1.2589933,4.277126,-3.7183368
578,1778317926.6955824,0.18751094,-0.86968493,-0.17757133,2.5746443,9.319513,-5.301089
579,1778317926.7054515,0.26306412,-1.3968499,-0.5363118,2.5746443,9.319513,-5.301089
580,1778317926.7154067,0.08738314,-2.6847908,-0.92023665,3.1865785,10.322706,-5.6413407
581,1778317926.7255452,-0.25373432,-4.3890977,-1.370019,4.6561675,7.618864,-5.5379515
582,1778317926.7352688,-0.45423386,-5.30098,-1.5794824,4.633871,3.0767756,-4.35944
583,1778317926.745334,-0.6598556,-5.9872394,-1.5569811,3.26874,-0.8697194,-2.8916833
584,1778317926.755511,-0.63058555,-6.3678107,-1.3601403,1.8622227,-4.652197,-1.2948816
585,1778317926.7654998,-0.8562694,-5.352568,-0.8026688,0.48991394,-7.527387,0.47586402
586,1778317926.7753677,-0.8977353,-4.404952,-0.50069994,-0.15393804,-7.932238,2.1716259
587,1778317926.7852647,-0.6952845,-3.5293524,-0.38996178,-0.5546656,-6.6767573,3.5786014
588,1778317926.7955513,-0.2763576,-2.6363733,-0.07152857,-0.8229882,-3.7304013,4.052938
589,1778317926.805377,-0.18860857,-1.9141971,0.097200796,-0.95310247,-1.9271271,3.5934148
590,1778317926.8153834,-0.199036,-1.0792093,0.26623505,-1.1217014,-0.31764993,3.1094568
591,1778317926.8252351,-0.19507235,-1.0444511,0.2762356,-1.3353515,0.52503866,2.7725646
592,1778317926.8353043,-0.1086039,-0.769801,0.31696972,-1.4242324,1.0279335,2.7143798
593,1778317926.8450847,-0.42063433,0.1876329,0.37508285,-1.3787229,1.3449726,2.5277603
594,1778317926.8556952,-0.14586218,-0.14311811,0.27788207,-1.3261884,1.3952162,2.3596196
595,1778317926.8650782,-0.0048783333,0.022928167,0.21928109,-1.4056009,0.990518,2.0977113
596,1778317926.8755171,0.04610025,0.23586741,0.15372847,-1.6786577,0.079870634,1.5103643
597,1778317926.885322,0.19873111,0.14787449,0.13939838,-1.6786577,0.079870634,1.5103643
598,1778317926.895502,0.26385686,0.17793721,0.34245902,-2.8585439,-2.3716843,0.26557365
599,1778317926.9053047,0.2344649,0.28471172,0.39685243,-2.796083,-3.0834951,-0.23182335
600,1778317926.9156098,0.24458744,0.28093103,0.48710158,-2.0935879,-2.8965702,-0.5465717
601,1778317926.925426,0.1890964,0.32703125,0.6010107,-2.0935879,-2.8965702,-0.5465717
602,1778317926.9352124,0.14994776,0.39130333,0.646989,-1.2866349,-1.647809,-0.49021935
603,1778317926.945333,0.1419595,0.43661085,0.47984505,-0.4457789,-0.13912456,-0.36193767
604,1778317926.955279,0.14970386,0.438989,0.46417344,0.022449298,0.84788096,-0.29856038
605,1778317926.9654016,0.16433886,0.43734258,0.35782576,0.2406809,1.3158038,-0.27656925
606,1778317926.9751925,0.16433886,0.43734258,0.35782576,0.2406809,1.3158038,-0.27656925
607,1778317926.9855292,0.1349469,0.38612008,0.20854875,1.5601498,2.8269317,-0.31887165
608,1778317926.9953551,0.08280971,0.37892455,0.07262619,2.1427627,2.8973339,-0.3202461
609,1778317927.0054178,0.04768571,0.39416936,-0.29721245,2.547308,2.8171577,-0.24770586
610,1778317927.0155692,0.04414892,0.39294976,-0.3381295,2.6923885,2.9162707,-0.14019357
611,1778317927.025401,0.027684543,0.38794947,-0.43319598,2.6087,2.9544497,-0.0664316
612,1778317927.0353913,0.0024391667,0.3434347,-0.518201,2.6087,2.9544497,-0.0664316
613,1778317927.0455477,-0.063113436,0.31806734,-0.6027181,1.9741638,2.9442177,0.0096211275
614,1778317927.0555038,-0.18330337,0.30520073,-0.7130904,1.2592987,3.0521882,0.08200866
615,1778317927.0651522,-0.22897679,0.23964813,-0.80571777,0.968985,3.1597004,0.09911288
616,1778317927.0755148,-0.3275801,-0.19269417,-1.1603726,-0.99189246,3.663817,-0.12751812
617,1778317927.0853372,-0.33227548,-0.25178298,-1.2365355,-2.0344868,4.502993,-0.2733622
618,1778317927.0954533,-0.5431415,-1.0490246,-2.0907316,-2.5202773,5.394398,-0.41416663
619,1778317927.1051042,-0.5752165,-1.1998872,-1.7022336,-1.9738584,5.054452,-0.6079636
620,1778317927.1154566,-0.5341775,-1.103296,-1.097686,-1.2519683,3.4437528,-0.752586
621,1778317927.1252952,-0.5341775,-1.103296,-1.097686,-0.86926126,-0.26374108,-1.1394165
622,1778317927.1357222,-0.21507353,-0.6354639,0.32306764,-0.7307475,-3.1070135,-1.4909693
623,1778317927.1451352,-0.21507353,-0.6354639,0.32306764,-0.7307475,-3.1070135,-1.4909693
624,1778317927.1553051,-0.19519432,-0.6863815,0.53606784,-0.48334712,-5.600107,-1.7385225
625,1778317927.1655912,-0.09171267,-1.0282917,0.6758931,0.22815818,-8.963684,-1.7974709
626,1778317927.1754022,-0.017744938,-1.240926,0.7124196,0.44822237,-9.706954,-1.7817413
627,1778317927.1852121,0.4417331,-2.5389285,0.24037987,0.84956086,-10.087523,-1.6024523
628,1778317927.1954052,0.72077376,-4.33757,-0.58911973,3.222467,13.414143,-2.8411343
629,1778317927.205282,0.22074458,-4.6137447,-0.04549046,3.222467,13.414143,-2.8411343
630,1778317927.2155404,-0.65137947,-5.128653,0.10500612,2.0299053,6.058867,-0.82802784
631,1778317927.2252517,-1.4590485,-5.4895887,0.05427146,2.0299053,6.058867,-0.82802784
632,1778317927.2352033,-1.9892014,-5.048953,-0.085309856,2.2177463,0.9691377,0.4644103
633,1778317927.2452369,-2.1225019,-4.38989,-0.4122192,3.0534098,-2.2001839,1.645671
634,1778317927.2552848,-1.5124053,-2.7894309,-1.4744763,3.2513304,-2.5077546,3.3933563
635,1778317927.2651386,-0.92852974,-2.263242,-1.3220284,2.9324586,-1.8829921,3.758043
636,1778317927.2754958,-0.64753777,-1.9768835,-1.1915329,1.7968601,-1.536326,4.017813
637,1778317927.2856014,-0.39477912,-1.6556454,-0.95249456,0.5627596,-3.1722233,3.7468946
638,1778317927.295578,-0.39477912,-1.6556454,-0.95249456,0.5627596,-3.1722233,3.7468946
639,1778317927.30538,-0.25166103,-1.4756349,-0.7365674,-0.5025894,-5.382181,3.2637002
640,1778317927.3151693,-0.23916028,-1.3409319,-0.6688195,-1.687668,-6.33284,2.869234
641,1778317927.3255749,-0.32922652,-1.0076197,-0.39154723,-2.0118847,-5.7723713,2.837927
642,1778317927.3355348,-0.31684774,-0.8705386,-0.2506244,-2.1989622,-5.0352097,2.829375
643,1778317927.3452024,-0.29385862,-0.6896134,-0.13439809,-2.3945918,-4.200615,2.7995954
644,1778317927.3553686,-0.2344649,-0.5028952,-0.024696562,-2.4845417,-3.6135733,2.7421741
645,1778317927.3652744,-0.18159597,-0.3956938,0.029026084,-2.450486,-2.8626673,2.5706737
646,1778317927.3756323,-0.08152915,-0.23714797,0.08427321,-2.35794,-2.535549,2.4645357
647,1778317927.3854356,0.045124583,-0.119946025,0.097749606,-2.1528418,-2.1568124,2.213012
648,1778317927.395361,0.1823887,0.015732625,0.08720021,-1.8750509,-1.87444,1.7536414
649,1778317927.4051118,0.20275573,0.06390616,0.069760166,-1.7369953,-1.7580702,1.4059063
650,1778317927.415565,0.17872995,0.040673107,0.017318083,-1.5528195,-1.5407549,0.8164214
651,1778317927.4251194,0.17720546,0.02646496,0.014452063,-1.5410603,-1.5118915,0.7538077
652,1778317927.4351907,0.10939662,0.039880376,-0.03280679,-1.4582881,-1.2976305,0.51007247
653,1778317927.4455967,0.02792846,0.17397358,-0.21751268,-1.1597277,1.1749994,0.60139686
654,1778317927.455521,0.017988855,0.20245083,-0.27477214,-1.1224649,1.5418239,0.63606346
655,1778317927.4654546,0.028233355,0.20391434,-0.27477214,-1.0030408,3.1082351,0.7770206
656,1778317927.4751248,0.03670946,0.15598471,-0.21056107,-1.0140363,3.712839,0.8268061
657,1778317927.4851422,0.026891813,0.097017854,-0.110616215,-1.1551461,4.150371,0.82787514
658,1778317927.495295,0.013659334,0.054210484,-0.012195834,-1.2825116,4.078289,0.7861836
659,1778317927.5051527,0.0064637917,0.039758418,0.016708292,-1.3999504,3.4710891,0.7141015
660,1778317927.5156531,-0.00079272914,0.03884373,0.031343292,-1.410946,3.3895385,0.7121162
661,1778317927.5252335,-0.008537084,0.048600398,0.029818814,-1.5282321,2.568383,0.7118107
662,1778317927.5354354,-0.008537084,0.048600398,0.029818814,-1.5282321,2.568383,0.7118107
663,1778317927.5454419,-0.0031709166,0.053051874,0.037136313,-1.6458237,1.7150042,0.83291477
664,1778317927.5554395,0.01103723,0.062015813,0.06530869,-1.6555976,1.6455183,0.8492554
665,1778317927.5651553,0.03457519,0.07927292,0.09878625,-1.6650659,1.3913983,0.9251554
666,1778317927.5755234,0.05067369,0.075980045,0.11927526,-1.6282613,1.1517864,1.0093021
667,1778317927.5854099,0.084456146,0.065491624,0.16025324,-1.521818,0.8571966,1.0884092
668,1778317927.5952675,0.12823918,0.07774844,0.1629973,-1.3373368,0.5140431,1.1624765
669,1778317927.6054454,0.19391376,0.08787098,0.15153323,-1.1252137,0.11927144,1.1899655
670,1778317927.6153977,0.19281614,0.021891521,0.13592257,-0.6401868,-0.79427755,1.0716103
671,1778317927.6255667,0.18452296,0.00085370836,0.13415417,-0.572228,-0.91874135,1.0473285
672,1778317927.6351035,0.16635117,-0.061284065,0.10781116,-0.3680463,-1.29198,0.9793697
673,1778317927.645378,0.11537258,-0.16287535,0.025733208,1.5842791,-5.2476377,0.56581396
674,1778317927.6553602,-0.430269,-1.337578,-2.1546988,1.5842791,-5.2476377,0.56581396
675,1778317927.6653497,-1.6668044,-2.3871515,-4.586304,1.7760907,0.54153204,-0.23319781
676,1778317927.6756256,-1.9802375,-2.6828396,-4.5203247,1.7550159,4.8296533,-0.605062
677,1778317927.6855524,-1.4349009,-2.2931216,-3.8357725,1.745242,1.4512631,-1.4511104
678,1778317927.6953995,-1.4349009,-2.2931216,-3.8357725,1.745242,1.4512631,-1.4511104
679,1778317927.7053294,-0.69650406,-1.4788668,-2.2779987,1.745242,1.4512631,-1.4511104
680,1778317927.7153316,0.02774552,-1.1293951,0.053478733,-4.678617,-12.480129,-7.508603
681,1778317927.7253025,-0.8801733,-1.6952819,1.1804957,-5.8618627,-12.738525,-8.296772
682,1778317927.7352,-0.9526166,-1.7202224,1.323309,-5.833305,-11.176696,-7.8714566
683,1778317927.7454412,-1.3939837,-1.9148679,2.028106,-5.2852063,-9.23216,-6.944469
684,1778317927.7556052,-1.9783472,-2.9699903,2.5419166,2.0920608,1.6316211,-4.1631994
685,1778317927.765475,-2.3369658,-3.3419023,2.473254,2.0920608,1.6316211,-4.1631994
686,1778317927.7752964,-2.3731873,-3.5353284,1.99036,4.78674,5.383708,-1.7641789
687,1778317927.7851136,-1.9998118,-3.5498412,1.1042718,5.57384,6.4482937,-0.3828598
688,1778317927.795523,-1.1618971,-2.8099809,0.08244383,5.4716725,6.616434,0.97509366
689,1778317927.8054101,-0.4852722,-1.6607677,-1.5386264,4.77437,6.190203,0.72692966
690,1778317927.8154376,0.051771317,-0.75888574,-1.1146382,3.6248744,5.8003182,0.40790528
691,1778317927.8253624,0.050307814,-0.5308846,-0.8041323,3.0014863,4.7574186,0.3567453
692,1778317927.8354719,0.072321296,-0.35800868,-0.570765,1.9767599,2.2414174,0.50488013
693,1778317927.8454907,0.072321296,-0.35800868,-0.570765,1.9767599,2.2414174,0.50488013
694,1778317927.8556328,0.16189969,-0.076102,-0.3778879,1.510517,1.4570663,0.505491
695,1778317927.8652558,0.16787565,-0.053417753,-0.34733734,0.80756384,0.8144361,0.3587306
696,1778317927.875406,0.21123183,-0.0038416875,-0.22879384,0.07941248,0.21273382,0.09315695
697,1778317927.8853974,0.26129574,0.023111105,-0.08482202,-0.2817616,-0.2171626,-0.12767084
698,1778317927.8952382,0.31959182,0.02201348,0.08299265,-0.6272059,-0.86666507,-0.63255095
699,1778317927.905522,0.34654462,0.07524829,0.24202631,-0.63255095,-1.3274102,-1.1136073
700,1778317927.915463,0.3661799,0.066223375,0.286907,-0.4098906,-1.8164078,-1.6387987
701,1778317927.925296,0.3661799,0.066223375,0.286907,0.019700404,-2.1803308,-2.4226916
702,1778317927.9355304,0.38770556,0.044880666,0.30605444,0.019700404,-2.1803308,-2.4226916
703,1778317927.9456165,0.41349974,0.055186145,0.31568915,0.2680171,-1.996613,-2.8985555
704,1778317927.9554896,0.42526874,0.08116327,0.3310559,0.5377141,-1.3400856,-3.3904548
705,1778317927.9654858,0.41856104,0.1030548,0.24117261,0.79305583,-0.21517728,-3.7669005
706,1778317927.975309,0.27989438,0.13891055,-0.11439692,0.8165741,2.840829,-4.160145
707,1778317927.9854226,0.23318435,0.13793488,-0.11622629,0.7528914,4.0150647,-4.232685
708,1778317927.9952488,0.23318435,0.13793488,-0.11622629,0.7528914,4.0150647,-4.232685
709,1778317928.005271,0.23318435,0.13793488,-0.11622629,0.7528914,4.0150647,-4.232685
710,1778317928.0155356,0.23318435,0.13793488,-0.11622629,0.7528914,4.0150647,-4.232685
711,1778317928.0251973,-0.5189937,0.18897444,-1.0349385,-0.84116143,8.0366955,-3.090062
712,1778317928.0351107,-0.72668874,0.1554359,-1.9502968,-2.6626089,7.137502,-2.3501513
713,1778317928.0451097,-0.2300744,-0.33678794,-3.8770556,-6.9927273,4.522083,-1.5097535
714,1778317928.0555046,-0.2789187,-0.4256346,-4.2606754,-7.4478216,4.5152106,-1.4677565
715,1778317928.0653894,-0.91755354,-0.6909549,-4.394891,-7.746993,3.0514245,-0.66950834
716,1778317928.0755565,-1.2153758,-0.6788201,-2.0963418,-7.2072935,1.6730071,-0.24037547
717,1778317928.0855317,-0.47344226,-0.42032942,0.5137495,-5.008637,-4.758182,0.6047566
718,1778317928.0954893,-0.29696855,-0.37447307,1.0598788,-3.9822304,-7.0104423,0.81382525
719,1778317928.1054485,0.1261659,-0.6158286,1.2860507,-0.25625798,-11.78634,0.97112304
720,1778317928.115241,0.1261659,-0.6158286,1.2860507,-0.25625798,-11.78634,0.97112304
721,1778317928.1251209,0.42691517,-1.2577562,1.3978864,1.9338466,-12.998907,0.4558582
722,1778317928.135211,0.6662584,-1.8298019,1.3547132,3.2117767,-12.961492,0.0355829
723,1778317928.1450994,1.2230592,-5.303968,-1.4426452,4.708702,1.1600331,-1.4286611
724,1778317928.1555176,1.2230592,-5.303968,-1.4426452,4.708702,1.1600331,-1.4286611
725,1778317928.1654692,1.2600125,-5.398852,-0.6161945,4.030489,14.003628,-1.6705637
726,1778317928.1753361,1.109577,-5.085602,-0.34697145,2.68628,19.6271,-1.2542591
727,1778317928.1853411,0.85883063,-4.4843473,-0.70784616,1.3148874,19.608622,-0.7502952
728,1778317928.1951969,0.47027132,-3.290253,-2.4580703,3.3043227,12.313822,-0.124769226
729,1778317928.2052588,0.061284065,-3.094022,-3.7210705,3.8829648,2.229811,0.33185256
730,1778317928.2151365,-0.7363235,-3.1479275,-2.6969867,1.6081028,-5.8954606,1.1133019
731,1778317928.225123,-1.0055465,-2.974198,-1.489843,-0.22403483,-8.59915,2.072513
732,1778317928.2352479,-1.0892099,-2.5948465,-0.7158954,-1.2825116,-8.974069,3.1783319
733,1778317928.2454925,-0.9926189,-2.3296483,-0.23556253,-1.7469219,-8.468577,4.0350704
734,1778317928.2555869,-0.6816861,-2.0950613,0.19324298,-1.8038851,-6.562831,4.7163377
735,1778317928.2654228,-0.41581696,-1.9221244,0.45289227,-1.5774068,-4.7723846,4.619363
736,1778317928.2754843,-0.32501897,-1.7051605,0.48862606,-1.1840096,-2.470492,4.02942
737,1778317928.2853332,-0.29428545,-1.4323397,0.4671004,-0.6908886,-0.8782715,3.3347135
738,1778317928.2954447,-0.32971436,-1.200009,0.456673,-0.054825157,0.47571132,2.5680776
739,1778317928.3055933,-0.5488735,-0.7410189,0.22117145,1.564426,1.8681786,1.2936599
740,1778317928.315236,-0.5800948,-0.60143757,0.0582351,1.9625573,1.4155275,1.2247849
741,1778317928.325568,-0.4996633,-0.48149154,-0.04524654,2.0862575,0.6914995,1.4123205
742,1778317928.3353224,-0.4996633,-0.48149154,-0.04524654,2.0862575,0.6914995,1.4123205
743,1778317928.3453436,-0.41667065,-0.39892572,-0.10646963,2.0444133,-0.4156938,1.9233092
744,1778317928.3553722,-0.28166276,-0.28465074,-0.1803154,2.0444133,-0.4156938,1.9233092
745,1778317928.3653572,-0.11305538,-0.14994776,-0.26068595,1.918575,-0.64736444,2.1222985
746,1778317928.3754675,0.014695979,0.008171208,-0.3401418,1.6959146,-0.46883908,2.2059872
747,1778317928.385295,0.11653119,0.13012955,-0.43051293,1.4422529,-0.18982637,2.196366
748,1778317928.3951387,0.1765347,0.21202457,-0.5307627,1.1774428,0.12690726,2.1499403
749,1778317928.4055808,0.1765347,0.21202457,-0.5307627,1.1774428,0.12690726,2.1499403
750,1778317928.4154067,0.11744587,0.32142118,-0.5987544,-0.54305923,1.755474,1.6740762
751,1778317928.4252157,0.09829842,0.15933856,-0.37069237,-1.2637274,2.3167064,1.5361733
752,1778317928.4354854,0.055552024,0.093785964,-0.23842856,-1.8826867,2.3965771,1.3571899
753,1778317928.4451947,0.016769271,0.10671354,-0.19647488,-2.5153904,2.115121,1.0713049
754,1778317928.4554803,0.00048783334,0.08512692,-0.1372641,-2.5153904,2.115121,1.0713049
755,1778317928.4652867,-0.0033538544,0.0807974,-0.12653178,-2.731331,1.8003726,0.9822713
756,1778317928.475434,-0.012500729,0.06543065,-0.090249166,-2.8371637,1.5138768,0.93416566
757,1778317928.4852948,-0.0060369377,0.049027253,-0.057015523,-2.8990138,1.1542299,0.8959866
758,1778317928.4951422,0.00085370836,0.038416874,-0.036953375,-2.9043589,0.9604329,0.8761335
759,1778317928.505159,0.005854,0.024452647,-0.006097917,-2.859613,0.6386596,0.860251
760,1778317928.515441,0.009878625,0.01097625,0.028111396,-2.8209758,0.3753767,0.8588765
761,1778317928.5254242,0.005061271,0.021769563,0.033416584,-2.7736337,0.08674286,0.8772025
762,1778317928.535263,-0.025672229,0.06994311,0.0023781876,-2.7907379,-0.30634892,0.9636399
763,1778317928.5454614,0.018110814,0.0060369377,0.017379062,-3.9964333,-2.4225388,1.8132007
764,1778317928.5555387,0.018110814,0.0060369377,0.017379062,-3.8724275,-2.8567114,1.9847012
765,1778317928.5652914,0.08470006,-0.040612124,0.12927583,-3.7905715,-2.97583,2.0190623
766,1778317928.5751867,0.10896978,-0.035124,0.22824502,-3.1199942,-3.8147008,2.21851
767,1778317928.5853093,0.105615914,-0.030245667,0.23208672,-2.2844832,-4.705953,2.417194
768,1778317928.5953577,0.11775078,-0.064394,0.22940363,-1.2415836,-5.7044125,2.6322184
769,1778317928.605564,0.29959065,-0.29141945,0.24428254,0.18600847,-6.4484463,2.617405
770,1778317928.6156983,0.5187498,-0.91584617,-0.43453756,3.3800702,-2.4807239,1.6169603
771,1778317928.625597,0.22446433,-1.0904905,-0.7365064,6.4800587,7.2411966,-0.35063666
772,1778317928.63544,0.23117203,-1.1959845,-0.50454164,8.047539,11.29444,-1.1960741
773,1778317928.6452632,0.23233064,-1.3349559,-0.55186146,9.062491,12.044125,-1.4921911
774,1778317928.655579,0.21184163,-1.5840559,-1.3455664,8.916189,8.733235,-2.9642236
775,1778317928.6653066,-0.6561358,-2.0844507,-2.76632,6.730513,1.5279267,-6.7273064
776,1778317928.6754057,-0.6561358,-2.0844507,-2.76632,2.3328943,-3.9562688,-9.874789
777,1778317928.685661,-0.9427989,-2.145674,-0.79650986,-1.7356209,-8.549823,-11.609188
778,1778317928.695473,-1.4691101,-2.449533,0.086834334,-3.2696562,-10.539716,-10.42411
779,1778317928.70558,-2.30361,-2.9480379,0.9766424,-3.355941,-10.688615,-8.659626
780,1778317928.7153325,-2.9722464,-3.8175397,1.4220343,-1.8144225,-10.087371,-4.5533895
781,1778317928.725382,-2.9429154,-4.3768406,1.773823,1.9770653,-8.186664,0.5911648
782,1778317928.7352488,-2.168663,-4.3741574,1.2291571,4.048204,-5.2720723,3.53523
783,1778317928.7452326,-1.3793488,-4.1110935,0.16458277,4.0457606,-2.1904101,4.2704062
784,1778317928.7553241,-0.74205554,-3.4353225,-0.8861493,1.858252,2.9165761,3.0266845
785,1778317928.7655349,-0.54308045,-1.4627682,-0.49460202,-0.028252518,4.784144,-0.84238315
786,1778317928.7753165,-0.5429585,-1.0901856,-0.40557244,0.66248333,3.6537378,-1.1775955
787,1778317928.7850974,-0.5429585,-1.0901856,-0.40557244,0.66248333,3.6537378,-1.1775955
788,1778317928.795163,-0.44514793,-0.93072504,-0.43575716,1.1307116,2.4295638,-0.85139346
789,1778317928.8053205,-0.31038398,-0.801998,-0.45844138,1.3738359,1.1986703,-0.42241332
790,1778317928.8152208,-0.17379062,-0.64028126,-0.5125909,1.3680327,-0.123242065,0.044135015
791,1778317928.8252282,0.06774786,-0.30861557,-0.6316222,1.0389291,-1.1766791,0.3303254
792,1778317928.8354228,0.06774786,-0.30861557,-0.6316222,0.3933972,-1.6824756,0.4896085
793,1778317928.8454447,0.18165694,0.017318083,-0.436184,-0.7527387,-0.8038987,0.38591412
794,1778317928.855536,0.24775836,0.14982581,-0.24367274,-0.7527387,-0.8038987,0.38591412
795,1778317928.865449,0.25092927,0.18726702,-0.19074284,-1.2893838,-0.35842517,0.038179077
796,1778317928.875086,0.21568331,0.3342878,-0.025428312,-1.6215417,-0.101556346,-0.4981606
797,1778317928.88551,0.18153499,0.49069935,0.1539724,-1.8274034,-0.09010262,-1.1148291
798,1778317928.895602,0.16531453,0.53173834,0.2361723,-1.8632917,-0.15149458,-1.6514742
799,1778317928.9056013,0.099274084,0.59247357,0.25977126,-1.8183931,-0.27488935,-2.1675026
800,1778317928.9153397,0.03237994,0.62869525,0.19330397,-1.720502,-0.37003163,-2.626415
801,1778317928.9254851,0.0001829375,0.39563283,0.08579769,-1.7102699,-0.81397796,-3.6424367
802,1778317928.9356282,-0.094456725,0.41185328,0.25812483,-1.7102699,-0.81397796,-3.6424367
803,1778317928.945264,-0.09921311,0.3999014,0.2923341,-1.3710871,-0.98822725,-3.825849
804,1778317928.9558775,-0.24495333,0.31514034,0.4791133,-0.93019503,-0.86544335,-3.8438694
805,1778317928.9652882,-0.24495333,0.31514034,0.4791133,-0.028252518,-0.29367346,-3.683212
806,1778317928.975236,-0.418622,0.2716012,0.37300956,1.178359,1.2586879,-3.1157181
807,1778317928.985583,-0.418622,0.2716012,0.37300956,1.3052663,1.5102116,-3.0173688
808,1778317928.995463,-0.5642402,0.25800288,0.22562292,1.7004961,2.4553728,-2.58396
809,1778317929.0050855,-0.7013824,0.24495333,0.011890938,1.881465,3.2501085,-2.045635
810,1778317929.0154378,-0.9140168,0.26208845,-0.45411184,1.6016886,4.0430117,-1.2157745
811,1778317929.0252397,-1.0754896,0.28763872,-0.90078425,0.75640386,4.665178,-0.22006421
812,1778317929.0355186,-1.1009179,0.2720281,-1.2820871,-0.3501785,4.948161,0.86070913
813,1778317929.0454109,-0.81577927,0.0983594,-1.4853306,-1.2563971,4.50788,1.6001616
814,1778317929.0553334,-0.6882719,-0.02555027,-1.2247056,-1.4057536,3.4848335,1.9167424
815,1778317929.0653584,-0.5216768,-0.09012721,-0.47045428,-0.96883225,1.1007792,2.0114264
816,1778317929.0753658,-0.25891754,-0.17458336,0.2388554,-0.32620203,-1.9746219,1.8278615
817,1778317929.0853534,-0.01981823,-0.29513916,0.64211065,0.46043968,-5.085148,1.4798211
818,1778317929.0953567,0.10262794,-0.60046184,1.0084735,1.1249083,-7.2234817,1.0823005
819,1778317929.105152,0.05921077,-0.56893563,1.0585374,1.9431623,-9.16191,0.48243082
820,1778317929.115378,0.19586508,-0.90352833,0.8856005,2.2883012,-9.840581,0.04795292
821,1778317929.1255002,1.571921,-5.0387087,-0.55856913,-2.0030272,10.062172,-4.2404737
822,1778317929.135369,1.779738,-5.6194134,0.58570486,-1.6630806,15.249029,-6.712493
823,1778317929.145594,1.7528461,-5.772349,0.8054128,-1.6630806,15.249029,-6.712493
824,1778317929.1551027,1.2520242,-5.9608965,0.91907805,-0.12858713,12.732112,-8.110611
825,1778317929.1654203,1.2520242,-5.9608965,0.91907805,0.92271197,8.0049305,-8.191855
826,1778317929.1753142,0.92554176,-5.2852473,-0.11293342,1.7246253,4.184885,-7.010595
827,1778317929.1851852,0.92554176,-5.2852473,-0.11293342,2.3237314,3.7543778,-3.613268
828,1778317929.1953266,-0.1323248,-3.1451836,-1.3841661,2.1516201,3.4814737,-2.0532708
829,1778317929.2055511,-0.1323248,-3.1451836,-1.3841661,2.1516201,3.4814737,-2.0532708
830,1778317929.215478,-0.10781116,-2.0912805,-0.5714358,1.5696182,-1.3900238,1.9714148
831,1778317929.2255726,-0.13616648,-1.890903,-0.3918521,1.5625933,-2.9431489,2.4941628
832,1778317929.2353725,-0.23044027,-1.6088743,-0.18543765,1.4430164,-4.726417,3.0246992
833,1778317929.245325,-0.2654423,-1.3597134,-0.091529734,1.4442382,-5.5326066,3.3382258
834,1778317929.2552288,-0.26336902,-1.1961673,-0.08787098,1.3710871,-5.81391,3.5786014
835,1778317929.265277,-0.22885482,-0.80742514,-0.1565945,1.2481505,-5.589875,3.7508652
836,1778317929.2750783,-0.22885482,-0.80742514,-0.1565945,0.92087936,-4.789489,3.923893
837,1778317929.2852325,-0.18013246,-0.70784616,-0.15793604,0.5945246,-3.9492438,4.0552287
838,1778317929.2953072,-0.13915445,-0.58722943,-0.15061855,0.18432859,-2.8528934,4.197866
839,1778317929.3051927,-0.11573846,-0.47149092,-0.14909407,-0.1994475,-1.8701639,4.285983
840,1778317929.3155515,-0.088419795,-0.3983159,-0.15013072,-0.535118,-1.103528,4.3148465
841,1778317929.3255937,-0.08695629,-0.3231286,-0.1575092,-0.7165449,-0.73899424,4.317901
842,1778317929.335445,-0.04036821,-0.07311402,-0.22580586,-1.3165673,0.5873469,4.1657953
843,1778317929.345531,-0.04036821,-0.07311402,-0.22580586,-1.3165673,0.5873469,4.1657953
844,1778317929.3552763,-0.037746105,-0.007744354,-0.31166452,-1.6569719,1.642922,3.9962804
845,1778317929.365078,-0.049210187,0.014878917,-0.36739948,-2.1099286,3.0364585,3.9029708
846,1778317929.3751075,-0.0746385,0.11262852,-0.42362225,-2.5416577,4.578893,3.8270707
847,1778317929.3851209,-0.05469831,0.2116587,-0.4375865,-2.595872,5.643173,3.7244453
848,1778317929.3955119,0.0895784,0.49661437,-0.54143405,-2.1571178,5.3470564,3.5040758
849,1778317929.4054074,0.12750745,0.46234405,-0.55350786,-1.5005904,3.9438987,3.2157474
850,1778317929.415596,0.1575092,0.43392777,-0.5684478,-1.1021537,2.7716484,2.9889636
851,1778317929.4253917,0.16007032,0.34819105,-0.53173834,-1.052368,1.8799378,2.8058567
852,1778317929.4353359,0.115006715,0.2180615,-0.35020337,-1.2631166,0.84436846,2.579684
853,1778317929.4456275,0.07311402,0.11506769,-0.11128698,-1.5503759,-0.013133603,2.365423
854,1778317929.4555202,0.031770147,0.04439283,0.134642,-1.9964603,-1.7403551,1.9788979
855,1778317929.4655583,0.031770147,0.04439283,0.134642,-1.9964603,-1.7403551,1.9788979
856,1778317929.4751987,0.05390558,0.03884373,0.18684018,-2.1096232,-2.4901922,1.8510745
857,1778317929.485314,0.10299382,0.017379062,0.18934031,-2.1481075,-3.211013,1.7348573
858,1778317929.4955142,0.17318083,0.0071955416,0.21117085,-2.133447,-3.6439638,1.6562084
859,1778317929.5055902,0.27995536,0.0009146876,0.37636343,-1.9543107,-4.4396157,1.4265231
860,1778317929.515483,0.3128841,0.007073583,0.576741,-1.4622587,-4.8201847,1.1696543
861,1778317929.525294,0.34008083,0.009634708,0.6805885,-1.0241156,-4.893183,0.98868537
862,1778317929.535212,0.3855713,-0.01103723,0.7322988,-0.20631973,-4.7606254,0.58291817
863,1778317929.5450873,0.3447762,-0.13153206,0.66449,-0.20631973,-4.7606254,0.58291817
864,1778317929.555132,0.25605154,-0.2520269,0.5260673,0.9584476,-3.4316883,-0.53801954
865,1778317929.5656233,-0.0062808543,-0.6291221,0.33526346,1.102001,-2.1421516,-0.8743009
866,1778317929.5755439,-0.0062808543,-0.6291221,0.33526346,1.2690725,-1.2249376,-0.91645056
867,1778317929.5853875,-0.088114895,-0.9226148,0.24196534,1.2690725,-1.2249376,-0.91645056
868,1778317929.595919,-0.32471406,-1.5586885,-0.2836141,1.865277,6.0133576,-2.2939517
869,1778317929.6055357,-0.3731925,-2.1517718,-0.9592023,1.9289597,11.936612,-3.7841575
870,1778317929.6155849,-1.4536824,-3.7230222,-1.0204864,6.0877304,11.572842,-5.5939984
871,1778317929.6255565,-1.4349009,-3.8533955,-1.4000818,7.4728675,8.503244,-5.7624445
872,1778317929.635207,-1.9968238,-4.244089,-2.373553,7.3232055,2.173764,-5.9498277
873,1778317929.6454964,-2.6124086,-4.6025248,-2.0998178,4.166101,-1.515404,-5.295896
874,1778317929.6562934,-2.9462085,-4.802719,-0.1015913,-1.9207131,-6.77083,-1.361924
875,1778317929.6655707,-2.7713811,-4.2517724,0.3193479,-2.8021915,-6.2633543,1.3976597
876,1778317929.675253,-2.6742415,-4.0557246,0.36361876,-2.8021915,-6.2633543,1.3976597
877,1778317929.6853948,-1.5315528,-2.0950613,0.23757485,-1.6357445,-2.441323,3.520569
878,1778317929.6956115,-1.5315528,-2.0950613,0.23757485,-1.4375186,-1.9201022,3.4837644
879,1778317929.705423,-1.1024424,-1.4170339,-0.0019513334,-0.91232723,-0.52183163,3.218038
880,1778317929.7155368,-0.74955595,-0.83815867,-0.15866779,-0.2405282,1.258077,2.5555549
881,1778317929.7252247,-0.5292992,-0.5133226,-0.1381178,0.2060143,2.212554,1.9926424
882,1778317929.735122,-0.3842907,-0.257515,-0.060308397,0.7903069,2.8183796,1.4379768
883,1778317929.7450929,-0.21818347,-0.064089105,-0.04402696,1.8110627,3.0473013,1.05023
884,1778317929.755534,-0.14122775,-0.015183813,-0.02792846,1.8110627,3.0473013,1.05023
885,1778317929.765455,-0.10378654,-0.013842272,-0.042197585,1.1788172,2.2368357,1.4967725
886,1778317929.775657,0.2775162,0.21263437,0.11823861,-1.3939945,1.7206547,1.6953038
887,1778317929.7857566,0.2775162,0.21263437,0.11823861,-1.2562444,1.7119498,1.6772833
888,1778317929.7952547,0.23928225,0.6334516,-0.1247024,-0.82863873,1.5195273,1.744173
889,1778317929.8051827,0.36550912,0.56686234,-0.07329696,-1.3069462,0.66813385,1.9640845
890,1778317929.8155932,0.3773391,0.44856274,-0.015854584,-1.2296717,0.28848112,2.067168
891,1778317929.8252444,0.39477912,0.3360562,0.10293283,-1.1652255,0.12767084,2.0735822
892,1778317929.8353083,0.48216227,0.29306588,0.17866896,-0.99112886,0.31215215,1.9529362
893,1778317929.84536,0.64528155,0.33800754,0.4224027,-0.23319781,1.2180653,0.5636759
894,1778317929.8553915,0.65808713,0.35874045,0.45978296,-0.23319781,1.2180653,0.5636759
895,1778317929.8654184,0.66918534,0.34203213,0.6793689,0.23365596,1.509448,-0.28603765
896,1778317929.875497,0.6510136,0.32075045,0.632232,1.3390167,1.7168368,-1.9529362
897,1778317929.8854837,0.62710977,0.31385976,0.61674327,1.4488196,1.7024814,-2.1284072
898,1778317929.8951492,0.5945469,0.23659918,0.5222866,1.4488196,1.7024814,-2.1284072
899,1778317929.9053047,0.43959883,0.18366925,0.48204032,2.247526,1.0691669,-3.823711
900,1778317929.915481,0.29776126,0.12183637,0.42715907,2.247526,1.0691669,-3.823711
901,1778317929.9256394,0.13421515,0.029635875,0.43404973,2.3141103,0.75869465,-4.0146065
902,1778317929.935211,0.029513916,-0.06610142,0.42667124,2.3134995,0.48441613,-4.0329323
903,1778317929.945555,-0.00804925,-0.17104656,0.42215878,2.300213,0.0852157,-3.9354994
904,1778317929.9555752,0.07043094,-0.50161463,-0.19366984,2.1983514,0.54275376,-3.6054795
905,1778317929.9653022,0.16098501,-0.7232129,-0.7190664,2.1983514,0.54275376,-3.6054795
906,1778317929.975366,0.095615335,-0.8727339,-1.2051313,1.7832683,3.1140382,-3.5848627
907,1778317929.985078,0.12128756,-0.983411,-1.334651,-0.46196684,10.169379,-3.4306192
908,1778317929.9951153,0.17202222,-1.009998,-1.291112,-0.94714653,11.527027,-3.408628
909,1778317930.0051246,0.44484302,-1.1318344,-1.0879294,-1.5560265,13.214237,-3.5243871
910,1778317930.015299,0.6346102,-1.42551,-1.0345116,-1.534799,13.239588,-3.7975965
911,1778317930.0255973,0.73546976,-2.0143247,-1.2606833,-0.27840182,10.906693,-3.8440223
912,1778317930.0350862,0.81559634,-2.8018098,-1.6365589,1.3735305,6.743036,-3.7420077
913,1778317930.045531,0.45466065,-3.2557387,-1.5475904,2.1432207,-0.98654735,-4.337907
914,1778317930.0555499,0.45466065,-3.2557387,-1.5475904,2.1432207,-0.98654735,-4.337907
915,1778317930.0655491,-0.4726495,-2.4961212,-0.6047914,-2.1539109,-5.7839775,-3.215442
916,1778317930.075089,-0.4696006,-2.553259,-0.68193007,-1.9691241,-6.031378,-3.4550538
917,1778317930.0853367,-0.5815583,-2.3579423,-0.14019111,-2.731484,-3.7562103,-0.9483683
918,1778317930.0953085,-0.60540116,-2.4877062,0.110067405,-2.731484,-3.7562103,-0.9483683
919,1778317930.105345,-0.3506912,-2.7685761,0.3310559,-2.0086777,-2.5181394,0.9622655
920,1778317930.115758,-0.42862257,-2.719976,0.29623678,-1.1499538,-1.6985108,1.6688838
921,1778317930.1254332,-0.18885247,-2.8789485,0.41545108,0.57436603,-0.71578133,2.1772764
922,1778317930.1355612,-0.19220634,-2.8700454,0.4290494,2.0102048,-0.852157,2.3380868
923,1778317930.1452713,-0.27391842,-2.7551608,0.29568797,2.7977629,-1.3843733,2.4349089
924,1778317930.1552744,-0.38746163,-2.6624725,0.12110463,3.3522758,-2.0734293,2.5964828
925,1778317930.1653621,-0.68272275,-2.4612412,-0.34508112,3.6050212,-1.7676913,2.8492281
926,1778317930.1754189,-0.7052241,-2.4312394,-0.38471758,3.387095,-0.4558582,3.1818442
927,1778317930.1852083,-0.77217925,-2.2843406,-0.4749058,2.9113839,0.46517387,3.5851681
928,1778317930.1951203,-0.7315061,-1.8338875,-0.5846073,2.1456642,0.8304713,4.161978
929,1778317930.2052188,-0.7315061,-1.8338875,-0.5846073,1.5569428,0.4783075,4.5465174
930,1778317930.2152858,-0.5465563,-1.5899708,-0.6072915,1.2125676,-0.7144069,4.778341
931,1778317930.225341,-0.33501956,-1.3928862,-0.5496662,1.0044152,-2.1700988,4.828279
932,1778317930.2353694,-0.22964753,-1.2832457,-0.5028952,0.8417723,-3.0181324,4.784449
933,1778317930.2451832,-0.116836086,-1.0860391,-0.43386677,0.6702719,-3.4903314,4.6459355
934,1778317930.255567,-0.033843435,-0.8896251,-0.40520656,0.39843684,-3.7157407,4.417472
935,1778317930.2655814,0.09488358,-0.6877841,-0.36697263,0.069485925,-3.5111008,4.1393757
936,1778317930.2756286,0.2613567,-0.38160762,-0.28178474,-0.7677049,-2.659402,3.38175
937,1778317930.2851593,0.34355664,-0.21361004,-0.18903543,-1.0558805,-2.440712,2.9982793
938,1778317930.29527,0.35313037,-0.125861,-0.13750802,-1.3168727,-2.2409592,2.5143213
939,1778317930.3052683,0.35313037,-0.125861,-0.13750802,-1.3168727,-2.2409592,2.5143213
940,1778317930.3154418,0.33733675,-0.07665081,-0.07341892,-1.46852,-2.059074,2.0995438
941,1778317930.3254435,0.31367683,-0.07494339,-0.03823394,-1.5192219,-1.866957,1.8052595
942,1778317930.3355758,0.27818695,-0.06896744,-0.022135438,-1.5325081,-1.672549,1.4654657
943,1778317930.345205,0.23440392,-0.050002918,-0.030977417,-1.5192219,-1.4654657,1.2417363
944,1778317930.3553963,0.23440392,-0.050002918,-0.030977417,-1.5192219,-1.4654657,1.2417363
945,1778317930.3655336,-0.11098208,0.18799877,-0.40069413,-1.4876096,1.1128438,1.0404562
946,1778317930.3753798,-0.12756842,0.19281614,-0.41142645,-1.4886786,4.5668287,1.2096659
947,1778317930.3855028,-0.07329696,0.14683785,-0.3405077,-1.9538525,9.233686,1.4700472
948,1778317930.395415,-0.058174126,0.1367153,-0.3204455,-2.3649647,9.878149,1.4094188
949,1778317930.4053442,-0.00048783334,0.08274873,-0.13043444,-2.44453,9.858602,1.3805555
950,1778317930.4154787,0.0029879792,0.07744354,-0.11671413,-2.7233899,9.543395,1.2174544
951,1778317930.4254713,0.023903834,0.06158896,-0.0034758127,-2.9950724,8.783174,0.95478237
952,1778317930.4355578,0.014391083,0.059942525,0.044331856,-3.1309898,7.988743,0.7160868
953,1778317930.4451776,-0.0023172083,0.08140719,0.12226323,-3.2099442,7.0249505,0.47158796
954,1778317930.4552202,-0.010427438,0.0918956,0.16220458,-3.2099442,7.0249505,0.47158796
955,1778317930.465334,-0.014086187,0.08695629,0.2242204,-3.4709363,3.711159,-0.17516561
956,1778317930.4751554,-0.022501312,0.054759294,0.3059325,-3.5611916,1.6727017,-0.41783184
957,1778317930.485238,0.03390442,-0.080919355,0.7848019,-3.0216448,-2.1988094,-0.68737614
958,1778317930.4955564,0.024452647,-0.098603316,0.8474275,-2.8440359,-2.63512,-0.6986771
959,1778317930.505073,0.030672522,-0.12183637,0.9509702,-1.9614882,-4.5448375,-0.70570207
960,1778317930.5151405,0.14104481,-0.1232389,0.80876666,-0.82940227,-6.814202,-0.7272351
961,1778317930.5259893,0.12945877,-0.12677568,0.48106465,0.3483459,-8.743467,-0.9414961
962,1778317930.5354676,0.12171442,-0.1203119,0.26586917,0.39690968,-8.803331,-0.96974856
963,1778317930.545492,0.12012896,-0.122751065,0.11421398,0.49938235,-8.979567,-1.1088731
964,1778317930.5550811,0.090737,-0.1469598,0.07152857,0.49739704,-9.036224,-1.2102767
965,1778317930.5653307,0.12756842,-0.2944684,0.0646989,0.4990769,-9.026755,-1.4782939
966,1778317930.575425,0.19446257,-1.7460774,-1.1760442,1.0867293,-7.3650494,-1.9376645
967,1778317930.5854895,-0.4159389,-2.9698684,-2.0882318,6.5005226,7.8957386,-4.8505754
968,1778317930.595499,-1.2161685,-3.7608294,-3.441664,9.465052,7.257385,-7.2821245
969,1778317930.6053386,-2.1357954,-3.360623,-3.7318642,8.975443,2.7010934,-9.037293
970,1778317930.6154916,-2.4191046,-3.7341814,-1.361177,5.210833,0.84894997,-8.5024805
971,1778317930.6253674,-2.3450758,-3.740645,-0.44819686,-0.95417154,-3.6618316,-5.2274795
972,1778317930.6354623,-2.3450758,-3.740645,-0.44819686,-0.95417154,-3.6618316,-5.2274795
973,1778317930.6455932,-2.1537843,-3.8318088,0.28178474,-1.9405662,-5.869957,-3.0951016
974,1778317930.655512,-2.5016093,-4.147925,0.69510156,-1.9900463,-6.5472536,-1.0407617
975,1778317930.665433,-2.488072,-3.9885256,0.8875518,-0.79412484,-6.446003,1.8463402
976,1778317930.675615,-1.8783413,-3.2303715,0.43679374,1.1252137,-5.760154,3.3473887
977,1778317930.6855524,-1.3920325,-2.4974627,-0.31544524,2.0355556,-2.9958358,3.3846517
978,1778317930.695292,-0.8274264,-1.6805859,-0.512347,1.5375478,2.006845,1.9404135
979,1778317930.7054665,-0.5578984,-0.8075471,-0.19104773,1.2924381,3.160464,1.4161384
980,1778317930.7154262,-0.5578984,-0.8075471,-0.19104773,1.2924381,3.160464,1.4161384
981,1778317930.725648,-0.52990896,-0.5582033,-0.052381106,1.1756102,3.4191656,1.255328
982,1778317930.735227,-0.40648714,-0.4103898,0.0023172083,1.0659598,3.33059,1.3017539
983,1778317930.7452438,-0.23263553,-0.245868,0.010488417,0.9315695,3.0908253,1.3379476
984,1778317930.7552416,-0.11775078,-0.15458219,0.01689123,0.84314674,2.866485,1.310306
985,1778317930.765148,0.102445,-0.037136313,0.06238169,0.68829244,2.4474316,1.0929906
986,1778317930.7754524,0.18915738,0.15714332,0.06079623,0.5083926,1.7386752,0.6815729
987,1778317930.7853477,0.18397415,0.12903193,0.09616415,0.31322116,0.94134337,0.3575089
988,1778317930.7952425,0.14452063,0.16269243,0.08427321,0.19807306,0.25167647,0.11438452
989,1778317930.8054545,0.14452063,0.16269243,0.08427321,0.0143553335,-0.5694791,-0.13255776
990,1778317930.8154776,0.11872645,0.16994894,0.07988271,-0.18478674,-1.3599387,-0.32330042
991,1778317930.8250847,0.11720196,0.16842447,0.06475988,-0.31444287,-1.9355265,-0.41401392
992,1778317930.835261,0.24714857,0.10409144,0.08738314,-0.5726862,-2.948952,-0.6227771
993,1778317930.84521,0.23964813,0.12573905,0.03457519,-0.69714993,-3.348916,-0.6910413
994,1778317930.8555064,0.46490517,0.155131,0.13775194,-0.9808969,-4.572937,-0.8570439
995,1778317930.8652565,0.6629045,0.19793838,0.12628786,-0.9315695,-5.2042665,-1.3278683
996,1778317930.875392,0.78785086,0.27879676,-0.36916786,-1.1004738,-4.1399865,-1.9388863
997,1778317930.885383,0.84059787,0.33562934,-0.32825086,-1.5816828,-1.5920676,-2.6128235
998,1778317930.895189,0.44155017,0.5549104,-0.03091644,-1.9120082,1.5202909,-3.477503
999,1778317930.9051623,0.4911262,0.53667766,-0.05286894,-1.869095,1.6432275,-3.484528
1000,1778317930.9152832,0.2912365,0.7824847,0.052625023,-0.66507953,1.3880385,-3.2569807
1001,1778317930.9250736,0.17208321,0.81675494,0.05847902,-0.66507953,1.3880385,-3.2569807
