id,timestamp,acc_x,acc_y,acc_z,gyro_x,gyro_y,gyro_z
1,1778316055.7691793,-0.026403978,-0.31812832,0.15281379,0.54809886,-0.3381139,0.8266534
2,1778316055.8094723,0.12647079,-0.43484247,0.07134563,0.5746715,0.08353582,-0.28893927
3,1778316055.85971,0.030977417,-0.5096029,-0.17421748,0.4213443,1.0520626,-1.2435689
4,1778316055.9092312,-0.08140719,-0.49033347,-0.29019985,-0.35934147,0.9967794,-1.6288722
5,1778316055.959319,-0.37557068,-0.2706865,-0.62192655,-2.2308798,0.58016926,-1.9947804
6,1778316056.0093062,-2.7349765,0.71223664,0.83169484,-4.0176606,1.7182112,-3.74888
7,1778316056.058988,-2.8530324,1.4189242,1.2385479,-1.8623754,0.11530081,-0.26450464
8,1778316056.109024,-1.0888441,0.94322574,0.59472984,-0.70631295,-0.24678956,0.26618454
9,1778316056.1592376,-0.32581168,0.68046653,0.3061764,-0.2947425,0.18891008,-0.4885395
10,1778316056.209385,-0.14122775,0.6091209,0.23263553,-0.043066,-0.07925977,-0.24648413
11,1778316056.2590723,-0.010305479,0.49630946,0.15171617,0.5887214,-0.2078469,0.38515055
12,1778316056.309483,-0.030977417,0.3872177,0.1164702,0.8904888,-0.4775439,0.75670934
13,1778316056.359229,-0.37215585,0.9707883,0.35197178,0.42119157,-1.0526736,0.49327368
14,1778316056.4092104,-3.1241457,1.2986124,1.8131545,1.3150401,0.15653422,-0.92271197
15,1778316056.4593396,-2.6827786,0.7080291,0.6282074,2.6584857,-0.30558532,2.5450172
16,1778316056.5092754,-1.2955633,0.030367626,0.15696037,0.60246587,-1.1531608,2.9115365
17,1778316056.5593965,-1.0368288,-0.088419795,0.14653294,0.29458976,-1.1093313,2.8851166
18,1778316056.6094062,0.10482319,-0.50978583,0.2646496,0.2406809,0.3735441,1.0685561
19,1778316056.659241,0.33764166,-0.5902783,-0.2558076,1.2455542,1.521818,-0.34895676
20,1778316056.7090936,0.0892735,-0.55960584,-0.43008605,-0.13362677,1.7295122,-1.9567541
21,1778316056.759316,-0.7299816,-0.23916028,-0.44283074,-2.553264,0.99097615,-2.2308798
22,1778316056.809344,-2.5255132,0.81083995,0.7578491,-5.3916492,0.7107417,-2.9206994
23,1778316056.8590894,-2.7314398,1.2843432,1.3567865,-1.8225164,0.18341228,0.1740966
24,1778316056.9092991,-1.0665256,0.91627294,0.58119243,-0.5694791,0.27290404,0.8402451
25,1778316056.9594176,-0.2833702,0.5630816,0.12256813,-0.2744312,1.0864239,0.123547494
26,1778316057.0092463,0.07329696,0.4932605,0.13592257,-0.7286095,0.0032070426,-0.15470162
27,1778316057.0591266,-0.05512517,0.4864308,0.13677627,-0.051159963,0.07162395,0.6215554
28,1778316057.109399,-0.45283127,0.68308866,0.18104716,0.017715093,-0.29932398,0.75747293
29,1778316057.159204,-1.2119,1.1403105,0.8003516,0.14462234,-0.3222314,1.2573134
30,1778316057.209153,-2.4071527,0.95755583,0.88139284,1.8904753,0.84803367,1.3083206
31,1778316057.259259,-1.6242411,0.39666948,0.16232654,1.0326678,0.37125334,2.5100453
32,1778316057.309099,-0.6385738,-0.04494165,0.08921252,-0.2959642,-0.04596761,2.0772474
33,1778316057.3589668,0.04756375,-0.09274931,-0.11488476,-0.48533243,0.8393288,1.0535898
34,1778316057.409075,0.19574313,-0.17244908,-0.043417167,-0.75884736,1.3590225,-0.21731532
35,1778316057.4589891,-0.04884431,-0.29580995,-0.102445,-0.9957104,1.5442673,-0.9204212
36,1778316057.5090299,-0.403987,-0.3146525,-0.08738314,-1.704314,2.3306036,-1.1218541
37,1778316057.5594099,-1.0892099,-0.16976601,0.08963938,-3.4066427,1.9370537,-1.7298176
38,1778316057.6094463,-2.2351303,0.33770263,0.6923575,-4.2325325,2.3445008,-1.7047722
39,1778316057.6592028,-2.532343,0.73571366,1.0032902,-4.2794166,0.6910413,-0.6026186
40,1778316057.7090154,-1.5386873,0.7224202,0.7899851,-3.271947,0.54825157,0.6032294
41,1778316057.7593253,-0.51356655,0.5183839,0.45655105,-2.5722008,0.33826664,0.80557853
42,1778316057.8094404,-0.14580119,0.49008957,0.31983575,-1.9262109,0.12858713,0.8516989
43,1778316057.8590033,-0.077077664,0.5017366,0.23861149,-1.1879802,0.56581396,0.8732319
44,1778316057.9091876,-0.447892,0.649855,0.091529734,-0.9763154,0.5671884,0.926988
45,1778316057.9594173,-1.5890561,1.001034,0.45539245,-1.3816245,0.36774087,1.6436857
46,1778316058.009173,-2.0338383,0.9481041,0.7938268,-1.4753923,0.33185256,2.6832256
47,1778316058.0590212,-1.718332,0.48301598,0.91895604,-0.52183163,1.0042624,3.1991012
48,1778316058.1091676,-1.5586275,0.24800226,0.74370193,-0.0018325958,1.4579827,3.082426
49,1778316058.1592083,-0.44655046,-0.110311314,0.17610784,-0.16646078,2.3060162,1.9437732
50,1778316058.2092834,-0.03469715,-0.20702426,0.1188484,-0.9952522,1.8017471,0.7583892
51,1778316058.2590656,0.2014142,-0.32654345,0.06305246,-1.4772248,2.068695,-0.40118575
52,1778316058.3089957,0.15061855,-0.32764107,0.12415359,-1.8881844,2.0221167,-1.1656836
53,1778316058.3593428,-0.7596175,-0.08427321,0.11756783,-2.232865,2.136043,-2.2212586
54,1778316058.4092195,-1.8083371,0.41118255,0.35721594,-3.8287506,1.3171781,-2.387414
55,1778316058.4589398,-2.6325316,0.8043152,0.87767315,-4.2708645,0.8959866,-2.1453588
56,1778316058.5093915,-1.4357545,0.9654831,0.936762,-3.712228,-0.117744274,-0.03191771
57,1778316058.5591488,-0.6066208,0.7857775,0.73870164,-1.5198327,1.0016663,-0.34437528
58,1778316058.6091938,-0.34544697,0.7304085,0.48728454,-0.364992,0.34345898,-0.75808376
59,1778316058.6592565,-0.30184686,0.66839266,0.3325194,0.34972036,0.12568553,-0.18142697
60,1778316058.7092428,-0.17702252,0.591193,0.17574196,0.21212296,-1.0071641,0.11255192
61,1778316058.7592142,-0.6619289,0.67381984,0.5611303,0.52870387,-0.93645644,0.13836098
62,1778316058.8093488,-1.255683,0.90352833,0.72656673,1.875509,-0.871552,0.7771733
63,1778316058.8592234,-2.2502532,0.8003516,1.1939112,2.4048238,-0.0143553335,1.1846204
64,1778316058.909341,-2.2575707,0.42032942,0.7864483,2.3437371,0.1591304,2.1555908
65,1778316058.9594982,-0.47008842,-0.24355079,0.2619665,0.8187121,-1.7962493,2.7311785
66,1778316059.0095084,0.22043969,-0.26403978,0.06158896,0.95905846,-0.12003502,0.8793405
67,1778316059.0591109,0.17421748,-0.3333731,0.06415008,1.0769554,0.6771441,-0.18478674
68,1778316059.10896,-0.0131715005,-0.7277254,-0.22867186,0.5534439,1.186453,-2.0744984
69,1778316059.1589983,-0.37258273,-0.6734539,-0.08140719,-0.86651236,0.754724,-2.9631546
70,1778316059.2090154,-1.3398952,-0.04085604,-0.30196884,-2.5547912,0.3764457,-2.987742
71,1778316059.2592216,-3.4883134,0.94054264,0.9956069,-4.3272166,1.2095132,-3.8986948
72,1778316059.309511,-2.2459848,1.0428658,0.78772885,-0.81138176,-0.5702427,0.82253003
73,1778316059.3593655,-0.7618737,0.8596843,0.13897152,-0.49968776,0.1253801,1.0668762
74,1778316059.4092402,-0.4388061,0.6641851,0.04994194,-1.0366384,0.49281552,0.6988298
75,1778316059.4593978,0.030489584,0.51222503,0.35928926,-0.9195049,-0.3324634,0.86376345
76,1778316059.5095084,0.0006707709,0.3916082,0.58168024,0.3052799,-0.7861836,1.1093313
77,1778316059.5591004,-0.28550446,0.37685126,0.56045955,1.8234328,-1.1931726,1.2305881
78,1778316059.6089554,-0.521189,0.5683868,0.4922848,1.9813415,-1.9010127,1.2696834
79,1778316059.65914,-2.3959935,1.1072598,2.0143857,3.085175,-0.7677049,-0.6440047
80,1778316059.7090025,-2.6365564,0.6909549,0.8706606,4.0491204,-0.18967366,1.8116736
81,1778316059.7594116,-0.90480894,-0.13299556,0.20604862,1.9138408,-1.6948457,2.674979
82,1778316059.809348,-0.031343292,-0.50704175,-0.078480184,0.9848675,-0.43279803,1.6296358
83,1778316059.859471,0.13073933,-0.59351027,-0.15872878,0.16737708,0.5484043,0.034208454
84,1778316059.909304,-0.05116152,-0.44703826,-0.16037522,-0.7667886,0.75762564,-1.024421
85,1778316059.9594603,-0.21110988,-0.3466056,-0.26562527,-1.3240504,0.1910481,-0.63407815
86,1778316060.0091767,-0.717054,0.13830076,-0.43728164,-3.911981,1.4801265,-1.7796031
87,1778316060.058937,-3.6171622,1.0078027,2.2904994,-5.860336,2.435978,-2.0673208
88,1778316060.109194,-1.6285706,0.9577388,1.7143074,-1.3504703,0.66889745,0.32559118
89,1778316060.1595216,-0.18665724,0.91255325,0.2651374,0.9285152,0.5401576,-0.08536842
90,1778316060.209353,-0.052442085,0.77382565,0.26391783,-0.1151481,1.097114,-0.15149458
91,1778316060.2589297,0.109335646,0.53131145,0.3682532,0.051618114,-0.782213,-0.012370021
92,1778316060.3089821,-0.02207446,0.400999,0.3743511,0.71685034,-1.534188,0.9294315
93,1778316060.3591397,-0.07988271,0.7192493,0.58680254,1.7383698,-1.8907807,1.103528
94,1778316060.4093108,-1.2169002,1.6283877,1.3900201,1.8466456,0.00015271631,-1.1699597
95,1778316060.459121,-3.1602454,1.0689648,1.0173764,4.0361395,1.3443617,1.5754215
96,1778316060.509035,-1.2489144,-0.03719729,0.28026026,1.6688838,-2.9297097,2.9798007
97,1778316060.558962,-0.019635292,-0.4871626,0.05353971,1.8718438,-0.8049677,1.6064229
98,1778316060.6089787,0.17921777,-0.62875617,-0.32001868,1.5939001,0.31627548,0.279929
99,1778316060.6594381,0.21989086,-0.5905222,-0.36819223,-0.82604253,0.18860464,-0.82543164
100,1778316060.709369,-0.10598179,-0.47582048,-0.23903833,-1.4031575,1.1485794,-1.110553
101,1778316060.7594492,-0.80535185,0.006829667,-0.3120304,-3.696651,1.5221235,-2.5630379
102,1778316060.8094275,-3.7946725,1.1228703,1.7149171,-4.0758457,1.9624046,-2.7476718
103,1778316060.8589528,-2.194823,1.3680676,1.1003691,-1.9501873,-0.30665436,0.32910365
104,1778316060.908946,-0.6033889,0.91255325,0.5568008,-0.9575313,0.18616119,0.54550266
105,1778316060.9593232,0.12226323,0.66168493,0.28971204,-0.7031059,0.39920044,0.07941248
106,1778316061.0090358,0.33459267,0.5404583,0.35697204,-0.31047225,-0.36346483,-0.34391713
107,1778316061.0593157,0.1273245,0.41782925,0.49197996,0.8196284,-0.4454735,-0.08109236
108,1778316061.1091454,-0.22007383,0.5316164,0.4763083,2.4164302,-0.5647449,0.55573463
109,1778316061.1589806,-1.3300166,1.6354003,1.3341023,2.6868908,-0.48915035,-0.5535966
110,1778316061.2093499,-3.0726182,1.2670251,1.2274497,4.4005203,0.7849618,0.91522884
111,1778316061.2590342,-1.4880137,0.17427845,0.20263378,1.892766,-1.2353222,2.7084239
112,1778316061.3091328,-0.18921836,-0.30538365,0.077931374,0.7481572,-0.43279803,1.8255708
113,1778316061.3590326,0.1393374,-0.38044903,-0.121775396,0.036957346,-0.50610185,0.6042985
114,1778316061.40945,0.27763817,-0.46832004,-0.19507235,-0.91522884,-0.54901516,-0.69043046
115,1778316061.4595144,0.025489293,-0.45691693,-0.095615335,-0.44150287,0.93538743,-1.4946345
116,1778316061.5094512,-0.2008044,-0.23867247,-0.4952118,-1.3028228,1.4223998,-2.316401
117,1778316061.5591168,-3.5046556,1.1425667,1.3668481,-1.9402608,3.1905491,-4.846605
118,1778316061.6089487,-3.3437316,1.6083865,0.21824445,-0.19547687,1.2718215,-0.9850202
119,1778316061.6591382,-0.8267556,0.8365122,0.3353854,-2.2753203,-1.0345002,0.44837508
120,1778316061.7092252,-0.23409903,0.66198987,0.4846624,-0.9949468,-0.11988231,-0.6516405
121,1778316061.7589974,-0.27849188,0.61674327,0.5787533,0.4016439,-0.3016147,-0.9932669
122,1778316061.8093762,-0.19159654,0.5119811,0.3148964,1.408808,-1.3677273,0.0067195175
123,1778316061.8594282,-0.2862972,0.45228252,0.36288702,1.5763378,-2.030058,0.3465133
124,1778316061.9091227,-1.1191506,1.1322002,0.7577881,1.9749273,-2.185523,0.44776422
125,1778316061.9590049,-2.0033486,1.2086681,1.7674202,4.254371,-0.7669413,0.27275133
126,1778316062.009142,-1.9627365,0.5831438,0.29044378,3.763999,0.81596327,1.8697058
127,1778316062.0592873,-0.9412134,0.018598646,0.088419795,0.9265299,-1.0461067,2.4588854
128,1778316062.1092832,0.03390442,-0.25721014,0.1390325,-0.15836681,-0.67073005,1.466382
129,1778316062.1592107,0.336666,-0.43203738,0.06646729,-0.005497787,0.11499538,-0.15225816
130,1778316062.2090895,0.34861788,-0.5732652,0.04988096,0.09285152,0.1067487,-1.8988746
131,1778316062.2592216,-0.32447016,-0.49923643,-0.008171208,0.9671524,0.65240407,-2.999501
132,1778316062.309082,-0.3473983,-0.12494631,-0.43276918,0.15012014,0.63361996,-3.189022
133,1778316062.3592477,-2.988467,0.714066,1.1849471,-2.163532,-0.45845437,-4.5889726
134,1778316062.4091518,-3.4752026,1.0488417,0.75040966,2.0024164,1.0450377,-1.9517145
135,1778316062.4592192,-1.7508948,0.8044982,-0.05353971,1.0114402,-0.7002043,-0.517861
136,1778316062.5093706,-0.7102853,0.5584472,0.0693943,0.4886922,-1.4132367,-0.39370266
137,1778316062.5591137,-0.57155776,0.5155179,0.31666481,1.4381295,-0.9282097,-0.070249505
138,1778316062.6094315,-0.2684303,0.3164819,0.35160586,2.0195205,-0.753655,0.73655075
139,1778316062.659313,-0.46649066,0.34142238,0.58064365,2.0648773,-2.1126773,0.87017757
140,1778316062.70943,-1.542407,0.8199868,0.94048166,2.3829854,-1.8104519,0.22067507
141,1778316062.7589598,-2.139332,0.90169895,0.94170123,2.2305744,-1.1893547,1.3002267
142,1778316062.8091369,-1.3183696,0.21050009,0.84883,0.84039783,-1.6485726,2.3289237
143,1778316062.8593495,-0.44728217,-0.29190728,0.5003341,-1.1418599,-1.2988522,1.0361801
144,1778316062.9093823,-0.5903393,-0.2598932,0.3769732,2.1719313,-0.75396043,-0.45616361
145,1778316062.95945,-0.14299615,-0.15732625,-0.52033526,2.4066563,-0.8324566,-0.063224554
146,1778316063.009077,0.19123067,-0.032623854,-0.5566178,-0.7351763,0.9726502,-0.9082039
147,1778316063.0590892,-0.2637349,-0.097444706,0.37118018,-0.6055202,1.3596333,-1.45783
148,1778316063.109073,-1.0994544,0.24867305,0.25001457,1.1212431,2.4801128,-3.6688566
149,1778316063.1593282,-2.0482292,0.6024132,0.32562876,1.3341297,2.4086416,-3.1068606
150,1778316063.2093616,-2.3851392,0.7833994,-0.10372557,1.3183999,-0.017104227,-1.9399554
151,1778316063.258959,-1.3867272,0.8948083,0.802059,-0.40546182,-2.1930063,-0.46288314
152,1778316063.3091433,-0.872124,0.53222615,0.2420873,0.5563455,-0.79534656,-0.12064589
153,1778316063.3591301,-0.50807846,0.47252756,0.15976542,0.57818395,-1.4784466,0.16646078
154,1778316063.4090788,-0.5318603,0.46575886,0.16281438,0.97310835,-1.5482379,1.0746647
155,1778316063.4591713,-0.7774844,0.6318052,0.15872878,0.85811293,-1.7295122,1.0910053
156,1778316063.5094335,-1.498624,0.69973594,0.60515726,1.6226108,0.24587326,1.2186762
157,1778316063.5589783,-1.9085871,0.6301587,0.5465563,1.5554156,1.0091494,1.549307
158,1778316063.609243,-1.0929296,0.1709246,0.5427756,-1.1421653,-0.69913524,2.198046
159,1778316063.659033,-0.447892,0.03298973,0.5306407,-0.75670934,-0.84803367,1.5039502
160,1778316063.7094262,0.021769563,-0.04988096,0.10634767,0.6403395,-0.36147952,0.5839872
161,1778316063.759087,0.20653644,-0.12299499,-0.2550149,0.6078109,1.0873401,-0.30390546
162,1778316063.8089876,0.026160065,-0.20928052,-0.088114895,-0.57696223,1.1772901,-1.3665055
163,1778316063.8591022,-0.5662525,-0.0734799,0.058052167,-1.0516045,1.4089607,-2.5320365
164,1778316063.909103,-2.002678,0.5643012,0.6297319,-0.4213443,1.5161675,-2.6991081
165,1778316063.959134,-2.1999454,0.8240725,0.31605503,-0.25870144,0.88208944,-1.1945469
166,1778316064.0092897,-1.5642376,0.71595645,0.38910806,-0.7350236,-0.23396139,-0.31245756
167,1778316064.0591285,-1.1168944,0.6324759,0.33215353,-0.39354995,0.30925053,-0.3220787
168,1778316064.10947,-0.9476772,0.61125517,0.30507877,-0.4335616,-0.087659165,-0.03604105
169,1778316064.1592503,-0.57222855,0.544544,0.27013773,-0.21288654,-0.48365256,0.6704246
170,1778316064.2089455,-0.45002624,0.49637043,0.3023957,0.017104227,-0.9097311,0.977079
171,1778316064.2593417,-0.8855395,0.65930676,0.49630946,0.714865,-0.9063713,1.2137892
172,1778316064.3093598,-1.1942769,0.75931257,0.54259264,1.0048733,-1.2098186,1.6809485
173,1778316064.3594372,-1.6438764,0.43850118,0.825414,1.8093829,-0.52656585,2.1792617
174,1778316064.409412,-1.0792702,-0.008720021,0.23281845,1.9805778,0.63117653,1.9989038
175,1778316064.4589794,-0.3869738,-0.1156165,-0.11866546,-0.016493361,0.6588182,1.0699304
176,1778316064.5089505,0.25995418,-0.14830133,0.07189444,-1.3271047,0.5209153,-0.45204028
177,1778316064.5592434,0.29794422,-0.22190319,0.097200796,-1.2631166,0.6617198,-1.9104811
178,1778316064.6092854,-0.18635234,-0.1934869,0.16635117,-1.0841331,0.4841107,-2.7806585
179,1778316064.6594543,-0.9839599,0.28776067,0.18116911,-1.1814134,0.65179324,-3.0940325
180,1778316064.7093978,-2.4019084,0.8303533,0.7632762,-0.87872964,0.3817908,-2.055867
181,1778316064.759135,-2.0198739,0.8593794,0.65979457,-0.016798794,0.07009678,-0.34895676
182,1778316064.8092434,-1.3883737,0.71967614,0.44575772,0.29061913,-0.06795876,0.30207285
183,1778316064.859154,-1.0688429,0.65912384,0.30306646,0.85811293,0.6545421,0.11636983
184,1778316064.9090078,-0.913224,0.6389397,0.049210187,0.712727,0.16249016,0.35827246
185,1778316064.9590225,-0.6218046,0.4861869,0.07311402,0.059406646,-0.6545421,0.8568912
186,1778316065.0092177,-0.61643845,0.4366718,0.19586508,0.4370741,-0.7156286,1.0934488
187,1778316065.0593388,-0.76748383,0.53314084,0.23842856,0.680962,-0.9990701,1.4213307
188,1778316065.1089263,-1.4031916,0.58515614,0.6345492,1.0325149,-1.4740179,1.5108224
189,1778316065.1592834,-1.4772813,0.37307054,0.5216768,2.0152445,0.24617869,1.7901406
190,1778316065.209342,-1.0251818,0.08335852,0.12811723,1.2226468,1.0251846,1.7960966
191,1778316065.2591453,-0.3623992,-0.09500554,0.060186442,-1.0958922,0.68126744,1.0726794
192,1778316065.3094356,0.22617173,-0.18860857,0.26202747,-1.9150625,0.47647488,-0.17913623
193,1778316065.3593442,0.2923341,-0.27495506,0.27032065,-0.96883225,0.9651671,-2.8093693
194,1778316065.4093823,-0.17458336,-0.25281963,0.20043853,-0.31429017,0.98837996,-3.6454911
195,1778316065.459331,-1.059391,0.2145247,-0.051771317,-0.5035057,1.1585059,-3.500716
196,1778316065.509183,-2.9083405,0.7791308,0.4423429,-0.97051215,0.31566462,-2.5712845
197,1778316065.5589764,-2.1709802,0.73028654,0.3927668,-0.9245446,-0.15806139,-0.0364992
198,1778316065.6095276,-1.3524569,0.6522332,0.43398872,-0.30543262,0.08323039,0.25595254
199,1778316065.6589339,-1.1498841,0.7060168,0.22336671,0.41157046,0.43081272,0.38820487
200,1778316065.7092474,-0.764008,0.7306524,0.12287302,-0.018020526,-0.22617286,0.5346598
