id,timestamp,acc_x,acc_y,acc_z,gyro_x,gyro_y,gyro_z
1,1778316943.3232286,-0.8710264,-0.8863322,-0.49960235,-0.82253003,0.5346598,-0.86269444
2,1778316943.323251,-0.8710264,-0.8863322,-0.49960235,-0.82253003,0.5346598,-0.86269444
3,1778316943.332914,-0.8710264,-0.8863322,-0.49960235,-0.82253003,0.5346598,-0.86269444
4,1778316943.3429956,-0.8710264,-0.8863322,-0.49960235,-0.82253003,0.5346598,-0.86269444
5,1778316943.3532817,-0.8710264,-0.8863322,-0.49960235,-0.82253003,0.5346598,-0.86269444
6,1778316943.363041,-0.8710264,-0.8863322,-0.49960235,-0.82253003,0.5346598,-0.86269444
7,1778316943.3731742,-0.8710264,-0.8863322,-0.49960235,-0.82253003,0.5346598,-0.86269444
8,1778316943.3829074,-0.8710264,-0.8863322,-0.49960235,-0.82253003,0.5346598,-0.86269444
9,1778316943.3931007,-0.8710264,-0.8863322,-0.49960235,-0.82253003,0.5346598,-0.86269444
10,1778316943.403102,-0.8710264,-0.8863322,-0.49960235,-0.82253003,0.5346598,-0.86269444
11,1778316943.4127705,-0.8710264,-0.8863322,-0.49960235,-0.82253003,0.5346598,-0.86269444
12,1778316943.4230733,-0.8710264,-0.8863322,-0.49960235,-0.82253003,0.5346598,-0.86269444
13,1778316943.4326563,-0.8710264,-0.8863322,-0.49960235,-0.82253003,0.5346598,-0.86269444
14,1778316943.442837,-0.8710264,-0.8863322,-0.49960235,-0.82253003,0.5346598,-0.86269444
15,1778316943.4530532,-0.8710264,-0.8863322,-0.49960235,-0.82253003,0.5346598,-0.86269444
16,1778316943.4626117,-0.8710264,-0.8863322,-0.49960235,-0.82253003,0.5346598,-0.86269444
17,1778316943.4726386,-0.8710264,-0.8863322,-0.49960235,-0.82253003,0.5346598,-0.86269444
18,1778316943.4827259,-0.8710264,-0.8863322,-0.49960235,-0.82253003,0.5346598,-0.86269444
19,1778316943.4928634,-0.8710264,-0.8863322,-0.49960235,-0.82253003,0.5346598,-0.86269444
20,1778316943.5027802,-0.8710264,-0.8863322,-0.49960235,-0.82253003,0.5346598,-0.86269444
21,1778316943.5129223,-0.8710264,-0.8863322,-0.49960235,-0.82253003,0.5346598,-0.86269444
22,1778316943.5232024,-0.8710264,-0.8863322,-0.49960235,-0.82253003,0.5346598,-0.86269444
23,1778316943.5327072,-0.8710264,-0.8863322,-0.49960235,-0.82253003,0.5346598,-0.86269444
24,1778316943.5429027,-0.8710264,-0.8863322,-0.49960235,-0.82253003,0.5346598,-0.86269444
25,1778316943.5528166,-0.8710264,-0.8863322,-0.49960235,-0.82253003,0.5346598,-0.86269444
26,1778316943.5631146,-0.8710264,-0.8863322,-0.49960235,-0.82253003,0.5346598,-0.86269444
27,1778316943.572682,-0.8710264,-0.8863322,-0.49960235,-0.82253003,0.5346598,-0.86269444
28,1778316943.583013,-0.8710264,-0.8863322,-0.49960235,-0.82253003,0.5346598,-0.86269444
29,1778316943.5930886,-0.8710264,-0.8863322,-0.49960235,-0.82253003,0.5346598,-0.86269444
30,1778316943.6030436,-0.8710264,-0.8863322,-0.49960235,-0.82253003,0.5346598,-0.86269444
31,1778316943.6127017,-0.8710264,-0.8863322,-0.49960235,-0.82253003,0.5346598,-0.86269444
32,1778316943.6227725,-0.8710264,-0.8863322,-0.49960235,-0.82253003,0.5346598,-0.86269444
33,1778316943.6326034,-0.8710264,-0.8863322,-0.49960235,-0.82253003,0.5346598,-0.86269444
34,1778316943.6427395,-0.8710264,-0.8863322,-0.49960235,-0.82253003,0.5346598,-0.86269444
35,1778316943.6528332,-0.8710264,-0.8863322,-0.49960235,-0.82253003,0.5346598,-0.86269444
36,1778316943.6631951,-0.8710264,-0.8863322,-0.49960235,-0.82253003,0.5346598,-0.86269444
37,1778316943.6730597,-0.8710264,-0.8863322,-0.49960235,-0.82253003,0.5346598,-0.86269444
38,1778316943.682788,-0.8710264,-0.8863322,-0.49960235,-0.82253003,0.5346598,-0.86269444
39,1778316943.6928587,-0.8710264,-0.8863322,-0.49960235,-0.82253003,0.5346598,-0.86269444
40,1778316943.7035224,-0.8710264,-0.8863322,-0.49960235,-0.82253003,0.5346598,-0.86269444
41,1778316943.7130044,-0.8710264,-0.8863322,-0.49960235,-0.82253003,0.5346598,-0.86269444
42,1778316943.7234237,-0.8710264,-0.8863322,-0.49960235,-0.82253003,0.5346598,-0.86269444
43,1778316943.7326765,-0.8710264,-0.8863322,-0.49960235,-0.82253003,0.5346598,-0.86269444
44,1778316943.7429974,-0.8710264,-0.8863322,-0.49960235,-0.82253003,0.5346598,-0.86269444
45,1778316943.7525449,-0.8710264,-0.8863322,-0.49960235,-0.82253003,0.5346598,-0.86269444
46,1778316943.7631388,-0.8710264,-0.8863322,-0.49960235,-0.82253003,0.5346598,-0.86269444
47,1778316943.7725391,-0.8710264,-0.8863322,-0.49960235,-0.82253003,0.5346598,-0.86269444
48,1778316943.7831829,-0.8710264,-0.8863322,-0.49960235,-0.82253003,0.5346598,-0.86269444
49,1778316943.793201,-0.8710264,-0.8863322,-0.49960235,-0.82253003,0.5346598,-0.86269444
50,1778316943.8028872,-0.8710264,-0.8863322,-0.49960235,-0.82253003,0.5346598,-0.86269444
51,1778316943.8126519,-0.8710264,-0.8863322,-0.49960235,-0.82253003,0.5346598,-0.86269444
52,1778316943.822859,-0.8710264,-0.8863322,-0.49960235,-0.82253003,0.5346598,-0.86269444
53,1778316943.8329177,-0.8710264,-0.8863322,-0.49960235,-0.82253003,0.5346598,-0.86269444
54,1778316943.8425493,-0.8710264,-0.8863322,-0.49960235,-0.82253003,0.5346598,-0.86269444
55,1778316943.8527386,-0.8710264,-0.8863322,-0.49960235,-0.82253003,0.5346598,-0.86269444
56,1778316943.863039,-0.8710264,-0.8863322,-0.49960235,-0.82253003,0.5346598,-0.86269444
57,1778316943.8731415,-0.8710264,-0.8863322,-0.49960235,-0.82253003,0.5346598,-0.86269444
58,1778316943.883116,-0.8710264,-0.8863322,-0.49960235,-0.82253003,0.5346598,-0.86269444
59,1778316943.893154,-0.8710264,-0.8863322,-0.49960235,-0.82253003,0.5346598,-0.86269444
60,1778316943.9031472,-0.8710264,-0.8863322,-0.49960235,-0.82253003,0.5346598,-0.86269444
61,1778316943.912904,-0.8710264,-0.8863322,-0.49960235,-0.82253003,0.5346598,-0.86269444
62,1778316943.9227831,-0.8710264,-0.8863322,-0.49960235,-0.82253003,0.5346598,-0.86269444
63,1778316943.9328587,-0.8710264,-0.8863322,-0.49960235,-0.82253003,0.5346598,-0.86269444
64,1778316943.942956,-0.8710264,-0.8863322,-0.49960235,-0.82253003,0.5346598,-0.86269444
65,1778316943.9531577,-0.8710264,-0.8863322,-0.49960235,-0.82253003,0.5346598,-0.86269444
66,1778316943.9626105,-0.8710264,-0.8863322,-0.49960235,-0.82253003,0.5346598,-0.86269444
67,1778316943.9726288,-0.8710264,-0.8863322,-0.49960235,-0.82253003,0.5346598,-0.86269444
68,1778316943.9825897,-0.8710264,-0.8863322,-0.49960235,-0.82253003,0.5346598,-0.86269444
69,1778316943.9927013,-0.8710264,-0.8863322,-0.49960235,-0.82253003,0.5346598,-0.86269444
70,1778316944.0029125,-0.8710264,-0.8863322,-0.49960235,-0.82253003,0.5346598,-0.86269444
71,1778316944.01306,-0.8710264,-0.8863322,-0.49960235,-0.82253003,0.5346598,-0.86269444
72,1778316944.0231667,-0.8710264,-0.8863322,-0.49960235,-0.82253003,0.5346598,-0.86269444
73,1778316944.0326953,-0.8710264,-0.8863322,-0.49960235,-0.82253003,0.5346598,-0.86269444
74,1778316944.0427954,-0.8710264,-0.8863322,-0.49960235,-0.82253003,0.5346598,-0.86269444
75,1778316944.052959,-0.8710264,-0.8863322,-0.49960235,-0.82253003,0.5346598,-0.86269444
76,1778316944.0631192,-0.8710264,-0.8863322,-0.49960235,-0.82253003,0.5346598,-0.86269444
77,1778316944.0725443,-0.8710264,-0.8863322,-0.49960235,-0.82253003,0.5346598,-0.86269444
78,1778316944.082774,-0.8710264,-0.8863322,-0.49960235,-0.82253003,0.5346598,-0.86269444
79,1778316944.0929368,-0.8710264,-0.8863322,-0.49960235,-0.82253003,0.5346598,-0.86269444
80,1778316944.1030695,-0.8710264,-0.8863322,-0.49960235,-0.82253003,0.5346598,-0.86269444
81,1778316944.1125493,-0.8710264,-0.8863322,-0.49960235,-0.82253003,0.5346598,-0.86269444
82,1778316944.123344,-0.8710264,-0.8863322,-0.49960235,-0.82253003,0.5346598,-0.86269444
83,1778316944.1330035,-0.8710264,-0.8863322,-0.49960235,-0.82253003,0.5346598,-0.86269444
84,1778316944.1429653,-0.8710264,-0.8863322,-0.49960235,-0.82253003,0.5346598,-0.86269444
85,1778316944.1527052,-0.8710264,-0.8863322,-0.49960235,-0.82253003,0.5346598,-0.86269444
86,1778316944.1627493,-0.8710264,-0.8863322,-0.49960235,-0.82253003,0.5346598,-0.86269444
87,1778316944.173103,-0.8710264,-0.8863322,-0.49960235,-0.82253003,0.5346598,-0.86269444
88,1778316944.182556,-0.8710264,-0.8863322,-0.49960235,-0.82253003,0.5346598,-0.86269444
89,1778316944.1928818,-0.8710264,-0.8863322,-0.49960235,-0.82253003,0.5346598,-0.86269444
90,1778316944.2025473,-0.8710264,-0.8863322,-0.49960235,-0.82253003,0.5346598,-0.86269444
91,1778316944.2129154,-0.8710264,-0.8863322,-0.49960235,-0.82253003,0.5346598,-0.86269444
92,1778316944.223302,-0.8710264,-0.8863322,-0.49960235,-0.82253003,0.5346598,-0.86269444
93,1778316944.233332,-0.8710264,-0.8863322,-0.49960235,-0.82253003,0.5346598,-0.86269444
94,1778316944.2430663,-0.8710264,-0.8863322,-0.49960235,-0.82253003,0.5346598,-0.86269444
95,1778316944.252636,-0.8710264,-0.8863322,-0.49960235,-0.82253003,0.5346598,-0.86269444
96,1778316944.2626922,-0.8710264,-0.8863322,-0.49960235,-0.82253003,0.5346598,-0.86269444
97,1778316944.272951,-0.8710264,-0.8863322,-0.49960235,-0.82253003,0.5346598,-0.86269444
98,1778316944.2830317,-0.8710264,-0.8863322,-0.49960235,-0.82253003,0.5346598,-0.86269444
99,1778316944.2933762,-0.8710264,-0.8863322,-0.49960235,-0.82253003,0.5346598,-0.86269444
100,1778316944.3029225,-0.8710264,-0.8863322,-0.49960235,-0.82253003,0.5346598,-0.86269444
101,1778316944.3129003,-0.8710264,-0.8863322,-0.49960235,-0.82253003,0.5346598,-0.86269444
102,1778316944.322628,-0.8710264,-0.8863322,-0.49960235,-0.82253003,0.5346598,-0.86269444
103,1778316944.3330357,-0.8710264,-0.8863322,-0.49960235,-0.82253003,0.5346598,-0.86269444
104,1778316944.3433683,-0.8710264,-0.8863322,-0.49960235,-0.82253003,0.5346598,-0.86269444
105,1778316944.3526978,-0.8710264,-0.8863322,-0.49960235,-0.82253003,0.5346598,-0.86269444
106,1778316944.3630404,-0.8710264,-0.8863322,-0.49960235,-0.82253003,0.5346598,-0.86269444
107,1778316944.3727531,-0.8710264,-0.8863322,-0.49960235,-0.82253003,0.5346598,-0.86269444
108,1778316944.3830907,-0.8710264,-0.8863322,-0.49960235,-0.82253003,0.5346598,-0.86269444
109,1778316944.3929298,-0.8710264,-0.8863322,-0.49960235,-0.82253003,0.5346598,-0.86269444
110,1778316944.4031093,-0.8710264,-0.8863322,-0.49960235,-0.82253003,0.5346598,-0.86269444
111,1778316944.4133139,-0.8710264,-0.8863322,-0.49960235,-0.82253003,0.5346598,-0.86269444
112,1778316944.4230344,-0.8710264,-0.8863322,-0.49960235,-0.82253003,0.5346598,-0.86269444
113,1778316944.433079,-0.8710264,-0.8863322,-0.49960235,-0.82253003,0.5346598,-0.86269444
114,1778316944.442976,-0.8710264,-0.8863322,-0.49960235,-0.82253003,0.5346598,-0.86269444
115,1778316944.453057,-0.8710264,-0.8863322,-0.49960235,-0.82253003,0.5346598,-0.86269444
116,1778316944.4625628,-0.8710264,-0.8863322,-0.49960235,-0.82253003,0.5346598,-0.86269444
117,1778316944.472756,-0.8710264,-0.8863322,-0.49960235,-0.82253003,0.5346598,-0.86269444
118,1778316944.482733,-0.8710264,-0.8863322,-0.49960235,-0.82253003,0.5346598,-0.86269444
119,1778316944.49337,-0.8710264,-0.8863322,-0.49960235,-0.82253003,0.5346598,-0.86269444
120,1778316944.5030682,-0.8710264,-0.8863322,-0.49960235,-0.82253003,0.5346598,-0.86269444
121,1778316944.5129495,-0.8710264,-0.8863322,-0.49960235,-0.82253003,0.5346598,-0.86269444
122,1778316944.5233765,-0.8710264,-0.8863322,-0.49960235,-0.82253003,0.5346598,-0.86269444
123,1778316944.5327957,-0.8710264,-0.8863322,-0.49960235,-0.82253003,0.5346598,-0.86269444
124,1778316944.5426893,-0.8710264,-0.8863322,-0.49960235,-0.82253003,0.5346598,-0.86269444
125,1778316944.5532458,-0.8710264,-0.8863322,-0.49960235,-0.82253003,0.5346598,-0.86269444
126,1778316944.562769,-0.8710264,-0.8863322,-0.49960235,-0.82253003,0.5346598,-0.86269444
127,1778316944.5727448,-0.8710264,-0.8863322,-0.49960235,-0.82253003,0.5346598,-0.86269444
128,1778316944.5830572,-0.8710264,-0.8863322,-0.49960235,-0.82253003,0.5346598,-0.86269444
129,1778316944.5932019,-0.8710264,-0.8863322,-0.49960235,-0.82253003,0.5346598,-0.86269444
130,1778316944.6030023,-0.8710264,-0.8863322,-0.49960235,-0.82253003,0.5346598,-0.86269444
131,1778316944.613089,-0.8710264,-0.8863322,-0.49960235,-0.82253003,0.5346598,-0.86269444
132,1778316944.6233604,-0.8710264,-0.8863322,-0.49960235,-0.82253003,0.5346598,-0.86269444
133,1778316944.632904,-0.8710264,-0.8863322,-0.49960235,-0.82253003,0.5346598,-0.86269444
134,1778316944.643193,-0.8710264,-0.8863322,-0.49960235,-0.82253003,0.5346598,-0.86269444
135,1778316944.6532245,-0.8710264,-0.8863322,-0.49960235,-0.82253003,0.5346598,-0.86269444
136,1778316944.6626165,-0.8710264,-0.8863322,-0.49960235,-0.82253003,0.5346598,-0.86269444
137,1778316944.6734157,-0.8710264,-0.8863322,-0.49960235,-0.82253003,0.5346598,-0.86269444
138,1778316944.6829646,-0.8710264,-0.8863322,-0.49960235,-0.82253003,0.5346598,-0.86269444
139,1778316944.6926825,-0.8710264,-0.8863322,-0.49960235,-0.82253003,0.5346598,-0.86269444
140,1778316944.7030475,-0.8710264,-0.8863322,-0.49960235,-0.82253003,0.5346598,-0.86269444
141,1778316944.7129974,-0.8710264,-0.8863322,-0.49960235,-0.82253003,0.5346598,-0.86269444
142,1778316944.723204,-0.8710264,-0.8863322,-0.49960235,-0.82253003,0.5346598,-0.86269444
143,1778316944.7327988,-0.8710264,-0.8863322,-0.49960235,-0.82253003,0.5346598,-0.86269444
144,1778316944.743072,-0.8710264,-0.8863322,-0.49960235,-0.82253003,0.5346598,-0.86269444
145,1778316944.7528992,-0.8710264,-0.8863322,-0.49960235,-0.82253003,0.5346598,-0.86269444
146,1778316944.7626824,-0.8710264,-0.8863322,-0.49960235,-0.82253003,0.5346598,-0.86269444
147,1778316944.7728357,-0.8710264,-0.8863322,-0.49960235,-0.82253003,0.5346598,-0.86269444
148,1778316944.783103,-0.8710264,-0.8863322,-0.49960235,-0.82253003,0.5346598,-0.86269444
149,1778316944.792612,-0.8710264,-0.8863322,-0.49960235,-0.82253003,0.5346598,-0.86269444
150,1778316944.8027868,-0.8710264,-0.8863322,-0.49960235,-0.82253003,0.5346598,-0.86269444
151,1778316944.8128242,-0.8710264,-0.8863322,-0.49960235,-0.82253003,0.5346598,-0.86269444
152,1778316944.822651,-0.8710264,-0.8863322,-0.49960235,-0.82253003,0.5346598,-0.86269444
153,1778316944.832828,-0.8710264,-0.8863322,-0.49960235,-0.82253003,0.5346598,-0.86269444
154,1778316944.8431299,-0.8710264,-0.8863322,-0.49960235,-0.82253003,0.5346598,-0.86269444
155,1778316944.852746,-0.8710264,-0.8863322,-0.49960235,-0.82253003,0.5346598,-0.86269444
156,1778316944.8631675,-0.8710264,-0.8863322,-0.49960235,-0.82253003,0.5346598,-0.86269444
157,1778316944.872843,-0.8710264,-0.8863322,-0.49960235,-0.82253003,0.5346598,-0.86269444
158,1778316944.8831422,-0.8710264,-0.8863322,-0.49960235,-0.82253003,0.5346598,-0.86269444
159,1778316944.8929,-0.8710264,-0.8863322,-0.49960235,-0.82253003,0.5346598,-0.86269444
160,1778316944.9032404,-0.8710264,-0.8863322,-0.49960235,-0.82253003,0.5346598,-0.86269444
161,1778316944.9129956,-0.8710264,-0.8863322,-0.49960235,-0.82253003,0.5346598,-0.86269444
162,1778316944.922539,-0.8710264,-0.8863322,-0.49960235,-0.82253003,0.5346598,-0.86269444
163,1778316944.9332802,-0.8710264,-0.8863322,-0.49960235,-0.82253003,0.5346598,-0.86269444
164,1778316944.9427164,-0.8710264,-0.8863322,-0.49960235,-0.82253003,0.5346598,-0.86269444
165,1778316944.9531875,-0.8710264,-0.8863322,-0.49960235,-0.82253003,0.5346598,-0.86269444
166,1778316944.9626107,-0.8710264,-0.8863322,-0.49960235,-0.82253003,0.5346598,-0.86269444
167,1778316944.9730773,-0.8710264,-0.8863322,-0.49960235,-0.82253003,0.5346598,-0.86269444
168,1778316944.983006,-0.8710264,-0.8863322,-0.49960235,-0.82253003,0.5346598,-0.86269444
169,1778316944.9927437,-0.8710264,-0.8863322,-0.49960235,-0.82253003,0.5346598,-0.86269444
170,1778316945.003363,-0.8710264,-0.8863322,-0.49960235,-0.82253003,0.5346598,-0.86269444
171,1778316945.0128005,-0.8710264,-0.8863322,-0.49960235,-0.82253003,0.5346598,-0.86269444
172,1778316945.0233743,-0.8710264,-0.8863322,-0.49960235,-0.82253003,0.5346598,-0.86269444
173,1778316945.0329897,-0.8710264,-0.8863322,-0.49960235,-0.82253003,0.5346598,-0.86269444
174,1778316945.0432456,-0.8710264,-0.8863322,-0.49960235,-0.82253003,0.5346598,-0.86269444
175,1778316945.05286,-0.8710264,-0.8863322,-0.49960235,-0.82253003,0.5346598,-0.86269444
176,1778316945.063349,-0.8710264,-0.8863322,-0.49960235,-0.82253003,0.5346598,-0.86269444
177,1778316945.0727258,-0.8710264,-0.8863322,-0.49960235,-0.82253003,0.5346598,-0.86269444
178,1778316945.082729,-0.8710264,-0.8863322,-0.49960235,-0.82253003,0.5346598,-0.86269444
179,1778316945.092848,-0.8710264,-0.8863322,-0.49960235,-0.82253003,0.5346598,-0.86269444
180,1778316945.1032534,-0.8710264,-0.8863322,-0.49960235,-0.82253003,0.5346598,-0.86269444
181,1778316945.1127372,-0.8710264,-0.8863322,-0.49960235,-0.82253003,0.5346598,-0.86269444
182,1778316945.122682,-0.8710264,-0.8863322,-0.49960235,-0.82253003,0.5346598,-0.86269444
183,1778316945.1329918,-0.8710264,-0.8863322,-0.49960235,-0.82253003,0.5346598,-0.86269444
184,1778316945.1426315,-0.8710264,-0.8863322,-0.49960235,-0.82253003,0.5346598,-0.86269444
185,1778316945.152986,-0.8710264,-0.8863322,-0.49960235,-0.82253003,0.5346598,-0.86269444
186,1778316945.1625896,-0.8710264,-0.8863322,-0.49960235,-0.82253003,0.5346598,-0.86269444
187,1778316945.1732512,-0.8710264,-0.8863322,-0.49960235,-0.82253003,0.5346598,-0.86269444
188,1778316945.1825917,-0.8710264,-0.8863322,-0.49960235,-0.82253003,0.5346598,-0.86269444
189,1778316945.1926181,-0.8710264,-0.8863322,-0.49960235,-0.82253003,0.5346598,-0.86269444
190,1778316945.203274,-0.8710264,-0.8863322,-0.49960235,-0.82253003,0.5346598,-0.86269444
191,1778316945.2129316,-0.8710264,-0.8863322,-0.49960235,-0.82253003,0.5346598,-0.86269444
192,1778316945.2230854,-0.8710264,-0.8863322,-0.49960235,-0.82253003,0.5346598,-0.86269444
193,1778316945.2330635,-0.8710264,-0.8863322,-0.49960235,-0.82253003,0.5346598,-0.86269444
194,1778316945.2432458,-0.8710264,-0.8863322,-0.49960235,-0.82253003,0.5346598,-0.86269444
195,1778316945.2526767,-0.8710264,-0.8863322,-0.49960235,-0.82253003,0.5346598,-0.86269444
196,1778316945.2625866,-0.8710264,-0.8863322,-0.49960235,-0.82253003,0.5346598,-0.86269444
197,1778316945.272941,-0.8710264,-0.8863322,-0.49960235,-0.82253003,0.5346598,-0.86269444
198,1778316945.2832947,-0.8710264,-0.8863322,-0.49960235,-0.82253003,0.5346598,-0.86269444
199,1778316945.2928445,-0.8710264,-0.8863322,-0.49960235,-0.82253003,0.5346598,-0.86269444
200,1778316945.30328,-0.8710264,-0.8863322,-0.49960235,-0.82253003,0.5346598,-0.86269444
201,1778316945.3130233,-0.8710264,-0.8863322,-0.49960235,-0.82253003,0.5346598,-0.86269444
202,1778316945.3232632,-0.8710264,-0.8863322,-0.49960235,-0.82253003,0.5346598,-0.86269444
203,1778316945.3330467,-0.8710264,-0.8863322,-0.49960235,-0.82253003,0.5346598,-0.86269444
204,1778316945.3430755,-0.8710264,-0.8863322,-0.49960235,-0.82253003,0.5346598,-0.86269444
205,1778316945.3528924,-0.8710264,-0.8863322,-0.49960235,-0.82253003,0.5346598,-0.86269444
206,1778316945.362887,-0.8710264,-0.8863322,-0.49960235,-0.82253003,0.5346598,-0.86269444
207,1778316945.372561,-0.8710264,-0.8863322,-0.49960235,-0.82253003,0.5346598,-0.86269444
208,1778316945.3826709,-0.8710264,-0.8863322,-0.49960235,-0.82253003,0.5346598,-0.86269444
209,1778316945.3928168,-0.8710264,-0.8863322,-0.49960235,-0.82253003,0.5346598,-0.86269444
210,1778316945.4030375,-0.8710264,-0.8863322,-0.49960235,-0.82253003,0.5346598,-0.86269444
211,1778316945.4130914,-0.8710264,-0.8863322,-0.49960235,-0.82253003,0.5346598,-0.86269444
212,1778316945.423144,-0.8710264,-0.8863322,-0.49960235,-0.82253003,0.5346598,-0.86269444
213,1778316945.4327269,-0.8710264,-0.8863322,-0.49960235,-0.82253003,0.5346598,-0.86269444
214,1778316945.443072,-0.8710264,-0.8863322,-0.49960235,-0.82253003,0.5346598,-0.86269444
215,1778316945.4530768,-0.8710264,-0.8863322,-0.49960235,-0.82253003,0.5346598,-0.86269444
216,1778316945.4625669,-0.8710264,-0.8863322,-0.49960235,-0.82253003,0.5346598,-0.86269444
217,1778316945.472902,-0.8710264,-0.8863322,-0.49960235,-0.82253003,0.5346598,-0.86269444
218,1778316945.482924,-0.8710264,-0.8863322,-0.49960235,-0.82253003,0.5346598,-0.86269444
219,1778316945.4931023,-0.8710264,-0.8863322,-0.49960235,-0.82253003,0.5346598,-0.86269444
220,1778316945.5030951,-0.8710264,-0.8863322,-0.49960235,-0.82253003,0.5346598,-0.86269444
221,1778316945.512789,-0.8710264,-0.8863322,-0.49960235,-0.82253003,0.5346598,-0.86269444
222,1778316945.5227456,-0.8710264,-0.8863322,-0.49960235,-0.82253003,0.5346598,-0.86269444
223,1778316945.5328438,-0.8710264,-0.8863322,-0.49960235,-0.82253003,0.5346598,-0.86269444
224,1778316945.5434122,-0.8710264,-0.8863322,-0.49960235,-0.82253003,0.5346598,-0.86269444
225,1778316945.552559,-0.8710264,-0.8863322,-0.49960235,-0.82253003,0.5346598,-0.86269444
226,1778316945.562759,-0.8710264,-0.8863322,-0.49960235,-0.82253003,0.5346598,-0.86269444
227,1778316945.5731907,-0.8710264,-0.8863322,-0.49960235,-0.82253003,0.5346598,-0.86269444
228,1778316945.582752,-0.8710264,-0.8863322,-0.49960235,-0.82253003,0.5346598,-0.86269444
229,1778316945.5934258,-0.8710264,-0.8863322,-0.49960235,-0.82253003,0.5346598,-0.86269444
230,1778316945.602816,-0.8710264,-0.8863322,-0.49960235,-0.82253003,0.5346598,-0.86269444
231,1778316945.6128566,-0.8710264,-0.8863322,-0.49960235,-0.82253003,0.5346598,-0.86269444
232,1778316945.623168,-0.8710264,-0.8863322,-0.49960235,-0.82253003,0.5346598,-0.86269444
233,1778316945.6331875,-0.8710264,-0.8863322,-0.49960235,-0.82253003,0.5346598,-0.86269444
234,1778316945.6426225,-0.8710264,-0.8863322,-0.49960235,-0.82253003,0.5346598,-0.86269444
235,1778316945.652897,-0.8710264,-0.8863322,-0.49960235,-0.82253003,0.5346598,-0.86269444
236,1778316945.6630218,-0.8710264,-0.8863322,-0.49960235,-0.82253003,0.5346598,-0.86269444
237,1778316945.672569,-0.8710264,-0.8863322,-0.49960235,-0.82253003,0.5346598,-0.86269444
238,1778316945.6830952,-0.8710264,-0.8863322,-0.49960235,-0.82253003,0.5346598,-0.86269444
239,1778316945.6925855,-0.8710264,-0.8863322,-0.49960235,-0.82253003,0.5346598,-0.86269444
240,1778316945.7028246,-0.8710264,-0.8863322,-0.49960235,-0.82253003,0.5346598,-0.86269444
241,1778316945.7129624,-0.8710264,-0.8863322,-0.49960235,-0.82253003,0.5346598,-0.86269444
242,1778316945.722715,-0.8710264,-0.8863322,-0.49960235,-0.82253003,0.5346598,-0.86269444
243,1778316945.7330585,-0.8710264,-0.8863322,-0.49960235,-0.82253003,0.5346598,-0.86269444
244,1778316945.7426836,-0.8710264,-0.8863322,-0.49960235,-0.82253003,0.5346598,-0.86269444
245,1778316945.7526042,-0.8710264,-0.8863322,-0.49960235,-0.82253003,0.5346598,-0.86269444
246,1778316945.7631464,-0.8710264,-0.8863322,-0.49960235,-0.82253003,0.5346598,-0.86269444
247,1778316945.7727304,-0.8710264,-0.8863322,-0.49960235,-0.82253003,0.5346598,-0.86269444
248,1778316945.7829978,-0.8710264,-0.8863322,-0.49960235,-0.82253003,0.5346598,-0.86269444
249,1778316945.7930818,-0.8710264,-0.8863322,-0.49960235,-0.82253003,0.5346598,-0.86269444
250,1778316945.8026505,-0.8710264,-0.8863322,-0.49960235,-0.82253003,0.5346598,-0.86269444
251,1778316945.8130338,-0.8710264,-0.8863322,-0.49960235,-0.82253003,0.5346598,-0.86269444
252,1778316945.8227777,-0.8710264,-0.8863322,-0.49960235,-0.82253003,0.5346598,-0.86269444
253,1778316945.8331728,-0.8710264,-0.8863322,-0.49960235,-0.82253003,0.5346598,-0.86269444
254,1778316945.8426244,-0.8710264,-0.8863322,-0.49960235,-0.82253003,0.5346598,-0.86269444
255,1778316945.853127,-0.8710264,-0.8863322,-0.49960235,-0.82253003,0.5346598,-0.86269444
256,1778316945.8627322,-0.8710264,-0.8863322,-0.49960235,-0.82253003,0.5346598,-0.86269444
257,1778316945.8728552,-0.8710264,-0.8863322,-0.49960235,-0.82253003,0.5346598,-0.86269444
258,1778316945.8830125,-0.8710264,-0.8863322,-0.49960235,-0.82253003,0.5346598,-0.86269444
259,1778316945.8933783,-0.8710264,-0.8863322,-0.49960235,-0.82253003,0.5346598,-0.86269444
260,1778316945.9033825,-0.8710264,-0.8863322,-0.49960235,-0.82253003,0.5346598,-0.86269444
261,1778316945.9130254,-0.8710264,-0.8863322,-0.49960235,-0.82253003,0.5346598,-0.86269444
262,1778316945.9225519,-0.8710264,-0.8863322,-0.49960235,-0.82253003,0.5346598,-0.86269444
263,1778316945.9331882,-0.8710264,-0.8863322,-0.49960235,-0.82253003,0.5346598,-0.86269444
264,1778316945.942855,-0.8710264,-0.8863322,-0.49960235,-0.82253003,0.5346598,-0.86269444
265,1778316945.9526434,-0.8710264,-0.8863322,-0.49960235,-0.82253003,0.5346598,-0.86269444
266,1778316945.9630005,-0.8710264,-0.8863322,-0.49960235,-0.82253003,0.5346598,-0.86269444
267,1778316945.9726644,-0.8710264,-0.8863322,-0.49960235,-0.82253003,0.5346598,-0.86269444
268,1778316945.9830265,-0.8710264,-0.8863322,-0.49960235,-0.82253003,0.5346598,-0.86269444
269,1778316945.9930878,-0.8710264,-0.8863322,-0.49960235,-0.82253003,0.5346598,-0.86269444
270,1778316946.003431,-0.8710264,-0.8863322,-0.49960235,-0.82253003,0.5346598,-0.86269444
271,1778316946.0126233,-0.8710264,-0.8863322,-0.49960235,-0.82253003,0.5346598,-0.86269444
272,1778316946.023125,-0.8710264,-0.8863322,-0.49960235,-0.82253003,0.5346598,-0.86269444
273,1778316946.0329409,-0.8710264,-0.8863322,-0.49960235,-0.82253003,0.5346598,-0.86269444
274,1778316946.043127,-0.8710264,-0.8863322,-0.49960235,-0.82253003,0.5346598,-0.86269444
275,1778316946.05309,-0.8710264,-0.8863322,-0.49960235,-0.82253003,0.5346598,-0.86269444
276,1778316946.0631406,-0.8710264,-0.8863322,-0.49960235,-0.82253003,0.5346598,-0.86269444
277,1778316946.072658,-0.8710264,-0.8863322,-0.49960235,-0.82253003,0.5346598,-0.86269444
278,1778316946.082777,-0.8710264,-0.8863322,-0.49960235,-0.82253003,0.5346598,-0.86269444
279,1778316946.0928504,-0.8710264,-0.8863322,-0.49960235,-0.82253003,0.5346598,-0.86269444
280,1778316946.1031842,-0.8710264,-0.8863322,-0.49960235,-0.82253003,0.5346598,-0.86269444
281,1778316946.11281,-0.8710264,-0.8863322,-0.49960235,-0.82253003,0.5346598,-0.86269444
282,1778316946.122846,-0.8710264,-0.8863322,-0.49960235,-0.82253003,0.5346598,-0.86269444
283,1778316946.1325934,-0.8710264,-0.8863322,-0.49960235,-0.82253003,0.5346598,-0.86269444
284,1778316946.1432652,-0.8710264,-0.8863322,-0.49960235,-0.82253003,0.5346598,-0.86269444
285,1778316946.1528163,-0.8710264,-0.8863322,-0.49960235,-0.82253003,0.5346598,-0.86269444
286,1778316946.1628447,-0.8710264,-0.8863322,-0.49960235,-0.82253003,0.5346598,-0.86269444
287,1778316946.1725674,-0.8710264,-0.8863322,-0.49960235,-0.82253003,0.5346598,-0.86269444
288,1778316946.183154,-0.8710264,-0.8863322,-0.49960235,-0.82253003,0.5346598,-0.86269444
289,1778316946.1927247,-0.8710264,-0.8863322,-0.49960235,-0.82253003,0.5346598,-0.86269444
290,1778316946.203038,-0.8710264,-0.8863322,-0.49960235,-0.82253003,0.5346598,-0.86269444
291,1778316946.213263,-0.8710264,-0.8863322,-0.49960235,-0.82253003,0.5346598,-0.86269444
292,1778316946.223283,-0.8710264,-0.8863322,-0.49960235,-0.82253003,0.5346598,-0.86269444
293,1778316946.2327402,-0.8710264,-0.8863322,-0.49960235,-0.82253003,0.5346598,-0.86269444
294,1778316946.2428834,-0.8710264,-0.8863322,-0.49960235,-0.82253003,0.5346598,-0.86269444
295,1778316946.253142,-0.8710264,-0.8863322,-0.49960235,-0.82253003,0.5346598,-0.86269444
296,1778316946.262907,-0.8710264,-0.8863322,-0.49960235,-0.82253003,0.5346598,-0.86269444
297,1778316946.2729573,-0.8710264,-0.8863322,-0.49960235,-0.82253003,0.5346598,-0.86269444
298,1778316946.2827883,-0.8710264,-0.8863322,-0.49960235,-0.82253003,0.5346598,-0.86269444
299,1778316946.293149,-0.8710264,-0.8863322,-0.49960235,-0.82253003,0.5346598,-0.86269444
300,1778316946.302856,-0.8710264,-0.8863322,-0.49960235,-0.82253003,0.5346598,-0.86269444
301,1778316946.312929,-0.8710264,-0.8863322,-0.49960235,-0.82253003,0.5346598,-0.86269444
302,1778316946.3230124,-0.8710264,-0.8863322,-0.49960235,-0.82253003,0.5346598,-0.86269444
303,1778316946.3326669,-0.8710264,-0.8863322,-0.49960235,-0.82253003,0.5346598,-0.86269444
304,1778316946.342799,-0.8710264,-0.8863322,-0.49960235,-0.82253003,0.5346598,-0.86269444
305,1778316946.3529165,-0.8710264,-0.8863322,-0.49960235,-0.82253003,0.5346598,-0.86269444
306,1778316946.3628023,-0.8710264,-0.8863322,-0.49960235,-0.82253003,0.5346598,-0.86269444
307,1778316946.3726811,-0.8710264,-0.8863322,-0.49960235,-0.82253003,0.5346598,-0.86269444
308,1778316946.3827827,-0.8710264,-0.8863322,-0.49960235,-0.82253003,0.5346598,-0.86269444
309,1778316946.392767,-0.8710264,-0.8863322,-0.49960235,-0.82253003,0.5346598,-0.86269444
310,1778316946.403005,-0.8710264,-0.8863322,-0.49960235,-0.82253003,0.5346598,-0.86269444
311,1778316946.4129314,-0.8710264,-0.8863322,-0.49960235,-0.82253003,0.5346598,-0.86269444
312,1778316946.4227118,-0.8710264,-0.8863322,-0.49960235,-0.82253003,0.5346598,-0.86269444
313,1778316946.4325752,-0.8710264,-0.8863322,-0.49960235,-0.82253003,0.5346598,-0.86269444
314,1778316946.4429367,-0.8710264,-0.8863322,-0.49960235,-0.82253003,0.5346598,-0.86269444
315,1778316946.4529028,-0.8710264,-0.8863322,-0.49960235,-0.82253003,0.5346598,-0.86269444
316,1778316946.4629998,-0.8710264,-0.8863322,-0.49960235,-0.82253003,0.5346598,-0.86269444
317,1778316946.4729369,-0.8710264,-0.8863322,-0.49960235,-0.82253003,0.5346598,-0.86269444
318,1778316946.4829304,-0.8710264,-0.8863322,-0.49960235,-0.82253003,0.5346598,-0.86269444
319,1778316946.4930751,-0.8710264,-0.8863322,-0.49960235,-0.82253003,0.5346598,-0.86269444
320,1778316946.5030432,-0.8710264,-0.8863322,-0.49960235,-0.82253003,0.5346598,-0.86269444
321,1778316946.512992,-0.8710264,-0.8863322,-0.49960235,-0.82253003,0.5346598,-0.86269444
322,1778316946.5231767,-0.8710264,-0.8863322,-0.49960235,-0.82253003,0.5346598,-0.86269444
323,1778316946.53265,-0.8710264,-0.8863322,-0.49960235,-0.82253003,0.5346598,-0.86269444
324,1778316946.5427501,-0.8710264,-0.8863322,-0.49960235,-0.82253003,0.5346598,-0.86269444
325,1778316946.5528133,-0.8710264,-0.8863322,-0.49960235,-0.82253003,0.5346598,-0.86269444
326,1778316946.5628853,-0.8710264,-0.8863322,-0.49960235,-0.82253003,0.5346598,-0.86269444
327,1778316946.573102,-0.8710264,-0.8863322,-0.49960235,-0.82253003,0.5346598,-0.86269444
328,1778316946.5827096,-0.8710264,-0.8863322,-0.49960235,-0.82253003,0.5346598,-0.86269444
329,1778316946.5930185,-0.8710264,-0.8863322,-0.49960235,-0.82253003,0.5346598,-0.86269444
330,1778316946.6031935,-0.8710264,-0.8863322,-0.49960235,-0.82253003,0.5346598,-0.86269444
331,1778316946.6127808,-0.8710264,-0.8863322,-0.49960235,-0.82253003,0.5346598,-0.86269444
332,1778316946.6227522,-0.8710264,-0.8863322,-0.49960235,-0.82253003,0.5346598,-0.86269444
333,1778316946.6332781,-0.8710264,-0.8863322,-0.49960235,-0.82253003,0.5346598,-0.86269444
334,1778316946.6430762,-0.8710264,-0.8863322,-0.49960235,-0.82253003,0.5346598,-0.86269444
335,1778316946.6533592,-0.8710264,-0.8863322,-0.49960235,-0.82253003,0.5346598,-0.86269444
336,1778316946.6628544,-0.8710264,-0.8863322,-0.49960235,-0.82253003,0.5346598,-0.86269444
337,1778316946.673094,-0.8710264,-0.8863322,-0.49960235,-0.82253003,0.5346598,-0.86269444
338,1778316946.683155,-0.8710264,-0.8863322,-0.49960235,-0.82253003,0.5346598,-0.86269444
339,1778316946.6931415,-0.8710264,-0.8863322,-0.49960235,-0.82253003,0.5346598,-0.86269444
340,1778316946.7026489,-0.8710264,-0.8863322,-0.49960235,-0.82253003,0.5346598,-0.86269444
341,1778316946.7127566,-0.8710264,-0.8863322,-0.49960235,-0.82253003,0.5346598,-0.86269444
342,1778316946.7228353,-0.8710264,-0.8863322,-0.49960235,-0.82253003,0.5346598,-0.86269444
343,1778316946.7327886,-0.8710264,-0.8863322,-0.49960235,-0.82253003,0.5346598,-0.86269444
344,1778316946.7428885,-0.8710264,-0.8863322,-0.49960235,-0.82253003,0.5346598,-0.86269444
345,1778316946.753038,-0.8710264,-0.8863322,-0.49960235,-0.82253003,0.5346598,-0.86269444
346,1778316946.7630007,-0.8710264,-0.8863322,-0.49960235,-0.82253003,0.5346598,-0.86269444
347,1778316946.7728033,-0.8710264,-0.8863322,-0.49960235,-0.82253003,0.5346598,-0.86269444
348,1778316946.782984,-0.8710264,-0.8863322,-0.49960235,-0.82253003,0.5346598,-0.86269444
349,1778316946.7933025,-0.8710264,-0.8863322,-0.49960235,-0.82253003,0.5346598,-0.86269444
350,1778316946.803051,-0.8710264,-0.8863322,-0.49960235,-0.82253003,0.5346598,-0.86269444
351,1778316946.812962,-0.8710264,-0.8863322,-0.49960235,-0.82253003,0.5346598,-0.86269444
352,1778316946.8231187,-0.8710264,-0.8863322,-0.49960235,-0.82253003,0.5346598,-0.86269444
353,1778316946.8330014,-0.8710264,-0.8863322,-0.49960235,-0.82253003,0.5346598,-0.86269444
354,1778316946.842685,-0.8710264,-0.8863322,-0.49960235,-0.82253003,0.5346598,-0.86269444
355,1778316946.8531008,-0.8710264,-0.8863322,-0.49960235,-0.82253003,0.5346598,-0.86269444
356,1778316946.8625426,-0.8710264,-0.8863322,-0.49960235,-0.82253003,0.5346598,-0.86269444
357,1778316946.8729508,-0.8710264,-0.8863322,-0.49960235,-0.82253003,0.5346598,-0.86269444
358,1778316946.882553,-0.8710264,-0.8863322,-0.49960235,-0.82253003,0.5346598,-0.86269444
359,1778316946.8926737,-0.8710264,-0.8863322,-0.49960235,-0.82253003,0.5346598,-0.86269444
360,1778316946.9028683,-0.8710264,-0.8863322,-0.49960235,-0.82253003,0.5346598,-0.86269444
361,1778316946.9132383,-0.8710264,-0.8863322,-0.49960235,-0.82253003,0.5346598,-0.86269444
362,1778316946.9226422,-0.8710264,-0.8863322,-0.49960235,-0.82253003,0.5346598,-0.86269444
363,1778316946.9327211,-0.8710264,-0.8863322,-0.49960235,-0.82253003,0.5346598,-0.86269444
364,1778316946.9430802,-0.8710264,-0.8863322,-0.49960235,-0.82253003,0.5346598,-0.86269444
365,1778316946.9526746,-0.8710264,-0.8863322,-0.49960235,-0.82253003,0.5346598,-0.86269444
366,1778316946.9627538,-0.8710264,-0.8863322,-0.49960235,-0.82253003,0.5346598,-0.86269444
367,1778316946.9728718,-0.8710264,-0.8863322,-0.49960235,-0.82253003,0.5346598,-0.86269444
368,1778316946.9828887,-0.8710264,-0.8863322,-0.49960235,-0.82253003,0.5346598,-0.86269444
369,1778316946.9927797,-0.8710264,-0.8863322,-0.49960235,-0.82253003,0.5346598,-0.86269444
370,1778316947.0029697,-0.8710264,-0.8863322,-0.49960235,-0.82253003,0.5346598,-0.86269444
371,1778316947.013076,-0.8710264,-0.8863322,-0.49960235,-0.82253003,0.5346598,-0.86269444
372,1778316947.022649,-0.8710264,-0.8863322,-0.49960235,-0.82253003,0.5346598,-0.86269444
373,1778316947.032531,-0.8710264,-0.8863322,-0.49960235,-0.82253003,0.5346598,-0.86269444
374,1778316947.0427465,-0.8710264,-0.8863322,-0.49960235,-0.82253003,0.5346598,-0.86269444
375,1778316947.0530624,-0.8710264,-0.8863322,-0.49960235,-0.82253003,0.5346598,-0.86269444
376,1778316947.062538,-0.8710264,-0.8863322,-0.49960235,-0.82253003,0.5346598,-0.86269444
377,1778316947.073388,-0.8710264,-0.8863322,-0.49960235,-0.82253003,0.5346598,-0.86269444
378,1778316947.0826378,-0.8710264,-0.8863322,-0.49960235,-0.82253003,0.5346598,-0.86269444
379,1778316947.092803,-0.8710264,-0.8863322,-0.49960235,-0.82253003,0.5346598,-0.86269444
380,1778316947.102949,-0.8710264,-0.8863322,-0.49960235,-0.82253003,0.5346598,-0.86269444
381,1778316947.112562,-0.8710264,-0.8863322,-0.49960235,-0.82253003,0.5346598,-0.86269444
382,1778316947.1231918,-0.8710264,-0.8863322,-0.49960235,-0.82253003,0.5346598,-0.86269444
383,1778316947.133025,-0.8710264,-0.8863322,-0.49960235,-0.82253003,0.5346598,-0.86269444
384,1778316947.14282,-0.8710264,-0.8863322,-0.49960235,-0.82253003,0.5346598,-0.86269444
385,1778316947.1531024,-0.8710264,-0.8863322,-0.49960235,-0.82253003,0.5346598,-0.86269444
386,1778316947.1626103,-0.8710264,-0.8863322,-0.49960235,-0.82253003,0.5346598,-0.86269444
387,1778316947.1725922,-0.8710264,-0.8863322,-0.49960235,-0.82253003,0.5346598,-0.86269444
388,1778316947.1828358,-0.8710264,-0.8863322,-0.49960235,-0.82253003,0.5346598,-0.86269444
389,1778316947.1928666,-0.8710264,-0.8863322,-0.49960235,-0.82253003,0.5346598,-0.86269444
390,1778316947.2029586,-0.8710264,-0.8863322,-0.49960235,-0.82253003,0.5346598,-0.86269444
391,1778316947.2126703,-0.8710264,-0.8863322,-0.49960235,-0.82253003,0.5346598,-0.86269444
392,1778316947.222923,-0.8710264,-0.8863322,-0.49960235,-0.82253003,0.5346598,-0.86269444
393,1778316947.2328534,-0.8710264,-0.8863322,-0.49960235,-0.82253003,0.5346598,-0.86269444
394,1778316947.2427888,-0.8710264,-0.8863322,-0.49960235,-0.82253003,0.5346598,-0.86269444
395,1778316947.2531996,-0.8710264,-0.8863322,-0.49960235,-0.82253003,0.5346598,-0.86269444
396,1778316947.2631474,-0.8710264,-0.8863322,-0.49960235,-0.82253003,0.5346598,-0.86269444
397,1778316947.2731748,-0.8710264,-0.8863322,-0.49960235,-0.82253003,0.5346598,-0.86269444
398,1778316947.283142,-0.8710264,-0.8863322,-0.49960235,-0.82253003,0.5346598,-0.86269444
399,1778316947.2931862,-0.8710264,-0.8863322,-0.49960235,-0.82253003,0.5346598,-0.86269444
400,1778316947.303077,-0.8710264,-0.8863322,-0.49960235,-0.82253003,0.5346598,-0.86269444
401,1778316947.3126369,-0.8710264,-0.8863322,-0.49960235,-0.82253003,0.5346598,-0.86269444
402,1778316947.323148,-0.8710264,-0.8863322,-0.49960235,-0.82253003,0.5346598,-0.86269444
403,1778316947.3329806,-0.8710264,-0.8863322,-0.49960235,-0.82253003,0.5346598,-0.86269444
404,1778316947.3429656,-0.8710264,-0.8863322,-0.49960235,-0.82253003,0.5346598,-0.86269444
405,1778316947.3529756,-0.8710264,-0.8863322,-0.49960235,-0.82253003,0.5346598,-0.86269444
406,1778316947.3626916,-0.8710264,-0.8863322,-0.49960235,-0.82253003,0.5346598,-0.86269444
407,1778316947.372561,-0.8710264,-0.8863322,-0.49960235,-0.82253003,0.5346598,-0.86269444
408,1778316947.3828971,-0.8710264,-0.8863322,-0.49960235,-0.82253003,0.5346598,-0.86269444
409,1778316947.3930163,-0.8710264,-0.8863322,-0.49960235,-0.82253003,0.5346598,-0.86269444
410,1778316947.4029682,-0.8710264,-0.8863322,-0.49960235,-0.82253003,0.5346598,-0.86269444
411,1778316947.4126947,-0.8710264,-0.8863322,-0.49960235,-0.82253003,0.5346598,-0.86269444
412,1778316947.422689,-0.8710264,-0.8863322,-0.49960235,-0.82253003,0.5346598,-0.86269444
413,1778316947.4326887,-0.8710264,-0.8863322,-0.49960235,-0.82253003,0.5346598,-0.86269444
414,1778316947.442833,-0.8710264,-0.8863322,-0.49960235,-0.82253003,0.5346598,-0.86269444
415,1778316947.4530857,-0.8710264,-0.8863322,-0.49960235,-0.82253003,0.5346598,-0.86269444
416,1778316947.4627666,-0.8710264,-0.8863322,-0.49960235,-0.82253003,0.5346598,-0.86269444
417,1778316947.473045,-0.8710264,-0.8863322,-0.49960235,-0.82253003,0.5346598,-0.86269444
418,1778316947.4831026,-0.8710264,-0.8863322,-0.49960235,-0.82253003,0.5346598,-0.86269444
419,1778316947.4931502,-0.8710264,-0.8863322,-0.49960235,-0.82253003,0.5346598,-0.86269444
420,1778316947.5031548,-0.8710264,-0.8863322,-0.49960235,-0.82253003,0.5346598,-0.86269444
421,1778316947.512724,-0.8710264,-0.8863322,-0.49960235,-0.82253003,0.5346598,-0.86269444
422,1778316947.5229921,-0.8710264,-0.8863322,-0.49960235,-0.82253003,0.5346598,-0.86269444
423,1778316947.5330794,-0.8710264,-0.8863322,-0.49960235,-0.82253003,0.5346598,-0.86269444
424,1778316947.5425956,-0.8710264,-0.8863322,-0.49960235,-0.82253003,0.5346598,-0.86269444
425,1778316947.5528028,-0.8710264,-0.8863322,-0.49960235,-0.82253003,0.5346598,-0.86269444
426,1778316947.5628648,-0.8710264,-0.8863322,-0.49960235,-0.82253003,0.5346598,-0.86269444
427,1778316947.5731025,-0.8710264,-0.8863322,-0.49960235,-0.82253003,0.5346598,-0.86269444
428,1778316947.5830662,-0.8710264,-0.8863322,-0.49960235,-0.82253003,0.5346598,-0.86269444
429,1778316947.5932555,-0.8710264,-0.8863322,-0.49960235,-0.82253003,0.5346598,-0.86269444
430,1778316947.6031444,-0.8710264,-0.8863322,-0.49960235,-0.82253003,0.5346598,-0.86269444
431,1778316947.6127703,-0.8710264,-0.8863322,-0.49960235,-0.82253003,0.5346598,-0.86269444
432,1778316947.6228905,-0.8710264,-0.8863322,-0.49960235,-0.82253003,0.5346598,-0.86269444
433,1778316947.632622,-0.8710264,-0.8863322,-0.49960235,-0.82253003,0.5346598,-0.86269444
434,1778316947.642891,-0.8710264,-0.8863322,-0.49960235,-0.82253003,0.5346598,-0.86269444
435,1778316947.652971,-0.8710264,-0.8863322,-0.49960235,-0.82253003,0.5346598,-0.86269444
436,1778316947.662799,-0.8710264,-0.8863322,-0.49960235,-0.82253003,0.5346598,-0.86269444
437,1778316947.6725628,-0.8710264,-0.8863322,-0.49960235,-0.82253003,0.5346598,-0.86269444
438,1778316947.6827235,-0.8710264,-0.8863322,-0.49960235,-0.82253003,0.5346598,-0.86269444
439,1778316947.693,-0.8710264,-0.8863322,-0.49960235,-0.82253003,0.5346598,-0.86269444
440,1778316947.7027853,-0.8710264,-0.8863322,-0.49960235,-0.82253003,0.5346598,-0.86269444
441,1778316947.7128391,-0.8710264,-0.8863322,-0.49960235,-0.82253003,0.5346598,-0.86269444
442,1778316947.7231243,-0.8710264,-0.8863322,-0.49960235,-0.82253003,0.5346598,-0.86269444
443,1778316947.7326415,-0.8710264,-0.8863322,-0.49960235,-0.82253003,0.5346598,-0.86269444
444,1778316947.7426286,-0.8710264,-0.8863322,-0.49960235,-0.82253003,0.5346598,-0.86269444
445,1778316947.7529402,-0.8710264,-0.8863322,-0.49960235,-0.82253003,0.5346598,-0.86269444
446,1778316947.7629085,-0.8710264,-0.8863322,-0.49960235,-0.82253003,0.5346598,-0.86269444
447,1778316947.7732267,-0.8710264,-0.8863322,-0.49960235,-0.82253003,0.5346598,-0.86269444
448,1778316947.7829535,-0.8710264,-0.8863322,-0.49960235,-0.82253003,0.5346598,-0.86269444
449,1778316947.792695,-0.8710264,-0.8863322,-0.49960235,-0.82253003,0.5346598,-0.86269444
450,1778316947.803114,-0.8710264,-0.8863322,-0.49960235,-0.82253003,0.5346598,-0.86269444
451,1778316947.8127239,-0.8710264,-0.8863322,-0.49960235,-0.82253003,0.5346598,-0.86269444
452,1778316947.822841,-0.8710264,-0.8863322,-0.49960235,-0.82253003,0.5346598,-0.86269444
453,1778316947.832972,-0.8710264,-0.8863322,-0.49960235,-0.82253003,0.5346598,-0.86269444
454,1778316947.8426828,-0.8710264,-0.8863322,-0.49960235,-0.82253003,0.5346598,-0.86269444
455,1778316947.852907,-0.8710264,-0.8863322,-0.49960235,-0.82253003,0.5346598,-0.86269444
456,1778316947.863065,-0.8710264,-0.8863322,-0.49960235,-0.82253003,0.5346598,-0.86269444
457,1778316947.8730094,-0.8710264,-0.8863322,-0.49960235,-0.82253003,0.5346598,-0.86269444
458,1778316947.8830342,-0.8710264,-0.8863322,-0.49960235,-0.82253003,0.5346598,-0.86269444
459,1778316947.893397,-0.8710264,-0.8863322,-0.49960235,-0.82253003,0.5346598,-0.86269444
460,1778316947.9028091,-0.8710264,-0.8863322,-0.49960235,-0.82253003,0.5346598,-0.86269444
461,1778316947.9128566,-0.8710264,-0.8863322,-0.49960235,-0.82253003,0.5346598,-0.86269444
462,1778316947.923122,-0.8710264,-0.8863322,-0.49960235,-0.82253003,0.5346598,-0.86269444
463,1778316947.932784,-0.8710264,-0.8863322,-0.49960235,-0.82253003,0.5346598,-0.86269444
464,1778316947.9433532,-0.8710264,-0.8863322,-0.49960235,-0.82253003,0.5346598,-0.86269444
465,1778316947.95275,-0.8710264,-0.8863322,-0.49960235,-0.82253003,0.5346598,-0.86269444
466,1778316947.9633493,-0.8710264,-0.8863322,-0.49960235,-0.82253003,0.5346598,-0.86269444
467,1778316947.9727752,-0.8710264,-0.8863322,-0.49960235,-0.82253003,0.5346598,-0.86269444
468,1778316947.9830782,-0.8710264,-0.8863322,-0.49960235,-0.82253003,0.5346598,-0.86269444
469,1778316947.9925492,-0.8710264,-0.8863322,-0.49960235,-0.82253003,0.5346598,-0.86269444
470,1778316948.002791,-0.8710264,-0.8863322,-0.49960235,-0.82253003,0.5346598,-0.86269444
471,1778316948.0127616,-0.8710264,-0.8863322,-0.49960235,-0.82253003,0.5346598,-0.86269444
472,1778316948.022668,-0.8710264,-0.8863322,-0.49960235,-0.82253003,0.5346598,-0.86269444
473,1778316948.0325665,-0.8710264,-0.8863322,-0.49960235,-0.82253003,0.5346598,-0.86269444
474,1778316948.0430186,-0.8710264,-0.8863322,-0.49960235,-0.82253003,0.5346598,-0.86269444
475,1778316948.0530286,-0.8710264,-0.8863322,-0.49960235,-0.82253003,0.5346598,-0.86269444
476,1778316948.0627766,-0.8710264,-0.8863322,-0.49960235,-0.82253003,0.5346598,-0.86269444
477,1778316948.0729504,-0.8710264,-0.8863322,-0.49960235,-0.82253003,0.5346598,-0.86269444
478,1778316948.0830657,-0.8710264,-0.8863322,-0.49960235,-0.82253003,0.5346598,-0.86269444
479,1778316948.0933068,-0.8710264,-0.8863322,-0.49960235,-0.82253003,0.5346598,-0.86269444
480,1778316948.1025438,-0.8710264,-0.8863322,-0.49960235,-0.82253003,0.5346598,-0.86269444
481,1778316948.112853,-0.8710264,-0.8863322,-0.49960235,-0.82253003,0.5346598,-0.86269444
482,1778316948.1226056,-0.8710264,-0.8863322,-0.49960235,-0.82253003,0.5346598,-0.86269444
483,1778316948.1333635,-0.8710264,-0.8863322,-0.49960235,-0.82253003,0.5346598,-0.86269444
484,1778316948.1431644,-0.8710264,-0.8863322,-0.49960235,-0.82253003,0.5346598,-0.86269444
485,1778316948.1531315,-0.8710264,-0.8863322,-0.49960235,-0.82253003,0.5346598,-0.86269444
486,1778316948.1625946,-0.8710264,-0.8863322,-0.49960235,-0.82253003,0.5346598,-0.86269444
487,1778316948.1728199,-0.8710264,-0.8863322,-0.49960235,-0.82253003,0.5346598,-0.86269444
488,1778316948.1830134,-0.8710264,-0.8863322,-0.49960235,-0.82253003,0.5346598,-0.86269444
489,1778316948.1931348,-0.8710264,-0.8863322,-0.49960235,-0.82253003,0.5346598,-0.86269444
490,1778316948.2026694,-0.8710264,-0.8863322,-0.49960235,-0.82253003,0.5346598,-0.86269444
491,1778316948.2129672,-0.8710264,-0.8863322,-0.49960235,-0.82253003,0.5346598,-0.86269444
492,1778316948.2227383,-0.8710264,-0.8863322,-0.49960235,-0.82253003,0.5346598,-0.86269444
493,1778316948.2326465,-0.8710264,-0.8863322,-0.49960235,-0.82253003,0.5346598,-0.86269444
494,1778316948.2427437,-0.8710264,-0.8863322,-0.49960235,-0.82253003,0.5346598,-0.86269444
495,1778316948.2531173,-0.8710264,-0.8863322,-0.49960235,-0.82253003,0.5346598,-0.86269444
496,1778316948.26279,-0.8710264,-0.8863322,-0.49960235,-0.82253003,0.5346598,-0.86269444
497,1778316948.2728782,-0.8710264,-0.8863322,-0.49960235,-0.82253003,0.5346598,-0.86269444
498,1778316948.2825756,-0.8710264,-0.8863322,-0.49960235,-0.82253003,0.5346598,-0.86269444
499,1778316948.293215,-0.8710264,-0.8863322,-0.49960235,-0.82253003,0.5346598,-0.86269444
500,1778316948.3031058,-0.8710264,-0.8863322,-0.49960235,-0.82253003,0.5346598,-0.86269444
501,1778316948.3127575,-0.8710264,-0.8863322,-0.49960235,-0.82253003,0.5346598,-0.86269444
502,1778316948.323159,-0.8710264,-0.8863322,-0.49960235,-0.82253003,0.5346598,-0.86269444
503,1778316948.333161,-0.8710264,-0.8863322,-0.49960235,-0.82253003,0.5346598,-0.86269444
504,1778316948.3427536,-0.8710264,-0.8863322,-0.49960235,-0.82253003,0.5346598,-0.86269444
505,1778316948.3528857,-0.8710264,-0.8863322,-0.49960235,-0.82253003,0.5346598,-0.86269444
506,1778316948.3630445,-0.8710264,-0.8863322,-0.49960235,-0.82253003,0.5346598,-0.86269444
507,1778316948.3732371,-0.8710264,-0.8863322,-0.49960235,-0.82253003,0.5346598,-0.86269444
508,1778316948.382709,-0.8710264,-0.8863322,-0.49960235,-0.82253003,0.5346598,-0.86269444
509,1778316948.393146,-0.8710264,-0.8863322,-0.49960235,-0.82253003,0.5346598,-0.86269444
510,1778316948.402794,-0.8710264,-0.8863322,-0.49960235,-0.82253003,0.5346598,-0.86269444
511,1778316948.4129148,-0.8710264,-0.8863322,-0.49960235,-0.82253003,0.5346598,-0.86269444
512,1778316948.4230807,-0.8710264,-0.8863322,-0.49960235,-0.82253003,0.5346598,-0.86269444
513,1778316948.4326377,-0.8710264,-0.8863322,-0.49960235,-0.82253003,0.5346598,-0.86269444
514,1778316948.4433224,-0.8710264,-0.8863322,-0.49960235,-0.82253003,0.5346598,-0.86269444
515,1778316948.4531136,-0.8710264,-0.8863322,-0.49960235,-0.82253003,0.5346598,-0.86269444
516,1778316948.4628642,-0.8710264,-0.8863322,-0.49960235,-0.82253003,0.5346598,-0.86269444
517,1778316948.4730031,-0.8710264,-0.8863322,-0.49960235,-0.82253003,0.5346598,-0.86269444
518,1778316948.4827015,-0.8710264,-0.8863322,-0.49960235,-0.82253003,0.5346598,-0.86269444
519,1778316948.493091,-0.8710264,-0.8863322,-0.49960235,-0.82253003,0.5346598,-0.86269444
520,1778316948.5031264,-0.8710264,-0.8863322,-0.49960235,-0.82253003,0.5346598,-0.86269444
521,1778316948.5129972,-0.8710264,-0.8863322,-0.49960235,-0.82253003,0.5346598,-0.86269444
522,1778316948.52324,-0.8710264,-0.8863322,-0.49960235,-0.82253003,0.5346598,-0.86269444
523,1778316948.5327835,-0.8710264,-0.8863322,-0.49960235,-0.82253003,0.5346598,-0.86269444
524,1778316948.5430315,-0.8710264,-0.8863322,-0.49960235,-0.82253003,0.5346598,-0.86269444
525,1778316948.5530615,-0.8710264,-0.8863322,-0.49960235,-0.82253003,0.5346598,-0.86269444
526,1778316948.5629358,-0.8710264,-0.8863322,-0.49960235,-0.82253003,0.5346598,-0.86269444
527,1778316948.5727336,-0.8710264,-0.8863322,-0.49960235,-0.82253003,0.5346598,-0.86269444
528,1778316948.5829387,-0.8710264,-0.8863322,-0.49960235,-0.82253003,0.5346598,-0.86269444
529,1778316948.59258,-0.8710264,-0.8863322,-0.49960235,-0.82253003,0.5346598,-0.86269444
530,1778316948.6028447,-0.8710264,-0.8863322,-0.49960235,-0.82253003,0.5346598,-0.86269444
531,1778316948.61291,-0.8710264,-0.8863322,-0.49960235,-0.82253003,0.5346598,-0.86269444
532,1778316948.6229131,-0.8710264,-0.8863322,-0.49960235,-0.82253003,0.5346598,-0.86269444
533,1778316948.6329205,-0.8710264,-0.8863322,-0.49960235,-0.82253003,0.5346598,-0.86269444
534,1778316948.6430264,-0.8710264,-0.8863322,-0.49960235,-0.82253003,0.5346598,-0.86269444
535,1778316948.652595,-0.8710264,-0.8863322,-0.49960235,-0.82253003,0.5346598,-0.86269444
536,1778316948.662655,-0.8710264,-0.8863322,-0.49960235,-0.82253003,0.5346598,-0.86269444
537,1778316948.6731122,-0.8710264,-0.8863322,-0.49960235,-0.82253003,0.5346598,-0.86269444
538,1778316948.6830962,-0.8710264,-0.8863322,-0.49960235,-0.82253003,0.5346598,-0.86269444
539,1778316948.6934218,-0.8710264,-0.8863322,-0.49960235,-0.82253003,0.5346598,-0.86269444
540,1778316948.7027247,-0.8710264,-0.8863322,-0.49960235,-0.82253003,0.5346598,-0.86269444
541,1778316948.7128563,-0.8710264,-0.8863322,-0.49960235,-0.82253003,0.5346598,-0.86269444
542,1778316948.7229655,-0.8710264,-0.8863322,-0.49960235,-0.82253003,0.5346598,-0.86269444
543,1778316948.732839,-0.8710264,-0.8863322,-0.49960235,-0.82253003,0.5346598,-0.86269444
544,1778316948.743311,-0.8710264,-0.8863322,-0.49960235,-0.82253003,0.5346598,-0.86269444
545,1778316948.7525716,-0.8710264,-0.8863322,-0.49960235,-0.82253003,0.5346598,-0.86269444
546,1778316948.7626405,-0.8710264,-0.8863322,-0.49960235,-0.82253003,0.5346598,-0.86269444
547,1778316948.7726994,-0.8710264,-0.8863322,-0.49960235,-0.82253003,0.5346598,-0.86269444
548,1778316948.7826679,-0.8710264,-0.8863322,-0.49960235,-0.82253003,0.5346598,-0.86269444
549,1778316948.7933812,-0.8710264,-0.8863322,-0.49960235,-0.82253003,0.5346598,-0.86269444
550,1778316948.8026142,-0.8710264,-0.8863322,-0.49960235,-0.82253003,0.5346598,-0.86269444
551,1778316948.8128865,-0.8710264,-0.8863322,-0.49960235,-0.82253003,0.5346598,-0.86269444
552,1778316948.8230476,-0.8710264,-0.8863322,-0.49960235,-0.82253003,0.5346598,-0.86269444
553,1778316948.8328018,-0.8710264,-0.8863322,-0.49960235,-0.82253003,0.5346598,-0.86269444
554,1778316948.8434014,-0.8710264,-0.8863322,-0.49960235,-0.82253003,0.5346598,-0.86269444
555,1778316948.8526359,-0.8710264,-0.8863322,-0.49960235,-0.82253003,0.5346598,-0.86269444
556,1778316948.8629148,-0.8710264,-0.8863322,-0.49960235,-0.82253003,0.5346598,-0.86269444
557,1778316948.8729856,-0.8710264,-0.8863322,-0.49960235,-0.82253003,0.5346598,-0.86269444
558,1778316948.882767,-0.8710264,-0.8863322,-0.49960235,-0.82253003,0.5346598,-0.86269444
559,1778316948.892951,-0.8710264,-0.8863322,-0.49960235,-0.82253003,0.5346598,-0.86269444
560,1778316948.9031322,-0.8710264,-0.8863322,-0.49960235,-0.82253003,0.5346598,-0.86269444
561,1778316948.9130397,-0.8710264,-0.8863322,-0.49960235,-0.82253003,0.5346598,-0.86269444
562,1778316948.9231722,-0.8710264,-0.8863322,-0.49960235,-0.82253003,0.5346598,-0.86269444
563,1778316948.9326353,-0.8710264,-0.8863322,-0.49960235,-0.82253003,0.5346598,-0.86269444
564,1778316948.9432552,-0.8710264,-0.8863322,-0.49960235,-0.82253003,0.5346598,-0.86269444
565,1778316948.9525976,-0.8710264,-0.8863322,-0.49960235,-0.82253003,0.5346598,-0.86269444
566,1778316948.963346,-0.8710264,-0.8863322,-0.49960235,-0.82253003,0.5346598,-0.86269444
567,1778316948.9727488,-0.8710264,-0.8863322,-0.49960235,-0.82253003,0.5346598,-0.86269444
568,1778316948.9826748,-0.8710264,-0.8863322,-0.49960235,-0.82253003,0.5346598,-0.86269444
569,1778316948.9929628,-0.8710264,-0.8863322,-0.49960235,-0.82253003,0.5346598,-0.86269444
570,1778316949.0030181,-0.8710264,-0.8863322,-0.49960235,-0.82253003,0.5346598,-0.86269444
571,1778316949.0126526,-0.8710264,-0.8863322,-0.49960235,-0.82253003,0.5346598,-0.86269444
572,1778316949.0228386,-0.8710264,-0.8863322,-0.49960235,-0.82253003,0.5346598,-0.86269444
573,1778316949.0327985,-0.8710264,-0.8863322,-0.49960235,-0.82253003,0.5346598,-0.86269444
574,1778316949.0426543,-0.8710264,-0.8863322,-0.49960235,-0.82253003,0.5346598,-0.86269444
575,1778316949.0528436,-0.8710264,-0.8863322,-0.49960235,-0.82253003,0.5346598,-0.86269444
576,1778316949.063005,-0.8710264,-0.8863322,-0.49960235,-0.82253003,0.5346598,-0.86269444
577,1778316949.073107,-0.8710264,-0.8863322,-0.49960235,-0.82253003,0.5346598,-0.86269444
578,1778316949.0825357,-0.8710264,-0.8863322,-0.49960235,-0.82253003,0.5346598,-0.86269444
579,1778316949.092654,-0.8710264,-0.8863322,-0.49960235,-0.82253003,0.5346598,-0.86269444
580,1778316949.1025443,-0.8710264,-0.8863322,-0.49960235,-0.82253003,0.5346598,-0.86269444
581,1778316949.1129801,-0.8710264,-0.8863322,-0.49960235,-0.82253003,0.5346598,-0.86269444
582,1778316949.1230657,-0.8710264,-0.8863322,-0.49960235,-0.82253003,0.5346598,-0.86269444
583,1778316949.1331565,-0.8710264,-0.8863322,-0.49960235,-0.82253003,0.5346598,-0.86269444
584,1778316949.1426797,-0.8710264,-0.8863322,-0.49960235,-0.82253003,0.5346598,-0.86269444
585,1778316949.1525729,-0.8710264,-0.8863322,-0.49960235,-0.82253003,0.5346598,-0.86269444
586,1778316949.163078,-0.8710264,-0.8863322,-0.49960235,-0.82253003,0.5346598,-0.86269444
587,1778316949.1731527,-0.8710264,-0.8863322,-0.49960235,-0.82253003,0.5346598,-0.86269444
588,1778316949.1827753,-0.8710264,-0.8863322,-0.49960235,-0.82253003,0.5346598,-0.86269444
589,1778316949.193121,-0.8710264,-0.8863322,-0.49960235,-0.82253003,0.5346598,-0.86269444
590,1778316949.2027094,-0.8710264,-0.8863322,-0.49960235,-0.82253003,0.5346598,-0.86269444
591,1778316949.2128346,-0.8710264,-0.8863322,-0.49960235,-0.82253003,0.5346598,-0.86269444
592,1778316949.2229302,-0.8710264,-0.8863322,-0.49960235,-0.82253003,0.5346598,-0.86269444
593,1778316949.2326126,-0.8710264,-0.8863322,-0.49960235,-0.82253003,0.5346598,-0.86269444
594,1778316949.2430525,-0.8710264,-0.8863322,-0.49960235,-0.82253003,0.5346598,-0.86269444
595,1778316949.2525733,-0.8710264,-0.8863322,-0.49960235,-0.82253003,0.5346598,-0.86269444
596,1778316949.2628138,-0.8710264,-0.8863322,-0.49960235,-0.82253003,0.5346598,-0.86269444
597,1778316949.273088,-0.8710264,-0.8863322,-0.49960235,-0.82253003,0.5346598,-0.86269444
598,1778316949.2826002,-0.8710264,-0.8863322,-0.49960235,-0.82253003,0.5346598,-0.86269444
599,1778316949.293185,-0.8710264,-0.8863322,-0.49960235,-0.82253003,0.5346598,-0.86269444
600,1778316949.3026211,-0.8710264,-0.8863322,-0.49960235,-0.82253003,0.5346598,-0.86269444
601,1778316949.3129077,-0.8710264,-0.8863322,-0.49960235,-0.82253003,0.5346598,-0.86269444
602,1778316949.3225687,-0.8710264,-0.8863322,-0.49960235,-0.82253003,0.5346598,-0.86269444
603,1778316949.333183,-0.8710264,-0.8863322,-0.49960235,-0.82253003,0.5346598,-0.86269444
604,1778316949.342624,-0.8710264,-0.8863322,-0.49960235,-0.82253003,0.5346598,-0.86269444
605,1778316949.3530147,-0.8710264,-0.8863322,-0.49960235,-0.82253003,0.5346598,-0.86269444
606,1778316949.3631463,-0.8710264,-0.8863322,-0.49960235,-0.82253003,0.5346598,-0.86269444
607,1778316949.3726199,-0.8710264,-0.8863322,-0.49960235,-0.82253003,0.5346598,-0.86269444
608,1778316949.3827262,-0.8710264,-0.8863322,-0.49960235,-0.82253003,0.5346598,-0.86269444
609,1778316949.3928442,-0.8710264,-0.8863322,-0.49960235,-0.82253003,0.5346598,-0.86269444
610,1778316949.4030533,-0.8710264,-0.8863322,-0.49960235,-0.82253003,0.5346598,-0.86269444
611,1778316949.4131205,-0.8710264,-0.8863322,-0.49960235,-0.82253003,0.5346598,-0.86269444
612,1778316949.4229062,-0.8710264,-0.8863322,-0.49960235,-0.82253003,0.5346598,-0.86269444
613,1778316949.4328084,-0.8710264,-0.8863322,-0.49960235,-0.82253003,0.5346598,-0.86269444
614,1778316949.4434323,-0.8710264,-0.8863322,-0.49960235,-0.82253003,0.5346598,-0.86269444
615,1778316949.4530108,-0.8710264,-0.8863322,-0.49960235,-0.82253003,0.5346598,-0.86269444
616,1778316949.4628084,-0.8710264,-0.8863322,-0.49960235,-0.82253003,0.5346598,-0.86269444
617,1778316949.4730308,-0.8710264,-0.8863322,-0.49960235,-0.82253003,0.5346598,-0.86269444
618,1778316949.4825325,-0.8710264,-0.8863322,-0.49960235,-0.82253003,0.5346598,-0.86269444
619,1778316949.4925878,-0.8710264,-0.8863322,-0.49960235,-0.82253003,0.5346598,-0.86269444
620,1778316949.5031972,-0.8710264,-0.8863322,-0.49960235,-0.82253003,0.5346598,-0.86269444
621,1778316949.5130107,-0.8710264,-0.8863322,-0.49960235,-0.82253003,0.5346598,-0.86269444
622,1778316949.522554,-0.8710264,-0.8863322,-0.49960235,-0.82253003,0.5346598,-0.86269444
623,1778316949.5328338,-0.8710264,-0.8863322,-0.49960235,-0.82253003,0.5346598,-0.86269444
624,1778316949.5425735,-0.8710264,-0.8863322,-0.49960235,-0.82253003,0.5346598,-0.86269444
625,1778316949.5530221,-0.8710264,-0.8863322,-0.49960235,-0.82253003,0.5346598,-0.86269444
626,1778316949.5628457,-0.8710264,-0.8863322,-0.49960235,-0.82253003,0.5346598,-0.86269444
627,1778316949.5726628,-0.8710264,-0.8863322,-0.49960235,-0.82253003,0.5346598,-0.86269444
628,1778316949.5832186,-0.8710264,-0.8863322,-0.49960235,-0.82253003,0.5346598,-0.86269444
629,1778316949.5929327,-0.8710264,-0.8863322,-0.49960235,-0.82253003,0.5346598,-0.86269444
630,1778316949.6030426,-0.8710264,-0.8863322,-0.49960235,-0.82253003,0.5346598,-0.86269444
631,1778316949.6132483,-0.8710264,-0.8863322,-0.49960235,-0.82253003,0.5346598,-0.86269444
632,1778316949.622986,-0.8710264,-0.8863322,-0.49960235,-0.82253003,0.5346598,-0.86269444
633,1778316949.633249,-0.8710264,-0.8863322,-0.49960235,-0.82253003,0.5346598,-0.86269444
634,1778316949.6428318,-0.8710264,-0.8863322,-0.49960235,-0.82253003,0.5346598,-0.86269444
635,1778316949.65333,-0.8710264,-0.8863322,-0.49960235,-0.82253003,0.5346598,-0.86269444
636,1778316949.6626318,-0.8710264,-0.8863322,-0.49960235,-0.82253003,0.5346598,-0.86269444
637,1778316949.6725602,-0.8710264,-0.8863322,-0.49960235,-0.82253003,0.5346598,-0.86269444
638,1778316949.6825655,-0.8710264,-0.8863322,-0.49960235,-0.82253003,0.5346598,-0.86269444
639,1778316949.6928391,-0.8710264,-0.8863322,-0.49960235,-0.82253003,0.5346598,-0.86269444
640,1778316949.7025397,-0.8710264,-0.8863322,-0.49960235,-0.82253003,0.5346598,-0.86269444
641,1778316949.7129617,-0.8710264,-0.8863322,-0.49960235,-0.82253003,0.5346598,-0.86269444
642,1778316949.7232795,-0.8710264,-0.8863322,-0.49960235,-0.82253003,0.5346598,-0.86269444
643,1778316949.7326183,-0.8710264,-0.8863322,-0.49960235,-0.82253003,0.5346598,-0.86269444
644,1778316949.742708,-0.8710264,-0.8863322,-0.49960235,-0.82253003,0.5346598,-0.86269444
645,1778316949.7530782,-0.8710264,-0.8863322,-0.49960235,-0.82253003,0.5346598,-0.86269444
646,1778316949.7627404,-0.8710264,-0.8863322,-0.49960235,-0.82253003,0.5346598,-0.86269444
647,1778316949.7728627,-0.8710264,-0.8863322,-0.49960235,-0.82253003,0.5346598,-0.86269444
648,1778316949.7830553,-0.8710264,-0.8863322,-0.49960235,-0.82253003,0.5346598,-0.86269444
649,1778316949.7925708,-0.8710264,-0.8863322,-0.49960235,-0.82253003,0.5346598,-0.86269444
650,1778316949.8030856,-0.8710264,-0.8863322,-0.49960235,-0.82253003,0.5346598,-0.86269444
651,1778316949.8126802,-0.8710264,-0.8863322,-0.49960235,-0.82253003,0.5346598,-0.86269444
652,1778316949.822945,-0.8710264,-0.8863322,-0.49960235,-0.82253003,0.5346598,-0.86269444
653,1778316949.8328657,-0.8710264,-0.8863322,-0.49960235,-0.82253003,0.5346598,-0.86269444
654,1778316949.8426626,-0.8710264,-0.8863322,-0.49960235,-0.82253003,0.5346598,-0.86269444
655,1778316949.8529887,-0.8710264,-0.8863322,-0.49960235,-0.82253003,0.5346598,-0.86269444
656,1778316949.862793,-0.8710264,-0.8863322,-0.49960235,-0.82253003,0.5346598,-0.86269444
657,1778316949.8728101,-0.8710264,-0.8863322,-0.49960235,-0.82253003,0.5346598,-0.86269444
658,1778316949.8828783,-0.8710264,-0.8863322,-0.49960235,-0.82253003,0.5346598,-0.86269444
659,1778316949.8931484,-0.8710264,-0.8863322,-0.49960235,-0.82253003,0.5346598,-0.86269444
660,1778316949.9031208,-0.8710264,-0.8863322,-0.49960235,-0.82253003,0.5346598,-0.86269444
661,1778316949.9127038,-0.8710264,-0.8863322,-0.49960235,-0.82253003,0.5346598,-0.86269444
662,1778316949.9229531,-0.8710264,-0.8863322,-0.49960235,-0.82253003,0.5346598,-0.86269444
663,1778316949.9331136,-0.8710264,-0.8863322,-0.49960235,-0.82253003,0.5346598,-0.86269444
664,1778316949.942701,-0.8710264,-0.8863322,-0.49960235,-0.82253003,0.5346598,-0.86269444
665,1778316949.9533806,-0.8710264,-0.8863322,-0.49960235,-0.82253003,0.5346598,-0.86269444
666,1778316949.9628062,-0.8710264,-0.8863322,-0.49960235,-0.82253003,0.5346598,-0.86269444
667,1778316949.97279,-0.8710264,-0.8863322,-0.49960235,-0.82253003,0.5346598,-0.86269444
668,1778316949.9826546,-0.8710264,-0.8863322,-0.49960235,-0.82253003,0.5346598,-0.86269444
669,1778316949.9927118,-0.8710264,-0.8863322,-0.49960235,-0.82253003,0.5346598,-0.86269444
670,1778316950.0030992,-0.8710264,-0.8863322,-0.49960235,-0.82253003,0.5346598,-0.86269444
671,1778316950.012781,-0.8710264,-0.8863322,-0.49960235,-0.82253003,0.5346598,-0.86269444
672,1778316950.0225902,-0.8710264,-0.8863322,-0.49960235,-0.82253003,0.5346598,-0.86269444
673,1778316950.0331955,-0.8710264,-0.8863322,-0.49960235,-0.82253003,0.5346598,-0.86269444
674,1778316950.0429838,-0.8710264,-0.8863322,-0.49960235,-0.82253003,0.5346598,-0.86269444
675,1778316950.0529542,-0.8710264,-0.8863322,-0.49960235,-0.82253003,0.5346598,-0.86269444
676,1778316950.0626626,-0.8710264,-0.8863322,-0.49960235,-0.82253003,0.5346598,-0.86269444
677,1778316950.0727003,-0.8710264,-0.8863322,-0.49960235,-0.82253003,0.5346598,-0.86269444
678,1778316950.0828042,-0.8710264,-0.8863322,-0.49960235,-0.82253003,0.5346598,-0.86269444
679,1778316950.0930266,-0.8710264,-0.8863322,-0.49960235,-0.82253003,0.5346598,-0.86269444
680,1778316950.1030948,-0.8710264,-0.8863322,-0.49960235,-0.82253003,0.5346598,-0.86269444
681,1778316950.1128094,-0.8710264,-0.8863322,-0.49960235,-0.82253003,0.5346598,-0.86269444
682,1778316950.1229568,-0.8710264,-0.8863322,-0.49960235,-0.82253003,0.5346598,-0.86269444
683,1778316950.1329806,-0.8710264,-0.8863322,-0.49960235,-0.82253003,0.5346598,-0.86269444
684,1778316950.142984,-0.8710264,-0.8863322,-0.49960235,-0.82253003,0.5346598,-0.86269444
685,1778316950.1526644,-0.8710264,-0.8863322,-0.49960235,-0.82253003,0.5346598,-0.86269444
686,1778316950.162907,-0.8710264,-0.8863322,-0.49960235,-0.82253003,0.5346598,-0.86269444
687,1778316950.1730454,-0.8710264,-0.8863322,-0.49960235,-0.82253003,0.5346598,-0.86269444
688,1778316950.1832943,-0.8710264,-0.8863322,-0.49960235,-0.82253003,0.5346598,-0.86269444
689,1778316950.1927352,-0.8710264,-0.8863322,-0.49960235,-0.82253003,0.5346598,-0.86269444
690,1778316950.2033293,-0.8710264,-0.8863322,-0.49960235,-0.82253003,0.5346598,-0.86269444
691,1778316950.212755,-0.8710264,-0.8863322,-0.49960235,-0.82253003,0.5346598,-0.86269444
692,1778316950.2228734,-0.8710264,-0.8863322,-0.49960235,-0.82253003,0.5346598,-0.86269444
693,1778316950.2326777,-0.8710264,-0.8863322,-0.49960235,-0.82253003,0.5346598,-0.86269444
694,1778316950.2428713,-0.8710264,-0.8863322,-0.49960235,-0.82253003,0.5346598,-0.86269444
695,1778316950.2525492,-0.8710264,-0.8863322,-0.49960235,-0.82253003,0.5346598,-0.86269444
696,1778316950.2629745,-0.8710264,-0.8863322,-0.49960235,-0.82253003,0.5346598,-0.86269444
697,1778316950.2731717,-0.8710264,-0.8863322,-0.49960235,-0.82253003,0.5346598,-0.86269444
698,1778316950.2828226,-0.8710264,-0.8863322,-0.49960235,-0.82253003,0.5346598,-0.86269444
699,1778316950.2927458,-0.8710264,-0.8863322,-0.49960235,-0.82253003,0.5346598,-0.86269444
700,1778316950.3025384,-0.8710264,-0.8863322,-0.49960235,-0.82253003,0.5346598,-0.86269444
701,1778316950.3130436,-0.8710264,-0.8863322,-0.49960235,-0.82253003,0.5346598,-0.86269444
702,1778316950.3229,-0.8710264,-0.8863322,-0.49960235,-0.82253003,0.5346598,-0.86269444
703,1778316950.3329017,-0.8710264,-0.8863322,-0.49960235,-0.82253003,0.5346598,-0.86269444
704,1778316950.3428037,-0.8710264,-0.8863322,-0.49960235,-0.82253003,0.5346598,-0.86269444
705,1778316950.3532963,-0.8710264,-0.8863322,-0.49960235,-0.82253003,0.5346598,-0.86269444
706,1778316950.3629293,-0.8710264,-0.8863322,-0.49960235,-0.82253003,0.5346598,-0.86269444
707,1778316950.3731446,-0.8710264,-0.8863322,-0.49960235,-0.82253003,0.5346598,-0.86269444
708,1778316950.3830197,-0.8710264,-0.8863322,-0.49960235,-0.82253003,0.5346598,-0.86269444
709,1778316950.3926516,-0.8710264,-0.8863322,-0.49960235,-0.82253003,0.5346598,-0.86269444
710,1778316950.40289,-0.8710264,-0.8863322,-0.49960235,-0.82253003,0.5346598,-0.86269444
711,1778316950.4129293,-0.8710264,-0.8863322,-0.49960235,-0.82253003,0.5346598,-0.86269444
712,1778316950.4230206,-0.8710264,-0.8863322,-0.49960235,-0.82253003,0.5346598,-0.86269444
713,1778316950.4325626,-0.8710264,-0.8863322,-0.49960235,-0.82253003,0.5346598,-0.86269444
714,1778316950.4426768,-0.8710264,-0.8863322,-0.49960235,-0.82253003,0.5346598,-0.86269444
715,1778316950.4531379,-0.8710264,-0.8863322,-0.49960235,-0.82253003,0.5346598,-0.86269444
716,1778316950.462735,-0.8710264,-0.8863322,-0.49960235,-0.82253003,0.5346598,-0.86269444
717,1778316950.472682,-0.8710264,-0.8863322,-0.49960235,-0.82253003,0.5346598,-0.86269444
718,1778316950.482863,-0.8710264,-0.8863322,-0.49960235,-0.82253003,0.5346598,-0.86269444
719,1778316950.493068,-0.8710264,-0.8863322,-0.49960235,-0.82253003,0.5346598,-0.86269444
720,1778316950.5030093,-0.8710264,-0.8863322,-0.49960235,-0.82253003,0.5346598,-0.86269444
721,1778316950.512974,-0.8710264,-0.8863322,-0.49960235,-0.82253003,0.5346598,-0.86269444
722,1778316950.522981,-0.8710264,-0.8863322,-0.49960235,-0.82253003,0.5346598,-0.86269444
723,1778316950.5328822,-0.8710264,-0.8863322,-0.49960235,-0.82253003,0.5346598,-0.86269444
724,1778316950.5431206,-0.8710264,-0.8863322,-0.49960235,-0.82253003,0.5346598,-0.86269444
725,1778316950.5527885,-0.8710264,-0.8863322,-0.49960235,-0.82253003,0.5346598,-0.86269444
726,1778316950.5625722,-0.8710264,-0.8863322,-0.49960235,-0.82253003,0.5346598,-0.86269444
727,1778316950.5725832,-0.8710264,-0.8863322,-0.49960235,-0.82253003,0.5346598,-0.86269444
728,1778316950.582531,-0.8710264,-0.8863322,-0.49960235,-0.82253003,0.5346598,-0.86269444
729,1778316950.593025,-0.8710264,-0.8863322,-0.49960235,-0.82253003,0.5346598,-0.86269444
730,1778316950.6031854,-0.8710264,-0.8863322,-0.49960235,-0.82253003,0.5346598,-0.86269444
731,1778316950.6127625,-0.8710264,-0.8863322,-0.49960235,-0.82253003,0.5346598,-0.86269444
732,1778316950.6231062,-0.8710264,-0.8863322,-0.49960235,-0.82253003,0.5346598,-0.86269444
733,1778316950.6328049,-0.8710264,-0.8863322,-0.49960235,-0.82253003,0.5346598,-0.86269444
734,1778316950.6429462,-0.8710264,-0.8863322,-0.49960235,-0.82253003,0.5346598,-0.86269444
735,1778316950.6529098,-0.8710264,-0.8863322,-0.49960235,-0.82253003,0.5346598,-0.86269444
736,1778316950.662734,-0.8710264,-0.8863322,-0.49960235,-0.82253003,0.5346598,-0.86269444
737,1778316950.6728985,-0.8710264,-0.8863322,-0.49960235,-0.82253003,0.5346598,-0.86269444
738,1778316950.6830003,-0.8710264,-0.8863322,-0.49960235,-0.82253003,0.5346598,-0.86269444
739,1778316950.692558,-0.8710264,-0.8863322,-0.49960235,-0.82253003,0.5346598,-0.86269444
740,1778316950.702622,-0.8710264,-0.8863322,-0.49960235,-0.82253003,0.5346598,-0.86269444
741,1778316950.712981,-0.8710264,-0.8863322,-0.49960235,-0.82253003,0.5346598,-0.86269444
742,1778316950.7228026,-0.8710264,-0.8863322,-0.49960235,-0.82253003,0.5346598,-0.86269444
743,1778316950.7328777,-0.8710264,-0.8863322,-0.49960235,-0.82253003,0.5346598,-0.86269444
744,1778316950.7431672,-0.8710264,-0.8863322,-0.49960235,-0.82253003,0.5346598,-0.86269444
745,1778316950.7525463,-0.8710264,-0.8863322,-0.49960235,-0.82253003,0.5346598,-0.86269444
746,1778316950.7629294,-0.8710264,-0.8863322,-0.49960235,-0.82253003,0.5346598,-0.86269444
747,1778316950.7726195,-0.8710264,-0.8863322,-0.49960235,-0.82253003,0.5346598,-0.86269444
748,1778316950.7829232,-0.8710264,-0.8863322,-0.49960235,-0.82253003,0.5346598,-0.86269444
749,1778316950.7930472,-0.8710264,-0.8863322,-0.49960235,-0.82253003,0.5346598,-0.86269444
750,1778316950.8026352,-0.8710264,-0.8863322,-0.49960235,-0.82253003,0.5346598,-0.86269444
751,1778316950.812768,-0.8710264,-0.8863322,-0.49960235,-0.82253003,0.5346598,-0.86269444
752,1778316950.8229353,-0.8710264,-0.8863322,-0.49960235,-0.82253003,0.5346598,-0.86269444
753,1778316950.8330548,-0.8710264,-0.8863322,-0.49960235,-0.82253003,0.5346598,-0.86269444
754,1778316950.842607,-0.8710264,-0.8863322,-0.49960235,-0.82253003,0.5346598,-0.86269444
755,1778316950.852795,-0.8710264,-0.8863322,-0.49960235,-0.82253003,0.5346598,-0.86269444
756,1778316950.8629782,-0.8710264,-0.8863322,-0.49960235,-0.82253003,0.5346598,-0.86269444
757,1778316950.8728087,-0.8710264,-0.8863322,-0.49960235,-0.82253003,0.5346598,-0.86269444
758,1778316950.8829622,-0.8710264,-0.8863322,-0.49960235,-0.82253003,0.5346598,-0.86269444
759,1778316950.892974,-0.8710264,-0.8863322,-0.49960235,-0.82253003,0.5346598,-0.86269444
760,1778316950.9032636,-0.8710264,-0.8863322,-0.49960235,-0.82253003,0.5346598,-0.86269444
761,1778316950.9127257,-0.8710264,-0.8863322,-0.49960235,-0.82253003,0.5346598,-0.86269444
762,1778316950.9226906,-0.8710264,-0.8863322,-0.49960235,-0.82253003,0.5346598,-0.86269444
763,1778316950.9330428,-0.8710264,-0.8863322,-0.49960235,-0.82253003,0.5346598,-0.86269444
764,1778316950.94333,-0.8710264,-0.8863322,-0.49960235,-0.82253003,0.5346598,-0.86269444
765,1778316950.9529147,-0.8710264,-0.8863322,-0.49960235,-0.82253003,0.5346598,-0.86269444
766,1778316950.9630837,-0.8710264,-0.8863322,-0.49960235,-0.82253003,0.5346598,-0.86269444
767,1778316950.9730809,-0.8710264,-0.8863322,-0.49960235,-0.82253003,0.5346598,-0.86269444
768,1778316950.982812,-0.8710264,-0.8863322,-0.49960235,-0.82253003,0.5346598,-0.86269444
769,1778316950.9933026,-0.8710264,-0.8863322,-0.49960235,-0.82253003,0.5346598,-0.86269444
770,1778316951.0028028,-0.8710264,-0.8863322,-0.49960235,-0.82253003,0.5346598,-0.86269444
771,1778316951.013184,-0.8710264,-0.8863322,-0.49960235,-0.82253003,0.5346598,-0.86269444
772,1778316951.02274,-0.8710264,-0.8863322,-0.49960235,-0.82253003,0.5346598,-0.86269444
773,1778316951.0325422,-0.8710264,-0.8863322,-0.49960235,-0.82253003,0.5346598,-0.86269444
774,1778316951.0430288,-0.8710264,-0.8863322,-0.49960235,-0.82253003,0.5346598,-0.86269444
775,1778316951.05289,-0.8710264,-0.8863322,-0.49960235,-0.82253003,0.5346598,-0.86269444
776,1778316951.063007,-0.8710264,-0.8863322,-0.49960235,-0.82253003,0.5346598,-0.86269444
777,1778316951.072594,-0.8710264,-0.8863322,-0.49960235,-0.82253003,0.5346598,-0.86269444
778,1778316951.0825856,-0.8710264,-0.8863322,-0.49960235,-0.82253003,0.5346598,-0.86269444
779,1778316951.092726,-0.8710264,-0.8863322,-0.49960235,-0.82253003,0.5346598,-0.86269444
780,1778316951.103036,-0.8710264,-0.8863322,-0.49960235,-0.82253003,0.5346598,-0.86269444
781,1778316951.112534,-0.8710264,-0.8863322,-0.49960235,-0.82253003,0.5346598,-0.86269444
782,1778316951.1230679,-0.8710264,-0.8863322,-0.49960235,-0.82253003,0.5346598,-0.86269444
783,1778316951.1330762,-0.8710264,-0.8863322,-0.49960235,-0.82253003,0.5346598,-0.86269444
784,1778316951.14257,-0.8710264,-0.8863322,-0.49960235,-0.82253003,0.5346598,-0.86269444
785,1778316951.1528163,-0.8710264,-0.8863322,-0.49960235,-0.82253003,0.5346598,-0.86269444
786,1778316951.163079,-0.8710264,-0.8863322,-0.49960235,-0.82253003,0.5346598,-0.86269444
787,1778316951.172632,-0.8710264,-0.8863322,-0.49960235,-0.82253003,0.5346598,-0.86269444
788,1778316951.1827946,-0.8710264,-0.8863322,-0.49960235,-0.82253003,0.5346598,-0.86269444
789,1778316951.1928554,-0.8710264,-0.8863322,-0.49960235,-0.82253003,0.5346598,-0.86269444
790,1778316951.203074,-0.8710264,-0.8863322,-0.49960235,-0.82253003,0.5346598,-0.86269444
791,1778316951.2130892,-0.8710264,-0.8863322,-0.49960235,-0.82253003,0.5346598,-0.86269444
792,1778316951.2225332,-0.8710264,-0.8863322,-0.49960235,-0.82253003,0.5346598,-0.86269444
793,1778316951.2327218,-0.8710264,-0.8863322,-0.49960235,-0.82253003,0.5346598,-0.86269444
794,1778316951.2430053,-0.8710264,-0.8863322,-0.49960235,-0.82253003,0.5346598,-0.86269444
795,1778316951.2533383,-0.8710264,-0.8863322,-0.49960235,-0.82253003,0.5346598,-0.86269444
796,1778316951.262748,-0.8710264,-0.8863322,-0.49960235,-0.82253003,0.5346598,-0.86269444
797,1778316951.2729824,-0.8710264,-0.8863322,-0.49960235,-0.82253003,0.5346598,-0.86269444
798,1778316951.2828615,-0.8710264,-0.8863322,-0.49960235,-0.82253003,0.5346598,-0.86269444
799,1778316951.2925706,-0.8710264,-0.8863322,-0.49960235,-0.82253003,0.5346598,-0.86269444
800,1778316951.3027222,-0.8710264,-0.8863322,-0.49960235,-0.82253003,0.5346598,-0.86269444
801,1778316951.3128781,-0.8710264,-0.8863322,-0.49960235,-0.82253003,0.5346598,-0.86269444
802,1778316951.3231409,-0.8710264,-0.8863322,-0.49960235,-0.82253003,0.5346598,-0.86269444
803,1778316951.3331358,-0.8710264,-0.8863322,-0.49960235,-0.82253003,0.5346598,-0.86269444
804,1778316951.3430753,-0.8710264,-0.8863322,-0.49960235,-0.82253003,0.5346598,-0.86269444
805,1778316951.3529458,-0.8710264,-0.8863322,-0.49960235,-0.82253003,0.5346598,-0.86269444
806,1778316951.3629487,-0.8710264,-0.8863322,-0.49960235,-0.82253003,0.5346598,-0.86269444
807,1778316951.3730009,-0.8710264,-0.8863322,-0.49960235,-0.82253003,0.5346598,-0.86269444
808,1778316951.3827631,-0.8710264,-0.8863322,-0.49960235,-0.82253003,0.5346598,-0.86269444
809,1778316951.3928936,-0.8710264,-0.8863322,-0.49960235,-0.82253003,0.5346598,-0.86269444
810,1778316951.4029703,-0.8710264,-0.8863322,-0.49960235,-0.82253003,0.5346598,-0.86269444
811,1778316951.4129686,-0.8710264,-0.8863322,-0.49960235,-0.82253003,0.5346598,-0.86269444
812,1778316951.4230597,-0.8710264,-0.8863322,-0.49960235,-0.82253003,0.5346598,-0.86269444
813,1778316951.4328086,-0.8710264,-0.8863322,-0.49960235,-0.82253003,0.5346598,-0.86269444
814,1778316951.4425523,-0.8710264,-0.8863322,-0.49960235,-0.82253003,0.5346598,-0.86269444
815,1778316951.4527264,-0.8710264,-0.8863322,-0.49960235,-0.82253003,0.5346598,-0.86269444
816,1778316951.462939,-0.8710264,-0.8863322,-0.49960235,-0.82253003,0.5346598,-0.86269444
817,1778316951.4726508,-0.8710264,-0.8863322,-0.49960235,-0.82253003,0.5346598,-0.86269444
818,1778316951.482722,-0.8710264,-0.8863322,-0.49960235,-0.82253003,0.5346598,-0.86269444
819,1778316951.4931076,-0.8710264,-0.8863322,-0.49960235,-0.82253003,0.5346598,-0.86269444
820,1778316951.502864,-0.8710264,-0.8863322,-0.49960235,-0.82253003,0.5346598,-0.86269444
821,1778316951.5125594,-0.8710264,-0.8863322,-0.49960235,-0.82253003,0.5346598,-0.86269444
822,1778316951.5225666,-0.8710264,-0.8863322,-0.49960235,-0.82253003,0.5346598,-0.86269444
823,1778316951.5327463,-0.8710264,-0.8863322,-0.49960235,-0.82253003,0.5346598,-0.86269444
824,1778316951.5427139,-0.8710264,-0.8863322,-0.49960235,-0.82253003,0.5346598,-0.86269444
825,1778316951.5527182,-0.8710264,-0.8863322,-0.49960235,-0.82253003,0.5346598,-0.86269444
826,1778316951.5631535,-0.8710264,-0.8863322,-0.49960235,-0.82253003,0.5346598,-0.86269444
827,1778316951.5727153,-0.8710264,-0.8863322,-0.49960235,-0.82253003,0.5346598,-0.86269444
828,1778316951.5831046,-0.8710264,-0.8863322,-0.49960235,-0.82253003,0.5346598,-0.86269444
829,1778316951.5929785,-0.8710264,-0.8863322,-0.49960235,-0.82253003,0.5346598,-0.86269444
830,1778316951.6029577,-0.8710264,-0.8863322,-0.49960235,-0.82253003,0.5346598,-0.86269444
831,1778316951.6129768,-0.8710264,-0.8863322,-0.49960235,-0.82253003,0.5346598,-0.86269444
832,1778316951.6231527,-0.8710264,-0.8863322,-0.49960235,-0.82253003,0.5346598,-0.86269444
833,1778316951.632756,-0.8710264,-0.8863322,-0.49960235,-0.82253003,0.5346598,-0.86269444
834,1778316951.6426048,-0.8710264,-0.8863322,-0.49960235,-0.82253003,0.5346598,-0.86269444
835,1778316951.6528907,-0.8710264,-0.8863322,-0.49960235,-0.82253003,0.5346598,-0.86269444
836,1778316951.6627533,-0.8710264,-0.8863322,-0.49960235,-0.82253003,0.5346598,-0.86269444
837,1778316951.6728694,-0.8710264,-0.8863322,-0.49960235,-0.82253003,0.5346598,-0.86269444
838,1778316951.6828167,-0.8710264,-0.8863322,-0.49960235,-0.82253003,0.5346598,-0.86269444
839,1778316951.6930146,-0.8710264,-0.8863322,-0.49960235,-0.82253003,0.5346598,-0.86269444
840,1778316951.7026272,-0.8710264,-0.8863322,-0.49960235,-0.82253003,0.5346598,-0.86269444
841,1778316951.7128906,-0.8710264,-0.8863322,-0.49960235,-0.82253003,0.5346598,-0.86269444
842,1778316951.7233057,-0.8710264,-0.8863322,-0.49960235,-0.82253003,0.5346598,-0.86269444
843,1778316951.7328696,-0.8710264,-0.8863322,-0.49960235,-0.82253003,0.5346598,-0.86269444
844,1778316951.7430925,-0.8710264,-0.8863322,-0.49960235,-0.82253003,0.5346598,-0.86269444
845,1778316951.7531056,-0.8710264,-0.8863322,-0.49960235,-0.82253003,0.5346598,-0.86269444
846,1778316951.763225,-0.8710264,-0.8863322,-0.49960235,-0.82253003,0.5346598,-0.86269444
847,1778316951.7726455,-0.8710264,-0.8863322,-0.49960235,-0.82253003,0.5346598,-0.86269444
848,1778316951.7829747,-0.8710264,-0.8863322,-0.49960235,-0.82253003,0.5346598,-0.86269444
849,1778316951.7928042,-0.8710264,-0.8863322,-0.49960235,-0.82253003,0.5346598,-0.86269444
850,1778316951.8027477,-0.8710264,-0.8863322,-0.49960235,-0.82253003,0.5346598,-0.86269444
851,1778316951.8129966,-0.8710264,-0.8863322,-0.49960235,-0.82253003,0.5346598,-0.86269444
852,1778316951.823059,-0.8710264,-0.8863322,-0.49960235,-0.82253003,0.5346598,-0.86269444
853,1778316951.8325415,-0.8710264,-0.8863322,-0.49960235,-0.82253003,0.5346598,-0.86269444
854,1778316951.8425596,-0.8710264,-0.8863322,-0.49960235,-0.82253003,0.5346598,-0.86269444
855,1778316951.8533056,-0.8710264,-0.8863322,-0.49960235,-0.82253003,0.5346598,-0.86269444
856,1778316951.862793,-0.8710264,-0.8863322,-0.49960235,-0.82253003,0.5346598,-0.86269444
857,1778316951.8727489,-0.8710264,-0.8863322,-0.49960235,-0.82253003,0.5346598,-0.86269444
858,1778316951.883188,-0.8710264,-0.8863322,-0.49960235,-0.82253003,0.5346598,-0.86269444
859,1778316951.8928618,-0.8710264,-0.8863322,-0.49960235,-0.82253003,0.5346598,-0.86269444
860,1778316951.902913,-0.8710264,-0.8863322,-0.49960235,-0.82253003,0.5346598,-0.86269444
861,1778316951.9126215,-0.8710264,-0.8863322,-0.49960235,-0.82253003,0.5346598,-0.86269444
862,1778316951.9230561,-0.8710264,-0.8863322,-0.49960235,-0.82253003,0.5346598,-0.86269444
863,1778316951.9333286,-0.8710264,-0.8863322,-0.49960235,-0.82253003,0.5346598,-0.86269444
864,1778316951.9430995,-0.8710264,-0.8863322,-0.49960235,-0.82253003,0.5346598,-0.86269444
865,1778316951.9525898,-0.8710264,-0.8863322,-0.49960235,-0.82253003,0.5346598,-0.86269444
866,1778316951.9626124,-0.8710264,-0.8863322,-0.49960235,-0.82253003,0.5346598,-0.86269444
867,1778316951.9729037,-0.8710264,-0.8863322,-0.49960235,-0.82253003,0.5346598,-0.86269444
868,1778316951.9833581,-0.8710264,-0.8863322,-0.49960235,-0.82253003,0.5346598,-0.86269444
869,1778316951.9932528,-0.8710264,-0.8863322,-0.49960235,-0.82253003,0.5346598,-0.86269444
870,1778316952.0028806,-0.8710264,-0.8863322,-0.49960235,-0.82253003,0.5346598,-0.86269444
871,1778316952.0126412,-0.8710264,-0.8863322,-0.49960235,-0.82253003,0.5346598,-0.86269444
872,1778316952.0226216,-0.8710264,-0.8863322,-0.49960235,-0.82253003,0.5346598,-0.86269444
873,1778316952.033049,-0.8710264,-0.8863322,-0.49960235,-0.82253003,0.5346598,-0.86269444
874,1778316952.0431232,-0.8710264,-0.8863322,-0.49960235,-0.82253003,0.5346598,-0.86269444
875,1778316952.0532558,-0.8710264,-0.8863322,-0.49960235,-0.82253003,0.5346598,-0.86269444
876,1778316952.062571,-0.8710264,-0.8863322,-0.49960235,-0.82253003,0.5346598,-0.86269444
877,1778316952.0727067,-0.8710264,-0.8863322,-0.49960235,-0.82253003,0.5346598,-0.86269444
878,1778316952.0830896,-0.8710264,-0.8863322,-0.49960235,-0.82253003,0.5346598,-0.86269444
879,1778316952.0926201,-0.8710264,-0.8863322,-0.49960235,-0.82253003,0.5346598,-0.86269444
880,1778316952.1027236,-0.8710264,-0.8863322,-0.49960235,-0.82253003,0.5346598,-0.86269444
881,1778316952.1127892,-0.8710264,-0.8863322,-0.49960235,-0.82253003,0.5346598,-0.86269444
882,1778316952.1232705,-0.8710264,-0.8863322,-0.49960235,-0.82253003,0.5346598,-0.86269444
883,1778316952.1332319,-0.8710264,-0.8863322,-0.49960235,-0.82253003,0.5346598,-0.86269444
884,1778316952.1431844,-0.8710264,-0.8863322,-0.49960235,-0.82253003,0.5346598,-0.86269444
885,1778316952.1529932,-0.8710264,-0.8863322,-0.49960235,-0.82253003,0.5346598,-0.86269444
886,1778316952.1625283,-0.8710264,-0.8863322,-0.49960235,-0.82253003,0.5346598,-0.86269444
887,1778316952.1733708,-0.8710264,-0.8863322,-0.49960235,-0.82253003,0.5346598,-0.86269444
888,1778316952.1828783,-0.8710264,-0.8863322,-0.49960235,-0.82253003,0.5346598,-0.86269444
889,1778316952.1925611,-0.8710264,-0.8863322,-0.49960235,-0.82253003,0.5346598,-0.86269444
890,1778316952.2025435,-0.8710264,-0.8863322,-0.49960235,-0.82253003,0.5346598,-0.86269444
891,1778316952.212805,-0.8710264,-0.8863322,-0.49960235,-0.82253003,0.5346598,-0.86269444
892,1778316952.2226505,-0.8710264,-0.8863322,-0.49960235,-0.82253003,0.5346598,-0.86269444
893,1778316952.233144,-0.8710264,-0.8863322,-0.49960235,-0.82253003,0.5346598,-0.86269444
894,1778316952.2426066,-0.8710264,-0.8863322,-0.49960235,-0.82253003,0.5346598,-0.86269444
895,1778316952.2532847,-0.8710264,-0.8863322,-0.49960235,-0.82253003,0.5346598,-0.86269444
896,1778316952.2627876,-0.8710264,-0.8863322,-0.49960235,-0.82253003,0.5346598,-0.86269444
897,1778316952.2728806,-0.8710264,-0.8863322,-0.49960235,-0.82253003,0.5346598,-0.86269444
898,1778316952.2828484,-0.8710264,-0.8863322,-0.49960235,-0.82253003,0.5346598,-0.86269444
899,1778316952.29317,-0.8710264,-0.8863322,-0.49960235,-0.82253003,0.5346598,-0.86269444
900,1778316952.3025832,-0.8710264,-0.8863322,-0.49960235,-0.82253003,0.5346598,-0.86269444
901,1778316952.3132815,-0.8710264,-0.8863322,-0.49960235,-0.82253003,0.5346598,-0.86269444
902,1778316952.3231628,-0.8710264,-0.8863322,-0.49960235,-0.82253003,0.5346598,-0.86269444
903,1778316952.3331225,-0.8710264,-0.8863322,-0.49960235,-0.82253003,0.5346598,-0.86269444
904,1778316952.343076,-0.8710264,-0.8863322,-0.49960235,-0.82253003,0.5346598,-0.86269444
905,1778316952.3532553,-0.8710264,-0.8863322,-0.49960235,-0.82253003,0.5346598,-0.86269444
906,1778316952.3627648,-0.8710264,-0.8863322,-0.49960235,-0.82253003,0.5346598,-0.86269444
907,1778316952.373246,-0.8710264,-0.8863322,-0.49960235,-0.82253003,0.5346598,-0.86269444
908,1778316952.3828242,-0.8710264,-0.8863322,-0.49960235,-0.82253003,0.5346598,-0.86269444
909,1778316952.39307,-0.8710264,-0.8863322,-0.49960235,-0.82253003,0.5346598,-0.86269444
910,1778316952.4026315,-0.8710264,-0.8863322,-0.49960235,-0.82253003,0.5346598,-0.86269444
911,1778316952.4128222,-0.8710264,-0.8863322,-0.49960235,-0.82253003,0.5346598,-0.86269444
912,1778316952.4232686,-0.8710264,-0.8863322,-0.49960235,-0.82253003,0.5346598,-0.86269444
913,1778316952.433216,-0.8710264,-0.8863322,-0.49960235,-0.82253003,0.5346598,-0.86269444
914,1778316952.4425943,-0.8710264,-0.8863322,-0.49960235,-0.82253003,0.5346598,-0.86269444
915,1778316952.453386,-0.8710264,-0.8863322,-0.49960235,-0.82253003,0.5346598,-0.86269444
916,1778316952.462626,-0.8710264,-0.8863322,-0.49960235,-0.82253003,0.5346598,-0.86269444
917,1778316952.4729187,-0.8710264,-0.8863322,-0.49960235,-0.82253003,0.5346598,-0.86269444
918,1778316952.4833856,-0.8710264,-0.8863322,-0.49960235,-0.82253003,0.5346598,-0.86269444
919,1778316952.4925895,-0.8710264,-0.8863322,-0.49960235,-0.82253003,0.5346598,-0.86269444
920,1778316952.502995,-0.8710264,-0.8863322,-0.49960235,-0.82253003,0.5346598,-0.86269444
921,1778316952.5129704,-0.8710264,-0.8863322,-0.49960235,-0.82253003,0.5346598,-0.86269444
922,1778316952.5229154,-0.8710264,-0.8863322,-0.49960235,-0.82253003,0.5346598,-0.86269444
923,1778316952.5328195,-0.8710264,-0.8863322,-0.49960235,-0.82253003,0.5346598,-0.86269444
924,1778316952.5431497,-0.8710264,-0.8863322,-0.49960235,-0.82253003,0.5346598,-0.86269444
925,1778316952.5533254,-0.8710264,-0.8863322,-0.49960235,-0.82253003,0.5346598,-0.86269444
926,1778316952.563184,-0.8710264,-0.8863322,-0.49960235,-0.82253003,0.5346598,-0.86269444
927,1778316952.5725405,-0.8710264,-0.8863322,-0.49960235,-0.82253003,0.5346598,-0.86269444
928,1778316952.5831232,-0.8710264,-0.8863322,-0.49960235,-0.82253003,0.5346598,-0.86269444
929,1778316952.592878,-0.8710264,-0.8863322,-0.49960235,-0.82253003,0.5346598,-0.86269444
930,1778316952.602884,-0.8710264,-0.8863322,-0.49960235,-0.82253003,0.5346598,-0.86269444
931,1778316952.6131077,-0.8710264,-0.8863322,-0.49960235,-0.82253003,0.5346598,-0.86269444
932,1778316952.6227067,-0.8710264,-0.8863322,-0.49960235,-0.82253003,0.5346598,-0.86269444
933,1778316952.6333737,-0.8710264,-0.8863322,-0.49960235,-0.82253003,0.5346598,-0.86269444
934,1778316952.64314,-0.8710264,-0.8863322,-0.49960235,-0.82253003,0.5346598,-0.86269444
935,1778316952.6529803,-0.8710264,-0.8863322,-0.49960235,-0.82253003,0.5346598,-0.86269444
936,1778316952.6632411,-0.8710264,-0.8863322,-0.49960235,-0.82253003,0.5346598,-0.86269444
937,1778316952.672966,-0.8710264,-0.8863322,-0.49960235,-0.82253003,0.5346598,-0.86269444
938,1778316952.683364,-0.8710264,-0.8863322,-0.49960235,-0.82253003,0.5346598,-0.86269444
939,1778316952.6928656,-0.8710264,-0.8863322,-0.49960235,-0.82253003,0.5346598,-0.86269444
940,1778316952.7030363,-0.8710264,-0.8863322,-0.49960235,-0.82253003,0.5346598,-0.86269444
941,1778316952.71303,-0.8710264,-0.8863322,-0.49960235,-0.82253003,0.5346598,-0.86269444
942,1778316952.723067,-0.8710264,-0.8863322,-0.49960235,-0.82253003,0.5346598,-0.86269444
943,1778316952.7332814,-0.8710264,-0.8863322,-0.49960235,-0.82253003,0.5346598,-0.86269444
944,1778316952.7435176,-0.8710264,-0.8863322,-0.49960235,-0.82253003,0.5346598,-0.86269444
945,1778316952.7533443,-0.8710264,-0.8863322,-0.49960235,-0.82253003,0.5346598,-0.86269444
946,1778316952.762642,-0.8710264,-0.8863322,-0.49960235,-0.82253003,0.5346598,-0.86269444
947,1778316952.7727137,-0.8710264,-0.8863322,-0.49960235,-0.82253003,0.5346598,-0.86269444
948,1778316952.783271,-0.8710264,-0.8863322,-0.49960235,-0.82253003,0.5346598,-0.86269444
949,1778316952.7930505,-0.8710264,-0.8863322,-0.49960235,-0.82253003,0.5346598,-0.86269444
950,1778316952.8027697,-0.8710264,-0.8863322,-0.49960235,-0.82253003,0.5346598,-0.86269444
951,1778316952.812948,-0.8710264,-0.8863322,-0.49960235,-0.82253003,0.5346598,-0.86269444
952,1778316952.8225658,-0.8710264,-0.8863322,-0.49960235,-0.82253003,0.5346598,-0.86269444
953,1778316952.833344,-0.8710264,-0.8863322,-0.49960235,-0.82253003,0.5346598,-0.86269444
954,1778316952.8426218,-0.8710264,-0.8863322,-0.49960235,-0.82253003,0.5346598,-0.86269444
955,1778316952.852906,-0.8710264,-0.8863322,-0.49960235,-0.82253003,0.5346598,-0.86269444
956,1778316952.862926,-0.8710264,-0.8863322,-0.49960235,-0.82253003,0.5346598,-0.86269444
957,1778316952.8729255,-0.8710264,-0.8863322,-0.49960235,-0.82253003,0.5346598,-0.86269444
958,1778316952.8827574,-0.8710264,-0.8863322,-0.49960235,-0.82253003,0.5346598,-0.86269444
959,1778316952.8934124,-0.8710264,-0.8863322,-0.49960235,-0.82253003,0.5346598,-0.86269444
960,1778316952.9026537,-0.8710264,-0.8863322,-0.49960235,-0.82253003,0.5346598,-0.86269444
961,1778316952.9132764,-0.8710264,-0.8863322,-0.49960235,-0.82253003,0.5346598,-0.86269444
962,1778316952.9233236,-0.8710264,-0.8863322,-0.49960235,-0.82253003,0.5346598,-0.86269444
963,1778316952.9327111,-0.8710264,-0.8863322,-0.49960235,-0.82253003,0.5346598,-0.86269444
964,1778316952.9432082,-0.8710264,-0.8863322,-0.49960235,-0.82253003,0.5346598,-0.86269444
965,1778316952.9525502,-0.8710264,-0.8863322,-0.49960235,-0.82253003,0.5346598,-0.86269444
966,1778316952.962773,-0.8710264,-0.8863322,-0.49960235,-0.82253003,0.5346598,-0.86269444
967,1778316952.9732234,-0.8710264,-0.8863322,-0.49960235,-0.82253003,0.5346598,-0.86269444
968,1778316952.9834242,-0.8710264,-0.8863322,-0.49960235,-0.82253003,0.5346598,-0.86269444
969,1778316952.9931483,-0.8710264,-0.8863322,-0.49960235,-0.82253003,0.5346598,-0.86269444
970,1778316953.0029047,-0.8710264,-0.8863322,-0.49960235,-0.82253003,0.5346598,-0.86269444
971,1778316953.0130415,-0.8710264,-0.8863322,-0.49960235,-0.82253003,0.5346598,-0.86269444
972,1778316953.0233903,-0.8710264,-0.8863322,-0.49960235,-0.82253003,0.5346598,-0.86269444
973,1778316953.0328739,-0.8710264,-0.8863322,-0.49960235,-0.82253003,0.5346598,-0.86269444
974,1778316953.0425339,-0.8710264,-0.8863322,-0.49960235,-0.82253003,0.5346598,-0.86269444
975,1778316953.0533228,-0.8710264,-0.8863322,-0.49960235,-0.82253003,0.5346598,-0.86269444
976,1778316953.0630236,-0.8710264,-0.8863322,-0.49960235,-0.82253003,0.5346598,-0.86269444
977,1778316953.07312,-0.8710264,-0.8863322,-0.49960235,-0.82253003,0.5346598,-0.86269444
978,1778316953.0830948,-0.8710264,-0.8863322,-0.49960235,-0.82253003,0.5346598,-0.86269444
979,1778316953.0928,-0.8710264,-0.8863322,-0.49960235,-0.82253003,0.5346598,-0.86269444
980,1778316953.102559,-0.8710264,-0.8863322,-0.49960235,-0.82253003,0.5346598,-0.86269444
981,1778316953.112883,-0.8710264,-0.8863322,-0.49960235,-0.82253003,0.5346598,-0.86269444
982,1778316953.123339,-0.8710264,-0.8863322,-0.49960235,-0.82253003,0.5346598,-0.86269444
983,1778316953.1326818,-0.8710264,-0.8863322,-0.49960235,-0.82253003,0.5346598,-0.86269444
984,1778316953.1427848,-0.8710264,-0.8863322,-0.49960235,-0.82253003,0.5346598,-0.86269444
985,1778316953.1528838,-0.8710264,-0.8863322,-0.49960235,-0.82253003,0.5346598,-0.86269444
986,1778316953.1627898,-0.8710264,-0.8863322,-0.49960235,-0.82253003,0.5346598,-0.86269444
987,1778316953.1731317,-0.8710264,-0.8863322,-0.49960235,-0.82253003,0.5346598,-0.86269444
988,1778316953.183008,-0.8710264,-0.8863322,-0.49960235,-0.82253003,0.5346598,-0.86269444
989,1778316953.1929302,-0.8710264,-0.8863322,-0.49960235,-0.82253003,0.5346598,-0.86269444
990,1778316953.2025628,-0.8710264,-0.8863322,-0.49960235,-0.82253003,0.5346598,-0.86269444
991,1778316953.2132123,-0.8710264,-0.8863322,-0.49960235,-0.82253003,0.5346598,-0.86269444
992,1778316953.2229989,-0.8710264,-0.8863322,-0.49960235,-0.82253003,0.5346598,-0.86269444
993,1778316953.2325811,-0.8710264,-0.8863322,-0.49960235,-0.82253003,0.5346598,-0.86269444
994,1778316953.2427068,-0.8710264,-0.8863322,-0.49960235,-0.82253003,0.5346598,-0.86269444
995,1778316953.2533982,-0.8710264,-0.8863322,-0.49960235,-0.82253003,0.5346598,-0.86269444
996,1778316953.2630827,-0.8710264,-0.8863322,-0.49960235,-0.82253003,0.5346598,-0.86269444
997,1778316953.272754,-0.8710264,-0.8863322,-0.49960235,-0.82253003,0.5346598,-0.86269444
998,1778316953.2830575,-0.8710264,-0.8863322,-0.49960235,-0.82253003,0.5346598,-0.86269444
999,1778316953.2929845,-0.8710264,-0.8863322,-0.49960235,-0.82253003,0.5346598,-0.86269444
1000,1778316953.303156,-0.8710264,-0.8863322,-0.49960235,-0.82253003,0.5346598,-0.86269444
