id,timestamp,acc_x,acc_y,acc_z,gyro_x,gyro_y,gyro_z
1,1778316118.0477688,-2.2057993,-0.43331796,-0.78937536,7.0015845,0.569021,2.6429086
2,1778316118.0880597,-1.5785677,-0.71266353,-0.6184507,1.7806722,-0.092240654,2.6974282
3,1778316118.1379662,-0.077382565,-1.472403,0.4510629,-1.1630874,-1.1847731,1.6035212
4,1778316118.1875718,0.99146026,-1.589422,-0.4850283,-0.43172902,1.3863586,-1.2423472
5,1778316118.2381246,0.99322873,-1.8497422,-0.4953338,-2.4614816,1.1930199,-4.0862303
6,1778316118.287877,-1.6661338,-1.6196676,-0.83023137,-4.064239,0.8472701,-7.610923
7,1778316118.3375785,-4.351839,-0.1039085,0.94365263,-7.6100063,0.87369,-5.728389
8,1778316118.3877964,-4.320984,2.08067,1.1232972,-0.410196,0.7499898,-2.0140228
9,1778316118.437845,-1.3221503,1.3678846,0.79852223,-2.8142562,-1.5925257,0.15088372
10,1778316118.4876885,0.29544407,1.1071987,0.09829842,-1.0984885,0.11835514,0.3388775
11,1778316118.537505,0.6304027,1.1636655,0.24739249,-1.1447614,-0.40530908,0.63285637
12,1778316118.587465,0.37715617,0.7558368,0.36605796,0.43127087,-0.22113322,1.033584
13,1778316118.6379247,-0.04853942,0.5050295,0.063967146,1.0763446,-0.8538369,1.698358
14,1778316118.6875892,-1.6754028,1.5363091,1.9414546,-0.84696466,-2.8793132,0.08032878
15,1778316118.7376425,-5.1503005,0.051649354,2.8940103,4.905859,-1.3507757,1.6432275
16,1778316118.787943,-1.2017165,-0.58381456,-0.22611076,3.549738,-1.6007724,4.4338126
17,1778316118.8378177,0.38679087,-1.1439692,-0.872307,0.87017757,-0.1160644,3.415195
18,1778316118.8876474,0.5635695,-1.0789044,-0.61223084,-0.6293439,3.3681583,0.8891144
19,1778316118.9374049,0.17324181,-0.9369449,-0.42069528,-1.4816537,3.7849212,-0.5209153
20,1778316118.9880898,-0.35495973,-0.6216216,-0.3032494,-3.669162,3.0987666,-1.4451544
21,1778316119.0379047,-1.7730302,0.11543357,0.92322457,-5.9154663,2.7620273,-2.6546676
22,1778316119.08773,-3.5040457,1.0054245,2.686376,-1.1517864,3.6205983,-2.302351
23,1778316119.1376612,-2.5822847,1.065428,0.6327199,1.5384641,2.2534819,-1.8385516
24,1778316119.1875246,-0.50972486,0.6687586,-0.16452178,-4.4625235,-0.7322747,0.68523806
25,1778316119.237475,0.11622629,0.51112735,0.49813882,-4.1653376,0.6881397,1.1403327
26,1778316119.2875342,0.1583629,0.81004727,0.05250306,-0.79809546,1.5421293,0.7254025
27,1778316119.3378513,-0.4853332,0.84565914,0.17610784,-4.1350994,-2.3748913,3.2081115
28,1778316119.3880155,-3.582343,1.4234977,2.4015427,-3.0784554,-2.8707612,3.5283577
29,1778316119.4376342,-2.224886,0.015488708,1.0829899,-0.6748534,-3.3238704,5.8359013
30,1778316119.487875,-0.66052634,-0.32971436,0.45234346,1.5873333,-1.0183123,3.809203
31,1778316119.537588,-0.15189911,-0.37636343,-0.18744996,1.2350168,3.147636,1.7489072
32,1778316119.5876489,0.16208263,-0.48429656,-0.029818814,-0.21868975,3.5078936,0.4185954
33,1778316119.6375291,0.19677977,-0.6019254,-0.32514092,-1.2756393,3.8348594,-0.07574729
34,1778316119.6876833,0.044453815,-0.8511472,0.17165637,-3.9350412,2.208125,-0.5558874
35,1778316119.7377083,-0.114153,-0.6047304,0.14238635,-3.975511,2.2276728,-1.2493721
36,1778316119.7877293,-4.797109,0.43337893,2.8202255,-6.352235,4.26277,-3.2221615
37,1778316119.8379247,-2.8372388,1.2014115,2.3610523,-3.0586023,-1.3351988,1.0920744
38,1778316119.8878932,-0.9013331,0.8535864,1.3300776,0.49037206,1.2652546,1.483639
39,1778316119.937845,-0.20751211,0.60991365,0.6610752,2.2519548,1.2536482,1.7397442
40,1778316119.9875941,0.50606614,0.44167212,-0.2865411,2.1097758,1.3593279,0.98990715
41,1778316120.0374174,0.2965417,0.44984335,-0.23836756,0.38774672,-0.09483683,0.731053
42,1778316120.0879588,-0.5831438,1.1246388,0.35624027,-0.5377141,0.026725354,-0.7848091
43,1778316120.13767,-2.4517894,1.9038305,1.3468468,-0.6186538,-3.0130928,3.120147
44,1778316120.187783,-1.9054161,1.0602448,1.4673417,3.2754595,-1.1258247,3.2365167
45,1778316120.2374153,-1.185557,-0.16281438,0.18641332,3.1583261,-0.51923543,3.6393824
46,1778316120.2874265,0.31014004,-0.62357295,-0.19787739,0.9744828,0.10354166,2.1054997
47,1778316120.3377414,0.44569677,-0.38977882,-0.04524654,0.025503624,1.6664404,-1.2305881
48,1778316120.38775,-0.06457694,-0.43411067,0.09957898,-1.2733486,1.0697777,-2.8814514
49,1778316120.4376273,-0.3114816,-0.59973013,0.30916438,-0.1966986,1.1607966,-1.9475911
50,1778316120.4878826,0.2728208,-0.42002448,-0.43197644,1.702176,2.272877,-1.8445076
51,1778316120.5375588,-1.1871424,-0.22464725,-0.64186674,-7.097185,-1.1053606,-5.516266
52,1778316120.5877764,-5.4373293,-0.5538128,1.9473088,-8.827155,1.8069394,-4.035834
53,1778316120.6376429,-3.0989614,0.787363,1.7261372,-0.91889405,0.5879578,-0.9112582
54,1778316120.6878448,-0.8433418,1.0102419,0.63174415,-1.8191566,-3.1514537,0.6087272
55,1778316120.7379177,0.06317442,0.78157,0.79632694,-0.473726,-0.160963,0.3388775
56,1778316120.7874377,0.2930049,0.8159013,0.59607136,2.1245892,0.6742425,0.47326785
57,1778316120.8374436,0.03597771,0.52942115,0.1445816,2.595872,-0.8755226,1.4445436
58,1778316120.8881228,-0.36569205,0.6989432,0.06225973,0.72097373,-4.3996043,0.7315111
59,1778316120.9374142,-3.176161,1.0990885,2.7649784,4.181831,4.185954,-0.44104472
60,1778316120.9875698,-4.484591,0.066040434,0.71199274,2.3490822,-0.95340794,3.9315288
61,1778316121.0376642,-0.45094094,-1.1393958,0.43874508,2.734691,-1.606881,4.3580656
62,1778316121.0875638,0.6245487,-1.3464811,-0.3035543,4.287663,3.4422257,3.3366988
63,1778316121.1377125,1.7072947,-1.8604134,-0.7714474,0.106901415,2.3383923,-0.906524
64,1778316121.1876028,0.9209684,-1.6583894,-0.120007,-1.4443909,0.32055154,-4.9189925
65,1778316121.237635,-0.7262619,-1.3355657,-0.33044612,-2.7536278,0.44028112,-6.1424026
66,1778316121.28757,-2.7601,-1.1527503,0.22976951,-5.362328,-0.01572978,-5.2752795
67,1778316121.33766,-6.928636,0.32270175,2.75449,-2.34221,1.1279627,-3.9507709
68,1778316121.387409,-2.7497337,0.84151256,0.88889337,-0.48579058,-1.5430456,0.3549127
69,1778316121.437657,-0.45801452,0.9464576,0.050917607,0.05497787,-0.66339964,0.7651087
70,1778316121.4877398,0.30068827,1.1835446,0.056283772,-0.52503866,-0.032375857,0.46211955
71,1778316121.5377476,0.020306062,1.0539029,0.39099842,0.51343226,0.23243423,1.313513
72,1778316121.58764,-0.72010297,0.83212173,0.5732652,2.3246477,0.91981035,1.7420349
73,1778316121.637728,-2.7261345,1.6561941,0.92920053,1.2189816,-0.22693644,3.2177327
74,1778316121.6880105,-3.8111372,0.453624,2.0501196,4.141514,-1.1508701,5.4583864
75,1778316121.7379436,-2.2237883,-1.4103262,0.061162103,3.029128,-0.034513887,6.081316
76,1778316121.7876935,-0.82888985,-1.6393639,-0.047990605,1.9640845,0.20769419,5.493053
77,1778316121.8374372,1.3558718,-1.6863788,-0.3641676,-0.36163223,0.59437186,1.4895949
78,1778316121.8876278,1.2473289,-1.4974654,-0.058966853,-0.6953174,1.0268645,-2.6633725
79,1778316121.937968,0.3714241,-1.3139181,-0.33593425,-0.45372015,0.9944886,-6.189745
80,1778316121.9876275,-0.5992423,-1.5070392,-0.65759933,-2.611907,-0.4804455,-6.9501195
81,1778316122.0378537,-4.0434675,-1.572104,0.33465368,-6.500675,0.09773844,-7.174001
82,1778316122.0878074,-6.283903,0.05719846,2.1028056,-2.127949,-0.1957823,-3.1196887
83,1778316122.1376123,-1.9154166,0.8454151,0.617719,-1.2684617,-1.7024814,-0.0
84,1778316122.1878252,-0.42087823,1.027438,0.42825672,-1.2805263,-0.043218717,-0.4802928
85,1778316122.2374983,0.032440916,1.1658607,0.4867357,-0.5635232,0.35521814,-0.18555032
86,1778316122.2878945,-0.15006974,1.0873195,0.71992004,1.1882856,-0.021991149,0.9815077
87,1778316122.337552,-0.2280621,0.6144871,0.52984804,2.58396,-1.1494957,2.3684773
88,1778316122.3875873,-1.6094842,0.7981563,0.48569906,2.5007296,-0.70417494,2.9260445
89,1778316122.4378235,-5.4938574,0.523872,1.1879352,4.1280746,0.01817324,3.0508137
90,1778316122.4876573,-2.680766,-1.1651899,-0.112750486,0.8126035,-1.5056301,6.0187025
91,1778316122.5378404,-0.45045313,-1.5610667,0.15549688,-0.25702155,-1.6276505,5.212055
92,1778316122.5876467,1.0022537,-1.1159188,-0.42898846,0.97158116,1.6256652,1.9168952
93,1778316122.637914,1.0640866,-1.1917158,-0.5232013,-1.2760975,1.6635388,-0.5448918
94,1778316122.68748,0.98097193,-1.209095,-0.26239336,-2.1088595,1.6145169,-2.7003298
95,1778316122.737529,0.32971436,-1.3314801,-0.41276798,-0.96791595,2.497828,-3.9768856
96,1778316122.7878168,-2.6242995,-1.4105091,-0.29940772,-3.6413677,0.40194935,-6.3045874
97,1778316122.8374758,-6.1069417,0.09671296,1.943589,-4.044386,-0.7472409,-5.255274
98,1778316122.8878999,-3.190796,0.960239,0.80651045,-2.3182335,-1.7075211,-0.1207986
99,1778316122.9376867,-0.69857734,0.8267556,0.9562143,-2.2968533,-1.5291485,0.43004912
100,1778316122.9878728,0.2215983,0.9176145,0.6159506,-0.26328292,-0.044593163,0.03848451
101,1778316123.0375638,0.45825842,0.96310496,0.41264603,0.784351,-0.36071593,0.25152376
102,1778316123.087646,-0.06872352,0.63887876,0.22397648,1.8802432,-0.27320948,0.9833403
103,1778316123.1377084,-0.67930794,0.68132025,0.3547768,2.1945333,-0.43508878,1.7311921
104,1778316123.1877394,-3.1732948,1.8533399,0.6687586,4.276057,0.9326385,3.4040465
105,1778316123.2373905,-4.0173078,1.3097715,0.6829057,1.8851302,-0.6908886,4.2303944
106,1778316123.2876477,-2.1373808,-0.82876784,0.8455371,0.7779369,-1.1478158,5.02849
107,1778316123.337916,-0.41539007,-1.0639645,0.5497882,1.1345295,-0.5128214,3.7446039
108,1778316123.387505,0.49301654,-0.8482203,-0.18982814,2.4249823,0.7664832,1.1267409
109,1778316123.437419,0.97578865,-0.85547674,-0.6279025,0.93783087,1.0273226,0.08109236
110,1778316123.4875996,0.807974,-1.021645,-0.120494835,-1.3440562,0.35842517,-1.7224873
111,1778316123.537462,0.9627391,-0.99822897,-0.118055664,0.21303925,0.91919947,-5.1644077
112,1778316123.5875635,-2.1786637,-0.4563681,-0.5775337,-2.0566306,-1.8283197,-6.727917
113,1778316123.6379478,-4.8813825,0.74979985,1.5858852,-0.18020524,1.4008667,-3.7475057
114,1778316123.6874545,-3.5914898,1.1426886,0.8353536,0.49174652,-0.32513303,-2.6945267
115,1778316123.7374966,-1.2384869,1.1575675,0.12964171,1.0079277,-1.6699529,-0.98914355
116,1778316123.7879913,-0.16226557,1.2977587,0.56527686,0.3894266,-1.1071932,-0.84620106
117,1778316123.8378277,-0.06238169,0.89060074,0.89139354,3.3525813,-0.6267477,-0.5093089
118,1778316123.887563,-0.14854525,0.41904885,0.36428955,5.575367,-0.058643065,0.4447099
119,1778316123.9377997,-0.71083415,0.2883095,0.42648828,5.021007,-1.3946054,1.1997393
120,1778316123.987795,-1.6435106,1.1611043,1.5933857,3.7884336,-2.5127943,0.68416905
121,1778316124.037397,-3.5576468,1.0472562,1.7320523,4.590194,0.99464136,1.6081028
122,1778316124.087632,-1.659548,-0.12519024,1.5578958,1.1388055,-4.107305,3.7143662
123,1778316124.137555,-0.42490283,-0.58905876,0.7537025,3.7943895,-1.1215485,2.23989
124,1778316124.1881394,0.40490165,-0.44380638,-1.1798859,2.9035952,1.071763,1.0612257
125,1778316124.237728,0.23714797,-0.5687527,-0.32739717,-0.87766063,0.41386122,0.25534168
126,1778316124.2874506,0.3729486,-0.94231105,0.44331855,0.3034473,0.64721173,-0.41615194
127,1778316124.3378541,0.80138826,-1.085917,0.06488183,2.307849,-0.29260445,-2.8330402
128,1778316124.3880324,0.59680307,-1.2917827,-1.2356209,-1.3614659,-5.1175237,-7.034266
129,1778316124.43774,-3.1165843,-0.5893027,1.451792,-5.7517543,-1.9792033,-5.8885884
130,1778316124.4876907,-5.1652403,0.5769239,2.7253418,0.4202753,-0.8588765,-3.8466184
131,1778316124.5378811,-2.0974395,0.48447952,1.1275657,3.0596714,0.19883664,-1.3202325
132,1778316124.5878243,-0.55930096,0.28471172,0.2549539,4.686711,1.0642799,-1.0823005
133,1778316124.6380167,-0.24483135,0.2658082,-0.17385161,4.4666467,0.86834496,-1.0800097
134,1778316124.687375,-0.17501022,0.2432459,0.11878742,4.227951,0.9007208,0.17669277
135,1778316124.7379425,-0.5082004,0.37544873,0.47319835,4.130518,-0.505491,1.498147
136,1778316124.7877376,-1.2401943,0.9855453,1.0323163,3.375183,-3.1367931,1.0848967
137,1778316124.837421,-3.0189567,0.78449696,0.96645886,5.699831,2.5578456,1.9130772
138,1778316124.8879104,-1.7958366,-0.37227783,0.3146525,2.4255931,-0.063988134,3.6990945
139,1778316124.9375625,-1.0598788,-0.9722519,0.35398406,1.5824465,1.8782579,2.068695
140,1778316124.9875414,-0.11092111,-0.61717016,0.10835998,-0.008093964,0.04138612,0.17104226
141,1778316125.037893,0.2819067,-0.33727577,-0.010183521,-0.3391829,0.8741482,-1.3359623
142,1778316125.0876968,0.40295035,-0.38435167,-0.042746395,-1.2296717,0.83199847,-2.221106
143,1778316125.1377265,0.027806502,-0.57564336,0.11409202,-1.5845845,0.63071835,-3.4475708
144,1778316125.187446,-0.24812423,-0.8063885,0.13732508,-1.5798502,-0.0056505036,-3.517973
145,1778316125.2376306,-2.0798774,-1.047866,0.08945644,-4.3032403,-3.0611985,-5.2974234
146,1778316125.2874417,-5.8027167,0.17775428,2.1950061,-1.1817188,-0.55833083,-4.0683627
147,1778316125.3373892,-2.9162676,0.5954616,-0.046527103,0.6068946,-1.0737484,1.3278683
148,1778316125.3878121,-0.75833696,0.36270407,0.45777062,1.8881844,0.57757306,1.7243198
149,1778316125.4378943,0.14732568,0.36252114,-0.5344824,2.5132523,2.7188084,0.9589057
150,1778316125.4876585,-0.68949145,0.4016088,-0.18074225,-0.15393804,0.7593055,1.8032742
151,1778316125.5377707,-0.6334516,0.16049717,-0.009329813,-1.26556,-1.2125676,4.1431937
152,1778316125.5874774,-1.5478343,0.6844302,0.34447134,-1.2099713,-3.8884628,4.088521
153,1778316125.6376786,-3.0157857,0.35434994,1.4364252,2.6565003,0.29245174,4.311334
154,1778316125.6875806,-2.180615,-0.29574898,-0.03091644,1.8950567,0.35995236,4.5469756
155,1778316125.737687,-0.28782168,-0.7549221,-0.061954834,-0.029474247,0.4381431,3.5243871
156,1778316125.7874424,0.9713981,-1.0018268,-0.37611952,-0.14385876,1.6684257,1.169807
157,1778316125.837431,1.0472562,-1.2662324,-0.33678794,-1.6368134,1.9906571,-3.1871893
158,1778316125.8874676,0.25452703,-1.2450117,-0.025916148,-2.1598668,1.9165897,-5.230686
159,1778316125.9379656,-0.91663885,-1.11226,0.07128465,-2.2594378,0.8266534,-5.594304
160,1778316125.987486,-2.6861932,-0.88828355,0.28818756,-3.5979962,0.043066,-5.972735
161,1778316126.0376596,-4.891139,0.27422333,1.6600969,-1.8335121,0.2041817,-3.500258
162,1778316126.087759,-2.3686748,0.9002964,0.54808074,0.24602598,-0.7828238,-0.13591751
163,1778316126.1379206,-1.0004852,0.78108215,-0.024757542,0.45066583,0.054825157,0.45952338
164,1778316126.1875746,-0.43246427,0.7456533,0.034758125,0.25488353,0.16355917,0.7108944
165,1778316126.2373893,-0.6794299,0.8074861,0.5382631,2.134516,2.7934868,1.9225457
166,1778316126.287509,-0.4131339,0.19665782,-0.15348457,3.0115657,1.6239853,5.6854753
167,1778316126.3379004,-1.3175159,0.8348658,-0.10104248,0.5876524,-2.07572,3.0776918
168,1778316126.3879066,-3.1365244,0.77675265,0.20092636,2.7979155,-0.894154,1.8446603
169,1778316126.4379113,-2.619604,0.1612899,-0.588388,0.4476115,0.34513888,3.4863608
170,1778316126.4877303,-0.35483778,-0.58540004,0.17793721,-2.8050933,-1.3028228,3.5301902
171,1778316126.5373795,0.70260197,-0.85328156,-0.20976834,-1.2226468,1.0939069,2.5422685
172,1778316126.5876927,1.080124,-1.0371337,-0.31654286,-2.334727,2.0983222,-1.1253664
173,1778316126.6379104,0.17751035,-1.0424999,0.03079448,-2.149482,1.7930422,-3.9576433
174,1778316126.687765,-0.88694197,-0.66662425,-0.10372557,-2.0405953,1.0784826,-3.6048684
175,1778316126.7376595,-2.6631434,0.100432694,0.51990837,-2.944523,0.69043046,-4.2459717
176,1778316126.7877438,-3.635273,1.1500062,0.60515726,-1.357648,0.6411031,-1.4741706
177,1778316126.8379998,-2.634422,1.0997593,0.72870106,-1.7666223,-0.73945236,-0.1863139
178,1778316126.8877096,-1.0234133,0.7166272,0.4367328,-0.15363261,-0.07925977,0.17134771
179,1778316126.9376163,-0.31050593,0.5827169,-0.097017854,-0.11438452,-0.35842517,0.5885687
180,1778316126.9875624,-0.17086363,0.48234522,0.026343001,-0.79168135,-0.14844026,0.6026186
181,1778316127.0375445,-0.40258446,0.52637213,0.3357513,0.16462818,0.09010262,1.5696182
182,1778316127.0876024,-0.68016165,0.5822901,0.28330922,-0.087659165,-1.7249308,1.8368717
183,1778316127.1378763,-2.1387224,1.0223768,1.1808616,0.36468655,-3.095865,1.8396207
184,1778316127.187881,-2.5313063,0.40356013,0.8232798,3.540575,0.0917825,2.8655689
185,1778316127.2376032,-1.4850867,0.06561358,0.08396832,0.495259,-0.12522738,3.2571335
186,1778316127.287422,-0.113116354,-0.4300251,0.1293978,-0.8943067,-0.3023783,2.8015807
187,1778316127.3376951,0.52826256,-0.46978348,0.04439283,-0.122478485,2.16567,0.97387195
188,1778316127.3877857,0.7320549,-0.70071167,-0.40313327,-0.87369,1.4194981,-0.57543504
189,1778316127.4374688,0.6366225,-0.79510736,-0.2856264,-2.3205245,1.3863586,-2.5535696
190,1778316127.4878314,-0.7379089,-0.4721617,0.23598938,-2.046704,1.1815661,-3.464675
191,1778316127.5376656,-3.3030586,0.82565796,0.7487632,-2.3081543,1.6391041,-4.0672936
192,1778316127.5882938,-3.046641,1.100491,1.2890996,-3.193756,-0.871552,-0.6249151
193,1778316127.637792,-1.2888557,0.95676315,1.027255,-2.081676,-0.93935806,0.018478673
194,1778316127.6878517,-0.8356585,0.76961803,0.6452206,-0.9129381,0.34345898,-0.3840815
195,1778316127.7374434,-0.6144871,0.66729504,0.6098527,-0.028710667,0.3633121,1.1400273
196,1778316127.787512,-0.59515667,0.65205026,0.585522,0.68737614,-0.6070473,0.8969029
197,1778316127.837599,-0.6835155,0.5149691,0.5306407,1.510517,-2.6041186,1.6442965
198,1778316127.8878367,-1.1130528,0.7474217,0.97670335,1.4433218,-3.7067304,1.1801916
199,1778316127.9378963,-1.9800545,0.2701987,1.0630498,2.5663977,-0.3115413,1.6462818
200,1778316127.9876678,-0.99036264,-0.3726437,0.5914369,1.108415,0.31688634,3.5106425
