id,timestamp,acc_x,acc_y,acc_z,gyro_x,gyro_y,gyro_z
0,1778605995980,-0.24674188,0.24796216,1.2800802,2.0616703,1.2809844,0.20463985
1,1778605995990,-0.32581642,0.3065359,1.3603752,2.2992969,1.2308935,0.3408628
2,1778605996000,-0.31825066,0.268463,1.3552499,2.5534167,0.95722586,0.30604348
3,1778605996010,-0.30165476,0.25992095,1.351345,2.6273315,1.2589933,0.43371433
4,1778605996020,-0.25552794,0.2626056,1.3960074,2.5802948,1.4703526,0.4288274
5,1778605996030,-0.29042813,0.26187342,1.4304196,2.5137105,1.6022996,0.3659083
6,1778605996040,-0.29042813,0.26187342,1.4304196,2.5137105,1.6022996,0.3659083
7,1778605996050,-0.32239962,0.20818083,1.4523847,2.4972172,1.6884315,0.32498032
8,1778605996060,-0.25381953,0.18133454,1.2998489,2.8484647,2.0042489,0.3622431
9,1778605996070,-0.19841854,0.15375607,1.2151611,2.9590313,1.9126191,0.42149702
10,1778605996080,-0.1786499,0.13057062,1.1346222,3.255301,1.5546521,0.74036866
11,1778605996090,-0.15766099,0.10958171,1.0841023,3.4245105,1.3298537,0.89919364
12,1778605996100,-0.061014313,0.0959145,0.9371798,3.7085629,0.9285152,1.110553
13,1778605996110,0.014643434,0.087616555,0.8161274,4.0286565,0.5314528,1.3041973
14,1778605996120,0.10909359,0.08078295,0.69434285,4.509407,-0.047647487,1.5131133
15,1778605996130,0.21916342,0.093473926,0.5710939,4.6633453,-0.29993483,1.5222762
16,1778605996140,0.34802565,0.11153416,0.40269446,4.7067165,-0.4129449,1.4801265
17,1778605996150,0.545712,0.14252943,0.011714748,4.37013,-0.43188173,1.0042624
18,1778605996160,0.5757311,0.14497001,-0.1010397,4.1636577,-0.39950588,0.8155051
19,1778605996170,0.5930591,0.18572757,-0.32801294,3.8142426,-0.36346483,0.5497787
20,1778605996180,0.5942794,0.20622836,-0.4283205,3.404352,-0.28099802,0.27977628
21,1778605996190,0.5718261,0.21232979,-0.52203846,2.5607471,0.018325957,-0.15577064
22,1778605996200,0.52960426,0.21330604,-0.57988006,2.0207422,0.24984388,-0.3567453
23,1778605996210,0.35022214,0.19280522,-0.6570021,1.6065756,0.4392121,-0.47158796
24,1778605996220,0.35022214,0.19280522,-0.6570021,1.0671816,0.6792821,-0.5687156
25,1778605996230,0.35022214,0.19280522,-0.6570021,1.0671816,0.6792821,-0.5687156
26,1778605996240,0.35022214,0.19280522,-0.6570021,1.0671816,0.6792821,-0.5687156
27,1778605996250,0.18523945,0.08688438,-0.50666285,-0.5534439,0.7684685,-0.5314528
28,1778605996260,0.18523945,0.08688438,-0.50666285,-1.3286319,0.17470746,-0.2565634
29,1778605996270,0.18353106,0.054424766,-0.46736962,-1.3286319,0.17470746,-0.2565634
30,1778605996280,0.19158493,0.022453265,-0.43832684,-1.5778649,-0.122783914,-0.15699236
31,1778605996290,0.18914436,-0.04344219,-0.35290676,-2.058616,-0.66950834,-0.01282817
32,1778605996300,0.20671648,-0.08127106,-0.31019676,-2.629164,-1.1594223,0.12217305
33,1778605996310,0.22794947,-0.15058333,-0.27383223,-2.8631253,-1.2089024,0.15699236
34,1778605996320,0.23600335,-0.24161668,-0.23258655,-3.2021556,-1.1221595,0.20219639
35,1778605996330,0.23600335,-0.24161668,-0.23258655,-3.2021556,-1.1221595,0.20219639
36,1778605996340,0.21525851,-0.43027294,-0.091033354,-4.2510114,-0.47342056,0.3286455
37,1778605996350,0.19451363,-0.4515059,-0.011958805,-4.6370783,-0.3481932,0.38728857
38,1778605996360,0.24576566,-0.49885303,0.16010156,-4.8973064,-0.32253686,0.4202753
39,1778605996370,0.32679266,-0.51740134,0.29164842,-5.197852,-0.4831944,0.44165558
40,1778605996380,0.42124277,-0.5266756,0.4412555,-5.426316,-0.87598073,0.45142943
41,1778605996390,0.49397188,-0.5432714,0.5535218,-5.588806,-1.4306464,0.398895
42,1778605996400,0.652365,-0.605262,0.7831797,-5.6138515,-1.568091,0.258396
43,1778605996410,0.6872652,-0.61819696,0.8949579,-5.6602774,-1.6059648,-0.028710667
44,1778605996420,0.60013676,-0.57377857,1.1458488,-5.9137864,-1.559539,-0.8472701
45,1778605996430,0.60013676,-0.57377857,1.1458488,-5.9137864,-1.559539,-0.8472701
46,1778605996440,0.3743838,-0.49543622,1.4479916,-6.4171395,-1.3335189,-1.7886134
47,1778605996450,0.3128814,-0.46151224,1.6449459,-6.754337,-1.1551461,-2.2455406
48,1778605996460,0.34045988,-0.39634898,1.9297606,-7.012122,-0.9492846,-2.5625796
49,1778605996470,0.4471129,-0.28701133,2.566994,-6.5118237,0.3830125,-3.2198708
50,1778605996480,0.3973252,-0.26236153,2.647777,-5.851478,0.99021256,-3.6389244
51,1778605996490,0.3973252,-0.26236153,2.647777,-5.851478,0.99021256,-3.6389244
52,1778605996500,0.06028214,-0.2306341,2.6231272,-3.3835826,1.6762142,-5.010317
53,1778605996510,-0.20793676,-0.16254212,2.4478943,-2.7128525,1.3170254,-5.2277846
54,1778605996520,-0.63308454,-0.08615221,2.089862,-1.9749273,0.5186246,-5.3230796
55,1778605996530,-0.7975791,-0.05418071,1.9558747,-1.4025466,-1.2388347,-5.144707
56,1778605996540,-0.8983747,-0.00976229,1.9178019,-1.4807373,-2.0347922,-4.9626694
57,1778605996550,-1.091668,-0.07809832,2.2668037,-1.6383406,-2.2278256,-4.776966
58,1778605996560,-1.2717823,-0.11690342,2.6316693,-1.6829338,-2.01219,-4.5906525
59,1778605996570,-1.6315227,-0.06467517,3.0292385,-0.9297369,-1.491122,-2.9449813
60,1778605996580,-1.9487971,-0.014887493,3.2110612,-0.9297369,-1.491122,-2.9449813
61,1778605996590,-2.1264708,-0.034900185,3.2759807,-0.6536258,-0.8906415,-2.2834144
62,1778605996600,-2.1264708,-0.034900185,3.2759807,-0.36285394,0.15332718,-1.3756685
63,1778605996610,-1.8482454,0.10494461,3.134427,-0.1423316,1.318858,-0.48808134
64,1778605996620,-1.7059602,0.18987654,2.8889058,0.13927728,2.605951,0.65240407
65,1778605996630,-1.428467,0.27822527,2.5572317,0.25717425,3.0085113,0.9108001
66,1778605996640,-1.428467,0.27822527,2.5572317,0.4166101,3.2516358,0.915687
67,1778605996650,-1.1665937,0.2889638,2.2201886,1.0989466,2.5283713,0.602924
68,1778605996660,-0.9178993,0.15863721,1.9876022,1.2858714,2.221717,0.5882632
69,1778605996670,-0.89032084,0.1010397,1.9634405,1.5430456,1.9083431,0.60903263
70,1778605996680,-0.89032084,0.1010397,1.9634405,1.5430456,1.9083431,0.60903263
71,1778605996690,-0.89861876,0.093717985,2.0273836,2.3536637,2.1972823,0.79779
72,1778605996700,-0.82149667,-0.0156196635,2.0317764,2.669481,2.5094345,0.829555
73,1778605996710,-0.7653635,-0.09322987,1.9951681,2.9071076,2.982855,0.84971356
74,1778605996720,-0.6474839,-0.17132819,1.8116369,3.1337388,3.9339721,1.0195341
75,1778605996730,-0.5657247,-0.22868164,1.67106,3.0964758,4.3456955,1.133155
76,1778605996740,-0.39634898,-0.26162934,1.2978964,2.9901853,4.5821004,1.1887437
77,1778605996750,-0.37291947,-0.268463,1.2244352,2.7885997,4.7781878,1.2131784
78,1778605996760,-0.33948365,-0.33045352,1.2036903,2.5735753,4.696332,1.1630874
79,1778605996770,-0.3743838,-0.38756293,1.1629328,2.2455406,3.9248092,1.1087204
80,1778605996780,-0.46200037,-0.5379022,1.1119248,2.1429152,3.5772269,1.2296717
81,1778605996790,-0.47713193,-0.6445552,1.0887394,2.081218,3.4208453,1.4434745
82,1778605996800,-0.45858356,-0.7643873,1.1006982,2.0421226,3.3921347,1.9963076
83,1778605996810,-0.38780698,-0.7878168,1.0609169,2.0421226,3.3921347,1.9963076
84,1778605996820,-0.36681804,-0.7936742,0.99868226,2.271808,2.7733283,2.683531
85,1778605996830,-0.33411437,-0.80392456,0.9235126,2.4269676,2.638327,2.9431489
86,1778605996840,-0.3018988,-0.8085616,0.8778739,2.7269025,2.656653,3.3805282
87,1778605996850,-0.3018988,-0.8085616,0.8778739,2.7269025,2.656653,3.3805282
88,1778605996860,-0.23258655,-0.707766,0.8515157,3.1850514,2.4397957,3.8515053
89,1778605996870,-0.19134088,-0.647972,0.8793382,3.4752123,2.4013114,4.01705
90,1778605996880,-0.16229807,-0.5947675,0.87299275,4.341419,2.6780334,4.401895
91,1778605996890,-0.1444819,-0.5588911,0.8678676,4.6688433,2.9889636,4.528344
92,1778605996900,-0.14082102,-0.5125202,0.8998391,5.0665164,3.3481524,4.6407433
93,1778605996910,-0.16229807,-0.38268176,0.9510911,5.3805013,3.3713653,4.664567
94,1778605996920,-0.119588055,-0.336799,0.84102124,5.5955257,2.3762658,4.284609
95,1778605996930,-0.119588055,-0.336799,0.84102124,5.5955257,2.3762658,4.284609
96,1778605996940,0.24796216,-0.1871919,0.048323333,4.9162436,0.49541172,2.797152
97,1778605996950,0.110801995,-0.024161667,-0.12764193,4.583322,0.25228736,2.392759
98,1778605996960,0.024893839,0.060038086,-0.20915705,3.5827246,0.25167647,2.4086416
99,1778605996970,0.018304294,0.08029483,-0.2518671,3.2070425,0.16371189,2.629164
100,1778605996980,0.13179092,0.11348662,-0.27822527,2.7446175,-0.06169739,2.91566
101,1778605996990,0.28383857,0.23868799,-0.1181237,2.3451116,-0.27122417,3.1080823
102,1778605997000,0.48396555,0.20012695,-0.09640261,2.108096,-0.3848451,3.1624494
103,1778605997010,0.48396555,0.20012695,-0.09640261,1.7519615,-0.4147775,2.9407053
104,1778605997020,0.48396555,0.20012695,-0.09640261,1.7519615,-0.4147775,2.9407053
105,1778605997030,0.5523015,0.24747404,-0.20232345,1.5381587,-0.30970868,2.5729644
106,1778605997040,0.588178,0.2608972,-0.32239962,1.3078625,-0.5149594,2.3200662
107,1778605997050,0.588178,0.2608972,-0.32239962,1.3078625,-0.5149594,2.3200662
108,1778605997060,0.42417148,0.33484653,-0.61844105,1.0134255,-0.8863655,2.3585508
109,1778605997070,0.42856455,0.3807293,-0.67140144,0.6133087,-1.1117748,2.5405886
110,1778605997080,0.48445365,0.38121742,-0.7143555,0.3494149,-1.142318,2.5723536
111,1778605997090,0.58158845,0.3443648,-0.75267255,0.13439035,-1.1404854,2.525317
112,1778605997100,0.7380291,0.25357547,-0.7831797,-0.15821409,-1.1826351,2.3805418
113,1778605997110,0.7575537,0.19817449,-0.7883049,-0.8222246,-1.3891076,1.9376645
114,1778605997120,0.7302193,0.1330112,-0.78684056,-1.1099422,-1.3866642,1.7831156
115,1778605997130,0.5645044,-0.0046370877,-0.76170266,-1.5180001,-1.2137892,1.6426166
116,1778605997140,0.20842488,-0.076633975,-0.86249834,-1.9853121,-0.88025683,1.5906931
117,1778605997150,0.17035197,-0.15375607,-0.7314396,-3.1624494,-0.45998153,1.8869628
118,1778605997160,0.22746135,-0.32532832,-0.2884757,-3.7739255,-0.7147123,2.0592268
119,1778605997170,0.2272173,-0.40098605,-0.15229172,-4.08791,-0.7593055,2.180789
120,1778605997180,0.33313814,-0.48128092,-0.051252022,-4.378682,-0.64996064,2.288912
121,1778605997190,0.53936654,-0.55010504,-0.05686534,-5.145318,-0.54367006,1.8478674
122,1778605997200,0.68311626,-0.6208816,-0.16180995,-5.6456165,-0.44165558,1.5216653
123,1778605997210,0.68311626,-0.6208816,-0.16180995,-5.6456165,-0.44165558,1.5216653
124,1778605997220,0.8588374,-0.77854264,-0.107385196,-7.5417423,-0.23579398,0.3921755
125,1778605997230,0.895202,-0.86982006,0.22355644,-8.15444,-0.065973446,-0.0580322
126,1778605997240,0.895202,-0.86982006,0.22355644,-8.538674,0.11056661,-0.42271876
127,1778605997250,0.8459024,-1.0174747,0.72533816,-8.919854,0.15699236,-1.0207558
128,1778605997260,0.7180164,-1.0677505,1.0077124,-9.221011,-0.52473325,-2.3536637
129,1778605997270,0.5610876,-1.1033828,1.206375,-9.199631,-0.7641924,-2.6933048
130,1778605997280,0.41294485,-1.232001,1.5019283,-9.129381,-0.87598073,-3.005457
131,1778605997290,0.39342028,-1.2590914,1.6127303,-9.049969,-0.3286455,-3.5870006
132,1778605997300,0.3162982,-1.2671453,1.6959538,-9.091508,0.16310102,-3.961461
133,1778605997310,0.06760386,-1.2925272,1.8611807,-9.169087,0.5729916,-4.2803326
134,1778605997320,0.06760386,-1.2925272,1.8611807,-9.247889,0.7293731,-4.4629817
135,1778605997330,-0.061014313,-1.2993608,2.0359256,-9.293093,0.5143485,-4.595539
136,1778605997340,-0.29189247,-1.189047,2.7832289,-8.037765,-1.287093,-4.265672
137,1778605997350,-0.53350914,-0.93327487,3.1434574,-8.037765,-1.287093,-4.265672
138,1778605997360,-0.53350914,-0.93327487,3.1434574,-7.222871,-1.9065105,-3.9749002
139,1778605997370,-0.5515694,-0.80636513,3.1336951,-6.4837236,-2.2797492,-3.5075881
140,1778605997380,-0.6291796,-0.59916055,3.0775619,-5.6059103,-2.4239132,-2.1038198
141,1778605997390,-0.6291796,-0.59916055,3.0775619,-5.6059103,-2.4239132,-2.1038198
142,1778605997400,-0.6291796,-0.59916055,3.0775619,-5.6059103,-2.4239132,-2.1038198
143,1778605997410,-0.69556314,-0.3099527,3.39386,-5.2742105,-2.2333233,-1.0115929
144,1778605997420,-0.571338,-0.045638707,3.7104023,-3.458719,-2.5576928,0.18875736
145,1778605997430,-0.39488465,0.17279254,3.8604975,-2.673757,-2.9022207,0.4288274
146,1778605997440,-0.28969595,0.18816814,3.8683074,-1.9382755,-3.0243938,0.5852089
147,1778605997450,-0.20354374,0.18743597,3.8739207,-0.80939645,-2.7433958,0.5729916
148,1778605997460,-0.19939478,0.19109683,3.8629382,-0.20769419,-2.2540927,0.46486846
149,1778605997470,-0.21794313,0.18182266,3.840485,0.25350907,-1.7373008,0.3811799
150,1778605997480,-0.16864355,0.027090356,3.5027096,1.8704693,0.7257079,0.0061086523
151,1778605997490,-0.16864355,0.027090356,3.5027096,1.8704693,0.7257079,0.0061086523
152,1778605997500,-0.25650415,-0.034900185,3.168107,2.3823745,1.4581354,-0.050701816
153,1778605997510,-0.28237423,-0.14399378,2.8886614,3.3084462,2.1197023,0.089186326
154,1778605997520,-0.28505886,-0.21452633,2.7976282,4.043928,1.9004018,0.43310347
155,1778605997530,-0.26797485,-0.298482,2.7556505,4.506353,1.6371188,0.6774496
156,1778605997540,-0.1901206,-0.50934744,2.7126963,4.87837,1.4391985,0.8509353
157,1778605997550,-0.1901206,-0.50934744,2.7126963,4.87837,1.4391985,0.8509353
158,1778605997560,-0.06589546,-0.70410514,2.5757802,5.8539214,1.1319333,1.2021828
159,1778605997570,0.016107777,-0.77634615,2.4908483,6.405533,1.210124,1.2980887
160,1778605997580,0.1295944,-0.8581053,2.3844392,6.603453,1.3017539,1.2712106
161,1778605997590,0.16425052,-0.91423845,2.3732128,6.999294,1.3396275,1.1582005
162,1778605997600,0.16742326,-0.97549677,2.3475866,7.560679,1.4605788,0.95172805
163,1778605997610,0.18133454,-1.0411482,2.306097,7.560679,1.4605788,0.95172805
164,1778605997620,0.20134723,-1.193684,2.0957196,7.755545,1.5809193,0.8772025
165,1778605997630,0.20915705,-1.2561626,1.9644167,7.946746,1.7342464,0.7837401
166,1778605997640,0.16888762,-1.3227903,1.8140775,8.123897,1.8912388,0.7104363
167,1778605997650,0.09835507,-1.4311516,1.4894813,8.1330595,1.853976,0.7837401
168,1778605997660,0.10421244,-1.4599504,1.3947871,8.120232,1.813659,0.84788096
169,1778605997670,0.12349297,-1.4767904,1.3152245,8.141612,1.6071864,1.0873401
170,1778605997680,0.17401282,-1.4245622,1.1824573,8.212472,1.4636332,1.1911873
171,1778605997690,0.17401282,-1.4245622,1.1824573,8.212472,1.4636332,1.1911873
172,1778605997700,0.25674823,-1.3960074,0.9586569,8.382904,1.346347,1.2687671
173,1778605997710,0.26699865,-1.3579346,0.8659151,8.368854,1.2162327,1.2492194
174,1778605997720,0.28505886,-1.313028,0.7556012,8.323649,1.169807,1.2388347
175,1778605997730,0.31068486,-1.261776,0.5120321,8.260731,1.133155,1.2431108
176,1778605997740,0.3116611,-1.227364,0.3939084,8.183151,1.024421,1.2657127
177,1778605997750,0.30751213,-1.1805049,0.25943285,8.056091,0.8350528,1.3316863
178,1778605997760,0.34680536,-1.039928,-0.18987654,7.528914,0.48502702,1.736079
179,1778605997770,0.34680536,-1.039928,-0.18987654,7.528914,0.48502702,1.736079
180,1778605997780,0.37072295,-0.9901402,-0.3482697,7.2271466,0.3811799,1.8997909
181,1778605997790,0.43954712,-0.68140787,-0.8088057,5.949217,0.2144137,2.3133466
182,1778605997800,0.48445365,-0.5657247,-1.0284572,5.3872204,-0.037873644,2.4275784
183,1778605997810,0.51788944,-0.46736962,-1.163909,4.9388456,-0.22113322,2.484389
184,1778605997820,0.545468,-0.36413342,-1.2947236,3.648698,-1.0103711,2.5008824
185,1778605997830,0.5759751,-0.28261828,-1.427979,2.9089403,-1.395827,2.4226916
186,1778605997840,0.5764632,-0.1718163,-1.6222485,2.298075,-1.5558738,2.35794
187,1778605997850,0.5742667,-0.15717287,-1.6227367,1.4239268,-1.5540411,2.3109033
188,1778605997860,0.5867136,-0.17108414,-1.5319474,-0.09712757,-1.3390167,2.2901337
189,1778605997870,0.605262,-0.16913168,-1.2549424,-0.7819075,-1.1294898,2.2675319
190,1778605997880,0.59916055,-0.17059602,-1.1226633,-1.3255776,-0.82527894,2.2638667
191,1778605997890,0.5964759,-0.16986385,-1.053107,-1.6578883,-0.59559363,2.2595906
192,1778605997900,0.6208816,-0.17620933,-1.0533512,-2.656653,0.18875736,2.1673498
193,1778605997910,0.6208816,-0.17620933,-1.0533512,-2.656653,0.18875736,2.1673498
194,1778605997920,0.6745742,-0.2294138,-1.0726316,-3.1031954,0.31764993,2.0176878
195,1778605997930,0.6919023,-0.33875147,-0.9498709,-4.2174134,0.4831944,1.4978416
196,1778605997940,0.6452874,-0.42905265,-0.8188121,-5.2302284,0.77824235,0.9254609
197,1778605997950,0.49519217,-0.5801241,-0.528384,-5.7635136,1.0476339,0.6310238
198,1778605997960,0.42661208,-0.6577343,-0.4097721,-6.1282,1.2724323,0.43860126
199,1778605997970,0.36315718,-0.74169,-0.30970863,-7.015787,1.8014416,-0.019547688
200,1778605997980,0.36315718,-0.74169,-0.30970863,-7.015787,1.8014416,-0.019547688
201,1778605997990,0.3048275,-0.8336995,-0.17718557,-7.3102245,1.9052887,-0.17654006
202,1778605998000,0.1598575,-1.0631135,0.174745,-7.885659,1.8997909,-0.54428095
203,1778605998010,0.13496366,-1.1390152,0.272856,-8.178264,1.8075503,-0.7519751
204,1778605998020,0.13325526,-1.2205303,0.38805103,-8.306545,1.672549,-0.788627
205,1778605998030,0.14301755,-1.279104,0.5017817,-8.3743515,1.4501941,-0.8008443
206,1778605998040,0.31263736,-1.3428029,0.878362,-8.379849,0.79717916,-0.94989544
207,1778605998050,0.31263736,-1.3428029,0.878362,-8.379849,0.79717916,-0.94989544
208,1778605998060,0.3824377,-1.3774592,1.069947,-8.416501,0.6786713,-1.0305296
209,1778605998070,0.3824377,-1.3774592,1.069947,-8.539286,0.5815437,-1.1502593
210,1778605998080,0.3824377,-1.3774592,1.069947,-8.790351,0.46853364,-1.255328
211,1778605998090,0.18597162,-1.4853324,1.5487872,-9.449474,0.26939157,-1.273654
212,1778605998100,0.14130914,-1.445063,2.0232346,-9.497122,0.25595254,-1.2327261
213,1778605998110,0.14130914,-1.445063,2.0232346,-9.497122,0.25595254,-1.2327261
214,1778605998120,0.15082738,-1.3291358,2.3607657,-9.43237,0.18753563,-1.2089024
215,1778605998130,0.3219115,-0.9730562,2.7227027,-8.034711,0.956615,-1.3096951
216,1778605998140,0.31068486,-0.8539563,2.694392,-7.444615,1.4434745,-1.5833627
217,1778605998150,0.2272173,-0.7302193,2.664861,-7.041444,1.6633861,-1.9107865
218,1778605998160,0.12202863,-0.67091334,2.689755,-6.673092,1.6890424,-2.357329
219,1778605998170,-0.00707766,-0.652365,2.8025093,-6.445239,1.7287487,-2.4764478
220,1778605998180,-0.24234885,-0.5742667,3.0597458,-6.178902,1.7476854,-2.4770586
221,1778605998190,-0.39342028,-0.43661842,3.2896478,-5.3743925,1.2406673,-2.0189097
222,1778605998200,-0.5015376,-0.31898284,3.5066147,-4.6340237,0.47952923,-1.5302174
223,1778605998210,-0.8090498,-0.0622346,4.0059557,-3.1716123,-1.604743,-0.41233405
224,1778605998220,-0.8717725,0.035632357,4.063797,-2.3487768,-2.6633725,0.344528
225,1778605998230,-0.8717725,0.035632357,4.063797,-2.3487768,-2.6633725,0.344528
226,1778605998240,-0.84565836,0.1432616,4.067214,-0.9810496,-3.400076,1.6664404
227,1778605998250,-0.42417148,0.38951537,3.8460982,0.45448375,-2.2278256,2.4788911
228,1778605998260,0.12568948,0.6474839,3.436082,0.9242391,-1.518611,2.4165828
229,1778605998270,0.30360723,0.6909261,3.2066681,1.8655825,0.3903429,1.5448782
230,1778605998280,0.41294485,0.66969305,2.9577298,2.1178699,1.0421361,1.1575897
231,1778605998290,0.45248213,0.50593066,2.5008545,2.4007003,1.7574593,0.71837753
232,1778605998300,0.37291947,0.40903994,2.3375802,2.6597073,2.1783454,0.41050145
233,1778605998310,0.29042813,0.31727442,2.2438624,2.8576276,2.2479842,0.28527406
234,1778605998320,0.21428227,0.09298581,2.161859,3.4416149,1.5528195,0.3213151
235,1778605998330,0.12373702,-0.00707766,2.1293995,3.7696495,0.98349303,0.46731192
236,1778605998340,0.12007617,-0.102748096,2.106214,4.012163,0.5662721,0.5919284
237,1778605998350,0.13349932,-0.16937573,2.0947433,4.012163,0.5662721,0.5919284
238,1778605998360,0.25796852,-0.3214234,2.1323283,4.7342057,-0.52412236,0.94134337
239,1778605998370,0.25796852,-0.3214234,2.1323283,4.9345694,-0.6267477,0.979217
240,1778605998380,0.32606047,-0.37121108,2.160395,5.1153855,-0.6243043,0.94134337
241,1778605998390,0.35193056,-0.45687518,2.2323916,5.5686474,-0.39706242,0.54061574
242,1778605998400,0.23087814,-0.6025773,2.3207405,5.7152553,-0.39645153,0.43371433
243,1778605998410,0.19500175,-0.7048373,2.3473425,6.1752367,-0.42271876,0.28038713
244,1778605998420,0.16888762,-0.77073276,2.3693078,6.414085,-0.4361578,0.25534168
245,1778605998430,0.19793043,-0.9479183,2.220677,7.0426655,-0.042760566,0.25228736
246,1778605998440,0.2630937,-0.9791577,2.123542,7.433619,0.40378192,0.19975294
247,1778605998450,0.32581642,-1.0128375,1.9854058,7.628485,0.70921457,0.07452556
248,1778605998460,0.40196228,-1.0714114,1.6132184,7.7286673,0.9242391,-0.05131268
249,1778605998470,0.39537275,-1.0599406,1.4270028,7.7866993,1.1136073,-0.22479841
250,1778605998480,0.38268176,-1.0499343,1.2136967,7.6950693,1.3292428,-0.46975538
251,1778605998490,0.3692586,-1.018939,0.7558453,7.465384,1.368949,-0.6041457
252,1778605998500,0.3692586,-1.018939,0.7558453,7.465384,1.368949,-0.6041457
253,1778605998510,0.33484653,-0.9730562,0.64992446,7.315111,1.1343768,-0.625526
254,1778605998520,0.2523552,-0.9113098,0.4600479,7.122078,0.002443461,-0.43188173
255,1778605998530,0.16058967,-0.88934463,0.1969542,7.084815,-0.42760566,-0.3555236
256,1778605998540,0.088348724,-0.8542004,0.07516963,7.084815,-0.42760566,-0.3555236
257,1778605998550,0.03929322,-0.81417495,-0.06858008,6.4989953,-1.7574593,0.25473082
258,1778605998560,0.027334413,-0.78366786,-0.1637624,6.2314363,-1.9407189,0.4538729
259,1778605998570,0.03465613,-0.7412019,-0.26504618,5.8331523,-2.0879374,0.6927212
260,1778605998580,0.12154051,-0.6457755,-0.39293218,5.426316,-2.1423044,0.8906415
261,1778605998590,0.15961345,-0.6067263,-0.46541715,4.701219,-2.0775528,1.0952814
262,1778605998600,0.18816814,-0.579636,-0.5422952,4.2540655,-1.9755383,1.1643091
263,1778605998610,0.18816814,-0.579636,-0.5422952,4.2540655,-1.9755383,1.1643091
264,1778605998620,0.18816814,-0.579636,-0.5422952,4.2540655,-1.9755383,1.1643091
265,1778605998630,0.18816814,-0.579636,-0.5422952,4.2540655,-1.9755383,1.1643091
266,1778605998640,0.21184167,-0.5208182,-0.6552937,3.9199224,-1.853976,1.215011
267,1778605998650,0.22965786,-0.33631086,-1.2827649,1.5876387,-0.28771752,1.4398094
268,1778605998660,0.28237423,-0.2933568,-1.3777032,-0.38606682,0.86193085,1.4923438
269,1778605998670,0.34631723,-0.2604091,-1.4301754,-1.1368202,1.1239921,1.459357
270,1778605998680,0.47786412,-0.21745501,-1.4719093,-1.6914859,1.1710287,1.4068227
271,1778605998690,0.53082454,-0.22160399,-1.445551,-2.4110851,1.0134255,1.3060299
272,1778605998700,0.5759751,-0.24845028,-1.368429,-3.1031954,0.6096435,1.1722504
273,1778605998710,0.59794027,-0.2884757,-1.2700739,-4.2192464,-0.43127087,0.95417154
274,1778605998720,0.59794027,-0.2884757,-1.2700739,-4.2192464,-0.43127087,0.95417154
275,1778605998730,0.6033095,-0.41050428,-0.96451426,-4.2192464,-0.43127087,0.95417154
276,1778605998740,0.5937913,-0.55791485,-0.60989904,-6.042068,-1.6707164,0.7666359
277,1778605998750,0.5947675,-0.64040625,-0.45419052,-6.419583,-1.6206255,0.69027776
278,1778605998760,0.5945235,-0.73412424,-0.30726805,-6.695083,-1.5033394,0.6072
279,1778605998770,0.545468,-0.9342511,-0.0014643435,-7.049996,-1.255328,0.47952923
280,1778605998780,0.4742032,-1.0994779,0.268463,-7.851451,-0.34025195,0.24495697
281,1778605998790,0.42954078,-1.2178457,0.5142286,-8.059756,-0.108123146,0.2180789
282,1778605998800,0.42075467,-1.24518,0.626739,-8.193536,0.025045475,0.23823744
283,1778605998810,0.40147418,-1.2622641,0.75145227,-8.219192,-0.12217305,0.39828414
284,1778605998820,0.40635532,-1.2776396,0.83491987,-8.150775,-0.3933972,0.5723807
285,1778605998830,0.45345837,-1.2759314,0.99917036,-8.094575,-0.72692966,0.74281216
286,1778605998840,0.47444725,-1.2410312,1.0601847,-8.059756,-1.318858,1.0158689
287,1778605998850,0.5518134,-1.2176017,1.1116807,-8.059756,-1.318858,1.0158689
288,1778605998860,0.6977597,-1.244936,1.1836777,-8.573494,-2.2009475,1.6847663
289,1778605998870,0.95743656,-1.2693417,1.6124862,-8.939402,-1.9168952,1.7122552
290,1778605998880,1.0294335,-1.2434716,1.8692344,-9.1617565,-1.3322971,1.668273
291,1778605998890,1.073852,-1.189535,2.1081665,-9.131214,-0.7257079,1.5668694
292,1778605998900,1.048958,-1.104603,2.2223854,-8.270505,1.1795808,0.8197812
293,1778605998910,0.91814333,-0.92595315,1.679846,-8.070751,2.6481009,-0.18448131
294,1778605998920,0.7826916,-0.9864794,1.5011961,-9.523389,3.4391713,-1.1850786
295,1778605998930,0.5527897,-1.121199,1.649339,-10.520932,2.8087585,-1.568702
296,1778605998940,0.07565775,-1.1951483,3.2969692,-10.9778595,0.9932669,-1.5790867
297,1778605998950,-0.020744866,-0.9830626,4.1938796,-10.363329,-1.7641789,-1.0085385
298,1778605998960,-0.020744866,-0.9830626,4.1938796,-10.363329,-1.7641789,-1.0085385
299,1778605998970,0.35583547,-0.8158834,4.7910876,-4.2943826,-6.4153066,1.4514158
300,1778605998980,0.545468,-0.7682922,4.507493,-2.8454103,-6.323677,2.0622811
301,1778605998990,0.7895252,-0.45687518,3.6010647,-1.613906,-5.5552087,2.83808
302,1778605999000,1.0638455,-0.3333822,3.2762244,-1.0164797,-3.7464366,3.7256672
303,1778605999010,1.3989362,-0.25137895,3.0834193,-1.0812315,-2.8961122,3.5527923
304,1778605999020,1.8377512,-0.00024405724,2.813004,-1.0122037,-1.7922786,2.8759537
305,1778605999030,1.811881,0.0976229,2.7414951,-0.86193085,-0.91629785,2.1642957
306,1778605999040,1.3635478,0.19817449,2.591888,0.005497787,1.3445144,-0.27488935
307,1778605999050,0.9196077,0.056133166,2.5706549,0.29077184,1.5491543,-0.5516113
308,1778605999060,0.7582859,-0.0156196635,2.5730956,0.7556403,1.668273,-0.7257079
309,1778605999070,0.6465077,-0.088348724,2.5567439,1.8044959,1.6285667,-0.6035349
310,1778605999080,0.6289356,-0.20818083,2.4671748,2.4569001,1.5338826,-0.43004912
311,1778605999090,0.6667644,-0.25357547,2.3990827,3.0775392,1.3903292,-0.28710666
312,1778605999100,0.7197248,-0.2882316,2.328062,3.5014796,1.3029755,-0.22418754
313,1778605999110,0.81295466,-0.3392396,2.2536247,4.39151,1.318858,-0.29993483
314,1778605999120,0.9003272,-0.39073566,2.1760144,4.7006083,1.4349225,-0.48808134
315,1778605999130,0.9994144,-0.5015376,2.0708258,4.896085,1.5442673,-0.6731735
316,1778605999140,1.010397,-0.5588911,2.024699,5.136766,1.6523905,-0.93645644
317,1778605999150,1.0033194,-0.6291796,1.9841853,5.551543,1.7788396,-1.3610078
318,1778605999160,0.9679311,-0.72021294,1.9553868,5.8001657,1.781283,-1.568091
319,1778605999170,0.88885653,-0.899595,1.8419001,6.032905,1.781894,-1.7397442
320,1778605999180,0.81417495,-1.0277251,1.6290822,6.3945374,2.3084598,-1.9474384
321,1778605999190,0.76121455,-1.0628693,1.5029045,6.387207,2.5864034,-1.8979583
322,1778605999200,0.6975156,-1.1026506,1.360131,6.355442,2.7275133,-1.8277088
323,1778605999210,0.68140787,-1.1124129,1.3310882,6.29741,2.8112018,-1.7189748
324,1778605999220,0.64821607,-1.1006982,1.30473,6.266256,2.6853635,-1.5393804
325,1778605999230,0.6133158,-1.0853225,1.274711,6.3310075,2.5302038,-1.4300356
326,1778605999240,0.4756676,-1.0777569,1.1983211,6.418361,2.2925773,-1.3041973
327,1778605999250,0.39756927,-1.0431006,1.1453607,6.468452,2.0641136,-1.1911873
328,1778605999260,0.35046622,-1.0074683,1.1031388,6.5026608,1.7617353,-1.0024298
329,1778605999270,0.3328941,-0.97378844,1.0902036,6.4983845,1.1942415,-0.571159
330,1778605999280,0.3402158,-0.912286,1.0350468,6.4934974,1.0134255,-0.4196644
331,1778605999290,0.36559775,-0.87226063,0.98159826,6.5075474,0.8350528,-0.24312437
332,1778605999300,0.42783237,-0.84614646,0.94913864,6.5203757,0.59559363,-0.05131268
333,1778605999310,0.5852493,-0.67555046,0.8329674,6.5185432,0.28405234,-0.013439035
334,1778605999320,0.6540734,-0.62551874,0.8254016,6.522819,0.26511553,-0.04642576
335,1778605999330,0.69507504,-0.5608435,0.75535715,6.572299,0.2919936,-0.36713
336,1778605999340,0.72118914,-0.5020258,0.6079466,6.569245,0.48563787,-0.63591075
337,1778605999350,0.6872652,-0.37633628,0.46932206,6.5252624,0.54611355,-0.8503244
338,1778605999360,0.59061855,-0.30507156,0.3590082,6.4214153,0.46181414,-1.0989466
339,1778605999370,0.5025139,-0.25845662,0.22306833,6.1031547,0.49541172,-1.2699889
340,1778605999380,0.42807645,-0.26211748,0.10836142,5.851478,0.4709771,-1.210124
341,1778605999390,0.42807645,-0.26211748,0.10836142,5.5552087,0.5534439,-1.0299188
342,1778605999400,0.18279888,-0.2853029,-0.32215557,5.338962,0.6921103,-0.8020661
343,1778605999410,0.13374338,-0.29555333,-0.4756676,4.8160615,0.8765916,0.007941248
344,1778605999420,0.076389916,-0.234539,-0.8437059,4.298048,0.19547687,0.81000733
345,1778605999430,0.076389916,-0.234539,-0.8437059,4.298048,0.19547687,0.81000733
346,1778605999440,0.04490653,-0.14423785,-1.5131549,3.8631117,-0.552833,1.2699889
347,1778605999450,0.04490653,-0.14423785,-1.5131549,3.2223141,-1.3897184,1.6658295
348,1778605999460,0.22892569,-0.16644704,-1.6351836,1.0091494,-2.1111503,2.6804767
349,1778605999470,0.2928687,-0.15766099,-1.6056527,0.42821655,-2.1661282,2.8154778
350,1778605999480,0.34900185,-0.1513155,-1.5553769,-1.0323622,-2.2559254,2.8582385
351,1778605999490,0.3909797,-0.16205402,-1.4592183,-1.5381587,-2.3280075,2.7910433
352,1778605999500,0.40123013,-0.19573392,-1.3547617,-2.179567,-2.4208589,2.6774223
353,1778605999510,0.3990336,-0.2945771,-1.104359,-2.7751608,-2.411696,2.5625796
354,1778605999520,0.3990336,-0.2945771,-1.104359,-2.7751608,-2.411696,2.5625796
355,1778605999530,0.3900035,-0.35607952,-0.9654905,-3.7055085,-2.1649065,2.3774874
356,1778605999540,0.31727442,-0.49104318,-0.67091334,-4.5967607,-1.7489072,2.2724187
357,1778605999550,0.25723633,-0.6262509,-0.33948365,-4.869207,-1.5735888,2.2681427
358,1778605999560,0.23746772,-0.66896087,-0.19134088,-5.402492,-0.95417154,2.3047945
359,1778605999570,0.21940747,-0.7080101,-0.022941383,-5.5338283,-0.66339964,2.3231206
360,1778605999580,0.23209843,-0.7687803,0.19817449,-5.666386,-0.20525073,2.3335052
361,1778605999590,0.23209843,-0.7687803,0.19817449,-5.666386,-0.20525073,2.3335052
362,1778605999600,0.29213652,-0.7336361,0.3275248,-6.286414,1.3909402,2.053729
363,1778605999610,0.35071027,-0.6562699,0.3943965,-6.583295,1.5008959,1.930945
364,1778605999620,0.40830776,-0.60721445,0.51593703,-6.849632,1.5338826,1.8020525
365,1778605999630,0.44052333,-0.5623079,0.656514,-6.849632,1.5338826,1.8020525
366,1778605999640,0.46590528,-0.5427833,0.8363842,-7.860614,1.7837266,1.0916162
367,1778605999650,0.44857723,-0.5718261,1.1746475,-8.122065,2.1471913,0.76052725
368,1778605999660,0.43954712,-0.5874458,1.3835605,-8.299215,2.6169467,0.45020768
369,1778605999670,0.35437113,-0.5503491,1.5890567,-8.161771,2.7311785,0.23762658
370,1778605999680,0.14960709,-0.46248847,1.8475134,-7.626042,1.8961257,0.43493605
371,1778605999690,-0.022209208,-0.38780698,2.1086547,-6.7635,0.30298916,0.78801614
372,1778605999700,-0.18353106,-0.19963883,2.2707086,-6.0316834,-1.1643091,1.1368202
373,1778605999710,0.07785426,-0.082247294,1.930981,-5.0549097,-3.5375206,2.5662448
374,1778605999720,0.07785426,-0.082247294,1.930981,-5.0549097,-3.5375206,2.5662448
375,1778605999730,0.8402891,-0.05418071,1.9141409,-6.4342437,-0.77213365,3.0042353
376,1778605999740,1.0133257,0.051496077,2.5223315,-7.2234817,0.39950588,2.9743028
377,1778605999750,1.2339534,0.26577836,3.5610392,-7.2234817,0.39950588,2.9743028
378,1778605999760,1.5622104,0.571338,4.983649,-4.459927,-0.3475823,2.2901337
379,1778605999770,1.6132184,0.49177536,5.059795,-2.7598891,-0.7263188,1.958434
380,1778605999780,1.6132184,0.49177536,5.059795,-2.7598891,-0.7263188,1.958434
381,1778605999790,1.6132184,0.49177536,5.059795,-2.7598891,-0.7263188,1.958434
382,1778605999800,1.7830821,0.70093244,2.9945824,1.3298537,2.8313603,0.86315256
383,1778605999810,1.8521506,0.76072645,2.8073905,1.0341948,3.7348301,0.3933972
384,1778605999820,1.8006544,0.77024466,2.8283794,0.84116143,3.93947,-0.028099801
385,1778605999830,1.1582958,0.4412555,2.8576665,1.3897184,3.2302554,-0.9560041
386,1778605999840,1.1582958,0.4412555,2.8576665,2.107485,2.389705,-1.1887437
387,1778605999850,0.92156017,0.28164205,2.7129405,2.656042,1.7427986,-1.241889
388,1778605999860,0.7721971,0.15326795,2.6038468,3.7836993,0.26267207,-1.0042624
389,1778605999870,0.68458056,0.033923957,2.5460052,4.102571,-0.12522738,-0.86254174
390,1778605999880,0.8422416,-0.13886857,2.6277645,4.912578,-0.64751714,-0.6591236
391,1778605999890,0.8944698,-0.17328064,2.5999417,5.6743274,-0.43249258,-0.82650065
392,1778605999900,0.9601213,-0.23307467,2.5242841,6.047566,0.017104227,-1.0317514
393,1778605999910,1.0130817,-0.30946457,2.3763855,6.291912,0.59498274,-1.2822062
394,1778605999920,1.0477377,-0.4407674,2.0439794,6.4073653,1.0592403,-1.4709635
395,1778605999930,1.0477377,-0.5191097,1.8921759,6.5099907,1.609019,-1.709201
396,1778605999940,1.0121055,-0.5957437,1.7494024,6.677979,2.2229385,-2.067168
397,1778605999950,0.86371857,-0.7614586,1.4128474,6.776939,2.406809,-2.1887302
398,1778605999960,0.7980672,-0.8395569,1.2197981,6.872234,2.4715607,-2.2333233
399,1778605999970,0.7082541,-0.95377576,0.9088692,6.963864,2.3811526,-2.1923954
400,1778605999980,0.7082541,-0.95377576,0.9088692,6.86246,1.9920316,-2.0244074
401,1778605999990,0.5933032,-0.96304995,0.73461235,6.86246,1.9920316,-2.0244074
402,1778606000000,0.54839665,-0.93181056,0.656514,6.8099256,1.7379116,-1.9443841
403,1778606000010,0.5972081,-0.88788027,0.5786598,6.8093147,0.88025683,-1.8051068
404,1778606000020,0.60062486,-0.79611474,0.46736962,6.8093147,0.88025683,-1.8051068
405,1778606000030,0.52399087,-0.7238738,0.38463423,6.9516463,0.106901415,-2.0366247
406,1778606000040,0.43320164,-0.6604189,0.30629185,6.8649035,-0.6621779,-2.4196372
407,1778606000050,0.43320164,-0.6604189,0.30629185,6.8649035,-0.6621779,-2.4196372
408,1778606000060,0.28335047,-0.50763905,0.07443746,6.3517766,-1.1160508,-2.7806585
409,1778606000070,0.27602875,-0.49299565,0.027822526,6.1220913,-1.0488557,-2.8857274
410,1778606000080,0.25772443,-0.47713193,-0.024405725,5.607132,-0.42088616,-3.0952542
411,1778606000090,0.21525851,-0.4634647,-0.08322352,5.4318137,-0.16249016,-3.114802
412,1778606000100,0.21525851,-0.4634647,-0.08322352,5.4318137,-0.16249016,-3.114802
413,1778606000110,0.00073217176,-0.3922,-0.28457075,4.9480085,0.33292156,-2.819754
414,1778606000120,-0.04759116,-0.36047253,-0.3704789,4.546059,0.73792523,-2.208278
415,1778606000130,-0.09322987,-0.32215557,-0.485918,4.2913284,1.0421361,-1.8344283
416,1778606000140,-0.18450728,-0.2403964,-0.780007,4.061643,1.2822062,-1.5845845
417,1778606000150,-0.30116665,-0.14570218,-1.0801975,2.5778513,1.9694295,-0.75869465
418,1778606000160,-0.32239962,-0.119343996,-1.206375,2.5778513,1.9694295,-0.75869465
419,1778606000170,-0.37536004,-0.09054524,-1.4272468,1.3891076,2.0751092,-0.25961772
420,1778606000180,-0.39024755,-0.082735404,-1.4946066,0.62858033,2.0060816,0.044593163
421,1778606000190,-0.39024755,-0.082735404,-1.4946066,0.62858033,2.0060816,0.044593163
422,1778606000200,-0.319715,-0.10836142,-1.5114466,-1.3787229,1.3616186,0.9334021
423,1778606000210,-0.15155955,-0.17840585,-1.3752626,-1.8790215,0.9285152,1.1496484
424,1778606000220,-0.09225364,-0.20842488,-1.2625082,-2.4801128,0.23396139,1.4037683
425,1778606000230,-0.012202863,-0.25015867,-1.1319375,-3.462995,-1.074512,1.8472565
426,1778606000240,0.0776102,-0.29701766,-1.0196712,-3.7867537,-1.4373659,1.9938642
427,1778606000250,0.23990828,-0.4144092,-0.8000197,-4.224744,-1.7464638,2.1563544
428,1778606000260,0.2928687,-0.46322066,-0.7094744,-4.7030516,-1.8301523,2.271808
429,1778606000270,0.35437113,-0.6218578,-0.4639528,-6.1990604,-0.7098254,2.3017402
430,1778606000280,0.35437113,-0.6218578,-0.4639528,-6.1990604,-0.7098254,2.3017402
431,1778606000290,0.34168017,-0.84907514,0.058085624,-7.1373496,0.1600467,2.158187
432,1778606000300,0.34851375,-0.925221,0.27041543,-7.8929896,0.88453287,2.0250182
433,1778606000310,0.33362624,-0.9794017,0.41514137,-8.056091,1.1392636,2.0146337
434,1778606000320,0.29189247,-1.0892274,0.66115105,-8.195979,1.382999,2.0317378
435,1778606000330,0.30043447,-1.1097283,0.7492558,-8.268061,1.509448,2.0604484
436,1778606000340,0.30848834,-1.0760484,0.84150934,-8.33098,1.3035865,2.0952678
437,1778606000350,0.34631723,-1.0308977,0.8922733,-8.439714,1.0690142,2.026851
438,1778606000360,0.4876264,-0.9886759,1.0965492,-8.570439,0.91629785,1.8600847
439,1778606000370,0.5217944,-0.96451426,1.2154051,-8.78302,0.90102625,1.4795157
440,1778606000380,0.51544887,-0.92180425,1.4067459,-9.02981,1.1239921,0.9828822
441,1778606000390,0.43661842,-0.8700641,1.6276178,-9.3749485,1.6719382,0.1386664
442,1778606000400,0.027334413,-0.7656076,2.136233,-9.327301,2.1013765,-0.18081611
443,1778606000410,-0.04759116,-0.7592621,2.4842587,-9.056077,2.4123068,-0.3811799
444,1778606000420,-0.16303024,-0.64040625,2.8115394,-7.8752747,2.0494528,-0.5320636
445,1778606000430,-0.16425052,-0.31605414,3.1280818,-6.796487,1.9938642,-0.6133087
446,1778606000440,-0.091033354,-0.012690976,2.733197,-5.1104984,2.4184155,-1.0512991
447,1778606000450,-0.1342315,0.123004854,2.4325185,-4.6260824,3.073263,-1.7293595
448,1778606000460,-0.28261828,0.19671014,2.2799828,-4.759251,3.186884,-2.0861049
449,1778606000470,-0.5127643,0.22575295,2.2799828,-4.845383,2.9901853,-2.244319
450,1778606000480,-0.9454777,0.23161033,2.6211748,-4.6663995,2.420248,-2.1502457
451,1778606000490,-1.125348,0.28408262,2.8950071,-3.6541958,0.3268129,-1.4239268
452,1778606000500,-1.2002735,0.3900035,3.1600533,-2.7171285,-1.1722504,-0.80573124
453,1778606000510,-1.0289453,0.5442477,3.4312007,-1.91323,-2.084883,-0.37323865
454,1778606000520,-0.9127741,0.55840296,3.3626208,-0.93523467,-2.85213,0.051923547
455,1778606000530,-0.822717,0.6294237,3.2762244,-0.2938262,-3.0494392,0.3005457
456,1778606000540,-0.7641432,0.6980037,3.226925,0.09773844,-2.1539109,0.5320636
457,1778606000550,-0.50666285,0.6894617,3.4133847,0.25228736,-1.2009611,0.5479461
458,1778606000560,-0.39634898,0.6718896,3.512472,0.6035349,-0.30909783,0.41538838
459,1778606000570,-0.34680536,0.65163285,3.5175972,0.9963212,0.2003638,0.226631
460,1778606000580,-0.40098605,0.5549862,3.2642658,2.6688702,1.070236,-0.35796702
461,1778606000590,-0.40098605,0.5549862,3.2642658,2.6688702,1.070236,-0.35796702
462,1778606000600,-0.47395915,0.38756293,2.8820722,3.0885346,1.1948525,-0.4092797
463,1778606000610,-0.50715095,0.29994637,2.732709,3.5979962,1.351234,-0.32498032
464,1778606000620,-0.54034275,0.08029483,2.5496662,4.198477,1.3225232,-0.06047566
465,1778606000630,-0.53985465,0.012690976,2.4781573,4.56072,1.2034045,0.059253927
466,1778606000640,-0.5051985,-0.07614586,2.361254,5.1844134,1.1050552,0.23945917
467,1778606000650,-0.44418418,-0.16351835,2.2467911,5.4843483,1.1313224,0.30482176
468,1778606000660,-0.38756293,-0.24527754,2.1045055,5.6712728,1.1948525,0.34880406
469,1778606000670,-0.34778157,-0.4075756,1.7852788,5.8539214,1.3353515,0.42821655
470,1778606000680,-0.28798756,-0.4983649,1.7086449,6.047566,1.2260065,0.64873886
471,1778606000690,-0.25211114,-0.56816524,1.6146828,6.1636305,1.0464121,0.7788532
472,1778606000700,-0.22892569,-0.6221019,1.5553769,6.327342,0.84116143,0.9034697
473,1778606000710,-0.1313028,-0.80392456,1.3630598,6.6877527,0.46486846,1.0836749
474,1778606000720,-0.07516963,-0.84663457,1.2385906,6.6877527,0.46486846,1.0836749
475,1778606000730,-0.07516963,-0.84663457,1.2385906,7.0243397,0.49968776,1.2064588
476,1778606000740,0.08297946,-0.83858067,0.84883106,7.0280046,0.60048056,1.1838568
477,1778606000750,0.08297946,-0.83858067,0.84883106,7.0280046,0.60048056,1.1838568
478,1778606000760,0.17523311,-0.77317333,0.65334123,6.690196,0.5705481,1.0464121
479,1778606000770,0.24186075,-0.7089863,0.53180075,6.5698557,0.39461896,0.9981538
480,1778606000780,0.2608972,-0.69336665,0.47884035,6.514878,0.24251351,0.9621128
481,1778606000790,0.27017137,-0.6731099,0.3995217,6.437298,-0.27672195,0.8491027
482,1778606000800,0.2633378,-0.6384538,0.31190515,6.3493333,-0.50518554,0.784351
483,1778606000810,0.2362474,-0.58232063,0.21916342,6.2357125,-0.59681535,0.73853606
484,1778606000820,0.21379416,-0.45711923,-0.008786061,6.006027,-0.5742133,0.69027776
485,1778606000830,0.23039004,-0.39195594,-0.12886222,5.3609533,-0.21502456,0.59620446
486,1778606000840,0.255772,-0.3275248,-0.19378147,4.937624,0.012217305,0.516792
487,1778606000850,0.27993366,-0.26455808,-0.24771811,4.564996,0.17592919,0.44593164
488,1778606000860,0.28408262,-0.10933765,-0.30751213,4.3463063,0.2302962,0.40866885
489,1778606000870,0.26553428,-0.01415532,-0.4288086,4.071417,-0.044593163,0.3231477
490,1778606000880,0.26553428,-0.01415532,-0.4288086,4.071417,-0.044593163,0.3231477
491,1778606000890,0.35705575,0.008297946,-1.0201592,3.9590178,-0.106901415,0.24251351
492,1778606000900,0.37072295,0.016351834,-1.2607998,2.5228734,0.2742785,-0.17898351
493,1778606000910,0.3699908,0.022697324,-1.4209013,1.6297885,0.6768387,-0.29260445
494,1778606000920,0.3619369,0.030751213,-1.5043689,0.6786713,1.0256428,-0.37140608
495,1778606000930,0.35607952,0.016595893,-1.4440868,-0.0036651916,1.1704178,-0.43249258
496,1778606000940,0.3121492,0.018304294,-1.3803878,-0.79779,1.205848,-0.52106804
497,1778606000950,0.26821893,0.020012695,-1.3052181,-1.4581354,1.1215485,-0.5699373
498,1778606000960,0.2277054,0.022941383,-1.2312689,-2.4208589,0.6310238,-0.4343252
499,1778606000970,0.24283697,0.017816179,-1.04066,-2.8612928,0.22235495,-0.24617869
500,1778606000980,0.3180066,-0.05344854,-0.8546885,-3.7378845,-0.9944886,0.20647246
501,1778606000990,0.41880223,-0.2518671,-0.6252747,-4.2736135,-1.5222762,0.21135938
502,1778606001000,0.41880223,-0.2518671,-0.6252747,-4.2736135,-1.5222762,0.21135938
503,1778606001010,0.41880223,-0.2518671,-0.6252747,-4.2736135,-1.5222762,0.21135938
504,1778606001020,0.3785328,-0.51740134,-0.32850105,-5.8410935,-1.1630874,-0.19730948
505,1778606001030,0.3099527,-0.6384538,0.07785426,-6.2100563,-0.9981538,-0.28955013
506,1778606001040,0.20696054,-0.6645679,0.57402265,-6.3517766,-1.6041322,-0.30787608
507,1778606001050,0.20696054,-0.6645679,0.57402265,-6.3517766,-1.6041322,-0.30787608
508,1778606001060,0.20696054,-0.6645679,0.57402265,-6.3517766,-1.6041322,-0.30787608
509,1778606001070,0.15961345,-0.72753465,0.686289,-5.583308,-2.3041837,0.10934488
510,1778606001080,0.19304928,-0.767316,0.61746484,-5.8325415,-2.3432791,0.22113322
511,1778606001090,0.2975058,-0.7992875,0.6616392,-6.113539,-2.3554964,0.28038713
512,1778606001100,0.34338856,-0.80294836,0.79513854,-6.557638,-2.3915374,0.2773328
513,1778606001110,0.34290043,-0.7814713,0.98330665,-7.009068,-2.5668557,0.18936823
514,1778606001120,0.31751847,-0.7468152,1.1902672,-7.6162677,-2.8997774,0.06414085
515,1778606001130,0.358032,-0.716308,1.6593453,-7.8819942,-2.9767463,-0.04520403
516,1778606001140,0.24796216,-0.69312257,1.94416,-8.0395975,-2.8936687,-0.15210545
517,1778606001150,0.15155955,-0.6962953,2.2746134,-8.106182,-1.9388863,-0.37018433
518,1778606001160,0.08029483,-0.6787232,2.5896914,-7.842288,-0.96577793,-0.37384954
519,1778606001170,0.07785426,-0.6160005,2.8200815,-7.5130315,-0.20952678,-0.3830125
520,1778606001180,-0.038561042,-0.082491346,3.1241767,-6.3047404,0.65118235,-0.5137377
521,1778606001190,-0.038561042,-0.082491346,3.1241767,-6.3047404,0.65118235,-0.5137377
522,1778606001200,-0.05198419,0.19378147,2.953825,-4.880813,-0.312763,-0.4654793
523,1778606001210,-0.06272271,0.26577836,2.7483287,-4.759251,-0.3848451,-0.4196644
524,1778606001220,-0.04783522,0.2889638,2.4791336,-5.1893,-0.20097467,-0.35246924
525,1778606001230,-0.040269446,0.26821893,2.7649245,-5.1893,-0.20097467,-0.35246924
526,1778606001240,-0.051740136,0.29433304,3.852932,-5.1465397,-0.77518797,-0.2846632
527,1778606001250,-0.051740136,0.29433304,3.852932,-4.2534547,-1.0592403,-0.15027285
528,1778606001260,-0.15668476,0.32215557,4.3166404,-2.964529,-1.2944235,0.029321533
529,1778606001270,-0.24796216,0.3973252,4.207791,-0.6432411,-1.3713925,0.5149594
530,1778606001280,-0.19841854,0.45174995,3.5578666,0.36285394,-1.0146471,0.7849618
531,1778606001290,-0.093717985,0.44686884,3.235467,0.90041536,-0.6236934,0.9126327
532,1778606001300,0.016107777,0.4368625,2.945771,1.3775011,-0.030543262,0.9505063
533,1778606001310,0.11519502,0.41245672,2.6616883,1.9956968,1.1355985,0.6554584
534,1778606001320,0.17279254,0.3734076,2.4405725,2.185065,1.4208726,0.47586402
535,1778606001330,0.16278619,0.27041543,2.0732663,2.3952026,1.6010778,0.23090707
536,1778606001340,-0.0102504045,0.19939478,1.8709428,2.7708848,1.1368202,-0.15515977
537,1778606001350,-0.0102504045,0.19939478,1.8709428,2.7708848,1.1368202,-0.15515977
538,1778606001360,-0.2272173,0.07199689,1.9055991,2.9749138,0.56199604,-0.09896017
539,1778606001370,-0.27456442,0.04368625,1.9944358,3.4006867,-0.25717425,0.111177474
540,1778606001380,-0.27456442,0.04368625,1.9944358,3.4006867,-0.25717425,0.111177474
541,1778606001390,-0.32532832,-0.033679903,2.2319036,4.075082,-0.68966687,0.4007276
542,1778606001400,-0.24186075,-0.11202228,2.2709527,4.5259004,-0.70371675,0.5589417
543,1778606001410,-0.16180995,-0.12690976,2.2389812,4.877759,-0.64934975,0.62796944
544,1778606001420,-0.08444381,-0.13764828,2.1935866,5.263215,-0.38912117,0.5534439
545,1778606001430,0.07907455,-0.19109683,2.1891935,5.4525833,-0.11789699,0.4392121
546,1778606001440,0.16742326,-0.24112856,2.1589303,5.62668,0.1441642,0.3323107
547,1778606001450,0.24259292,-0.38121742,2.003466,6.327342,1.0592403,-0.12461651
548,1778606001460,0.2186753,-0.5274077,1.8116369,6.5380907,1.2730432,-0.18081611
549,1778606001470,0.2186753,-0.5274077,1.8116369,6.5380907,1.2730432,-0.18081611
550,1778606001480,0.2072046,-0.6045298,1.7171869,6.755559,1.3396275,-0.172264
551,1778606001490,0.1701079,-0.66700846,1.5800266,6.952868,1.3048081,-0.13805555
552,1778606001500,0.17938207,-0.7482795,1.410895,7.0921454,1.3567317,-0.08857546
553,1778606001510,0.46639338,-0.91106576,0.91253006,7.4140716,2.0506747,0.15577064
554,1778606001520,0.5608435,-0.90081537,0.75364876,7.4769907,2.2412646,0.18203785
555,1778606001530,0.6555378,-0.87030816,0.55742675,7.6138244,2.175291,0.052534413
556,1778606001540,0.6645679,-0.79269797,0.18548352,7.6681914,1.8032742,-0.10873401
557,1778606001550,0.5876899,-0.74169,0.026846299,7.6394806,1.17897,-0.26816985
558,1778606001560,0.4751795,-0.7004443,-0.10933765,7.3676457,-0.17348573,-0.38912117
559,1778606001570,0.32239962,-0.65968674,-0.22648512,7.119024,-0.7867944,-0.31215215
560,1778606001580,0.32239962,-0.65968674,-0.22648512,7.119024,-0.7867944,-0.31215215
561,1778606001590,0.06613952,-0.5945235,-0.45858356,6.6333857,-1.1362094,0.09590584
562,1778606001600,0.076633975,-0.5679212,-0.5793919,5.9266148,-0.6743952,0.6963864
563,1778606001610,0.076633975,-0.5679212,-0.5793919,5.9266148,-0.6743952,0.6963864
564,1778606001620,0.1330112,-0.39073566,-1.0423685,4.977941,-0.31337386,1.0409144
565,1778606001630,0.15448824,-0.2604091,-1.2649487,3.1135802,-0.07941248,1.3115277
566,1778606001640,0.1683995,-0.21037734,-1.3518331,2.3860397,-0.055588737,1.3390167
567,1778606001650,0.18279888,-0.13886857,-1.4523847,1.6151277,-0.05681047,1.3396275
568,1778606001660,0.20232345,-0.118855886,-1.4628792,1.0012082,-0.08552113,1.318858
569,1778606001670,0.21379416,-0.11983211,-1.4309076,0.16493362,-0.1459968,1.2565498
570,1778606001680,0.21940747,-0.13935669,-1.3276714,-1.2596041,-0.3304781,1.1215485
571,1778606001690,0.2591888,-0.25699228,-0.8754333,-1.9547688,-0.4642576,1.0708468
572,1778606001700,0.2591888,-0.25699228,-0.8754333,-2.5039365,-0.5589417,1.0348058
573,1778606001710,0.25479576,-0.31678632,-0.7824476,-3.3224962,-0.50823987,0.9602802
574,1778606001720,0.19597797,-0.4971446,-0.5635282,-4.3585234,-0.040317107,0.89552844
575,1778606001730,0.19158493,-0.56987363,-0.46078008,-4.7708573,0.21624629,0.86926126
576,1778606001740,0.18987654,-0.63186425,-0.35412705,-5.8191023,0.829555,0.7153232
577,1778606001750,0.18768002,-0.68433654,-0.1986626,-6.1544676,0.9682214,0.6407976
578,1778606001760,0.19207305,-0.7185045,-0.044174362,-6.4922757,1.042747,0.548557
579,1778606001770,0.208913,-0.7485236,0.28579104,-6.677979,1.0219775,0.47158796
580,1778606001780,0.20696054,-0.7568215,0.41880223,-6.7054677,0.5186246,0.37384954
581,1778606001790,0.16742326,-0.7402256,0.53912246,-6.6254444,0.035430185,0.38606682
582,1778606001800,0.15082738,-0.70117646,0.74193406,-6.5124345,-0.589485,0.46975538
583,1778606001810,0.14960709,-0.6555378,0.8085616,-6.418972,-1.0946705,0.58093286
584,1778606001820,0.17450093,-0.63015586,0.8139309,-6.324288,-1.6621643,0.77274454
585,1778606001830,0.32532832,-0.67506236,0.72631437,-6.695083,-1.9669861,1.1276573
586,1778606001840,0.32532832,-0.67506236,0.72631437,-6.695083,-1.9669861,1.1276573
587,1778606001850,0.43124917,-0.8097819,0.7065457,-7.071987,-1.5937474,1.1679744
588,1778606001860,0.5254553,-0.8681116,0.839801,-7.3829174,-1.1459832,1.1722504
589,1778606001870,0.6577343,-0.86469483,1.1492655,-7.75188,-1.0177015,1.1417072
590,1778606001880,0.8217408,-0.6357691,1.7674625,-7.375587,-1.9138408,0.9443977
591,1778606001890,0.8459024,-0.60038084,1.6825306,-6.940651,-2.1068742,0.49968776
592,1778606001900,0.8112463,-0.58329684,1.5314592,-7.2155404,-1.7373008,0.32253686
593,1778606001910,0.69409883,-0.71728426,1.5912533,-7.8758855,-0.8332202,0.10323623
594,1778606001920,0.5954997,-0.78415596,2.0620399,-8.6156435,0.06414085,-0.10262536
595,1778606001930,0.40830776,-0.7409578,2.634842,-8.917411,0.59986967,-0.25167647
596,1778606001940,0.25284332,-0.61038715,3.3667696,-8.110457,0.31764993,-0.06780604
597,1778606001950,0.27261195,-0.41611758,3.9671504,-6.5698557,-0.23335053,0.25534168
598,1778606001960,0.41562948,0.10079564,4.3749704,-5.0652947,-0.5381723,0.50946164
599,1778606001970,0.383658,0.3184947,4.012057,-3.1117475,-0.7067711,0.7861836
600,1778606001980,0.26675457,0.56767714,3.5188174,-1.3860532,-0.61086524,1.351234
601,1778606001990,0.63162017,0.63064396,3.1070929,-1.3420709,-0.40439278,1.7825048
602,1778606002000,0.63162017,0.63064396,3.1070929,-1.5467108,-0.25289822,2.0134118
603,1778606002010,1.1861182,0.6487042,3.619125,-0.7715228,-0.38423425,1.3164146
604,1778606002020,1.0706791,0.64040625,3.6274228,0.0983493,-0.59437186,0.91324353
605,1778606002030,1.0706791,0.64040625,3.6274228,0.0983493,-0.59437186,0.91324353
606,1778606002040,0.8683557,0.55010504,3.107825,1.4404203,-0.24923302,0.34208453
607,1778606002050,0.76926845,0.5005614,2.8532734,2.1966715,0.7360926,-0.022602014
608,1778606002060,0.64821607,0.36266908,2.4849908,2.4208589,1.151481,-0.21991149
609,1778606002070,0.5791479,0.29164842,2.4147024,2.5992317,1.3518448,-0.42455134
610,1778606002080,0.5791479,0.29164842,2.4147024,2.5992317,1.3518448,-0.42455134
611,1778606002090,0.40952805,0.1466784,2.4056723,3.418402,1.1905763,-0.7819075
612,1778606002100,0.3448529,0.07541369,2.408113,3.8344011,0.98532563,-0.8081747
613,1778606002110,0.26943922,-0.050031736,2.3517356,4.152662,0.8222246,-0.8136725
614,1778606002120,0.27724904,-0.10055158,2.3563728,4.9162436,0.47708577,-0.8063421
615,1778606002130,0.3287451,-0.17157225,2.2914536,5.1654763,0.44226643,-0.8191703
616,1778606002140,0.39805737,-0.2796896,2.147704,5.6914315,0.9877691,-0.89736104
617,1778606002150,0.39805737,-0.2796896,2.147704,5.6914315,0.9877691,-0.89736104
618,1778606002160,0.39805737,-0.2796896,2.147704,5.6914315,0.9877691,-0.89736104
619,1778606002170,0.5513253,-0.5254553,1.9014499,6.762889,1.8075503,-1.2125676
620,1778606002180,0.52399087,-0.58964235,1.7713674,6.9589767,1.7354681,-1.2901474
621,1778606002190,0.4932397,-0.7382732,1.4911898,7.175834,1.5815301,-1.3665055
622,1778606002200,0.4966565,-0.7987994,1.3396302,7.3108354,1.4355333,-1.4361442
623,1778606002210,0.5086153,-0.84517026,1.1814811,7.3273287,1.3732251,-1.559539
624,1778606002220,0.5086153,-0.84517026,1.1814811,7.3273287,1.3732251,-1.559539
625,1778606002230,0.5086153,-0.84517026,1.1814811,7.3273287,1.3732251,-1.559539
626,1778606002240,0.5091034,-0.9174112,0.80392456,6.8410797,1.4996742,-1.668273
627,1778606002250,0.45394647,-0.81319875,0.694831,6.726848,1.3793337,-1.6297885
628,1778606002260,0.40049794,-0.73412424,0.626495,6.698748,1.2345587,-1.6126842
629,1778606002270,0.36242503,-0.673842,0.60941094,6.6840873,0.7984009,-1.6255124
630,1778606002280,0.28115395,-0.5786598,0.4983649,6.8288627,-1.2119566,-1.6548339
631,1778606002290,0.18060236,-0.5459561,0.29091623,6.8429127,-1.8979583,-1.6120734
632,1778606002300,0.18060236,-0.5459561,0.29091623,6.762889,-2.2492058,-1.5436565
633,1778606002310,0.18060236,-0.5459561,0.29091623,6.762889,-2.2492058,-1.5436565
634,1778606002320,0.18060236,-0.5459561,0.29091623,6.762889,-2.2492058,-1.5436565
635,1778606002330,0.23185438,-0.45297024,-0.32581642,5.3921075,-0.33292156,-0.88208944
636,1778606002340,0.29506522,-0.29506522,-0.5183776,4.904026,0.3549127,-0.838718
637,1778606002350,0.28383857,-0.23112221,-0.5933032,4.1996984,0.9437868,-0.86376345
638,1778606002360,0.2238005,-0.1803583,-0.7136234,3.8539488,0.99265605,-0.8723156
639,1778606002370,0.067847915,-0.09469421,-0.96622264,3.4880404,0.93401295,-0.83199847
640,1778606002380,0.0039049159,-0.07565775,-1.0750722,3.1948252,0.8906415,-0.7629707
641,1778606002390,-0.045638707,-0.077122085,-1.2093037,2.262034,0.7696902,-0.4783075
642,1778606002400,-0.15546446,-0.06833603,-1.5121787,1.6346754,0.79229224,-0.27366763
643,1778606002410,-0.191829,-0.052472305,-1.602968,1.102001,0.8173377,-0.08368854
644,1778606002420,-0.17913802,-0.07809832,-1.6239569,-0.37018433,0.61941737,0.49541172
645,1778606002430,-0.09737884,-0.12983845,-1.4985116,-1.6285667,0.040927973,0.9779953
646,1778606002440,-0.09737884,-0.12983845,-1.4985116,-1.6285667,0.040927973,0.9779953
647,1778606002450,0.09518232,-0.22355644,-1.23615,-2.734233,-0.61575216,1.4587462
648,1778606002460,0.09518232,-0.22355644,-1.23615,-2.734233,-0.61575216,1.4587462
649,1778606002470,0.16107778,-0.26968327,-1.1168059,-3.2284229,-0.9285152,1.6872098
650,1778606002480,0.3778006,-0.44320798,-0.77244115,-4.477031,-1.2840388,2.1160371
651,1778606002490,0.4249037,-0.5112999,-0.6557818,-5.474574,-0.8765916,2.1636846
652,1778606002500,0.44564855,-0.58280873,-0.5320448,-5.874691,-0.5729916,2.1227567
653,1778606002510,0.4368625,-0.6640798,-0.36779428,-6.4263024,-0.1020145,2.0512855
654,1778606002520,0.3360668,-0.7695125,0.019768637,-6.9290442,0.38056904,1.9975294
655,1778606002530,0.29652956,-0.8190561,0.18401916,-7.24364,0.6646214,1.9749273
656,1778606002540,0.25772443,-0.8644508,0.3328941,-7.8667226,1.0433578,1.8894062
657,1778606002550,0.25357547,-0.9010593,0.56645685,-7.996226,0.89858276,1.8637499
658,1778606002560,0.26358184,-0.70142055,1.5675796,-6.813591,-0.77213365,2.1050417
659,1778606002570,0.30507156,-0.59013045,1.7642899,-6.200282,-1.0812315,2.1539109
660,1778606002580,0.28871974,-0.26162934,1.7833264,-5.58453,-1.4056009,2.1496348
661,1778606002590,0.28871974,-0.26162934,1.7833264,-5.58453,-1.4056009,2.1496348
662,1778606002600,0.28871974,-0.26162934,1.7833264,-5.3652296,-1.4996742,2.1642957
663,1778606002610,0.19939478,0.048567392,1.7245085,-5.4782395,-1.3750577,2.2333233
664,1778606002620,0.24064046,0.07370529,1.8419001,-6.222884,-0.103847094,2.379931
665,1778606002630,0.49055508,0.32459614,2.852297,-6.1758475,1.3628404,2.1429152
666,1778606002640,0.63454884,0.5462001,3.1581008,-5.4061575,1.7537941,1.881465
667,1778606002650,0.7573096,0.6784792,3.1578567,-3.2284229,2.0103576,1.029308
668,1778606002660,0.5857374,1.0252845,2.493777,-2.4459045,1.7104226,0.48441613
669,1778606002670,0.4131889,1.1194906,2.2609463,-2.230269,1.3982705,0.118507855
670,1778606002680,0.29921418,1.1146095,2.2431302,-2.302962,1.260215,-0.027488936
671,1778606002690,0.20866893,1.1165619,2.3849275,-2.257758,1.640784,-0.16249016
672,1778606002700,0.12373702,1.1665937,2.562601,-1.9737056,1.9749273,-0.13744467
673,1778606002710,0.07150877,1.3152245,2.570411,-1.4569136,2.39337,-0.07696902
674,1778606002720,0.08102701,1.5024164,2.2711968,-0.27488935,2.652377,-0.0067195175
675,1778606002730,0.08102701,1.5024164,2.2711968,-0.27488935,2.652377,-0.0067195175
676,1778606002740,0.05662128,1.5792944,2.1725976,-0.015271631,2.2656991,-0.012217305
677,1778606002750,-0.10909359,1.5790504,2.3412411,0.59986967,1.1001683,0.08979719
678,1778606002760,-0.16034561,1.4987555,2.289013,1.3616186,0.15882497,0.44837508
679,1778606002770,-0.17425688,1.4077222,2.2055452,1.5228871,0.03848451,0.6188065
680,1778606002780,-0.107385196,1.274711,2.1555138,1.5228871,0.03848451,0.6188065
681,1778606002790,-0.0605262,1.2046666,2.1518528,1.8747455,0.13439035,0.97494096
682,1778606002800,-0.02318544,1.138771,2.1315958,2.3426683,0.40317106,1.0824533
683,1778606002810,0.012202863,1.0689708,2.0766833,2.6645942,0.5491679,1.0616838
684,1778606002820,0.012202863,1.0689708,2.0766833,2.6645942,0.5491679,1.0616838
685,1778606002830,0.0019524579,0.87274873,1.7926004,3.1874948,0.65240407,0.98471475
686,1778606002840,-0.025870068,0.80123997,1.7054721,3.4434474,0.59681535,0.96883225
687,1778606002850,-0.053692598,0.72582626,1.633231,3.8276815,0.4447099,0.9987647
688,1778606002860,-0.09640261,0.5608435,1.4846002,3.9913936,0.3555236,1.042747
689,1778606002870,-0.10958171,0.47859627,1.428223,4.1099014,0.28405234,1.102001
690,1778606002880,-0.11690342,0.4144092,1.3781912,4.2785,0.22296582,1.196685
691,1778606002890,-0.119099945,0.34631723,1.3225462,4.365243,0.24190263,1.2394456
692,1778606002900,-0.107873306,0.14179726,1.1565872,4.491081,0.28221974,1.2944235
693,1778606002910,-0.10030753,0.09274176,1.1021625,4.636467,0.3390302,1.3316863
694,1778606002920,-0.10030753,0.09274176,1.1021625,4.636467,0.3390302,1.3316863
695,1778606002930,-0.07980672,0.044418417,1.0411482,4.7030516,0.3921755,1.328021
696,1778606002940,-0.05735345,0.00097622897,0.95011485,4.7586403,0.4465425,1.2980887
697,1778606002950,-0.01586372,-0.059794027,0.6145361,4.6028695,0.59864795,1.1527027
698,1778606002960,0.006345488,-0.0776102,0.520086,4.454429,0.65301496,1.0641272
699,1778606002970,0.04905551,-0.0924977,0.36388937,4.2919393,0.7165449,0.9627236
700,1778606002980,0.07736614,-0.094206095,0.30287504,4.1679335,0.7825184,0.88514376
701,1778606002990,0.10128376,-0.099819414,0.25894472,3.8802161,0.9443977,0.65484756
702,1778606003000,0.119588055,-0.102259986,0.20818083,3.7849212,1.0085385,0.56016344
703,1778606003010,0.13960074,-0.107873306,0.073949344,3.640146,1.0989466,0.43004912
704,1778606003020,0.11861181,-0.09445015,0.0134231495,3.441004,1.1160508,0.32803464
705,1778606003030,0.09737884,-0.082003236,-0.013911263,2.9620855,0.9505063,0.31398472
706,1778606003040,0.08419975,-0.067847915,-0.00024405724,2.6816983,0.8014552,0.39950588
707,1778606003050,0.06858008,-0.043198135,0.06467517,2.460565,0.7171558,0.52534413
708,1778606003060,0.09054524,-0.036120474,0.09127741,2.1844542,0.72387534,0.7733554
709,1778606003070,0.1666911,-0.0036608586,0.082003236,1.9761491,0.75625116,0.9987647
710,1778606003080,0.2711476,0.042221904,0.012202863,1.8509218,0.70921457,1.1136073
711,1778606003090,0.33899552,0.045882765,-0.033435844,1.8509218,0.70921457,1.1136073
712,1778606003100,0.33899552,0.045882765,-0.033435844,1.4049901,0.44226643,1.2907583
713,1778606003110,0.33899552,0.045882765,-0.033435844,1.4049901,0.44226643,1.2907583
714,1778606003120,0.49006698,0.10884953,-0.18572757,0.91507614,0.31703907,1.3524556
715,1778606003130,0.6365013,0.18255483,-0.24137263,0.4202753,0.31337386,1.2742649
716,1778606003140,0.690438,0.21013328,-0.27017137,0.12034045,0.38973203,1.1215485
717,1778606003150,0.71996886,0.22209209,-0.29774985,-0.13561209,0.4465425,0.9682214
718,1778606003160,0.7133793,0.25674823,-0.37121108,-0.52839845,0.5748242,0.75625116
719,1778606003170,0.72875494,0.2806658,-0.3692586,-1.8063285,1.0189233,0.29077184
720,1778606003180,0.71191496,0.3031191,-0.3214234,-1.8063285,1.0189233,0.29077184
721,1778606003190,0.6284474,0.3441207,-0.123004854,-2.6810875,0.7623598,0.06414085
722,1778606003200,0.6284474,0.3441207,-0.123004854,-2.6810875,0.7623598,0.06414085
723,1778606003210,0.5554743,0.27529657,0.13789235,-2.9547553,0.43676865,-0.059864793
724,1778606003220,0.53643787,0.21086545,0.25894472,-3.4892623,-0.893085,-0.25595254
725,1778606003230,0.5261874,0.07907455,0.4595598,-3.7647624,-1.1172725,-0.2779437
726,1778606003240,0.5171573,0.0036608586,0.50568664,-3.8832703,-1.16492,-0.3378085
727,1778606003250,0.5039782,-0.054668825,0.53106856,-4.207029,-0.87109387,-0.5375614
728,1778606003260,0.47273886,-0.09689073,0.54815257,-4.439158,-0.5222898,-0.68416905
729,1778606003270,0.43588626,-0.16425052,0.6199054,-4.6175303,-0.10567969,-0.806953
730,1778606003280,0.4080637,-0.1398448,0.7285109,-4.8221703,0.14477506,-0.99265605
731,1778606003290,0.36413342,-0.110557936,0.8297946,-4.880813,0.30970868,-1.391551
732,1778606003300,0.36413342,-0.110557936,0.8297946,-4.880813,0.30970868,-1.391551
733,1778606003310,0.2630937,-0.047347106,0.95060295,-4.661513,0.06291912,-1.7922786
734,1778606003320,0.114462845,0.014643434,0.950359,-4.551557,-0.10445796,-2.0158553
735,1778606003330,0.044418417,0.028798755,0.95792466,-4.491692,-0.22052236,-2.3017402
736,1778606003340,-0.0056133163,0.0302631,0.97500867,-4.4874163,-0.09773844,-2.438574
737,1778606003350,-0.2506468,0.1632743,1.1348661,-4.5680504,0.39278635,-2.5919013
738,1778606003360,-0.32410803,0.25357547,1.26202,-4.509407,0.88208944,-2.5589144
739,1778606003370,-0.37609223,0.358032,1.4043053,-4.3548584,0.95417154,-2.5277603
740,1778606003380,-0.37609223,0.358032,1.4043053,-4.3548584,0.95417154,-2.5277603
741,1778606003390,-0.37609223,0.358032,1.4043053,-4.3548584,0.95417154,-2.5277603
742,1778606003400,-0.409284,0.84468216,1.6881441,-3.7824776,0.77274454,-2.3817637
743,1778606003410,-0.3807293,1.1514622,1.7926004,-2.8857274,0.09773844,-2.3310618
744,1778606003420,-0.40611124,1.3681849,1.9134089,-2.6731462,0.02565634,-2.3402247
745,1778606003430,-0.42929673,1.4333482,1.9802804,-2.3835962,0.16493362,-2.3316727
746,1778606003440,-0.48054874,1.4882611,2.0500808,-1.6517797,0.97249746,-2.175291
747,1778606003450,-0.5452239,1.5258459,2.0793676,-1.3225232,1.2425,-2.039679
748,1778606003460,-0.67799103,1.6151708,2.077171,-0.8399397,1.4349225,-1.7568485
749,1778606003470,-0.690438,1.6537318,2.0059066,-0.28955013,1.395827,-1.4147639
750,1778606003480,-0.63943,1.7498904,1.6742326,0.7293731,1.0403035,-0.49663344
751,1778606003490,-0.63943,1.7498904,1.6742326,0.7293731,1.0403035,-0.49663344
752,1778606003500,-0.5635282,1.7559919,1.5553769,0.86620694,0.6377433,-0.012217305
753,1778606003510,-0.579636,1.7147462,1.6478745,1.0720685,-0.035430185,0.36346483
754,1778606003520,-0.6025773,1.6483628,1.7359792,1.2388347,-0.29810223,0.46670106
755,1778606003530,-0.6035536,1.389662,1.7930887,1.4880677,-0.52412236,0.59437186
756,1778606003540,-0.609655,1.2822767,1.7811297,1.7012597,-0.57848936,0.6914995
757,1778606003550,-0.63308454,1.1785524,1.7769808,1.9352211,-0.37873647,0.8564331
758,1778606003560,-0.6487042,1.0867869,1.7967494,2.0830505,-0.15210545,0.9999864
759,1778606003570,-0.6135599,0.90496427,1.8289651,2.244319,0.036651913,1.1386528
760,1778606003580,-0.5693855,0.83784854,1.7886956,2.5216517,0.29138273,1.3445144
761,1778606003590,-0.50690687,0.79538256,1.7054721,2.8368583,0.49296826,1.5491543
762,1778606003600,-0.2877435,0.6765267,1.3706255,3.4892623,0.54733527,1.8509218
763,1778606003610,-0.2877435,0.6765267,1.3706255,3.4892623,0.54733527,1.8509218
764,1778606003620,-0.22624107,0.4949481,1.1868503,3.616933,0.46486846,1.536326
765,1778606003630,-0.23087814,0.44418418,1.1636649,3.602883,0.5204572,1.4636332
766,1778606003640,-0.25406358,0.39878955,1.172695,3.5863898,0.5870415,1.3891076
767,1778606003650,-0.27846932,0.37023485,1.1983211,3.631594,0.5510005,1.3481796
768,1778606003660,-0.3031191,0.33582276,1.2283401,3.694513,0.4801401,1.378112
769,1778606003670,-0.31873876,0.24234885,1.2085714,3.9156463,0.42271876,1.5815301
770,1778606003680,-0.20598431,0.15107143,1.0882512,4.053702,0.5381723,1.7647897
771,1778606003690,-0.14106509,0.127886,1.0140579,4.079358,0.61453044,1.8356501
772,1778606003700,-0.036120474,0.12764193,0.8754333,4.076915,0.63713247,1.8808541
773,1778606003710,0.008786061,0.12080834,0.81319875,4.062865,0.63529986,1.9327776
774,1778606003720,0.07199689,0.09127741,0.74364245,4.0329323,0.5363397,1.9443841
775,1778606003730,0.12398108,0.063943,0.686289,4.0084977,0.39461896,1.8930714
776,1778606003740,0.19329333,0.019036464,0.5337532,3.9724567,0.226631,1.8167132
777,1778606003750,0.22355644,-0.017328065,0.44930938,3.9089267,0.10262536,1.7159204
778,1778606003760,0.24723,-0.06980037,0.35510328,3.8331795,0.049480084,1.6261233
779,1778606003770,0.24723,-0.06980037,0.35510328,3.8331795,0.049480084,1.6261233
780,1778606003780,0.26797485,-0.20232345,0.13716017,2.9669726,0.30482176,1.3530666
781,1778606003790,0.26797485,-0.20232345,0.13716017,2.9669726,0.30482176,1.3530666
782,1778606003800,0.27846932,-0.22062775,0.10860548,2.4959953,0.56016344,1.4501941
783,1778606003810,0.34778157,-0.20403185,0.0051252022,2.0665572,0.820392,1.6261233
784,1778606003820,0.38902727,-0.17742962,-0.048323333,1.9107865,0.9260717,1.6988163
785,1778606003830,0.45174995,-0.16278619,-0.1313028,1.6719382,1.0867293,1.6963727
786,1778606003840,0.45174995,-0.16278619,-0.1313028,1.6719382,1.0867293,1.6963727
787,1778606003850,0.50812715,-0.15326795,-0.22062775,1.4831808,1.1612549,1.5937474
788,1778606003860,0.6284474,-0.1147069,-0.53912246,0.90102625,1.2681563,1.2657127
789,1778606003870,0.6491923,-0.08566409,-0.61722076,-0.025045475,1.3701707,0.8038987
790,1778606003880,0.6518769,-0.06321083,-0.65260905,-0.62796944,1.4080443,0.50640726
791,1778606003890,0.61892915,-0.05027579,-0.63454884,-1.2370021,1.4123205,0.22296582
792,1778606003900,0.61844105,-0.057841565,-0.592571,-1.8191566,1.3866642,-0.026267206
793,1778606003910,0.6252747,-0.07297312,-0.5276518,-2.737287,1.146594,-0.4196644
794,1778606003920,0.5952556,-0.118855886,-0.23331872,-3.5485163,0.51923543,-0.698219
795,1778606003930,0.5952556,-0.118855886,-0.23331872,-3.5485163,0.51923543,-0.698219
796,1778606003940,0.59842837,-0.11592719,-0.0924977,-3.9474113,-0.048258353,-0.7593055
797,1778606003950,0.62551874,-0.110557936,0.07614586,-4.238794,-0.6401868,-0.77091193
798,1778606003960,0.74291027,-0.153512,0.35193056,-4.4733663,-1.8698585,-1.0500773
799,1778606003970,0.75267255,-0.17840585,0.37096703,-4.565607,-2.1062634,-1.3011429
800,1778606003980,0.75267255,-0.17840585,0.37096703,-4.9974885,-2.1252003,-1.8191566
801,1778606003990,0.73583263,-0.28213018,0.4339338,-5.367673,-1.8411479,-2.1484132
802,1778606004000,0.5869577,-0.40318257,0.68091977,-5.6639423,-1.536326,-2.398257
803,1778606004010,0.46297657,-0.42051062,0.87250465,-6.0225205,-1.1404854,-2.701857
804,1778606004020,0.3145898,-0.42368335,1.1053354,-6.305962,-0.64934975,-3.018896
805,1778606004030,0.20085911,-0.41929033,1.2837411,-6.182567,-0.44776422,-3.0720413
806,1778606004040,0.08297946,-0.3990336,1.4204131,-5.906456,-0.3475823,-3.0482175
807,1778606004050,-0.09274176,-0.298482,1.437009,-5.589417,-0.37934732,-2.9681942
808,1778606004060,-0.15473229,-0.14130914,1.2549424,-5.3151383,-0.57848936,-2.8258626
809,1778606004070,-0.15473229,-0.14130914,1.2549424,-5.4586916,-0.7104363,-2.8118126
810,1778606004080,-0.14374973,-0.05051985,1.1246158,-5.715866,-0.7012733,-2.8472428
811,1778606004090,-0.21672285,-0.084687866,1.3096112,-7.2876225,-0.49663344,-3.4177911
812,1778606004100,-0.46785772,-0.076633975,1.9165816,-7.2100425,-0.852157,-3.4935384
813,1778606004110,-0.99819416,0.06467517,2.852541,-6.479448,-0.9663888,-3.1239648
814,1778606004120,-1.0431006,0.10543273,2.9526045,-5.3420167,-0.83077675,-2.4471262
815,1778606004130,-1.0006347,0.23942018,2.8818278,-4.428162,-0.6224717,-1.8551978
816,1778606004140,-0.90740484,0.42856455,2.6790166,-2.5222626,0.18142697,-0.39400807
817,1778606004150,-0.55059314,0.82100856,2.1423345,-2.143526,0.49968776,-0.081855945
818,1778606004160,-0.3829258,0.9803779,1.8943723,-1.9077321,0.91996306,0.022602014
819,1778606004170,-0.26675457,1.1499978,1.713526,-2.044566,1.6151277,-0.38056904
820,1778606004180,-0.39708114,1.5492754,1.8741156,-2.143526,2.2064452,-1.0390818
821,1778606004190,-0.39708114,1.5492754,1.8741156,-2.143526,2.2064452,-1.0390818
822,1778606004200,-0.5256993,1.739152,2.0569143,-1.9321668,2.0402899,-1.2046263
823,1778606004210,-0.5256993,1.739152,2.0569143,-1.4361442,0.97433007,-1.2235631
824,1778606004220,-0.6123396,1.6015036,2.080344,-1.4227052,0.86132,-1.1319333
825,1778606004230,-1.1722069,1.2459122,2.796652,-0.8167268,0.56016344,-0.68600166
826,1778606004240,-1.1722069,1.2459122,2.796652,-0.8167268,0.56016344,-0.68600166
827,1778606004250,-1.1692783,1.0379754,2.7920148,1.024421,-0.22113322,0.8038987
828,1778606004260,-0.9508471,0.93888825,2.4273934,1.5925257,-0.29077184,1.3298537
829,1778606004270,-0.7909895,0.9081371,2.2575295,2.012801,-0.27122417,1.7354681
830,1778606004280,-0.5920829,0.8849516,2.0957196,2.547308,-0.1282817,2.0463986
831,1778606004290,-0.42514774,0.865427,1.9700302,2.7592783,0.004276057,1.9938642
832,1778606004300,-0.19280522,0.80636513,1.7757605,2.8600712,0.12034045,1.8613064
833,1778606004310,-0.23600335,0.7656076,1.7572123,2.9413161,0.28771752,1.6255124
834,1778606004320,-0.28749946,0.66847277,1.8013865,3.0207286,0.4550946,1.4813483
835,1778606004330,-0.43442193,0.34216827,1.8814374,3.6395352,0.6395759,1.4227052
836,1778606004340,-0.43442193,0.34216827,1.8814374,3.966348,0.6560693,1.5583172
837,1778606004350,-0.42734426,0.11373068,1.8250601,4.537507,0.548557,1.9138408
838,1778606004360,-0.42734426,0.11373068,1.8250601,4.537507,0.548557,1.9138408
839,1778606004370,-0.28457075,-0.12764193,1.5536685,4.9932127,0.41905355,2.2907448
840,1778606004380,-0.21989559,-0.17254847,1.4497001,5.149594,0.3463606,2.4440718
841,1778606004390,-0.15595257,-0.20159128,1.3413386,5.237559,0.30726522,2.5955665
842,1778606004400,-0.11617125,-0.21550256,1.2583592,5.1893,0.30665436,2.6273315
843,1778606004410,-0.07687803,-0.22697324,1.1988091,5.1068335,0.2883284,2.641992
844,1778606004420,-0.032459613,-0.23527117,1.1614684,5.0255885,0.226631,2.6719246
845,1778606004430,0.014399378,-0.26797485,1.1600041,4.982217,-0.03604105,2.7605
846,1778606004440,0.051740136,-0.30067852,1.1475571,5.0286427,-0.20219639,2.8008173
847,1778606004450,0.1581491,-0.3607166,1.0496902,5.082399,-0.29443705,2.823419
848,1778606004460,0.2894519,-0.4097721,0.8498074,5.181359,-0.2669481,2.7904325
849,1778606004470,0.33875147,-0.42417148,0.7426662,5.0720143,-0.070249505,2.6090055
850,1778606004480,0.40781966,-0.39464056,0.54912883,5.0720143,-0.070249505,2.6090055
851,1778606004490,0.44027928,-0.38316986,0.44882128,4.781853,0.1685988,2.2766948
852,1778606004500,0.46492904,-0.37755656,0.34460884,4.781853,0.1685988,2.2766948
853,1778606004510,0.46492904,-0.37755656,0.34460884,4.781853,0.1685988,2.2766948
854,1778606004520,0.46492904,-0.37755656,0.34460884,4.781853,0.1685988,2.2766948
855,1778606004530,0.3909797,-0.38561043,0.03441207,3.6603045,0.72082096,1.41904
856,1778606004540,0.38097337,-0.3841461,-0.041245673,3.3542612,0.9370673,1.3408492
857,1778606004550,0.38780698,-0.38463423,-0.11495096,2.7898216,1.3610078,1.2760975
858,1778606004560,0.4549227,-0.37828872,-0.3277689,2.4275784,1.582141,1.2223413
859,1778606004570,0.532777,-0.3372871,-0.5662128,1.0720685,1.9083431,0.86742866
860,1778606004580,0.532777,-0.3372871,-0.5662128,1.0720685,1.9083431,0.86742866
861,1778606004590,0.5933032,-0.2860351,-0.74242216,-0.056199603,1.7104226,0.46792278
862,1778606004600,0.63406074,-0.23429495,-0.835408,-0.7470882,1.5210545,0.2144137
863,1778606004610,0.65065664,-0.23380683,-0.822717,-1.981036,0.9981538,-0.3304781
864,1778606004620,0.6440671,-0.255772,-0.7700006,-2.6700919,0.5491679,-0.6762278
865,1778606004630,0.609655,-0.29213652,-0.6828722,-3.318831,0.050701816,-0.9773844
866,1778606004640,0.609655,-0.29213652,-0.6828722,-3.8912115,-0.40561453,-1.1930199
867,1778606004650,0.5266756,-0.40147418,-0.40489095,-3.8912115,-0.40561453,-1.1930199
868,1778606004660,0.49885303,-0.5091034,-0.073949344,-4.9284606,-1.1844677,-1.5454891
869,1778606004670,0.4978768,-0.54083085,0.18743597,-5.086064,-1.2608259,-1.6450601
870,1778606004680,0.52301466,-0.6233222,0.27602875,-5.2595496,-1.318858,-1.8203784
871,1778606004690,0.5103237,-0.6552937,0.35363895,-5.4318137,-1.3377949,-2.058005
872,1778606004700,0.46078008,-0.6706693,0.4166057,-5.842315,-1.3231341,-2.5283713
873,1778606004710,0.46078008,-0.6706693,0.4166057,-5.842315,-1.3231341,-2.5283713
874,1778606004720,0.2328306,-0.70410514,0.5034901,-6.208834,-1.3457361,-2.7452285
875,1778606004730,-0.12178457,-0.70166457,0.67799103,-7.8294597,-1.9712621,-2.634662
876,1778606004740,-0.18304294,-0.7819594,1.0306537,-8.678562,-2.4318545,-2.1826215
877,1778606004750,-0.13154685,-0.77048874,1.155367,-9.018204,-2.641992,-1.8930714
878,1778606004760,-0.010494461,-0.74339837,1.427979,-9.279043,-3.3542612,-1.3817772
879,1778606004770,0.07980672,-0.68580085,1.8499539,-8.965058,-4.1453314,-1.1612549
880,1778606004780,0.08956901,-0.5254553,2.3656468,-8.12634,-5.04086,-0.8924741
881,1778606004790,0.08981306,-0.19378147,2.822522,-7.2741833,-5.5301633,-0.5900958
882,1778606004800,0.24845028,-0.13691612,2.639723,-6.169128,-5.657834,-0.1020145
883,1778606004810,0.42734426,-0.093717985,2.3419733,-5.185635,-3.6352592,0.48808134
884,1778606004820,0.5793919,-0.008297946,2.0500808,-5.371949,-2.406809,0.48075095
885,1778606004830,0.7995315,0.09445015,1.8458049,-5.8759127,-0.7641924,0.258396
886,1778606004840,0.7995315,0.09445015,1.8458049,-5.8759127,-0.7641924,0.258396
887,1778606004850,0.7804951,0.22160399,2.5150099,-6.010303,1.6481144,-0.9016371
888,1778606004860,0.66090703,0.34802565,2.8542495,-5.095838,1.572978,-1.1154399
889,1778606004870,0.14106509,0.60599416,3.0580373,-4.2253547,1.3298537,-1.1142182
890,1778606004880,0.024405725,0.6530972,2.8940308,-1.8173242,0.6432411,-0.41233405
891,1778606004890,0.03904916,0.72875494,2.3822427,-0.27977628,0.38423425,0.63713247
892,1778606004900,0.03904916,0.72875494,2.3822427,-0.27977628,0.38423425,0.63713247
893,1778606004910,0.03904916,0.72875494,2.3822427,-0.27977628,0.38423425,0.63713247
894,1778606004920,0.39342028,0.7473033,2.2328796,0.20097467,0.28893927,1.2046263
895,1778606004930,0.39342028,0.7473033,2.2328796,0.9334021,-0.73548174,1.9321668
896,1778606004940,1.0245523,0.75145227,2.506712,1.1746938,-1.1123856,1.9260582
897,1778606004950,1.0924002,0.78708464,2.6248357,1.3127494,-1.2834278,1.8515326
898,1778606004960,1.0924002,0.7700006,2.7361257,2.0726657,-1.2638801,0.75991637
899,1778606004970,0.861278,0.4463807,2.7229466,2.7311785,-0.32436943,0.15577064
900,1778606004980,0.861278,0.4463807,2.7229466,2.7311785,-0.32436943,0.15577064
901,1778606004990,0.72118914,0.24186075,2.527457,3.663359,0.83199847,-0.1740966
902,1778606005000,0.66700846,0.16229807,2.4398403,3.663359,0.83199847,-0.1740966
903,1778606005010,0.5793919,0.023429496,2.3095136,4.188703,0.5363397,-0.21319197
904,1778606005020,0.55693865,-0.04002539,2.2619226,4.832555,-0.1142318,-0.25411993
905,1778606005030,0.53717,-0.11690342,2.2001762,5.159368,-0.30176744,-0.32498032
906,1778606005040,0.48689422,-0.2489384,2.059843,5.416542,-0.31398472,-0.39278635
907,1778606005050,0.4756676,-0.33313814,1.934886,5.7781744,-0.14538592,-0.49846604
908,1778606005060,0.47347105,-0.41050428,1.7725879,6.07872,0.15577064,-0.6206391
909,1778606005070,0.46492904,-0.47762007,1.5758777,6.2858033,0.7440339,-0.8368854
910,1778606005080,0.41929033,-0.55059314,1.2952118,6.243043,1.0152581,-0.92485
911,1778606005090,0.38219365,-0.56670094,1.2075952,6.1715717,1.142318,-0.97127575
912,1778606005100,0.36047253,-0.58134437,1.1465809,6.06467,1.3304645,-1.0317514
913,1778606005110,0.29482117,-0.59964865,1.0062481,6.070168,1.3713925,-1.0366384
914,1778606005120,0.29482117,-0.59964865,1.0062481,6.0860505,1.3500122,-1.0274754
915,1778606005130,0.22428861,-0.58085626,0.8417535,6.124535,1.3341297,-0.9975429
916,1778606005140,0.21940747,-0.59110665,0.72167724,6.133087,1.4715744,-0.9224065
917,1778606005150,0.2135501,-0.6020892,0.5703618,6.01519,1.5693128,-0.8918633
918,1778606005160,0.20964517,-0.554254,0.255772,5.616295,1.6835446,-0.8362745
919,1778606005170,0.20964517,-0.554254,0.255772,5.616295,1.6835446,-0.8362745
920,1778606005180,0.18963248,-0.52033,0.14472595,4.797125,1.4611896,-0.7165449
921,1778606005190,0.16864355,-0.5051985,0.12056428,4.797125,1.4611896,-0.7165449
922,1778606005200,0.10933765,-0.53082454,0.08786061,4.607146,1.3530666,-0.6395759
923,1778606005210,0.051252022,-0.5357057,0.102748096,4.133725,1.2400564,-0.31031954
924,1778606005220,-0.024893839,-0.51618105,0.070532545,3.9913936,1.3164146,-0.10567969
925,1778606005230,-0.09225364,-0.43515408,0.041001618,3.5906658,1.6994271,0.625526
926,1778606005240,-0.13276714,-0.36559775,0.07541369,3.414126,1.6505579,0.93034774
927,1778606005250,-0.10884953,-0.27212384,0.06589546,3.2418618,1.459968,1.3707817
928,1778606005260,0.23966423,-0.0690682,-0.16229807,3.0622675,0.79045963,2.293799
929,1778606005270,0.3277689,0.005857374,-0.268463,2.9022207,0.47769663,2.3762658
930,1778606005280,0.3277689,0.005857374,-0.268463,2.9022207,0.47769663,2.3762658
931,1778606005290,0.5615757,0.117635585,-0.536926,1.8973475,0.37140608,1.9853121
932,1778606005300,0.7148437,0.23990828,-0.7365648,1.2883148,0.6921103,1.6493362
933,1778606005310,0.7326599,0.29921418,-0.75267255,0.7861836,1.010982,1.3726143
934,1778606005320,0.74510676,0.33191785,-0.7138674,-0.44837508,1.8252654,0.6065892
935,1778606005330,0.7477914,0.34900185,-0.6635916,-0.83016586,1.9816469,0.3213151
936,1778606005340,0.7409578,0.3526627,-0.63918597,-1.3298537,2.01219,-0.040317107
937,1778606005350,0.7214332,0.30043447,-0.5879339,-1.8576412,1.8216002,-0.3707952
938,1778606005360,0.6909261,0.24552159,-0.50568664,-2.823419,1.0189233,-0.8594874
939,1778606005370,0.64309084,0.16400647,-0.34973404,-3.304781,0.43310347,-1.0445796
940,1778606005380,0.6016011,0.09005712,-0.19329333,-3.6725218,-0.049480084,-1.1496484
941,1778606005390,0.55913514,-0.07590181,0.09518232,-3.8802161,-0.30970868,-1.1942415
942,1778606005400,0.5459561,-0.13716017,0.18816814,-4.318817,-0.5919284,-1.3359623
943,1778606005410,0.5342413,-0.20525214,0.26211748,-4.488027,-0.55955255,-1.4239268
944,1778606005420,0.4515059,-0.40635532,0.4685899,-4.7354274,-0.45265114,-1.5748106
945,1778606005430,0.41099238,-0.45345837,0.5952556,-5.2283955,-0.25411993,-1.8826867
946,1778606005440,0.3521746,-0.47176263,0.7560893,-5.3566775,-0.42332962,-2.0182989
947,1778606005450,0.30897647,-0.46956614,0.86298645,-5.28093,-0.602924,-2.0616703
948,1778606005460,0.22502078,-0.43515408,0.92180425,-5.2277846,-0.7330383,-2.090381
949,1778606005470,0.17450093,-0.42002252,0.916679,-5.226563,-0.829555,-2.122146
950,1778606005480,0.117879644,-0.40733153,0.9174112,-5.31636,-0.7910705,-2.1398609
951,1778606005490,-0.0056133163,-0.3829258,0.9554841,-5.6230145,-0.408058,-2.140472
952,1778606005500,-0.09567044,-0.36950266,1.0008788,-5.852089,-0.1704314,-2.134974
953,1778606005510,-0.19207305,-0.3448529,1.0611609,-6.354831,-0.1282817,-2.0347922
954,1778606005520,-0.27993366,-0.30116665,1.2402989,-6.612616,-0.47586402,-1.8454239
955,1778606005530,-0.34607318,-0.24918245,1.4909457,-6.6168923,-0.8698721,-1.5387696
956,1778606005540,-0.38268176,-0.10348027,2.0779035,-6.4128633,-1.1404854,-1.2651019
957,1778606005550,-0.35315084,0.035876416,2.2697322,-5.257717,-1.8924606,-0.5015204
958,1778606005560,-0.26187342,0.16791138,2.3283062,-4.7378707,-1.91323,-0.28893927
959,1778606005570,-0.14423785,0.26480213,2.2704647,-4.20092,-1.676825,-0.15027285
960,1778606005580,0.23795582,0.54668826,1.9207305,-3.8252382,-0.18509217,-0.42455134
961,1778606005590,0.2633378,0.6218578,1.9407433,-3.77698,1.2797627,-1.03786
962,1778606005600,0.12129646,0.7324158,2.072046,-3.598607,1.7366899,-1.4056009
963,1778606005610,-0.029774986,0.76219076,2.0993805,-3.3664784,1.8967366,-1.6224581
964,1778606005620,-0.17450093,0.7809832,2.0666766,-2.9816332,1.9272798,-1.7892243
965,1778606005630,-0.31873876,0.801484,2.0024896,-2.362216,1.7592919,-1.7464638
966,1778606005640,-0.3961049,0.8300387,1.9878463,-2.0244074,1.5937474,-1.5723672
967,1778606005650,-0.42636803,0.9596331,2.0639923,-1.6053538,1.3017539,-1.3628404
968,1778606005660,-0.39537275,1.0157663,2.0232346,-1.2718215,1.0091494,-1.219287
969,1778606005670,-0.39537275,1.0157663,2.0232346,-1.2718215,1.0091494,-1.219287
970,1778606005680,-0.37584817,1.1260802,2.0156689,-0.57910025,-0.24740042,-0.77518797
971,1778606005690,-0.40952805,1.1063116,2.2963347,-0.26267207,-0.6542367,-0.58459806
972,1778606005700,-0.40952805,1.1063116,2.2963347,-0.26267207,-0.6542367,-0.58459806
973,1778606005710,-0.42636803,1.0631135,2.3641827,0.19486602,-0.6407976,-0.33841935
974,1778606005720,-0.37316352,0.9432813,2.4393523,0.8258898,-0.3200934,0.00061086525
975,1778606005730,-0.31751847,0.9113098,2.417387,1.1038336,-0.20708331,0.12339478
976,1778606005740,-0.25333142,0.87250465,2.3378243,1.9101756,0.06414085,0.34574974
977,1778606005750,-0.25333142,0.87250465,2.3378243,1.9101756,0.06414085,0.34574974
978,1778606005760,-0.25333142,0.87250465,2.3378243,1.9101756,0.06414085,0.34574974
979,1778606005770,-0.25333142,0.87250465,2.3378243,1.9101756,0.06414085,0.34574974
980,1778606005780,-0.1313028,0.60916686,1.9143851,3.2943962,0.37568212,0.5015204
981,1778606005790,-0.12715383,0.54107493,1.8499539,3.5204165,0.44104472,0.52839845
982,1778606005800,-0.14082102,0.4170938,1.7716117,3.7250562,0.45448375,0.55771995
983,1778606005810,-0.16351835,0.35827604,1.7403722,3.8649445,0.4373795,0.5821546
984,1778606005820,-0.18645974,0.27846932,1.7193834,4.0317106,0.41599923,0.6273586
985,1778606005830,-0.20451997,0.082735404,1.6727684,4.348139,0.38973203,0.8210029
986,1778606005840,-0.20451997,0.082735404,1.6727684,4.488027,0.4092797,0.9254609
987,1778606005850,-0.17498904,0.007565775,1.5910091,4.6761737,0.39584067,1.0635164
988,1778606005860,-0.15400012,-0.029774986,1.5375606,5.0805664,0.115453534,1.3646729
989,1778606005870,-0.08908089,-0.110557936,1.3969837,5.211902,0.04337143,1.4330899
990,1778606005880,-0.06613952,-0.13520771,1.3149804,5.287039,0.0,1.4660766
991,1778606005890,-0.038316987,-0.15497635,1.2256554,5.370727,-0.07452556,1.4996742
992,1778606005900,-0.009274175,-0.18743597,1.1319375,5.335908,-0.172264,1.4899004
993,1778606005910,0.055400997,-0.22331238,1.0208915,5.2852063,-0.26511553,1.4807373
994,1778606005920,0.091033354,-0.23356278,0.98892,5.225952,-0.38362336,1.4703526
995,1778606005930,0.13057062,-0.24552159,0.95743656,5.1697526,-0.5332854,1.459357
996,1778606005940,0.18084641,-0.2604091,0.91570276,5.166087,-0.61941737,1.4440855
997,1778606005950,0.22209209,-0.2613853,0.8690878,5.1612005,-0.72021013,1.4062119
998,1778606005960,0.29945824,-0.25699228,0.7285109,5.136766,-0.81489426,1.2675453
999,1778606005970,0.34729347,-0.26651052,0.50763905,4.9339585,-0.6084218,1.0158689
1000,1778606005980,0.34729347,-0.26651052,0.50763905,4.9339585,-0.6084218,1.0158689
