id,timestamp,acc_x,acc_y,acc_z,gyro_x,gyro_y,gyro_z
0,1778606037980,-0.5176454,-0.5759751,0.50593066,0.13683382,0.59131753,-0.18936823
1,1778606037990,-0.5276518,-0.5701177,0.46200037,-0.25228736,0.080634214,-0.13805555
2,1778606038000,-0.5276518,-0.5701177,0.46200037,-0.25228736,0.080634214,-0.13805555
3,1778606038010,-0.5344854,-0.5964759,0.4898229,-0.5839872,-0.04153884,-0.1423316
4,1778606038020,-0.5344854,-0.5964759,0.4898229,-0.5839872,-0.04153884,-0.1423316
5,1778606038030,-0.5344854,-0.5964759,0.4898229,-0.5839872,-0.04153884,-0.1423316
6,1778606038040,-0.63625723,-0.59086263,0.6540734,-0.6267477,0.13805555,-0.11789699
7,1778606038050,-0.63625723,-0.59086263,0.6540734,-0.6267477,0.13805555,-0.11789699
8,1778606038060,-0.63625723,-0.59086263,0.6540734,-0.6267477,0.13805555,-0.11789699
9,1778606038070,-0.6628595,-0.5981843,0.8166155,-0.29810223,0.59498274,0.04337143
10,1778606038080,-0.6628595,-0.5981843,0.8166155,-0.29810223,0.59498274,0.04337143
11,1778606038090,-0.7280228,-0.64260274,0.7792748,-0.14721853,0.5271767,0.16371189
12,1778606038100,-0.7280228,-0.64260274,0.7792748,-0.14721853,0.5271767,0.16371189
13,1778606038110,-0.7280228,-0.64260274,0.7792748,-0.14721853,0.5271767,0.16371189
14,1778606038120,-0.64089435,-0.76292294,0.43637437,-0.09162979,0.35369098,0.54183745
15,1778606038130,-0.64089435,-0.76292294,0.43637437,-0.09162979,0.35369098,0.54183745
16,1778606038140,-0.64089435,-0.76292294,0.43637437,-0.09162979,0.35369098,0.54183745
17,1778606038150,-0.4651731,-0.7558453,0.46419686,-0.9285152,1.0250319,0.54305923
18,1778606038160,-0.4651731,-0.7558453,0.46419686,-0.9285152,1.0250319,0.54305923
19,1778606038170,-0.4651731,-0.7558453,0.46419686,-0.9285152,1.0250319,0.54305923
20,1778606038180,-0.4651731,-0.7558453,0.46419686,-0.9285152,1.0250319,0.54305923
21,1778606038190,-0.4651731,-0.7558453,0.46419686,-0.9285152,1.0250319,0.54305923
22,1778606038200,-0.32508424,-0.8078295,0.36632994,-0.7104363,1.9199494,0.2657264
23,1778606038210,-0.43320164,-0.7883049,0.070532545,-0.7281514,2.593123,0.087964594
24,1778606038220,-0.43320164,-0.7883049,0.070532545,-0.7281514,2.593123,0.087964594
25,1778606038230,-0.43320164,-0.7883049,0.070532545,-0.7281514,2.593123,0.087964594
26,1778606038240,-0.5122762,-0.7055695,-0.051496077,-0.7281514,2.593123,0.087964594
27,1778606038250,-0.5122762,-0.7055695,-0.051496077,-0.7281514,2.593123,0.087964594
28,1778606038260,-0.63967407,-0.41880223,-0.31434575,-1.6383406,2.8026497,0.21380283
29,1778606038270,-0.63967407,-0.41880223,-0.31434575,-1.6383406,2.8026497,0.21380283
30,1778606038280,-0.63967407,-0.41880223,-0.31434575,-1.6383406,2.8026497,0.21380283
31,1778606038290,-0.878118,-0.29311275,-0.30214286,-3.1435125,1.8423696,0.012217305
32,1778606038300,-0.878118,-0.29311275,-0.30214286,-3.1435125,1.8423696,0.012217305
33,1778606038310,-0.878118,-0.29311275,-0.30214286,-3.1435125,1.8423696,0.012217305
34,1778606038320,-0.878118,-0.29311275,-0.30214286,-3.1435125,1.8423696,0.012217305
35,1778606038330,-0.878118,-0.29311275,-0.30214286,-3.1435125,1.8423696,0.012217305
36,1778606038340,-0.878118,-0.29311275,-0.30214286,-3.1435125,1.8423696,0.012217305
37,1778606038350,-1.0640897,-0.3443648,0.5405868,-3.8502836,0.947452,-0.01282817
38,1778606038360,-1.2344415,-0.13838045,1.406502,3.9852848,2.9553661,1.1490375
39,1778606038370,-1.2344415,-0.13838045,1.406502,3.9852848,2.9553661,1.1490375
40,1778606038380,-0.7155758,-0.366574,0.4229512,2.393981,4.235129,0.3494149
41,1778606038390,-0.7155758,-0.366574,0.4229512,2.393981,4.235129,0.3494149
42,1778606038400,-0.7155758,-0.366574,0.4229512,2.3383923,4.233907,0.2144137
43,1778606038410,-0.6199054,-0.7214332,0.0924977,2.452013,3.2107077,0.06780604
44,1778606038420,-0.6199054,-0.7214332,0.0924977,2.452013,3.2107077,0.06780604
45,1778606038430,-0.66969305,-0.92082804,-0.19841854,1.9779817,2.2137756,0.009773844
46,1778606038440,-0.66969305,-0.92082804,-0.19841854,1.9779817,2.2137756,0.009773844
47,1778606038450,-0.66969305,-0.92082804,-0.19841854,1.9779817,2.2137756,0.009773844
48,1778606038460,-0.6967834,-0.7053254,-0.060770255,1.1520919,0.8020661,-0.11362094
49,1778606038470,-0.6967834,-0.7053254,-0.060770255,1.1520919,0.8020661,-0.11362094
50,1778606038480,-0.6967834,-0.7053254,-0.060770255,1.1520919,0.8020661,-0.11362094
51,1778606038490,-0.6967834,-0.7053254,-0.060770255,1.1520919,0.8020661,-0.11362094
52,1778606038500,-0.6967834,-0.7053254,-0.060770255,1.1520919,0.8020661,-0.11362094
53,1778606038510,0.20232345,-0.17498904,-0.13398743,1.2247849,0.48808134,-1.0842859
54,1778606038520,-2.2753458,-1.1077759,0.054668825,-1.6468927,-0.11178834,-2.1325307
55,1778606038530,-2.2753458,-1.1077759,0.054668825,-1.6468927,-0.11178834,-2.1325307
56,1778606038540,-2.3973744,-1.5151074,0.3031191,-0.5381723,-1.3127494,0.08979719
57,1778606038550,-1.2678773,-1.3520772,-0.78757274,0.42271876,0.093462385,0.09896017
58,1778606038560,-1.2678773,-1.3520772,-0.78757274,0.42271876,0.093462385,0.09896017
59,1778606038570,-1.500464,-0.49348375,-0.41074833,0.029932396,0.8350528,-0.032375857
60,1778606038580,-1.500464,-0.49348375,-0.41074833,0.029932396,0.8350528,-0.032375857
61,1778606038590,-1.500464,-0.49348375,-0.41074833,0.029932396,0.8350528,-0.032375857
62,1778606038600,-0.3219115,-0.017572122,-0.4932397,-2.9663615,-0.59742624,0.408058
63,1778606038610,-0.3219115,-0.017572122,-0.4932397,-2.9663615,-0.59742624,0.408058
64,1778606038620,-0.35071027,-0.55840296,0.27358818,-3.4330628,-1.564426,-0.55771995
65,1778606038630,-0.35071027,-0.55840296,0.27358818,-3.4330628,-1.564426,-0.55771995
66,1778606038640,-0.35071027,-0.55840296,0.27358818,-3.4330628,-1.564426,-0.55771995
67,1778606038650,-0.35071027,-0.55840296,0.27358818,-3.4330628,-1.564426,-0.55771995
68,1778606038660,-0.41514137,-0.28335047,0.54034275,1.5442673,-0.25350907,-1.2278391
69,1778606038670,-0.41514137,-0.28335047,0.54034275,1.5442673,-0.25350907,-1.2278391
70,1778606038680,-0.41514137,-0.28335047,0.54034275,1.5442673,-0.25350907,-1.2278391
71,1778606038690,-0.4046469,-0.29872608,0.119343996,1.3243558,-0.07819075,-1.7073684
72,1778606038700,-0.4046469,-0.29872608,0.119343996,1.3243558,-0.07819075,-1.7073684
73,1778606038710,-0.73680884,-1.1478013,0.42148685,1.2302825,-0.49663344,-1.4996742
74,1778606038720,-0.73680884,-1.1478013,0.42148685,1.2302825,-0.49663344,-1.4996742
75,1778606038730,-0.73680884,-1.1478013,0.42148685,1.2302825,-0.49663344,-1.4996742
76,1778606038740,-0.73680884,-1.1478013,0.42148685,1.2302825,-0.49663344,-1.4996742
77,1778606038750,-0.73680884,-1.1478013,0.42148685,1.2302825,-0.49663344,-1.4996742
78,1778606038760,-0.73680884,-1.1478013,0.42148685,1.2302825,-0.49663344,-1.4996742
79,1778606038770,0.06613952,-0.5989165,-0.48518583,2.0744984,-0.58032197,-4.143499
80,1778606038780,0.024893839,-0.40781966,-0.18768002,1.0183123,-2.207056,-4.754364
81,1778606038790,-0.039781332,-0.19207305,-0.23722363,-1.0274754,-2.3341162,-3.9590178
82,1778606038800,-0.050763905,-0.24405725,-0.34216827,-1.4202617,-2.5967882,-3.8637226
83,1778606038810,-0.050763905,-0.24405725,-0.34216827,-1.4202617,-2.5967882,-3.8637226
84,1778606038820,-0.050763905,-0.24405725,-0.34216827,-1.4202617,-2.5967882,-3.8637226
85,1778606038830,-0.07736614,-0.3692586,-0.45248213,-3.340822,-2.4868324,-3.4391713
86,1778606038840,-0.07736614,-0.3692586,-0.45248213,-3.340822,-2.4868324,-3.4391713
87,1778606038850,-0.07736614,-0.3692586,-0.45248213,-3.340822,-2.4868324,-3.4391713
88,1778606038860,0.34582913,-0.6269831,-0.366574,-4.582711,-2.2064452,-3.2174273
89,1778606038870,0.34582913,-0.6269831,-0.366574,-4.582711,-2.2064452,-3.2174273
90,1778606038880,0.34582913,-0.6269831,-0.366574,-4.582711,-2.2064452,-3.2174273
91,1778606038890,0.34582913,-0.6269831,-0.366574,-4.582711,-2.2064452,-3.2174273
92,1778606038900,0.34582913,-0.6269831,-0.366574,-4.582711,-2.2064452,-3.2174273
93,1778606038910,0.34582913,-0.6269831,-0.366574,-4.582711,-2.2064452,-3.2174273
94,1778606038920,0.05832968,-2.8793874,-0.8927614,2.7446175,1.3756685,-0.9242391
95,1778606038930,0.05832968,-2.8793874,-0.8927614,2.7446175,1.3756685,-0.9242391
96,1778606038940,0.05832968,-2.8793874,-0.8927614,2.7446175,1.3756685,-0.9242391
97,1778606038950,0.05832968,-2.8793874,-0.8927614,2.7446175,1.3756685,-0.9242391
98,1778606038960,0.05832968,-2.8793874,-0.8927614,2.7446175,1.3756685,-0.9242391
99,1778606038970,0.05832968,-2.8793874,-0.8927614,2.7446175,1.3756685,-0.9242391
100,1778606038980,0.05832968,-2.8793874,-0.8927614,2.7446175,1.3756685,-0.9242391
101,1778606038990,0.05832968,-2.8793874,-0.8927614,2.7446175,1.3756685,-0.9242391
102,1778606039000,0.23990828,-0.14765464,-0.29701766,-0.19181168,3.9003747,0.5131268
103,1778606039010,0.23990828,-0.14765464,-0.29701766,-0.19181168,3.9003747,0.5131268
104,1778606039020,0.23990828,-0.14765464,-0.29701766,-0.19181168,3.9003747,0.5131268
105,1778606039030,0.23990828,-0.14765464,-0.29701766,-0.19181168,3.9003747,0.5131268
106,1778606039040,0.23990828,-0.14765464,-0.29701766,-0.19181168,3.9003747,0.5131268
107,1778606039050,0.23990828,-0.14765464,-0.29701766,-0.19181168,3.9003747,0.5131268
108,1778606039060,0.24454537,-0.54839665,0.61795294,-2.8857274,-0.12461651,-0.17898351
109,1778606039070,0.18694785,-1.1917315,0.35974038,2.180789,-0.18692477,0.15393804
110,1778606039080,0.18694785,-1.1917315,0.35974038,2.180789,-0.18692477,0.15393804
111,1778606039090,-0.3917119,-1.5522041,0.584029,3.6212091,0.0983493,0.7440339
112,1778606039100,-0.3917119,-1.5522041,0.584029,3.6212091,0.0983493,0.7440339
113,1778606039110,-0.78684056,-2.148192,0.95719254,4.223522,1.0622946,1.5228871
114,1778606039120,-0.78684056,-2.148192,0.95719254,4.223522,1.0622946,1.5228871
115,1778606039130,-0.8188121,-2.3168354,0.8959341,4.7384815,2.0995438,2.533869
116,1778606039140,-0.27310005,-2.1108513,0.1432616,4.1825943,-2.1545217,4.5216246
117,1778606039150,-0.27310005,-2.1108513,0.1432616,4.1825943,-2.1545217,4.5216246
118,1778606039160,-0.27310005,-2.1108513,0.1432616,4.1825943,-2.1545217,4.5216246
119,1778606039170,-0.27310005,-2.1108513,0.1432616,4.1825943,-2.1545217,4.5216246
120,1778606039180,-0.27310005,-2.1108513,0.1432616,4.1825943,-2.1545217,4.5216246
121,1778606039190,-0.27310005,-2.1108513,0.1432616,4.1825943,-2.1545217,4.5216246
122,1778606039200,-0.29213652,-0.66993713,-0.94913864,-0.17470746,-1.5381587,2.8612928
123,1778606039210,-0.29213652,-0.66993713,-0.94913864,-0.17470746,-1.5381587,2.8612928
124,1778606039220,0.33313814,-0.9071608,-0.2633378,-0.64873886,-3.095865,2.8527408
125,1778606039230,0.33313814,-0.9071608,-0.2633378,-0.64873886,-3.095865,2.8527408
126,1778606039240,0.33313814,-0.9071608,-0.2633378,-0.64873886,-3.095865,2.8527408
127,1778606039250,0.33313814,-0.9071608,-0.2633378,-0.64873886,-3.095865,2.8527408
128,1778606039260,0.33313814,-0.9071608,-0.2633378,-0.64873886,-3.095865,2.8527408
129,1778606039270,0.33313814,-0.9071608,-0.2633378,-0.64873886,-3.095865,2.8527408
130,1778606039280,0.061746486,-1.1958805,0.06980037,-0.119729586,0.6432411,0.22174409
131,1778606039290,0.061746486,-1.1958805,0.06980037,-0.119729586,0.6432411,0.22174409
132,1778606039300,0.061746486,-1.1958805,0.06980037,-0.119729586,0.6432411,0.22174409
133,1778606039310,0.061746486,-1.1958805,0.06980037,-0.119729586,0.6432411,0.22174409
134,1778606039320,0.17840585,-0.9686632,-0.14594623,-1.0213667,0.59864795,-1.006095
135,1778606039330,-0.234539,-0.93620354,-0.34753752,-2.63344,-1.210735,-3.3970215
136,1778606039340,-0.28749946,-0.9589009,-0.36413342,-2.9382617,-0.52656585,-3.345098
137,1778606039350,-0.28749946,-0.9589009,-0.36413342,-2.9382617,-0.52656585,-3.345098
138,1778606039360,-0.28749946,-0.9589009,-0.36413342,-2.9382617,-0.52656585,-3.345098
139,1778606039370,-0.19256116,-1.1006982,-0.2604091,-2.9938505,-0.064751714,-2.9938505
140,1778606039380,-0.19256116,-1.1006982,-0.2604091,-2.9938505,-0.064751714,-2.9938505
141,1778606039390,-0.12910628,-1.1856301,-0.1513155,-3.028059,0.1001819,-2.8704557
142,1778606039400,-0.24478942,-1.1055794,0.21208574,-2.7049112,-0.25961772,-1.6749926
143,1778606039410,-0.24478942,-1.1055794,0.21208574,-2.7049112,-0.25961772,-1.6749926
144,1778606039420,-0.065407336,-0.827354,0.31190515,-2.1142046,-1.7843374,0.13988814
145,1778606039430,-0.065407336,-0.827354,0.31190515,-2.1142046,-1.7843374,0.13988814
146,1778606039440,-0.065407336,-0.827354,0.31190515,-2.1142046,-1.7843374,0.13988814
147,1778606039450,-0.065407336,-0.827354,0.31190515,-2.1142046,-1.7843374,0.13988814
148,1778606039460,-0.065407336,-0.827354,0.31190515,-2.1142046,-1.7843374,0.13988814
149,1778606039470,-0.065407336,-0.827354,0.31190515,-2.1142046,-1.7843374,0.13988814
150,1778606039480,0.026846299,-0.55742675,0.42002252,-2.1044307,-2.4917192,0.08246681
151,1778606039490,0.026846299,-0.55742675,0.42002252,-2.1044307,-2.4917192,0.08246681
152,1778606039500,0.10348027,-0.00024405724,0.5269196,1.6878207,-5.1532593,-0.8918633
153,1778606039510,0.10348027,-0.00024405724,0.5269196,1.6878207,-5.1532593,-0.8918633
154,1778606039520,0.10348027,-0.00024405724,0.5269196,1.6878207,-5.1532593,-0.8918633
155,1778606039530,0.439059,-0.08419975,0.99917036,2.6896396,-5.045747,-1.8411479
156,1778606039540,0.439059,-0.08419975,0.99917036,2.6896396,-5.045747,-1.8411479
157,1778606039550,0.439059,-0.08419975,0.99917036,2.6896396,-5.045747,-1.8411479
158,1778606039560,0.43808278,-0.12471326,-0.9454777,1.5827519,-3.6737435,-1.8368717
159,1778606039570,0.5872018,-0.32728076,-0.96402615,-0.72509706,1.1527027,-1.9193386
160,1778606039580,0.5872018,-0.32728076,-0.96402615,-0.72509706,1.1527027,-1.9193386
161,1778606039590,0.5872018,-0.32728076,-0.96402615,-0.72509706,1.1527027,-1.9193386
162,1778606039600,0.75218445,-1.3010693,-0.47078642,-1.4019357,5.032919,-1.196685
163,1778606039610,0.75218445,-1.3010693,-0.47078642,-1.4019357,5.032919,-1.196685
164,1778606039620,0.75218445,-1.3010693,-0.47078642,-1.4019357,5.032919,-1.196685
165,1778606039630,2.6755996,-5.6333294,0.07541369,2.1050417,7.4641623,-0.3390302
166,1778606039640,2.6755996,-5.6333294,0.07541369,2.1050417,7.4641623,-0.3390302
167,1778606039650,2.6755996,-5.6333294,0.07541369,2.1050417,7.4641623,-0.3390302
168,1778606039660,2.6755996,-5.6333294,0.07541369,2.1050417,7.4641623,-0.3390302
169,1778606039670,0.7812273,-4.3854647,-0.06589546,2.6053402,1.9669861,-1.4819591
170,1778606039680,0.7812273,-4.3854647,-0.06589546,2.6053402,1.9669861,-1.4819591
171,1778606039690,-0.2403964,-1.4601945,-0.2306341,0.18142697,-4.915022,-0.8167268
172,1778606039700,-0.5920829,-0.6469958,-0.32239962,-0.14721853,-5.828876,-0.6084218
173,1778606039710,-0.5920829,-0.6469958,-0.32239962,-0.14721853,-5.828876,-0.6084218
174,1778606039720,-0.5920829,-0.6469958,-0.32239962,-0.14721853,-5.828876,-0.6084218
175,1778606039730,-0.5920829,-0.6469958,-0.32239962,-0.14721853,-5.828876,-0.6084218
176,1778606039740,-0.5920829,-0.6469958,-0.32239962,-0.14721853,-5.828876,-0.6084218
177,1778606039750,-0.62551874,-0.23112221,0.008786061,-1.926669,-1.8771889,2.90161
178,1778606039760,-0.62551874,-0.23112221,0.008786061,-1.926669,-1.8771889,2.90161
179,1778606039770,-0.41123646,-0.3648656,0.45516676,-1.1569787,2.8160887,2.4275784
180,1778606039780,-0.41123646,-0.3648656,0.45516676,-1.1569787,2.8160887,2.4275784
181,1778606039790,-0.41587353,-0.6369894,0.76389915,2.179567,8.202699,1.7672331
182,1778606039800,-0.41587353,-0.6369894,0.76389915,2.179567,8.202699,1.7672331
183,1778606039810,-0.41587353,-0.6369894,0.76389915,2.179567,8.202699,1.7672331
184,1778606039820,-0.41587353,-0.6369894,0.76389915,2.179567,8.202699,1.7672331
185,1778606039830,-0.38878322,-0.6787232,0.90081537,2.8502972,9.117775,2.0971005
186,1778606039840,-0.38878322,-0.6787232,0.90081537,2.8502972,9.117775,2.0971005
187,1778606039850,-0.38878322,-0.6787232,0.90081537,2.8502972,9.117775,2.0971005
188,1778606039860,-0.38878322,-0.6787232,0.90081537,2.8502972,9.117775,2.0971005
189,1778606039870,-0.38878322,-0.6787232,0.90081537,2.8502972,9.117775,2.0971005
190,1778606039880,0.047347106,-0.42002252,0.37121108,1.582141,-2.3066273,3.2131512
191,1778606039890,0.047347106,-0.42002252,0.37121108,1.582141,-2.3066273,3.2131512
192,1778606039900,0.07004443,-0.42441553,-0.4702983,1.6578883,-2.0793853,2.0189097
193,1778606039910,0.07004443,-0.42441553,-0.4702983,1.6578883,-2.0793853,2.0189097
194,1778606039920,0.07004443,-0.42441553,-0.4702983,1.6578883,-2.0793853,2.0189097
195,1778606039930,-0.6909261,-0.4549227,-0.59159476,0.8558222,-1.1771374,2.3194554
196,1778606039940,-0.7070338,-0.46541715,-0.5347294,-0.3042109,-2.4459045,3.4281757
197,1778606039950,-0.7070338,-0.46541715,-0.5347294,-0.3042109,-2.4459045,3.4281757
198,1778606039960,-0.7070338,-0.46541715,-0.5347294,-0.3042109,-2.4459045,3.4281757
199,1778606039970,-0.7070338,-0.46541715,-0.5347294,-0.3042109,-2.4459045,3.4281757
200,1778606039980,-0.7070338,-0.46541715,-0.5347294,-0.3042109,-2.4459045,3.4281757
201,1778606039990,-0.7070338,-0.46541715,-0.5347294,-0.3042109,-2.4459045,3.4281757
202,1778606040000,-0.7070338,-0.46541715,-0.5347294,-0.3042109,-2.4459045,3.4281757
203,1778606040010,-0.6801876,-1.2210184,0.5708499,0.07819075,-2.5534167,4.0139956
204,1778606040020,-0.6801876,-1.2210184,0.5708499,1.2687671,-1.3255776,4.221079
205,1778606040030,-0.6801876,-1.2210184,0.5708499,1.2687671,-1.3255776,4.221079
206,1778606040040,-0.6801876,-1.2210184,0.5708499,1.2687671,-1.3255776,4.221079
207,1778606040050,-0.6801876,-1.2210184,0.5708499,1.2687671,-1.3255776,4.221079
208,1778606040060,-0.24918245,-2.293406,-0.18548352,-0.002443461,-1.496009,-0.77274454
209,1778606040070,-0.24918245,-2.293406,-0.18548352,-0.002443461,-1.496009,-0.77274454
210,1778606040080,-0.07248501,-0.8151512,-0.22526483,-1.8741345,-0.7959574,-3.8734965
211,1778606040090,-0.07248501,-0.8151512,-0.22526483,-1.8741345,-0.7959574,-3.8734965
212,1778606040100,-0.07248501,-0.8151512,-0.22526483,-1.8741345,-0.7959574,-3.8734965
213,1778606040110,-0.07248501,-0.8151512,-0.22526483,-1.8741345,-0.7959574,-3.8734965
214,1778606040120,-0.07248501,-0.8151512,-0.22526483,-1.8741345,-0.7959574,-3.8734965
215,1778606040130,-0.07248501,-0.8151512,-0.22526483,-1.8741345,-0.7959574,-3.8734965
216,1778606040140,-0.107873306,-1.5277983,-0.07590181,-2.8735101,-0.729984,-4.6407433
217,1778606040150,-0.107873306,-1.5277983,-0.07590181,-2.8735101,-0.729984,-4.6407433
218,1778606040160,-0.107873306,-1.5277983,-0.07590181,-2.8735101,-0.729984,-4.6407433
219,1778606040170,-0.107873306,-1.5277983,-0.07590181,-2.8735101,-0.729984,-4.6407433
220,1778606040180,-0.107873306,-1.5277983,-0.07590181,-2.8735101,-0.729984,-4.6407433
221,1778606040190,-0.107873306,-1.5277983,-0.07590181,-2.8735101,-0.729984,-4.6407433
222,1778606040200,-0.2818861,-0.77122086,0.5688974,-2.9254336,-3.532023,-2.0384574
223,1778606040210,-0.22819352,-0.5774395,0.51691324,-2.5534167,-3.5375206,-1.1655309
224,1778606040220,-0.22819352,-0.5774395,0.51691324,-2.5534167,-3.5375206,-1.1655309
225,1778606040230,-0.13935669,-0.10494461,0.49934113,-1.7806722,-3.2259793,1.2583824
226,1778606040240,-0.13935669,-0.10494461,0.49934113,-1.7806722,-3.2259793,1.2583824
227,1778606040250,-0.13935669,-0.10494461,0.49934113,-1.7806722,-3.2259793,1.2583824
228,1778606040260,-0.13935669,-0.10494461,0.49934113,-1.7806722,-3.2259793,1.2583824
229,1778606040270,0.32239962,0.15375607,1.3098553,-1.0305296,-0.5467244,1.9590448
230,1778606040280,0.32239962,0.15375607,1.3098553,-1.0305296,-0.5467244,1.9590448
231,1778606040290,0.32239962,0.15375607,1.3098553,-1.0305296,-0.5467244,1.9590448
232,1778606040300,0.32239962,0.15375607,1.3098553,-1.0305296,-0.5467244,1.9590448
233,1778606040310,0.32239962,0.15375607,1.3098553,-1.0305296,-0.5467244,1.9590448
234,1778606040320,0.971836,-0.18743597,1.2385906,3.4733799,-0.7666359,-0.38545597
235,1778606040330,0.971836,-0.18743597,1.2385906,3.4733799,-0.7666359,-0.38545597
236,1778606040340,0.4761557,-0.50324607,-0.294089,1.310306,-0.17531833,-2.0182989
237,1778606040350,0.4761557,-0.50324607,-0.294089,1.310306,-0.17531833,-2.0182989
238,1778606040360,0.4761557,-0.50324607,-0.294089,1.310306,-0.17531833,-2.0182989
239,1778606040370,0.64040625,-0.70020026,-0.7165521,-1.4789047,2.2052236,-2.91566
240,1778606040380,0.64040625,-0.70020026,-0.7165521,-1.4789047,2.2052236,-2.91566
241,1778606040390,1.2476206,-2.997023,-0.2884757,-1.0629056,6.4482937,-2.8484647
242,1778606040400,1.2476206,-2.997023,-0.2884757,-1.0629056,6.4482937,-2.8484647
243,1778606040410,1.2476206,-2.997023,-0.2884757,-1.0629056,6.4482937,-2.8484647
244,1778606040420,1.368429,-5.3648663,-0.5703618,3.1160235,6.6107836,0.20525073
245,1778606040430,1.368429,-5.3648663,-0.5703618,3.1160235,6.6107836,0.20525073
246,1778606040440,1.368429,-5.3648663,-0.5703618,3.1160235,6.6107836,0.20525073
247,1778606040450,1.368429,-5.3648663,-0.5703618,3.1160235,6.6107836,0.20525073
248,1778606040460,1.368429,-5.3648663,-0.5703618,3.1160235,6.6107836,0.20525073
249,1778606040470,-0.29116032,-1.3171769,-0.38951537,-1.8784106,-6.767776,-0.1777618
250,1778606040480,-0.29116032,-1.3171769,-0.38951537,-1.8784106,-6.767776,-0.1777618
251,1778606040490,-0.58207655,-0.16595893,-0.13593988,-2.3469443,-7.044498,0.7440339
252,1778606040500,-0.58207655,-0.16595893,-0.13593988,-2.3469443,-7.044498,0.7440339
253,1778606040510,-0.58207655,-0.16595893,-0.13593988,-2.3469443,-7.044498,0.7440339
254,1778606040520,-0.58207655,-0.16595893,-0.13593988,-2.3469443,-7.044498,0.7440339
255,1778606040530,-0.34949,0.0051252022,0.1147069,-2.4422393,-4.6077566,1.328021
256,1778606040540,-0.34949,0.0051252022,0.1147069,-2.4422393,-4.6077566,1.328021
257,1778606040550,-1.0902036,-0.07443746,0.23966423,0.13927728,10.544145,2.479502
258,1778606040560,-1.0902036,-0.07443746,0.23966423,0.13927728,10.544145,2.479502
259,1778606040570,-1.0902036,-0.07443746,0.23966423,0.13927728,10.544145,2.479502
260,1778606040580,-1.0902036,-0.07443746,0.23966423,0.13927728,10.544145,2.479502
261,1778606040590,-1.0902036,-0.07443746,0.23966423,0.13927728,10.544145,2.479502
262,1778606040600,-1.0902036,-0.07443746,0.23966423,0.13927728,10.544145,2.479502
263,1778606040610,-1.0902036,-0.07443746,0.23966423,0.13927728,10.544145,2.479502
264,1778606040620,-1.189779,-0.25601605,0.37584817,-0.16310102,9.101892,3.4489453
265,1778606040630,-1.1539028,-0.5288721,0.87030816,-0.010995574,8.080525,4.383569
266,1778606040640,-1.1539028,-0.5288721,0.87030816,-0.010995574,8.080525,4.383569
267,1778606040650,-0.041001618,-0.5256993,0.7387613,1.3121386,-0.66767573,4.990158
268,1778606040660,-0.041001618,-0.5256993,0.7387613,1.3121386,-0.66767573,4.990158
269,1778606040670,-0.041001618,-0.5256993,0.7387613,1.3121386,-0.66767573,4.990158
270,1778606040680,-0.084931925,-0.63454884,0.39317623,1.5076154,-2.9254336,3.5888333
271,1778606040690,-0.084931925,-0.63454884,0.39317623,1.5076154,-2.9254336,3.5888333
272,1778606040700,-0.084931925,-0.63454884,0.39317623,1.5076154,-2.9254336,3.5888333
273,1778606040710,-0.72094506,-0.63162017,-0.37169918,0.59742624,-6.6303315,3.9608502
274,1778606040720,-0.72094506,-0.63162017,-0.37169918,0.59742624,-6.6303315,3.9608502
275,1778606040730,-0.72094506,-0.63162017,-0.37169918,0.59742624,-6.6303315,3.9608502
276,1778606040740,-0.72094506,-0.63162017,-0.37169918,0.59742624,-6.6303315,3.9608502
277,1778606040750,-0.72094506,-0.63162017,-0.37169918,0.59742624,-6.6303315,3.9608502
278,1778606040760,-0.72094506,-0.63162017,-0.37169918,0.59742624,-6.6303315,3.9608502
279,1778606040770,-0.72094506,-0.63162017,-0.37169918,0.59742624,-6.6303315,3.9608502
280,1778606040780,-0.3116611,-1.8069998,-0.46029195,1.2180653,0.9242391,2.3744333
281,1778606040790,-0.3116611,-1.8069998,-0.46029195,1.2180653,0.9242391,2.3744333
282,1778606040800,0.16571487,-1.2266316,0.17840585,-1.6346754,0.092240654,-2.0109684
283,1778606040810,0.16571487,-1.2266316,0.17840585,-1.6346754,0.092240654,-2.0109684
284,1778606040820,0.17352471,-1.057012,0.05418071,-1.9572122,-0.23640485,-2.7061331
285,1778606040830,0.17352471,-1.057012,0.05418071,-1.9572122,-0.23640485,-2.7061331
286,1778606040840,0.07199689,-0.8454143,-0.13179092,-2.4813347,0.56321776,-4.43366
287,1778606040850,0.07199689,-0.8454143,-0.13179092,-2.4813347,0.56321776,-4.43366
288,1778606040860,-0.044662476,-1.2888663,0.07687803,-2.094657,1.0910053,-5.4782395
289,1778606040870,-0.044662476,-1.2888663,0.07687803,-2.094657,1.0910053,-5.4782395
290,1778606040880,-0.044662476,-1.2888663,0.07687803,-2.094657,1.0910053,-5.4782395
291,1778606040890,-0.3909797,-1.7371994,-0.046614934,-2.284636,-0.3200934,-5.8820214
292,1778606040900,-0.3909797,-1.7371994,-0.046614934,-2.284636,-0.3200934,-5.8820214
293,1778606040910,-0.3756041,-1.8321378,-0.0319715,-3.6138787,-3.0182853,-4.995045
294,1778606040920,-0.3756041,-1.8321378,-0.0319715,-3.6138787,-3.0182853,-4.995045
295,1778606040930,-0.277005,-1.2642165,0.18694785,-3.785532,-3.9541306,-3.9779544
296,1778606040940,-0.277005,-1.2642165,0.18694785,-3.785532,-3.9541306,-3.9779544
297,1778606040950,-0.277005,-1.2642165,0.18694785,-3.785532,-3.9541306,-3.9779544
298,1778606040960,-0.28432667,-0.5264315,0.45589894,-2.9999592,-2.7324002,-1.0238101
299,1778606040970,-0.28432667,-0.5264315,0.45589894,-2.9999592,-2.7324002,-1.0238101
300,1778606040980,-0.18572757,-0.25430766,0.51349646,-2.7666087,-2.4721715,-0.23945917
301,1778606040990,-0.05515694,-0.07370529,0.45370242,-2.0885482,-1.4636332,1.1276573
302,1778606041000,-0.05515694,-0.07370529,0.45370242,-2.0885482,-1.4636332,1.1276573
303,1778606041010,-0.05515694,-0.07370529,0.45370242,-2.0885482,-1.4636332,1.1276573
304,1778606041020,-0.05515694,-0.07370529,0.45370242,-2.0885482,-1.4636332,1.1276573
305,1778606041030,-0.05515694,-0.07370529,0.45370242,-2.0885482,-1.4636332,1.1276573
306,1778606041040,0.26358184,0.07565775,0.69312257,1.2632693,0.8356637,1.1172725
307,1778606041050,0.26358184,0.07565775,0.69312257,1.2632693,0.8356637,1.1172725
308,1778606041060,0.14692247,-0.2020794,0.08029483,1.6059648,0.5540548,0.6585127
309,1778606041070,0.14692247,-0.2020794,0.08029483,1.6059648,0.5540548,0.6585127
310,1778606041080,0.4978768,-0.49397188,-0.04783522,0.9236283,0.9963212,0.42760566
311,1778606041090,0.6484601,-0.71118283,-0.06711575,0.56016344,1.2779301,-0.0012217305
312,1778606041100,0.6484601,-0.71118283,-0.06711575,0.56016344,1.2779301,-0.0012217305
313,1778606041110,1.0174747,-1.1907552,-0.2979939,-0.027488936,3.186273,-2.1856759
314,1778606041120,1.0174747,-1.1907552,-0.2979939,-0.027488936,3.186273,-2.1856759
315,1778606041130,1.0174747,-1.1907552,-0.2979939,-0.027488936,3.186273,-2.1856759
316,1778606041140,1.986382,-3.488554,-0.09469421,1.1410962,4.6407433,-6.053064
317,1778606041150,1.986382,-3.488554,-0.09469421,1.1410962,4.6407433,-6.053064
318,1778606041160,1.986382,-3.488554,-0.09469421,1.1410962,4.6407433,-6.053064
319,1778606041170,1.986382,-3.488554,-0.09469421,1.1410962,4.6407433,-6.053064
320,1778606041180,1.986382,-3.488554,-0.09469421,1.1410962,4.6407433,-6.053064
321,1778606041190,0.46297657,-3.8028998,-0.7739055,1.7311921,-0.6817256,1.3390167
322,1778606041200,-0.031483386,-1.679358,-0.4087959,-1.0122037,-3.3353243,0.6768387
323,1778606041210,-0.031483386,-1.679358,-0.4087959,-1.0122037,-3.3353243,0.6768387
324,1778606041220,-0.42978483,-0.8844635,-0.38097337,-2.1838431,-4.6266932,0.6963864
325,1778606041230,-0.42978483,-0.8844635,-0.38097337,-2.1838431,-4.6266932,0.6963864
326,1778606041240,-0.42978483,-0.8844635,-0.38097337,-2.1838431,-4.6266932,0.6963864
327,1778606041250,-0.707522,-0.24454537,-0.21818718,-2.4868324,-4.8966956,1.8698585
328,1778606041260,-0.73632073,-0.23527117,-0.1466784,-2.4868324,-4.8966956,1.8698585
329,1778606041270,-0.652365,-0.12813005,0.026602242,-1.8796324,-4.0640864,1.9816469
330,1778606041280,-0.652365,-0.12813005,0.026602242,-1.8796324,-4.0640864,1.9816469
331,1778606041290,-0.652365,-0.12813005,0.026602242,-1.5583172,-2.9773571,1.8594738
332,1778606041300,-0.7309515,-0.15692882,0.8437059,1.0036516,7.3358808,1.2541064
333,1778606041310,-0.7309515,-0.15692882,0.8437059,1.0036516,7.3358808,1.2541064
334,1778606041320,-0.7309515,-0.15692882,0.8437059,1.0036516,7.3358808,1.2541064
335,1778606041330,-0.7309515,-0.15692882,0.8437059,1.0036516,7.3358808,1.2541064
336,1778606041340,-0.7309515,-0.15692882,0.8437059,1.0036516,7.3358808,1.2541064
337,1778606041350,-0.83858067,-0.3738957,0.55864704,1.5332718,8.332813,2.2101104
338,1778606041360,-0.83858067,-0.3738957,0.55864704,1.5332718,8.332813,2.2101104
339,1778606041370,-0.83858067,-0.3738957,0.55864704,1.5332718,8.332813,2.2101104
340,1778606041380,-0.83858067,-0.3738957,0.55864704,1.5332718,8.332813,2.2101104
341,1778606041390,-0.123004854,-0.8105141,0.87396896,1.7708983,0.39584067,5.484959
342,1778606041400,-0.123004854,-0.8105141,0.87396896,1.7708983,0.39584067,5.484959
343,1778606041410,-0.123004854,-0.8105141,0.87396896,1.7708983,0.39584067,5.484959
344,1778606041420,-0.123004854,-0.8105141,0.87396896,1.7708983,0.39584067,5.484959
345,1778606041430,-0.123004854,-0.8105141,0.87396896,1.7708983,0.39584067,5.484959
346,1778606041440,-0.123004854,-0.8105141,0.87396896,1.7708983,0.39584067,5.484959
347,1778606041450,-0.123004854,-0.8105141,0.87396896,1.7708983,0.39584067,5.484959
348,1778606041460,0.013667206,-0.90325594,0.5022698,1.3585643,-4.043317,4.6578474
349,1778606041470,-0.61038715,-0.93522733,-0.34900185,0.7635816,-3.934583,4.053091
350,1778606041480,-0.61038715,-0.93522733,-0.34900185,0.7635816,-3.934583,4.053091
351,1778606041490,-0.61038715,-0.93522733,-0.34900185,0.7635816,-3.934583,4.053091
352,1778606041500,-0.13081467,-1.3806318,-0.09200958,1.0684034,-2.1197023,3.7244453
353,1778606041510,-0.13081467,-1.3806318,-0.09200958,1.0684034,-2.1197023,3.7244453
354,1778606041520,-0.19671014,-1.2708061,-0.06418706,-0.20891592,0.47952923,-0.19914207
355,1778606041530,-0.19671014,-1.2708061,-0.06418706,-0.20891592,0.47952923,-0.19914207
356,1778606041540,-0.19671014,-1.2708061,-0.06418706,-0.20891592,0.47952923,-0.19914207
357,1778606041550,-0.19671014,-1.2708061,-0.06418706,-0.20891592,0.47952923,-0.19914207
358,1778606041560,-0.19671014,-1.2708061,-0.06418706,-0.20891592,0.47952923,-0.19914207
359,1778606041570,-0.19671014,-1.2708061,-0.06418706,-0.20891592,0.47952923,-0.19914207
360,1778606041580,-0.19671014,-1.2708061,-0.06418706,-0.20891592,0.47952923,-0.19914207
361,1778606041590,-0.13716017,-0.7743936,-0.13545178,-1.6597209,-0.16982053,-3.6438112
362,1778606041600,-0.13716017,-0.7743936,-0.13545178,-1.6597209,-0.16982053,-3.6438112
363,1778606041610,-0.13716017,-0.7743936,-0.13545178,-1.6597209,-0.16982053,-3.6438112
364,1778606041620,-0.35363895,-1.9021822,-0.18841219,-1.8466456,0.8063421,-5.9168406
365,1778606041630,-0.35363895,-1.9021822,-0.18841219,-1.8466456,0.8063421,-5.9168406
366,1778606041640,-0.35363895,-1.9021822,-0.18841219,-1.8466456,0.8063421,-5.9168406
367,1778606041650,-0.5937913,-1.9934596,-0.21281794,-2.9303205,-0.70921457,-5.71159
368,1778606041660,-0.5937913,-1.9934596,-0.21281794,-2.9303205,-0.70921457,-5.71159
369,1778606041670,-0.58964235,-1.3244987,0.24332508,-3.154508,-2.1093178,-4.8295007
370,1778606041680,-0.58964235,-1.3244987,0.24332508,-3.154508,-2.1093178,-4.8295007
371,1778606041690,-0.49568027,-0.9235126,0.50788313,-2.5094345,-3.4245105,-1.8527542
372,1778606041700,-0.49568027,-0.9235126,0.50788313,-2.5094345,-3.4245105,-1.8527542
373,1778606041710,-0.49568027,-0.9235126,0.50788313,-2.5094345,-3.4245105,-1.8527542
374,1778606041720,-0.49568027,-0.9235126,0.50788313,-2.5094345,-3.4245105,-1.8527542
375,1778606041730,-0.49568027,-0.9235126,0.50788313,-2.5094345,-3.4245105,-1.8527542
376,1778606041740,-0.012935034,-0.06418706,0.41099238,-1.7928895,-3.2210925,1.3567317
377,1778606041750,-0.012935034,-0.06418706,0.41099238,-1.7928895,-3.2210925,1.3567317
378,1778606041760,0.05686534,0.01415532,0.25943285,-1.5509869,-2.2602015,1.6823229
379,1778606041770,0.1295944,0.0656514,-0.16132185,-1.2907583,1.2754866,1.740966
380,1778606041780,0.1295944,0.0656514,-0.16132185,-1.2907583,1.2754866,1.740966
381,1778606041790,1.0726316,-0.13496366,1.5021724,0.53023106,3.658472,0.34391713
382,1778606041800,1.0726316,-0.13496366,1.5021724,0.53023106,3.658472,0.34391713
383,1778606041810,0.8334555,-0.6367454,0.51642513,1.3090842,2.9064968,-1.174083
384,1778606041820,0.8334555,-0.6367454,0.51642513,1.3090842,2.9064968,-1.174083
385,1778606041830,0.8334555,-0.6367454,0.51642513,1.3090842,2.9064968,-1.174083
386,1778606041840,0.39415246,-0.6731099,0.06955632,0.6805039,1.9004018,-2.2999077
387,1778606041850,0.39415246,-0.6731099,0.06955632,0.6805039,1.9004018,-2.2999077
388,1778606041860,0.39415246,-0.6731099,0.06955632,0.6805039,1.9004018,-2.2999077
389,1778606041870,0.39415246,-0.6731099,0.06955632,0.6805039,1.9004018,-2.2999077
390,1778606041880,0.39415246,-0.6731099,0.06955632,0.6805039,1.9004018,-2.2999077
391,1778606041890,1.0225998,-1.7752724,-0.1952458,1.0641272,2.8295279,-4.246735
392,1778606041900,1.0225998,-1.7752724,-0.1952458,1.0641272,2.8295279,-4.246735
393,1778606041910,0.46810177,-5.192074,-0.5520575,5.811161,-0.092240654,0.20525073
394,1778606041920,0.46810177,-5.192074,-0.5520575,5.811161,-0.092240654,0.20525073
395,1778606041930,0.10152781,-2.8442433,-1.0042956,0.7984009,-3.4037411,1.0366384
396,1778606041940,0.10152781,-2.8442433,-1.0042956,0.7984009,-3.4037411,1.0366384
397,1778606041950,-0.49958518,-0.8390688,-0.6374775,-2.0421226,-5.362786,1.4459181
398,1778606041960,-0.49958518,-0.8390688,-0.6374775,-2.0421226,-5.362786,1.4459181
399,1778606041970,-0.49958518,-0.8390688,-0.6374775,-2.0421226,-5.362786,1.4459181
400,1778606041980,-0.5806122,-0.36852646,-0.48713827,-3.281568,-5.1300464,2.4856107
401,1778606041990,-0.5806122,-0.36852646,-0.48713827,-3.281568,-5.1300464,2.4856107
402,1778606042000,-0.5806122,-0.36852646,-0.48713827,-3.281568,-5.1300464,2.4856107
403,1778606042010,-0.5806122,-0.36852646,-0.48713827,-3.281568,-5.1300464,2.4856107
404,1778606042020,-0.5806122,-0.36852646,-0.48713827,-3.281568,-5.1300464,2.4856107
405,1778606042030,-0.36779428,-0.15107143,0.70068836,0.47952923,6.9846334,1.1111639
406,1778606042040,-0.36779428,-0.15107143,0.70068836,0.47952923,6.9846334,1.1111639
407,1778606042050,-0.6208816,-0.31825066,0.5793919,1.8735237,8.571051,1.2956452
408,1778606042060,-0.7150877,-0.4502856,0.62478656,2.1355848,8.068308,1.6988163
409,1778606042070,-0.7399816,-0.49079913,0.6643238,2.3273966,7.628485,2.090381
410,1778606042080,-0.7399816,-0.49079913,0.6643238,2.3273966,7.628485,2.090381
411,1778606042090,-0.473227,-0.65090066,0.75389284,2.7666087,5.2564955,4.143499
412,1778606042100,-0.473227,-0.65090066,0.75389284,2.7666087,5.2564955,4.143499
413,1778606042110,-0.473227,-0.65090066,0.75389284,2.7666087,5.2564955,4.143499
414,1778606042120,-0.473227,-0.65090066,0.75389284,2.7666087,5.2564955,4.143499
415,1778606042130,-0.473227,-0.65090066,0.75389284,2.7666087,5.2564955,4.143499
416,1778606042140,-0.473227,-0.65090066,0.75389284,2.7666087,5.2564955,4.143499
417,1778606042150,-0.473227,-0.65090066,0.75389284,2.7666087,5.2564955,4.143499
418,1778606042160,-0.28042176,-1.0928884,0.37804466,0.061086524,-4.747645,5.1526484
419,1778606042170,-0.28042176,-1.0928884,0.37804466,0.061086524,-4.747645,5.1526484
420,1778606042180,-0.28042176,-1.0928884,0.37804466,0.061086524,-4.747645,5.1526484
421,1778606042190,-0.25748038,-1.1360865,0.07565775,0.061086524,-4.747645,5.1526484
422,1778606042200,-0.25748038,-1.1360865,0.07565775,0.061086524,-4.747645,5.1526484
423,1778606042210,-0.25748038,-1.1360865,0.07565775,0.061086524,-4.747645,5.1526484
424,1778606042220,-0.46956614,-1.0662861,-0.61209553,1.2840388,-3.223536,4.982217
425,1778606042230,-0.255772,-1.4245622,-0.5039782,0.7104363,0.92057395,3.8655553
426,1778606042240,-0.15863721,-1.6346955,-0.28213018,0.47158796,2.393981,3.177721
427,1778606042250,-0.15863721,-1.6346955,-0.28213018,0.47158796,2.393981,3.177721
428,1778606042260,-0.27846932,-1.7147462,0.20110317,0.3390302,3.0665436,2.3469443
429,1778606042270,-0.27846932,-1.7147462,0.20110317,0.3390302,3.0665436,2.3469443
430,1778606042280,-0.27846932,-1.7147462,0.20110317,0.3390302,3.0665436,2.3469443
431,1778606042290,-0.27846932,-1.7147462,0.20110317,0.3390302,3.0665436,2.3469443
432,1778606042300,-0.27846932,-1.7147462,0.20110317,0.3390302,3.0665436,2.3469443
433,1778606042310,-0.28969595,-0.7072779,0.11299851,-0.8405506,-1.6951511,-2.5124888
434,1778606042320,-0.28969595,-0.7072779,0.11299851,-0.8405506,-1.6951511,-2.5124888
435,1778606042330,-0.28969595,-0.7072779,0.11299851,-0.8405506,-1.6951511,-2.5124888
436,1778606042340,-0.28969595,-0.7072779,0.11299851,-0.8405506,-1.6951511,-2.5124888
437,1778606042350,-0.28969595,-0.7072779,0.11299851,-0.8405506,-1.6951511,-2.5124888
438,1778606042360,-0.28969595,-0.7072779,0.11299851,-0.8405506,-1.6951511,-2.5124888
439,1778606042370,-0.28969595,-0.7072779,0.11299851,-0.8405506,-1.6951511,-2.5124888
440,1778606042380,-0.28969595,-0.7072779,0.11299851,-0.8405506,-1.6951511,-2.5124888
441,1778606042390,-0.28969595,-0.7072779,0.11299851,-0.8405506,-1.6951511,-2.5124888
442,1778606042400,-0.28969595,-0.7072779,0.11299851,-0.8405506,-1.6951511,-2.5124888
443,1778606042410,-0.28969595,-0.7072779,0.11299851,-0.8405506,-1.6951511,-2.5124888
444,1778606042420,-0.28969595,-0.7072779,0.11299851,-0.8405506,-1.6951511,-2.5124888
445,1778606042430,-0.28969595,-0.7072779,0.11299851,-0.8405506,-1.6951511,-2.5124888
446,1778606042440,-0.28969595,-0.7072779,0.11299851,-0.8405506,-1.6951511,-2.5124888
447,1778606042450,-0.28969595,-0.7072779,0.11299851,-0.8405506,-1.6951511,-2.5124888
448,1778606042460,-0.18401916,-0.6028214,-0.00048811449,-1.269378,-1.3475688,-3.1972687
449,1778606042470,-0.18401916,-0.6028214,-0.00048811449,-1.269378,-1.3475688,-3.1972687
450,1778606042480,-0.18401916,-0.6028214,-0.00048811449,-1.269378,-1.3475688,-3.1972687
451,1778606042490,-0.16083373,-0.6169767,-0.0061014313,-1.4862351,-0.93767816,-3.49476
452,1778606042500,-0.48909074,-1.3266952,0.08932495,-2.7104092,-0.00061086525,-5.1422634
453,1778606042510,-0.1867038,-0.42514774,0.15058333,-2.6468792,-3.3689218,-0.7501425
454,1778606042520,0.20574026,-0.014643434,-0.018060237,-1.4532484,-0.20158553,0.40866885
455,1778606042530,0.20574026,-0.014643434,-0.018060237,-1.4532484,-0.20158553,0.40866885
456,1778606042540,0.3355787,-0.04759116,-0.23502712,-1.056186,3.7146716,0.2406809
457,1778606042550,0.45907167,-0.067847915,-0.118855886,-1.1410962,4.999932,-0.03726278
458,1778606042560,0.45907167,-0.067847915,-0.118855886,-1.1410962,4.999932,-0.03726278
459,1778606042570,0.45907167,-0.067847915,-0.118855886,-1.1972959,5.6279016,-0.39584067
460,1778606042580,0.45907167,-0.067847915,-0.118855886,-1.1972959,5.6279016,-0.39584067
461,1778606042590,0.11861181,-0.5430274,0.16205402,0.552833,1.2730432,-3.2247577
462,1778606042600,0.11861181,-0.5430274,0.16205402,0.5870415,1.1319333,-3.340822
463,1778606042610,0.25479576,-1.1258361,0.09542638,0.4905248,1.3182472,-3.4941492
464,1778606042620,0.25479576,-1.1258361,0.09542638,0.4905248,1.3182472,-3.4941492
465,1778606042630,0.25479576,-1.1258361,0.09542638,0.4905248,1.3182472,-3.4941492
466,1778606042640,0.90472025,-2.6446042,0.1701079,1.3267993,1.3176364,-4.3182063
467,1778606042650,0.90472025,-2.6446042,0.1701079,2.5772405,0.8784242,-4.5222354
468,1778606042660,0.85127175,-4.319325,0.050763905,5.3023105,-0.15149458,-3.5472944
469,1778606042670,-0.040513504,-4.340314,-0.707522,5.571702,-0.344528,-2.488665
470,1778606042680,-0.11983211,-3.730659,-0.9589009,3.9516873,-0.5180137,0.57910025
471,1778606042690,-0.11983211,-3.730659,-0.9589009,3.9516873,-0.5180137,0.57910025
472,1778606042700,-0.11983211,-3.730659,-0.9589009,3.9516873,-0.5180137,0.57910025
473,1778606042710,-0.11983211,-3.730659,-0.9589009,3.9516873,-0.5180137,0.57910025
474,1778606042720,-0.11983211,-3.730659,-0.9589009,3.9516873,-0.5180137,0.57910025
475,1778606042730,-0.25796852,-0.950359,-0.50934744,-1.5234979,-1.2907583,1.5283848
476,1778606042740,-0.45467865,-0.39024755,-0.30287504,-1.9743165,-1.681712,1.7153096
477,1778606042750,-0.4639528,-0.30336314,-0.22502078,-2.4288,-2.5082128,2.3689353
478,1778606042760,-0.4639528,-0.30336314,-0.22502078,-2.4288,-2.5082128,2.3689353
479,1778606042770,-0.09030118,-0.31019676,0.13886857,-2.0109684,-2.7519479,2.4416285
480,1778606042780,-0.09030118,-0.31019676,0.13886857,-2.0109684,-2.7519479,2.4416285
481,1778606042790,-0.09030118,-0.31019676,0.13886857,-2.0109684,-2.7519479,2.4416285
482,1778606042800,-0.15155955,-0.36462155,0.24259292,-0.3231477,-0.8368854,1.0867293
483,1778606042810,-0.15155955,-0.36462155,0.24259292,-0.3231477,-0.8368854,1.0867293
484,1778606042820,-0.25015867,-0.43100512,0.75535715,0.58459806,2.7360654,0.8741482
485,1778606042830,-0.25015867,-0.43100512,0.75535715,0.58459806,2.7360654,0.8741482
486,1778606042840,-0.25015867,-0.43100512,0.75535715,0.58459806,2.7360654,0.8741482
487,1778606042850,-0.25015867,-0.43100512,0.75535715,0.58459806,2.7360654,0.8741482
488,1778606042860,-0.25015867,-0.43100512,0.75535715,0.58459806,2.7360654,0.8741482
489,1778606042870,-0.25015867,-0.43100512,0.75535715,0.58459806,2.7360654,0.8741482
490,1778606042880,-0.48542988,-0.61673266,0.8222289,2.2015584,8.449488,3.6566393
491,1778606042890,-0.12398108,-0.5845171,1.0411482,1.8417587,7.4898186,4.04515
492,1778606042900,-0.12398108,-0.5845171,1.0411482,1.3200798,3.3475416,4.298659
493,1778606042910,-0.12398108,-0.5845171,1.0411482,1.3200798,3.3475416,4.298659
494,1778606042920,0.07468152,-0.53717,0.53717,1.3952162,-3.6114354,3.2473598
495,1778606042930,0.07468152,-0.53717,0.53717,1.3952162,-3.6114354,3.2473598
496,1778606042940,0.07468152,-0.53717,0.53717,1.3952162,-3.6114354,3.2473598
497,1778606042950,0.07468152,-0.53717,0.53717,1.3952162,-3.6114354,3.2473598
498,1778606042960,0.07468152,-0.53717,0.53717,1.3952162,-3.6114354,3.2473598
499,1778606042970,-0.45467865,-0.6462636,-0.50495446,-0.172264,-1.7366899,3.5698965
500,1778606042980,-0.39488465,-0.7165521,-0.40269446,-0.32375857,-2.0335703,4.1099014
501,1778606042990,-0.39488465,-0.7165521,-0.40269446,-0.32375857,-2.0335703,4.1099014
502,1778606043000,-0.39488465,-0.7165521,-0.40269446,-0.32375857,-2.0335703,4.1099014
503,1778606043010,-0.39488465,-0.7165521,-0.40269446,-0.32375857,-2.0335703,4.1099014
504,1778606043020,-0.39488465,-0.7165521,-0.40269446,-0.32375857,-2.0335703,4.1099014
505,1778606043030,-0.39488465,-0.7165521,-0.40269446,-0.32375857,-2.0335703,4.1099014
506,1778606043040,-0.39488465,-0.7165521,-0.40269446,-0.32375857,-2.0335703,4.1099014
507,1778606043050,-0.26504618,-1.5546447,-0.22111587,-0.3145956,-0.7031059,3.6224308
508,1778606043060,-0.82442534,-2.0195737,0.26480213,0.6994407,2.5943446,2.261423
509,1778606043070,-0.69434285,-1.8414118,-0.23502712,0.7189884,-0.88331115,-0.44165558
510,1778606043080,-0.46541715,-1.1570754,0.007565775,-0.18753563,-3.0928106,-2.420248
511,1778606043090,-0.46541715,-1.1570754,0.007565775,-0.18753563,-3.0928106,-2.420248
512,1778606043100,-0.46541715,-1.1570754,0.007565775,-0.18753563,-3.0928106,-2.420248
513,1778606043110,-0.46541715,-1.1570754,0.007565775,-0.18753563,-3.0928106,-2.420248
514,1778606043120,-0.35559142,-0.87226063,0.012446919,-0.97433007,-2.4233024,-2.8875601
515,1778606043130,-0.13179092,-0.869576,0.010494461,-1.8784106,-1.4715744,-3.3035593
516,1778606043140,-0.13179092,-0.869576,0.010494461,-1.8784106,-1.4715744,-3.3035593
517,1778606043150,-0.25308737,-1.1014304,-0.02757847,-2.3671029,-1.0256428,-3.4049628
518,1778606043160,-0.25308737,-1.1014304,-0.02757847,-2.3671029,-1.0256428,-3.4049628
519,1778606043170,-0.24259292,-1.3542737,0.020500809,-3.0066788,-1.4337007,-2.982855
520,1778606043180,-0.24259292,-1.3542737,0.020500809,-3.0066788,-1.4337007,-2.982855
521,1778606043190,0.0134231495,-1.283497,0.0026846298,-3.0671544,-1.7311921,-2.715296
522,1778606043200,0.0134231495,-1.283497,0.0026846298,-3.0671544,-1.7311921,-2.715296
523,1778606043210,0.0134231495,-1.283497,0.0026846298,-3.0671544,-1.7311921,-2.715296
524,1778606043220,-0.028066583,-0.788793,0.28359452,-2.6261096,-1.8368717,-2.1209242
525,1778606043230,-0.028066583,-0.788793,0.28359452,-2.6261096,-1.8368717,-2.1209242
526,1778606043240,0.039781332,-0.5320448,0.1969542,-2.261423,-1.9547688,-1.3170254
527,1778606043250,0.06467517,-0.3922,0.1483868,-2.2223277,-1.7898352,-1.1252137
528,1778606043260,0.06467517,-0.3922,0.1483868,-2.2223277,-1.7898352,-1.1252137
529,1778606043270,0.06467517,-0.3922,0.1483868,-2.2223277,-1.7898352,-1.1252137
530,1778606043280,0.06467517,-0.3922,0.1483868,-2.2223277,-1.7898352,-1.1252137
531,1778606043290,0.06467517,-0.3922,0.1483868,-2.2223277,-1.7898352,-1.1252137
532,1778606043300,0.42783237,-0.020012695,0.8422416,-1.9816469,2.3738225,-0.1563815
533,1778606043310,1.1006982,-0.22209209,1.9507496,0.2003638,1.754405,-1.328021
534,1778606043320,0.9862353,-0.3236199,1.2383465,0.6560693,1.0916162,-1.8478674
535,1778606043330,0.9862353,-0.3236199,1.2383465,0.6560693,1.0916162,-1.8478674
536,1778606043340,0.9862353,-0.3236199,1.2383465,0.6560693,1.0916162,-1.8478674
537,1778606043350,0.30873242,-0.31751847,-0.14863087,0.9969321,1.3591752,-2.9394836
538,1778606043360,0.2831064,-0.39464056,-0.14814276,0.9755518,1.7898352,-2.9339857
539,1778606043370,0.61892915,-1.5614783,0.16351835,0.9963212,2.21683,-2.919936
540,1778606043380,0.61892915,-1.5614783,0.16351835,0.9963212,2.21683,-2.919936
541,1778606043390,0.61892915,-1.5614783,0.16351835,0.9963212,2.21683,-2.919936
542,1778606043400,0.7292431,-2.0791237,-0.073949344,0.86009824,1.7366899,-2.0140228
543,1778606043410,0.7292431,-2.0791237,-0.073949344,0.86009824,1.7366899,-2.0140228
544,1778606043420,0.7292431,-2.0791237,-0.073949344,0.86009824,1.7366899,-2.0140228
545,1778606043430,0.7292431,-2.0791237,-0.073949344,0.86009824,1.7366899,-2.0140228
546,1778606043440,0.7292431,-2.0791237,-0.073949344,0.86009824,1.7366899,-2.0140228
547,1778606043450,0.21330604,-3.2901359,-0.55791485,3.4666603,1.6310102,-0.7806858
548,1778606043460,0.21330604,-3.2901359,-0.55791485,3.4666603,1.6310102,-0.7806858
549,1778606043470,-0.13398743,-2.2248259,-0.6540734,1.1771374,-0.1704314,0.0061086523
550,1778606043480,-0.13398743,-2.2248259,-0.6540734,1.1771374,-0.1704314,0.0061086523
551,1778606043490,-0.20183535,-1.7533073,-0.5874458,0.6200282,-0.59498274,0.226631
552,1778606043500,-0.2328306,-1.4299314,-0.55840296,-0.06414085,-1.1771374,0.4728097
553,1778606043510,-0.2328306,-1.4299314,-0.55840296,-0.06414085,-1.1771374,0.4728097
554,1778606043520,-0.43588626,-0.5010495,-0.4087959,-2.207667,-3.5210273,1.5833627
555,1778606043530,-0.38829508,-0.41538543,-0.21843125,-2.293799,-3.74888,1.7623463
556,1778606043540,-0.38829508,-0.41538543,-0.21843125,-2.293799,-3.74888,1.7623463
557,1778606043550,-0.38829508,-0.41538543,-0.21843125,-2.293799,-3.74888,1.7623463
558,1778606043560,-0.38829508,-0.41538543,-0.21843125,-2.293799,-3.74888,1.7623463
559,1778606043570,-0.38829508,-0.41538543,-0.21843125,-2.293799,-3.74888,1.7623463
560,1778606043580,-0.38829508,-0.41538543,-0.21843125,-2.293799,-3.74888,1.7623463
561,1778606043590,-0.38829508,-0.41538543,-0.21843125,-2.293799,-3.74888,1.7623463
562,1778606043600,-0.38829508,-0.41538543,-0.21843125,-2.293799,-3.74888,1.7623463
563,1778606043610,-0.04905551,-0.6286915,0.6548056,-0.12461651,4.9846606,0.01038471
564,1778606043620,-0.2979939,-0.5845171,0.6228341,1.3249667,8.290052,0.5497787
565,1778606043630,-0.39781332,-0.5530337,0.6133158,1.559539,8.623585,0.9053023
566,1778606043640,-0.46224442,-0.4639528,0.66115105,1.6823229,8.418944,2.094046
567,1778606043650,-0.46224442,-0.4639528,0.66115105,1.6823229,8.418944,2.094046
568,1778606043660,-0.19231711,-0.6040417,1.0164984,0.90041536,3.6499197,3.8698313
569,1778606043670,-0.19231711,-0.6040417,1.0164984,0.90041536,3.6499197,3.8698313
570,1778606043680,-0.19231711,-0.6040417,1.0164984,0.90041536,3.6499197,3.8698313
571,1778606043690,-0.19231711,-0.6040417,1.0164984,0.90041536,3.6499197,3.8698313
572,1778606043700,-0.19231711,-0.6040417,1.0164984,0.90041536,3.6499197,3.8698313
573,1778606043710,-0.19231711,-0.6040417,1.0164984,0.90041536,3.6499197,3.8698313
574,1778606043720,0.029286869,-1.0306537,-0.10689708,1.0036516,-3.0066788,3.6468656
575,1778606043730,0.029286869,-1.0306537,-0.10689708,1.0036516,-3.0066788,3.6468656
576,1778606043740,0.029286869,-1.0306537,-0.10689708,1.0036516,-3.0066788,3.6468656
577,1778606043750,-0.44003522,-0.686289,-0.37218732,0.95233893,-2.1587977,3.5271358
578,1778606043760,-0.42685616,-0.76926845,-0.35046622,1.0146471,-1.8820758,3.7018435
579,1778606043770,-0.41636166,-0.8820229,-0.30238694,0.95294976,-1.0189233,3.875329
580,1778606043780,-0.28676724,-1.1614684,-0.26187342,0.8045095,-0.44776422,3.912592
581,1778606043790,-0.28676724,-1.1614684,-0.26187342,0.8045095,-0.44776422,3.912592
582,1778606043800,-0.28676724,-1.1614684,-0.26187342,0.8045095,-0.44776422,3.912592
583,1778606043810,0.23649146,-1.8084643,0.07492557,0.119729586,1.2944235,1.7476854
584,1778606043820,-0.06687169,-1.8599603,0.15790504,0.11911872,1.2211196,0.7318166
585,1778606043830,-0.06687169,-1.8599603,0.15790504,0.11911872,1.2211196,0.7318166
586,1778606043840,-0.06687169,-1.8599603,0.15790504,0.11911872,1.2211196,0.7318166
587,1778606043850,-0.06687169,-1.8599603,0.15790504,0.11911872,1.2211196,0.7318166
588,1778606043860,-0.06687169,-1.8599603,0.15790504,0.11911872,1.2211196,0.7318166
589,1778606043870,-0.61844105,-1.3489044,-0.14423785,-0.36896262,-3.335935,-2.9938505
590,1778606043880,-0.61844105,-1.3489044,-0.14423785,-0.36896262,-3.335935,-2.9938505
591,1778606043890,-0.61844105,-1.3489044,-0.14423785,-0.36896262,-3.335935,-2.9938505
592,1778606043900,-0.17401282,-1.044565,-0.200371,-0.75625116,-2.8356364,-2.9584203
593,1778606043910,-0.17401282,-1.044565,-0.200371,-0.75625116,-2.8356364,-2.9584203
594,1778606043920,-0.17401282,-1.044565,-0.200371,-0.75625116,-2.8356364,-2.9584203
595,1778606043930,-0.17401282,-1.044565,-0.200371,-0.75625116,-2.8356364,-2.9584203
596,1778606043940,-0.17401282,-1.044565,-0.200371,-0.75625116,-2.8356364,-2.9584203
597,1778606043950,0.06467517,-0.9103335,-0.00976229,-1.6646078,-0.94806284,-3.6383133
598,1778606043960,0.06467517,-0.9103335,-0.00976229,-1.8374827,-0.59620446,-3.753767
599,1778606043970,0.10348027,-1.0692148,0.06833603,-2.607173,-0.8313876,-3.0946434
600,1778606043980,0.10348027,-1.0692148,0.06833603,-2.607173,-0.8313876,-3.0946434
601,1778606043990,0.10348027,-1.0692148,0.06833603,-2.607173,-0.8313876,-3.0946434
602,1778606044000,0.10348027,-1.0692148,0.06833603,-2.607173,-0.8313876,-3.0946434
603,1778606044010,0.10348027,-1.0692148,0.06833603,-2.607173,-0.8313876,-3.0946434
604,1778606044020,0.19304928,-0.70288485,0.20134723,-1.9883664,-2.7763824,-0.7287622
605,1778606044030,0.2186753,-0.35583547,0.09664667,-2.0549507,-2.946814,0.004886922
606,1778606044040,0.2186753,-0.35583547,0.09664667,-2.0549507,-2.946814,0.004886922
607,1778606044050,0.3141017,-0.06272271,-0.15961345,-2.6230555,-1.8729129,0.6469063
608,1778606044060,0.3141017,-0.06272271,-0.15961345,-2.6230555,-1.8729129,0.6469063
609,1778606044070,0.3141017,-0.06272271,-0.15961345,-2.6230555,-1.8729129,0.6469063
610,1778606044080,0.3141017,-0.06272271,-0.15961345,-2.6230555,-1.8729129,0.6469063
611,1778606044090,1.3762388,-0.18450728,1.1529264,-0.36285394,-0.36041048,-0.9737192
612,1778606044100,1.3762388,-0.18450728,1.1529264,-0.36285394,-0.36041048,-0.9737192
613,1778606044110,1.3762388,-0.18450728,1.1529264,-0.36285394,-0.36041048,-0.9737192
614,1778606044120,1.3762388,-0.18450728,1.1529264,-0.36285394,-0.36041048,-0.9737192
615,1778606044130,1.3762388,-0.18450728,1.1529264,-0.36285394,-0.36041048,-0.9737192
616,1778606044140,1.3762388,-0.18450728,1.1529264,-0.36285394,-0.36041048,-0.9737192
617,1778606044150,1.3762388,-0.18450728,1.1529264,-0.36285394,-0.36041048,-0.9737192
618,1778606044160,0.93181056,-2.3309908,0.11006982,1.8014416,3.9132028,-2.1361957
619,1778606044170,0.93181056,-2.3309908,0.11006982,1.8014416,3.9132028,-2.1361957
620,1778606044180,0.8759214,-3.0114224,0.18426323,2.2608123,3.2950072,-2.0164661
621,1778606044190,0.70312893,-3.7328558,0.00024405724,3.8734965,0.13622294,-1.1979067
622,1778606044200,0.70312893,-3.7328558,0.00024405724,3.8734965,0.13622294,-1.1979067
623,1778606044210,-0.17816179,-2.1557577,-0.6550496,2.2901337,-1.183246,0.14782938
624,1778606044220,-0.17816179,-2.1557577,-0.6550496,2.2901337,-1.183246,0.14782938
625,1778606044230,-0.17303659,-1.4184607,-0.6884855,0.02565634,-1.4648548,0.90041536
626,1778606044240,-0.17303659,-1.4184607,-0.6884855,0.02565634,-1.4648548,0.90041536
627,1778606044250,-0.17303659,-1.4184607,-0.6884855,0.02565634,-1.4648548,0.90041536
628,1778606044260,-0.14887492,-0.5518134,-0.67628264,-2.3988678,-1.8655825,1.1404854
629,1778606044270,-0.14887492,-0.5518134,-0.67628264,-2.3988678,-1.8655825,1.1404854
630,1778606044280,-0.18231077,-0.422219,-0.56011134,-2.6090055,-1.8387043,1.1856894
631,1778606044290,-0.18231077,-0.422219,-0.56011134,-2.6090055,-1.8387043,1.1856894
632,1778606044300,-0.18938842,-0.31995904,-0.10030753,-2.698192,-1.7941113,1.287704
633,1778606044310,-0.18938842,-0.31995904,-0.10030753,-2.698192,-1.7941113,1.287704
634,1778606044320,-0.021477038,-0.64772797,0.16229807,-1.1368202,-0.34697145,0.5571091
635,1778606044330,-0.07004443,-0.690438,0.22843759,-0.4978552,0.16371189,0.17837265
636,1778606044340,-0.21525851,-0.64260274,0.22599702,1.0476339,0.6585127,-0.069027774
637,1778606044350,-0.21525851,-0.64260274,0.22599702,1.0476339,0.6585127,-0.069027774
638,1778606044360,-0.21525851,-0.64260274,0.22599702,1.0476339,0.6585127,-0.069027774
639,1778606044370,0.41855815,-0.91375035,1.1929518,1.8038851,6.473339,0.8197812
640,1778606044380,0.41855815,-0.91375035,1.1929518,1.8038851,6.473339,0.8197812
641,1778606044390,0.41855815,-0.91375035,1.1929518,1.8038851,6.473339,0.8197812
642,1778606044400,0.41855815,-0.91375035,1.1929518,1.8038851,6.473339,0.8197812
643,1778606044410,0.41855815,-0.91375035,1.1929518,1.8038851,6.473339,0.8197812
644,1778606044420,0.41855815,-0.91375035,1.1929518,1.8038851,6.473339,0.8197812
645,1778606044430,-0.16449459,-0.8510276,0.98428285,0.119729586,0.8552113,3.7568212
646,1778606044440,0.10177187,-1.0589644,0.5195979,1.3151928,-2.8600712,3.6205983
647,1778606044450,0.10177187,-1.0589644,0.5195979,1.3151928,-2.8600712,3.6205983
648,1778606044460,0.10177187,-1.0589644,0.5195979,1.3151928,-2.8600712,3.6205983
649,1778606044470,0.18011424,-1.0902036,0.15473229,1.6077974,-3.1160235,3.2467487
650,1778606044480,-0.12764193,-0.733148,-0.5940353,1.7165314,-2.8973339,2.918714
651,1778606044490,-0.2779812,-0.63625723,-0.66749656,1.5143349,-2.3762658,2.4770586
652,1778606044500,-0.41587353,-0.7124031,-0.4334457,0.93828905,-1.9358319,2.8344147
653,1778606044510,-0.33704305,-0.8324793,-0.33533466,0.93828905,-1.9358319,2.8344147
654,1778606044520,-0.25089085,-0.9784255,-0.27651685,0.7690793,-1.1911873,3.1086931
655,1778606044530,-0.25089085,-0.9784255,-0.27651685,0.7690793,-1.1911873,3.1086931
656,1778606044540,-0.25089085,-0.9784255,-0.27651685,0.7690793,-1.1911873,3.1086931
657,1778606044550,-0.25089085,-0.9784255,-0.27651685,0.7690793,-1.1911873,3.1086931
658,1778606044560,-0.25089085,-0.9784255,-0.27651685,0.7690793,-1.1911873,3.1086931
659,1778606044570,-0.25089085,-0.9784255,-0.27651685,0.7690793,-1.1911873,3.1086931
660,1778606044580,-0.41343296,-1.7747843,0.19256116,-0.01282817,0.64873886,0.14538592
661,1778606044590,-0.41343296,-1.7747843,0.19256116,0.02321288,-0.19730948,-0.31887165
662,1778606044600,-0.31776255,-1.636892,-0.032703668,0.1001819,-3.2791247,-1.8961257
663,1778606044610,-0.31776255,-1.636892,-0.032703668,0.1001819,-3.2791247,-1.8961257
664,1778606044620,-0.31776255,-1.636892,-0.032703668,0.1001819,-3.2791247,-1.8961257
665,1778606044630,-0.31776255,-1.636892,-0.032703668,0.1001819,-3.2791247,-1.8961257
666,1778606044640,-0.37413976,-1.504857,-0.041733786,0.1001819,-3.2791247,-1.8961257
667,1778606044650,-0.37413976,-1.504857,-0.041733786,0.1001819,-3.2791247,-1.8961257
668,1778606044660,-0.37413976,-1.504857,-0.041733786,0.1001819,-3.2791247,-1.8961257
669,1778606044670,-0.37413976,-1.504857,-0.041733786,0.1001819,-3.2791247,-1.8961257
670,1778606044680,-0.37413976,-1.504857,-0.041733786,0.1001819,-3.2791247,-1.8961257
671,1778606044690,-0.37413976,-1.504857,-0.041733786,0.1001819,-3.2791247,-1.8961257
672,1778606044700,-0.37413976,-1.504857,-0.041733786,0.1001819,-3.2791247,-1.8961257
673,1778606044710,-0.37413976,-1.504857,-0.041733786,0.1001819,-3.2791247,-1.8961257
674,1778606044720,-0.37413976,-1.504857,-0.041733786,0.1001819,-3.2791247,-1.8961257
675,1778606044730,0.136428,-0.9586569,-0.39927766,-0.68294734,-4.379904,-2.9480357
676,1778606044740,0.136428,-0.9586569,-0.39927766,-0.68294734,-4.379904,-2.9480357
677,1778606044750,0.36364532,-0.9257092,-0.19378147,-1.8771889,-1.1863003,-4.0139956
678,1778606044760,0.7426662,-0.8573731,0.07809832,-1.8014416,0.72692966,1.6798794
679,1778606044770,0.8829991,-0.7043492,0.18084641,-2.1178699,0.4129449,1.3646729
680,1778606044780,0.8829991,-0.7043492,0.18084641,-2.1178699,0.4129449,1.3646729
681,1778606044790,0.8829991,-0.7043492,0.18084641,-2.1178699,0.4129449,1.3646729
682,1778606044800,0.8829991,-0.7043492,0.18084641,-2.1178699,0.4129449,1.3646729
683,1778606044810,0.8829991,-0.7043492,0.18084641,-2.1178699,0.4129449,1.3646729
684,1778606044820,0.8829991,-0.7043492,0.18084641,-2.1178699,0.4129449,1.3646729
685,1778606044830,0.7494998,-0.55669457,0.23039004,-2.7812696,-0.5589417,0.61453044
686,1778606044840,0.2626056,-0.079562664,0.7558453,-3.2711835,-3.0561588,0.51068336
687,1778606044850,0.2626056,-0.079562664,0.7558453,-3.2711835,-3.0561588,0.51068336
688,1778606044860,0.7817154,-0.12349297,0.9459658,-1.2333369,-3.7702603,0.11178834
689,1778606044870,0.9447456,-0.24112856,0.6411384,0.61636305,-0.32620203,-1.1704178
690,1778606044880,0.3533949,-0.579636,-0.4085518,0.36041048,2.0384574,-1.3048081
691,1778606044890,0.3533949,-0.579636,-0.4085518,0.36041048,2.0384574,-1.3048081
692,1778606044900,0.3533949,-0.579636,-0.4085518,0.36041048,2.0384574,-1.3048081
693,1778606044910,0.93620354,-1.6764293,-0.02318544,1.3011429,7.381085,-1.368949
694,1778606044920,0.93620354,-1.6764293,-0.02318544,1.3011429,7.381085,-1.368949
695,1778606044930,0.93620354,-1.6764293,-0.02318544,1.3011429,7.381085,-1.368949
696,1778606044940,0.91399443,-2.2402015,-0.0039049159,2.7281241,5.4880133,-1.5100589
697,1778606044950,1.0606729,-2.9404018,0.12983845,3.0842586,4.269337,-1.2980887
698,1778606044960,1.0606729,-2.9404018,0.12983845,3.0842586,4.269337,-1.2980887
699,1778606044970,1.0606729,-2.9404018,0.12983845,3.0842586,4.269337,-1.2980887
700,1778606044980,1.0606729,-2.9404018,0.12983845,3.0842586,4.269337,-1.2980887
701,1778606044990,1.0606729,-2.9404018,0.12983845,3.0842586,4.269337,-1.2980887
702,1778606045000,0.1615659,-3.467077,-0.5366819,2.6138923,-2.1630738,-0.6957755
703,1778606045010,-0.23942018,-1.2210184,-0.50617474,-0.7684685,-3.395189,0.9896017
704,1778606045020,-0.23942018,-1.2210184,-0.50617474,-0.7684685,-3.395189,0.9896017
705,1778606045030,-0.23942018,-1.2210184,-0.50617474,-0.7684685,-3.395189,0.9896017
706,1778606045040,-0.24088451,-0.45199403,-0.4234393,-1.46852,-3.0720413,1.2956452
707,1778606045050,-0.24088451,-0.45199403,-0.4234393,-1.9156734,-2.403144,1.5735888
708,1778606045060,-0.24088451,-0.45199403,-0.4234393,-1.9156734,-2.403144,1.5735888
709,1778606045070,-0.07736614,-0.24649782,-0.13227904,-2.0018053,-1.2174544,1.7415768
710,1778606045080,-0.0039049159,-0.3048275,-0.05686534,-1.8338175,-0.72021013,1.5980235
711,1778606045090,-0.0039049159,-0.3048275,-0.05686534,-1.8338175,-0.72021013,1.5980235
712,1778606045100,-0.0039049159,-0.3048275,-0.05686534,-1.8338175,-0.72021013,1.5980235
713,1778606045110,-0.0039049159,-0.3048275,-0.05686534,-1.8338175,-0.72021013,1.5980235
714,1778606045120,-0.0039049159,-0.3048275,-0.05686534,-1.8338175,-0.72021013,1.5980235
715,1778606045130,-0.0039049159,-0.3048275,-0.05686534,-1.8338175,-0.72021013,1.5980235
716,1778606045140,-0.0039049159,-0.3048275,-0.05686534,-1.8338175,-0.72021013,1.5980235
717,1778606045150,0.2626056,-1.0096649,1.0135698,0.6646214,2.6816983,0.22174409
718,1778606045160,-0.010006348,-0.9091133,0.99160457,1.9071213,7.122078,0.91629785
719,1778606045170,-0.010006348,-0.9091133,0.99160457,1.9071213,7.122078,0.91629785
720,1778606045180,-0.19622204,-0.71264714,0.60819066,1.5613716,6.111096,1.8460348
721,1778606045190,-0.19622204,-0.71264714,0.60819066,1.5613716,6.111096,1.8460348
722,1778606045200,-0.19622204,-0.71264714,0.60819066,1.5613716,6.111096,1.8460348
723,1778606045210,-0.56645685,-1.0006347,0.7148437,0.56077427,0.35185838,3.5081992
724,1778606045220,-0.38536638,-1.1521943,0.6487042,0.90102625,-0.70066243,4.012163
725,1778606045230,-0.16595893,-1.1414558,0.047347106,1.9474384,-2.4153612,4.312709
726,1778606045240,-0.16595893,-1.1414558,0.047347106,1.9474384,-2.4153612,4.312709
727,1778606045250,-0.16595893,-1.1414558,0.047347106,1.9474384,-2.4153612,4.312709
728,1778606045260,-0.16595893,-1.1414558,0.047347106,1.9474384,-2.4153612,4.312709
729,1778606045270,-0.16595893,-1.1414558,0.047347106,1.9474384,-2.4153612,4.312709
730,1778606045280,-0.16595893,-1.1414558,0.047347106,1.9474384,-2.4153612,4.312709
731,1778606045290,-0.16595893,-1.1414558,0.047347106,1.9474384,-2.4153612,4.312709
732,1778606045300,-0.119099945,-0.8092938,-0.32093528,0.8258898,-0.5412266,3.318831
733,1778606045310,-0.119099945,-0.8092938,-0.32093528,0.8258898,-0.5412266,3.318831
734,1778606045320,0.20256752,-1.2183337,-0.038561042,-0.35979962,0.5729916,2.144748
735,1778606045330,0.23722363,-1.3925906,0.088104665,-0.49663344,0.58276546,1.609019
736,1778606045340,0.15180361,-1.50925,0.17084008,-0.5729916,0.20586158,-0.0018325958
737,1778606045350,-0.04002539,-1.577098,0.18792409,-0.55955255,-0.17837265,-0.5155703
738,1778606045360,-0.20012695,-1.6095576,0.111290105,-0.55955255,-0.17837265,-0.5155703
739,1778606045370,-0.20012695,-1.6095576,0.111290105,-0.55955255,-0.17837265,-0.5155703
740,1778606045380,-0.20012695,-1.6095576,0.111290105,-0.55955255,-0.17837265,-0.5155703
741,1778606045390,-0.20012695,-1.6095576,0.111290105,-0.55955255,-0.17837265,-0.5155703
742,1778606045400,-0.20012695,-1.6095576,0.111290105,-0.55955255,-0.17837265,-0.5155703
743,1778606045410,-0.20012695,-1.6095576,0.111290105,-0.55955255,-0.17837265,-0.5155703
744,1778606045420,-0.37365165,-1.581735,-0.13667206,-0.5858198,-2.3640485,-2.485
745,1778606045430,-0.08444381,-1.0223558,-0.2511349,-0.27916542,-3.399465,-2.9529226
746,1778606045440,-0.08444381,-1.0223558,-0.2511349,-0.27916542,-3.399465,-2.9529226
747,1778606045450,0.22502078,-0.9279056,-0.20793676,-1.1307116,-2.5283713,-3.5613444
748,1778606045460,0.22502078,-0.9279056,-0.20793676,-1.1307116,-2.5283713,-3.5613444
749,1778606045470,0.22502078,-0.9279056,-0.20793676,-1.1307116,-2.5283713,-3.5613444
750,1778606045480,0.22502078,-0.9279056,-0.20793676,-1.1307116,-2.5283713,-3.5613444
751,1778606045490,0.22502078,-0.9279056,-0.20793676,-1.1307116,-2.5283713,-3.5613444
752,1778606045500,0.33411437,-0.8808026,-0.082735404,-1.8674151,0.007941248,-3.1630602
753,1778606045510,0.33411437,-0.8808026,-0.082735404,-1.8674151,0.007941248,-3.1630602
754,1778606045520,0.30970863,-0.8500514,-0.010006348,-1.8209893,0.24495697,-2.4782803
755,1778606045530,0.30970863,-0.8500514,-0.010006348,-1.8209893,0.24495697,-2.4782803
756,1778606045540,0.30970863,-0.8500514,-0.010006348,-1.8209893,0.24495697,-2.4782803
757,1778606045550,0.30970863,-0.8500514,-0.010006348,-1.8209893,0.24495697,-2.4782803
758,1778606045560,0.30970863,-0.8500514,-0.010006348,-1.8209893,0.24495697,-2.4782803
759,1778606045570,0.5645044,-0.7050814,0.13374338,-2.1636846,0.05375614,1.5155567
760,1778606045580,0.5645044,-0.7050814,0.13374338,-2.1636846,0.05375614,1.5155567
761,1778606045590,0.27895743,-0.1871919,0.6106312,-3.404352,-1.1117748,0.516792
762,1778606045600,0.73412424,-0.07224095,1.9973645,-1.9792033,-3.5436292,0.17715092
763,1778606045610,0.6960513,-0.12886222,1.5321914,-0.77091193,-4.0732493,-0.1423316
764,1778606045620,0.6960513,-0.12886222,1.5321914,-0.77091193,-4.0732493,-0.1423316
765,1778606045630,0.6960513,-0.12886222,1.5321914,-0.77091193,-4.0732493,-0.1423316
766,1778606045640,0.46688148,-0.44735694,-0.36462155,0.30909783,1.3787229,-0.8026769
767,1778606045650,0.46688148,-0.44735694,-0.36462155,0.30909783,1.3787229,-0.8026769
768,1778606045660,0.46688148,-0.44735694,-0.36462155,0.30909783,1.3787229,-0.8026769
769,1778606045670,0.46688148,-0.44735694,-0.36462155,0.30909783,1.3787229,-0.8026769
770,1778606045680,0.46688148,-0.44735694,-0.36462155,0.30909783,1.3787229,-0.8026769
771,1778606045690,0.46688148,-0.44735694,-0.36462155,0.30909783,1.3787229,-0.8026769
772,1778606045700,0.46688148,-0.44735694,-0.36462155,0.30909783,1.3787229,-0.8026769
773,1778606045710,0.46688148,-0.44735694,-0.36462155,0.30909783,1.3787229,-0.8026769
774,1778606045720,1.4826478,-3.0419295,0.20451997,3.1667254,4.849659,-1.4013249
775,1778606045730,1.4826478,-3.0419295,0.20451997,3.1667254,4.849659,-1.4013249
776,1778606045740,0.19671014,-2.689999,-0.37365165,3.4287865,-0.87781334,-0.589485
777,1778606045750,0.19671014,-2.689999,-0.37365165,3.4287865,-0.87781334,-0.589485
778,1778606045760,0.19671014,-2.689999,-0.37365165,3.4287865,-0.87781334,-0.589485
779,1778606045770,0.19671014,-2.689999,-0.37365165,3.4287865,-0.87781334,-0.589485
780,1778606045780,0.19671014,-2.689999,-0.37365165,3.4287865,-0.87781334,-0.589485
781,1778606045790,0.19671014,-2.689999,-0.37365165,3.4287865,-0.87781334,-0.589485
782,1778606045800,0.19671014,-2.689999,-0.37365165,3.4287865,-0.87781334,-0.589485
783,1778606045810,0.19671014,-2.689999,-0.37365165,3.4287865,-0.87781334,-0.589485
784,1778606045820,0.19671014,-2.689999,-0.37365165,3.4287865,-0.87781334,-0.589485
785,1778606045830,0.19671014,-2.689999,-0.37365165,3.4287865,-0.87781334,-0.589485
786,1778606045840,-0.26919514,-0.1952458,-0.31141704,-2.8845057,-1.3231341,1.2003502
787,1778606045850,-0.26919514,-0.1952458,-0.31141704,-2.8845057,-1.3231341,1.2003502
788,1778606045860,-0.042465962,-0.35071027,0.097134784,-1.7256943,-0.77091193,0.61269784
789,1778606045870,-0.047347106,-0.41074833,0.1637624,-1.1520919,-0.45937067,0.20769419
790,1778606045880,-0.1300825,-0.53106856,0.2323425,-0.1704314,-0.18509217,-0.41172317
791,1778606045890,-0.21281794,-0.5535218,0.21306199,0.32253686,-0.16432275,-0.5699373
792,1778606045900,-0.27432033,-0.5691415,0.18426323,0.6420194,-0.17898351,-0.58032197
793,1778606045910,-0.31263736,-0.59135073,0.14765464,1.2363913,-0.35063666,-0.2773328
794,1778606045920,-0.31263736,-0.59135073,0.14765464,1.2363913,-0.35063666,-0.2773328
795,1778606045930,-0.2723679,-0.58232063,-0.008053889,1.4691309,-0.57726765,0.10934488
796,1778606045940,-0.0061014313,-0.8161274,0.5742667,1.8649716,4.9754972,0.8943067
797,1778606045950,-0.0061014313,-0.8161274,0.5742667,1.8649716,4.9754972,0.8943067
798,1778606045960,-0.31385764,-0.9823304,0.5784157,1.9566014,13.078625,2.4544566
799,1778606045970,-0.31385764,-0.9823304,0.5784157,1.9566014,13.078625,2.4544566
800,1778606045980,-0.31385764,-0.9823304,0.5784157,1.9566014,13.078625,2.4544566
801,1778606045990,-0.31385764,-0.9823304,0.5784157,1.9566014,13.078625,2.4544566
802,1778606046000,-0.36218095,-1.3464638,1.0040516,-2.334727,9.247278,4.21497
803,1778606046010,-0.36218095,-1.3464638,1.0040516,-2.334727,9.247278,4.21497
804,1778606046020,0.19207305,-1.0606729,1.0577441,1.1447614,-2.3964243,4.6254716
805,1778606046030,0.19207305,-1.0606729,1.0577441,1.1447614,-2.3964243,4.6254716
806,1778606046040,0.19207305,-1.0606729,1.0577441,1.1447614,-2.3964243,4.6254716
807,1778606046050,0.19207305,-1.0606729,1.0577441,1.1447614,-2.3964243,4.6254716
808,1778606046060,0.19207305,-1.0606729,1.0577441,1.1447614,-2.3964243,4.6254716
809,1778606046070,0.19207305,-1.0606729,1.0577441,1.1447614,-2.3964243,4.6254716
810,1778606046080,0.19207305,-1.0606729,1.0577441,1.1447614,-2.3964243,4.6254716
811,1778606046090,-0.020744866,-0.7804951,0.016595893,2.7580566,-2.9260445,3.8557813
812,1778606046100,-0.020744866,-0.7804951,0.016595893,2.7580566,-2.9260445,3.8557813
813,1778606046110,-0.020744866,-0.7804951,0.016595893,2.7580566,-2.9260445,3.8557813
814,1778606046120,-0.06296677,-1.6800901,-0.11617125,-0.4905248,-0.7470882,-2.398257
815,1778606046130,-0.06296677,-1.6800901,-0.11617125,-0.4905248,-0.7470882,-2.398257
816,1778606046140,-0.55401,-1.5763657,-0.03099527,-0.3200934,-1.0280862,-3.1587842
817,1778606046150,-0.55401,-1.5763657,-0.03099527,-0.3200934,-1.0280862,-3.1587842
818,1778606046160,-0.23942018,-1.1863623,-0.049299564,-0.3475823,-1.9645426,-3.3426547
819,1778606046170,-0.23942018,-1.1863623,-0.049299564,-0.3475823,-1.9645426,-3.3426547
820,1778606046180,-0.23942018,-1.1863623,-0.049299564,-0.3475823,-1.9645426,-3.3426547
821,1778606046190,-0.23942018,-1.1863623,-0.049299564,-0.3475823,-1.9645426,-3.3426547
822,1778606046200,-0.23942018,-1.1863623,-0.049299564,-0.3475823,-1.9645426,-3.3426547
823,1778606046210,-0.0019524579,-0.78806084,0.07907455,-0.89858276,-1.9144517,-3.6706893
824,1778606046220,-0.0019524579,-0.78806084,0.07907455,-0.89858276,-1.9144517,-3.6706893
825,1778606046230,-0.0019524579,-0.78806084,0.07907455,-0.89858276,-1.9144517,-3.6706893
826,1778606046240,0.06345488,-0.8278422,0.051740136,-0.99204516,-1.8747455,-3.5686748
827,1778606046250,0.06345488,-0.8278422,0.051740136,-0.99204516,-1.8747455,-3.5686748
828,1778606046260,0.11299851,-0.8847075,0.040269446,-1.2620476,-1.7373008,-3.2919528
829,1778606046270,0.11299851,-0.8847075,0.040269446,-1.2620476,-1.7373008,-3.2919528
830,1778606046280,0.18133454,-0.9964857,0.012202863,-1.4074335,-1.6982054,-3.1477885
831,1778606046290,0.24186075,-0.856641,0.049787678,-1.4672983,-1.8442022,-0.56138515
832,1778606046300,0.15888128,-0.7268025,0.01854835,-1.4727961,-1.7715092,0.50640726
833,1778606046310,0.15888128,-0.7268025,0.01854835,-1.4727961,-1.7715092,0.50640726
834,1778606046320,0.4419877,-0.58988637,0.006345488,-1.4727961,-1.7715092,0.50640726
835,1778606046330,0.5366819,-0.35998443,0.0061014313,-1.9657644,-1.5467108,1.2907583
836,1778606046340,0.5366819,-0.35998443,0.0061014313,-1.9657644,-1.5467108,1.2907583
837,1778606046350,0.5366819,-0.35998443,0.0061014313,-1.9657644,-1.5467108,1.2907583
838,1778606046360,0.5366819,-0.35998443,0.0061014313,-1.9657644,-1.5467108,1.2907583
839,1778606046370,0.5366819,-0.35998443,0.0061014313,-1.9657644,-1.5467108,1.2907583
840,1778606046380,0.40440285,-0.107873306,0.0690682,-3.3487632,0.27672195,0.47952923
841,1778606046390,0.40440285,-0.107873306,0.0690682,-3.3487632,0.27672195,0.47952923
842,1778606046400,0.40440285,-0.107873306,0.0690682,-3.3487632,0.27672195,0.47952923
843,1778606046410,0.40440285,-0.107873306,0.0690682,-3.3487632,0.27672195,0.47952923
844,1778606046420,0.40440285,-0.107873306,0.0690682,-3.3487632,0.27672195,0.47952923
845,1778606046430,0.40000984,-0.77805454,-0.18109047,1.3640621,3.4929276,-0.98654735
846,1778606046440,0.40000984,-0.77805454,-0.18109047,1.3640621,3.4929276,-0.98654735
847,1778606046450,0.6633476,-1.5277983,-0.13252309,1.0439687,4.056145,-1.0519099
848,1778606046460,0.6633476,-1.5277983,-0.13252309,1.0439687,4.056145,-1.0519099
849,1778606046470,0.6633476,-1.5277983,-0.13252309,1.0439687,4.056145,-1.0519099
850,1778606046480,0.6452874,-1.670816,-0.1769415,1.210124,3.9767327,-1.142318
851,1778606046490,0.6452874,-1.670816,-0.1769415,1.210124,3.9767327,-1.142318
852,1778606046500,0.88836837,-2.9823797,0.079562664,2.484389,2.705522,-0.81000733
853,1778606046510,0.88836837,-2.9823797,0.079562664,2.484389,2.705522,-0.81000733
854,1778606046520,-0.10640897,-2.2575295,-0.9498709,2.4770586,-2.960253,0.124005646
855,1778606046530,-0.10640897,-2.2575295,-0.9498709,2.4770586,-2.960253,0.124005646
856,1778606046540,-0.10640897,-2.2575295,-0.9498709,2.4770586,-2.960253,0.124005646
857,1778606046550,-0.08151512,-1.4716653,-0.8139309,-0.02565634,-3.0567696,0.838718
858,1778606046560,-0.08151512,-1.4716653,-0.8139309,-0.02565634,-3.0567696,0.838718
859,1778606046570,-0.1483868,-0.92448884,-0.61673266,-0.66645396,-2.620001,0.9718866
860,1778606046580,-0.23966423,-0.49885303,-0.36730617,-1.9828686,-0.7067711,1.600467
861,1778606046590,-0.23966423,-0.49885303,-0.36730617,-1.9828686,-0.7067711,1.600467
862,1778606046600,-0.23966423,-0.49885303,-0.36730617,-1.9828686,-0.7067711,1.600467
863,1778606046610,-0.1632743,-0.3048275,0.0014643435,-1.690875,-0.08735373,1.8716911
864,1778606046620,-0.1632743,-0.3048275,0.0014643435,-1.690875,-0.08735373,1.8716911
865,1778606046630,-0.1632743,-0.3048275,0.0014643435,-1.690875,-0.08735373,1.8716911
866,1778606046640,-0.1632743,-0.3048275,0.0014643435,-1.690875,-0.08735373,1.8716911
867,1778606046650,-0.1632743,-0.3048275,0.0014643435,-1.690875,-0.08735373,1.8716911
868,1778606046660,0.108117364,-0.5649925,0.18523945,-0.23640485,0.54305923,0.7690793
869,1778606046670,0.4915313,-0.8959341,0.3487578,0.5143485,1.0757337,-0.10751228
870,1778606046680,0.4915313,-0.8959341,0.3487578,0.5143485,1.0757337,-0.10751228
871,1778606046690,0.16522676,-1.1819692,1.3015573,1.8435913,6.341392,0.5039638
872,1778606046700,0.16522676,-1.1819692,1.3015573,1.8435913,6.341392,0.5039638
873,1778606046710,0.16522676,-1.1819692,1.3015573,1.8435913,6.341392,0.5039638
874,1778606046720,-0.31581008,-0.8471227,0.65212095,1.0396926,3.317609,2.1380284
875,1778606046730,-0.15595257,-0.9972179,0.44003522,1.0201449,0.47219884,3.0928106
876,1778606046740,0.004881145,-1.0287013,0.24796216,1.0201449,0.47219884,3.0928106
877,1778606046750,0.004881145,-1.0287013,0.24796216,1.0201449,0.47219884,3.0928106
878,1778606046760,0.004881145,-1.0287013,0.24796216,1.4752395,-1.0604621,3.34632
879,1778606046770,0.20988922,-1.0638455,-0.23893206,1.8423696,-1.2730432,3.2247577
880,1778606046780,0.20988922,-1.0638455,-0.23893206,1.8423696,-1.2730432,3.2247577
881,1778606046790,-0.31678632,-1.0169866,-0.37609223,2.021964,0.2602286,3.1728342
882,1778606046800,-0.31678632,-1.0169866,-0.37609223,2.021964,0.2602286,3.1728342
883,1778606046810,-0.31678632,-1.0169866,-0.37609223,2.021964,0.2602286,3.1728342
884,1778606046820,-0.1986626,-0.89813066,-0.25015867,0.15515977,0.84299403,4.1453314
885,1778606046830,-0.1986626,-0.89813066,-0.25015867,0.15515977,0.84299403,4.1453314
886,1778606046840,-0.1986626,-0.89813066,-0.25015867,0.15515977,0.84299403,4.1453314
887,1778606046850,-0.1986626,-0.89813066,-0.25015867,0.15515977,0.84299403,4.1453314
888,1778606046860,-0.1986626,-0.89813066,-0.25015867,0.15515977,0.84299403,4.1453314
889,1778606046870,-0.1986626,-0.89813066,-0.25015867,0.15515977,0.84299403,4.1453314
890,1778606046880,-0.1986626,-0.89813066,-0.25015867,0.15515977,0.84299403,4.1453314
891,1778606046890,-0.1986626,-0.89813066,-0.25015867,0.15515977,0.84299403,4.1453314
892,1778606046900,0.04612682,-0.88373125,-0.08029483,-0.6774496,0.24312437,3.5485163
893,1778606046910,-0.35241866,-1.2847173,-0.1901206,0.38362336,-3.019507,-1.568091
894,1778606046920,-0.3441207,-1.1853861,-0.20305562,0.36041048,-3.0439415,-2.0274618
895,1778606046930,-0.3482697,-1.0650659,-0.19280522,0.026267206,-2.5619688,-2.864958
896,1778606046940,-0.3482697,-1.0650659,-0.19280522,0.026267206,-2.5619688,-2.864958
897,1778606046950,-0.3482697,-1.0650659,-0.19280522,0.026267206,-2.5619688,-2.864958
898,1778606046960,-0.3482697,-1.0650659,-0.19280522,0.026267206,-2.5619688,-2.864958
899,1778606046970,-0.3482697,-1.0650659,-0.19280522,0.026267206,-2.5619688,-2.864958
900,1778606046980,-0.3482697,-1.0650659,-0.19280522,0.026267206,-2.5619688,-2.864958
901,1778606046990,-0.3482697,-1.0650659,-0.19280522,0.026267206,-2.5619688,-2.864958
902,1778606047000,-0.3482697,-1.0650659,-0.19280522,0.026267206,-2.5619688,-2.864958
903,1778606047010,-0.3482697,-1.0650659,-0.19280522,0.026267206,-2.5619688,-2.864958
904,1778606047020,-0.3482697,-1.0650659,-0.19280522,0.026267206,-2.5619688,-2.864958
905,1778606047030,-0.3482697,-1.0650659,-0.19280522,0.026267206,-2.5619688,-2.864958
906,1778606047040,-0.3482697,-1.0650659,-0.19280522,0.026267206,-2.5619688,-2.864958
907,1778606047050,-0.32337585,-0.96402615,-0.17816179,-0.14110987,-2.262034,-2.9907963
908,1778606047060,0.07468152,-0.81466305,-0.13789235,-1.4110987,-0.5699373,-3.813021
909,1778606047070,0.05418071,-0.83125895,-0.067847915,-2.0073032,-1.4746287,1.310306
910,1778606047080,0.27993366,-0.75950617,-0.099575356,-2.0073032,-1.4746287,1.310306
911,1778606047090,0.27993366,-0.75950617,-0.099575356,-2.0073032,-1.4746287,1.310306
912,1778606047100,0.8293065,-0.588178,-0.20354374,-2.7317894,-1.577254,1.3231341
913,1778606047110,0.8293065,-0.588178,-0.20354374,-2.7317894,-1.577254,1.3231341
914,1778606047120,0.8293065,-0.588178,-0.20354374,-2.7317894,-1.577254,1.3231341
915,1778606047130,0.8293065,-0.588178,-0.20354374,-2.7317894,-1.577254,1.3231341
916,1778606047140,0.8293065,-0.588178,-0.20354374,-2.7317894,-1.577254,1.3231341
917,1778606047150,0.8293065,-0.588178,-0.20354374,-2.7317894,-1.577254,1.3231341
918,1778606047160,0.8293065,-0.588178,-0.20354374,-2.7317894,-1.577254,1.3231341
919,1778606047170,0.8644508,-0.43100512,-0.1261776,-4.174042,-0.66706485,0.46303585
920,1778606047180,0.8644508,-0.43100512,-0.1261776,-4.174042,-0.66706485,0.46303585
921,1778606047190,0.8644508,-0.43100512,-0.1261776,-4.174042,-0.66706485,0.46303585
922,1778606047200,0.8644508,-0.43100512,-0.1261776,-4.174042,-0.66706485,0.46303585
923,1778606047210,0.8644508,-0.43100512,-0.1261776,-4.174042,-0.66706485,0.46303585
924,1778606047220,0.8644508,-0.43100512,-0.1261776,-4.174042,-0.66706485,0.46303585
925,1778606047230,0.8644508,-0.43100512,-0.1261776,-4.174042,-0.66706485,0.46303585
926,1778606047240,0.32532832,-1.0694588,0.114218794,0.6224717,2.3231206,-1.4856243
927,1778606047250,0.32532832,-1.0694588,0.114218794,0.6224717,2.3231206,-1.4856243
928,1778606047260,0.58988637,-3.317226,-0.20842488,3.9968913,2.9077187,-0.37873647
929,1778606047270,0.58988637,-3.317226,-0.20842488,3.9968913,2.9077187,-0.37873647
930,1778606047280,0.025626011,-2.8891497,-0.5449798,3.9968913,2.9077187,-0.37873647
931,1778606047290,-0.10470056,-1.9302487,-0.6221019,2.2033908,-1.1484267,0.54244834
932,1778606047300,-0.10470056,-1.9302487,-0.6221019,2.2033908,-1.1484267,0.54244834
933,1778606047310,-0.064919226,-1.3535415,-0.48225713,0.4007276,-1.8576412,1.2840388
934,1778606047320,-0.064919226,-1.3535415,-0.48225713,0.4007276,-1.8576412,1.2840388
935,1778606047330,-0.064919226,-1.3535415,-0.48225713,0.4007276,-1.8576412,1.2840388
936,1778606047340,-0.14789869,-0.45711923,-0.4751795,-1.5460999,-0.1685988,1.7171422
937,1778606047350,-0.14789869,-0.45711923,-0.4751795,-1.5460999,-0.1685988,1.7171422
938,1778606047360,-0.14789869,-0.45711923,-0.4751795,-1.5460999,-0.1685988,1.7171422
939,1778606047370,-0.13545178,-0.36022848,-0.11226633,-1.6554449,0.018325957,1.7947221
940,1778606047380,-0.13545178,-0.36022848,-0.11226633,-1.6566665,0.13133603,1.8661933
941,1778606047390,-0.13545178,-0.36022848,-0.11226633,-1.6566665,0.13133603,1.8661933
942,1778606047400,-0.13545178,-0.36022848,-0.11226633,-1.6566665,0.13133603,1.8661933
943,1778606047410,-0.13545178,-0.36022848,-0.11226633,-1.6566665,0.13133603,1.8661933
944,1778606047420,-0.13545178,-0.36022848,-0.11226633,-1.6566665,0.13133603,1.8661933
945,1778606047430,-0.13545178,-0.36022848,-0.11226633,-1.6566665,0.13133603,1.8661933
946,1778606047440,0.117391534,-0.75194037,-0.020012695,0.8949176,1.2571607,-0.0018325958
947,1778606047450,0.117391534,-0.75194037,-0.020012695,0.8949176,1.2571607,-0.0018325958
948,1778606047460,0.117391534,-0.75194037,-0.020012695,0.8949176,1.2571607,-0.0018325958
949,1778606047470,-0.114218794,-1.2598236,1.3847809,2.053729,5.83865,0.7012733
950,1778606047480,-0.114218794,-1.2598236,1.3847809,2.053729,5.83865,0.7012733
951,1778606047490,-0.114218794,-1.2598236,1.3847809,2.053729,5.83865,0.7012733
952,1778606047500,-0.114218794,-1.2598236,1.3847809,2.053729,5.83865,0.7012733
953,1778606047510,-0.16132185,-1.0084445,1.0828819,2.0378466,6.8337493,1.4385877
954,1778606047520,0.14106509,-1.1236396,0.40830776,0.77640975,-2.5986207,4.065308
955,1778606047530,0.14106509,-1.1236396,0.40830776,0.77640975,-2.5986207,4.065308
956,1778606047540,0.14106509,-1.1236396,0.40830776,0.77640975,-2.5986207,4.065308
957,1778606047550,0.07468152,-0.9359596,-0.76975656,2.1459696,-2.3145685,2.8973339
958,1778606047560,0.07468152,-0.9359596,-0.76975656,2.1459696,-2.3145685,2.8973339
959,1778606047570,0.07468152,-0.9359596,-0.76975656,2.1459696,-2.3145685,2.8973339
960,1778606047580,-0.07785426,-0.7475473,-0.5793919,1.4636332,0.22602014,2.7586675
961,1778606047590,-0.07785426,-0.7475473,-0.5793919,1.4636332,0.22602014,2.7586675
962,1778606047600,-0.07785426,-0.7475473,-0.5793919,1.4636332,0.22602014,2.7586675
963,1778606047610,-0.10372432,-0.7826916,-0.16254212,0.3231477,0.63407815,2.7311785
964,1778606047620,-0.10372432,-0.7826916,-0.16254212,0.3231477,0.63407815,2.7311785
965,1778606047630,-0.10372432,-0.7826916,-0.16254212,0.3231477,0.63407815,2.7311785
966,1778606047640,-0.10372432,-0.7826916,-0.16254212,0.3231477,0.63407815,2.7311785
967,1778606047650,-0.10372432,-0.7826916,-0.16254212,0.3231477,0.63407815,2.7311785
968,1778606047660,-0.10372432,-0.7826916,-0.16254212,0.3231477,0.63407815,2.7311785
969,1778606047670,-0.10372432,-0.7826916,-0.16254212,0.3231477,0.63407815,2.7311785
970,1778606047680,-0.10372432,-0.7826916,-0.16254212,0.3231477,0.63407815,2.7311785
971,1778606047690,0.087616555,-0.9725681,0.10152781,-0.6872234,0.26939157,1.8997909
972,1778606047700,0.087616555,-0.9725681,0.10152781,-0.6872234,0.26939157,1.8997909
973,1778606047710,-0.19841854,-1.2168695,-0.08053889,-1.1765264,-0.23945917,0.119729586
974,1778606047720,-0.19841854,-1.2168695,-0.08053889,-1.1765264,-0.23945917,0.119729586
975,1778606047730,-0.19841854,-1.2168695,-0.08053889,-1.1765264,-0.23945917,0.119729586
976,1778606047740,-0.19597797,-1.4074782,-0.08639627,-1.001819,-1.4367551,-2.0011945
977,1778606047750,-0.19597797,-1.4074782,-0.08639627,-1.001819,-1.4367551,-2.0011945
978,1778606047760,-0.19597797,-1.4074782,-0.08639627,-1.001819,-1.4367551,-2.0011945
979,1778606047770,-0.38707477,-1.2454242,-0.06467517,-0.5290093,-2.3237314,-3.43123
980,1778606047780,0.077122085,-0.9474302,-0.16425052,-2.0274618,-1.5314392,-2.3341162
981,1778606047790,0.11568313,-0.98818773,-0.13252309,-2.2883012,-1.2815952,-2.0995438
982,1778606047800,0.11568313,-0.98818773,-0.13252309,-2.2883012,-1.2815952,-2.0995438
983,1778606047810,0.545468,-1.0906918,-0.24064046,-2.276084,-0.50823987,-1.3768903
984,1778606047820,0.545468,-1.0906918,-0.24064046,-2.276084,-0.50823987,-1.3768903
985,1778606047830,0.545468,-1.0906918,-0.24064046,-2.276084,-0.50823987,-1.3768903
986,1778606047840,0.6626154,-1.0521308,-0.22160399,-2.276084,-0.50823987,-1.3768903
987,1778606047850,0.4978768,-0.65212095,-0.24723,-2.0830505,-0.08552113,0.15577064
988,1778606047860,0.4978768,-0.65212095,-0.24723,-2.0830505,-0.08552113,0.15577064
989,1778606047870,0.4978768,-0.65212095,-0.24723,-2.0830505,-0.08552113,0.15577064
990,1778606047880,0.4978768,-0.65212095,-0.24723,-2.0830505,-0.08552113,0.15577064
991,1778606047890,0.4978768,-0.65212095,-0.24723,-2.0830505,-0.08552113,0.15577064
992,1778606047900,0.4978768,-0.65212095,-0.24723,-2.0830505,-0.08552113,0.15577064
993,1778606047910,0.4978768,-0.65212095,-0.24723,-2.4678955,0.31581733,1.3164146
994,1778606047920,0.85566473,-0.5791479,0.8700641,-1.423316,-5.145318,-0.820392
995,1778606047930,0.85566473,-0.5791479,0.8700641,-1.423316,-5.145318,-0.820392
996,1778606047940,0.85566473,-0.5791479,0.8700641,-1.423316,-5.145318,-0.820392
997,1778606047950,0.64016217,-1.338654,-0.10030753,0.40011674,1.9126191,-1.2278391
998,1778606047960,0.64016217,-1.338654,-0.10030753,0.40011674,1.9126191,-1.2278391
999,1778606047970,0.64016217,-1.338654,-0.10030753,0.40011674,1.9126191,-1.2278391
1000,1778606047980,0.36681804,-1.4174845,-0.09786696,0.8863655,7.8520617,-1.6945401
