id,timestamp,acc_x,acc_y,acc_z,gyro_x,gyro_y,gyro_z
0,1780383541223980,-0.32923323,0.4790844,0.7914777,0.049480084,0.2321288,-0.064751714
1,1780383541233980,-0.36169282,0.5025139,0.7304634,0.2742785,-0.66156703,-0.16982053
2,1780383541243980,-0.32532832,0.53961056,0.6879974,0.21930063,-0.9822713,-0.13805555
3,1780383541253980,-0.27846932,0.5193538,0.7314396,0.17959438,-0.98471475,-0.09773844
4,1780383541263980,-0.2518671,0.53228885,0.797335,0.1142318,-0.6218608,-0.15393804
5,1780383541273980,-0.21599068,0.5723142,0.8537123,0.11728613,-0.3811799,-0.23335053
6,1780383541283980,-0.1867038,0.58964235,0.8437059,0.13316862,-0.06169739,-0.38606682
7,1780383541293980,-0.19256116,0.48616204,0.69971216,0.1301143,0.06169739,-0.5320636
8,1780383541303980,-0.25772443,0.50031734,0.63943,-0.1459968,-0.24923302,-0.6805039
9,1780383541313980,-0.3099527,0.54839665,0.60941094,-0.37934732,-0.52106804,-0.64934975
10,1780383541323980,-0.3333822,0.5637722,0.6050179,-0.6102544,-0.7293731,-0.5717699
11,1780383541333980,-0.27334413,0.4846977,0.8009959,-0.7593055,-0.87598073,-0.50823987
12,1780383541343980,-0.27334413,0.4846977,0.8009959,-0.8857546,-1.1355985,-0.41783184
13,1780383541353980,-0.13179092,0.36779428,0.8710403,-1.0048733,-1.8942931,-0.4654793
14,1780383541363980,-0.20793676,0.48738232,0.8715284,-1.1026118,-2.2883012,-0.48991394
15,1780383541373980,-0.19280522,0.5293602,0.9354714,-1.1087204,-2.1966715,-0.44226643
16,1780383541383980,-0.02391761,0.53228885,1.146825,-0.675617,-0.97127575,-0.54183745
17,1780383541393980,-0.02391761,0.53228885,1.146825,-0.675617,-0.97127575,-0.54183745
18,1780383541403980,0.06980037,0.46273252,1.104115,-0.20891592,-0.3744604,-0.7556403
19,1780383541413980,0.10006347,0.42563587,1.0967933,0.077579886,-0.052534413,-0.9584476
20,1780383541423980,0.11251039,0.4183141,1.1060674,0.46486846,0.040317107,-1.35551
21,1780383541433980,0.088836834,0.43759465,1.1097283,0.64812803,-0.05131268,-1.5436565
22,1780383541443980,0.013179091,0.50324607,1.0772687,0.816116,-0.124005646,-1.6694947
23,1780383541453980,-0.010738519,0.5256993,1.0501783,0.97005403,-0.10323623,-1.7482964
24,1780383541463980,-0.03441207,0.5874458,0.993313,1.1960741,-0.052534413,-1.8393153
25,1780383541473980,-0.059549972,0.6284474,0.9984382,1.1759156,-0.1704314,-1.8472565
26,1780383541483980,-0.08005078,0.67481834,1.027481,0.9755518,-0.77274454,-1.8252654
27,1780383541493980,-0.07468152,0.7224094,1.044321,0.8753699,-1.029308,-1.7965547
28,1780383541503980,-0.020988923,0.75535715,1.0333383,0.7489208,-1.2504412,-1.7660115
29,1780383541513980,0.053936653,0.77634615,1.0499343,0.65240407,-1.3384057,-1.7641789
30,1780383541523980,0.19158493,0.8075854,1.1421878,0.5748242,-1.3610078,-1.8515326
31,1780383541533980,0.26870704,0.8542004,1.2222387,0.61941737,-1.3078625,-1.9969184
32,1780383541543980,0.39195594,0.8471227,1.3781912,0.766025,-1.2577715,-2.2632558
33,1780383541553980,0.47347105,0.87030816,1.5187683,0.9266826,-1.1221595,-2.5088236
34,1780383541563980,0.38194957,0.8510276,1.6932691,1.6530013,-1.486846,-3.2791247
35,1780383541573980,0.21940747,0.9437694,1.9548985,2.1502457,-2.3652701,-3.5118642
36,1780383541583980,0.23112221,0.92546505,2.0874217,2.9755247,-3.454443,-3.821573
37,1780383541593980,0.20671648,0.85590875,2.045688,3.2907312,-3.477656,-3.9968913
38,1780383541603980,0.26065314,0.64943635,1.9375705,3.5075881,-3.3554828,-4.1263947
39,1780383541613980,0.27554062,0.56474847,1.8919317,4.01033,-2.8130345,-4.369519
40,1780383541623980,0.3104408,0.48665017,1.8279889,4.1770964,-2.638327,-4.447099
41,1780383541633980,0.3226437,0.44271985,1.7699032,4.3664646,-2.461787,-4.5588875
42,1780383541643980,0.2884757,0.41465324,1.5973547,4.5185704,-2.3316727,-4.6712866
43,1780383541653980,0.25479576,0.38194957,1.50925,4.6169195,-2.2052236,-4.7708573
44,1780383541663980,0.19548985,0.30458343,1.3596429,4.636467,-2.0201313,-4.9156327
45,1780383541673980,0.12154051,0.2238005,1.2051547,4.37013,-1.8606955,-4.9473977
46,1780383541683980,0.026114125,0.14863087,1.0484699,4.37013,-1.8606955,-4.9473977
47,1780383541693980,-0.09884319,0.046858992,0.9449896,4.0897427,-1.9028453,-4.9192977
48,1780383541703980,-0.27090356,-0.0993313,0.7560893,3.4526103,-2.2186625,-4.8038445
49,1780383541713980,-0.27090356,-0.0993313,0.7560893,3.036611,-2.32984,-4.6773953
50,1780383541723980,-0.51520485,-0.3904916,0.6811638,2.3701572,-2.2003367,-4.2778893
51,1780383541733980,-0.5679212,-0.39830142,0.6970275,2.1820107,-1.78617,-3.875329
52,1780383541743980,-0.626739,-0.36169282,0.71948075,2.1887302,-1.4379768,-3.6432004
53,1780383541753980,-0.73632073,-0.17328064,0.85639685,2.225382,-1.2186762,-3.4794884
54,1780383541763980,-0.7551131,-0.077122085,0.9059405,2.3243423,-1.0586295,-3.2986724
55,1780383541773980,-0.72704655,-0.007321717,0.94254905,2.4489589,-1.0122037,-3.2076533
56,1780383541783980,-0.6760386,0.011714748,0.9091133,2.5411994,-1.0781772,-3.250414
57,1780383541793980,-0.73729694,0.061258372,0.81734776,2.5906794,-1.097114,-3.2626312
58,1780383541803980,-0.8561529,0.10714114,0.81466305,2.7091873,-1.201572,-3.186884
59,1780383541813980,-0.9798898,0.14204131,0.8031924,2.9712486,-1.9285016,-2.792265
60,1780383541823980,-1.0477377,0.19329333,0.78928113,3.0347786,-2.7189612,-2.4550674
61,1780383541833980,-0.64211464,0.2596769,0.5789038,3.0140092,-3.2418618,-2.2473733
62,1780383541843980,-0.43368974,0.32239962,0.48128092,2.9181032,-3.6242635,-2.1923954
63,1780383541853980,-0.2923806,0.41074833,0.38853914,2.6535985,-3.1587842,-2.4324653
64,1780383541863980,-0.23795582,0.4253918,0.34778157,2.5277603,-2.4697282,-2.552806
65,1780383541873980,-0.60013676,0.41855815,0.37633628,2.5692992,-0.62980205,-2.2461514
66,1780383541883980,-0.5120321,0.49397188,0.3355787,2.5802948,0.90469146,-1.7299703
67,1780383541893980,-0.5120321,0.49397188,0.3355787,2.5802948,0.90469146,-1.7299703
68,1780383541903980,-0.5588911,0.5383903,0.21135357,2.243097,0.89980453,-1.6126842
69,1780383541913980,-0.68409246,0.72338563,0.005857374,1.5314392,0.24251351,-1.5149459
70,1780383541923980,-0.746083,0.7873287,-0.03636453,0.86254174,-0.97249746,-1.6334536
71,1780383541933980,-0.72607034,0.7487676,-0.037584815,0.59315014,-1.6102408,-1.736079
72,1780383541943980,-0.6543175,0.71118283,-0.010738519,0.4288274,-2.1184807,-1.8466456
73,1780383541953980,-0.6726217,0.7309515,0.018792408,0.29138273,-2.4648414,-1.9077321
74,1780383541963980,-0.6897058,0.6972716,0.044174362,0.15271631,-2.720183,-1.9260582
75,1780383541973980,-0.5976962,0.66944903,0.114218794,-0.3323107,-3.7158933,-1.8307631
76,1780383541983980,-0.3414361,0.6587105,0.42051062,-0.3323107,-3.7158933,-1.8307631
77,1780383541993980,-0.23405088,0.63625723,0.5618198,-0.5491679,-4.5032988,-1.967597
78,1780383542003980,-0.28969595,0.67091334,0.63381666,-0.6835582,-4.586376,-2.4141395
79,1780383542013980,-0.6889736,0.62478656,0.6277153,-1.2999213,-3.4428365,-3.0347786
80,1780383542023980,-0.77146494,0.4556549,0.17084008,-2.0653355,-2.121535,-3.0592132
81,1780383542033980,-0.77146494,0.4556549,0.17084008,-4.2687263,0.40439278,-2.4165828
82,1780383542043980,-0.759018,0.30751213,0.19988288,-4.2687263,0.40439278,-2.4165828
83,1780383542053980,-0.4217309,0.14399378,0.5122762,-5.6590557,0.82650065,-2.0830505
84,1780383542063980,0.0065895454,-0.29555333,2.5750482,-6.3438354,1.9755383,-2.457511
85,1780383542073980,-0.33362624,-0.460536,3.060966,-4.3316455,3.2559118,-2.919325
86,1780383542083980,-0.6850687,-0.46639338,3.2154543,-2.7097983,3.5534031,-2.8814514
87,1780383542093980,-1.0133257,-0.26162934,3.437058,-1.001819,3.0024028,-2.5784621
88,1780383542103980,-1.6786258,0.002928687,3.467077,0.6469063,2.2608123,-2.1093178
89,1780383542113980,-1.6549523,-0.059549972,3.432177,3.0659328,1.0671816,-1.0225884
90,1780383542123980,-1.4086984,-0.25259924,3.2459614,4.1856484,1.1142182,-0.5131268
91,1780383542133980,-0.53887844,-0.5691415,2.335384,4.8679852,1.7916678,-0.25961772
92,1780383542143980,-0.25430766,-0.63235235,1.8172504,5.486181,3.200323,-0.06536258
93,1780383542153980,0.06272271,-0.5374141,0.8395569,4.8502703,6.755559,0.061086524
94,1780383542163980,0.06272271,-0.5374141,0.8395569,4.8502703,6.755559,0.061086524
95,1780383542173980,0.029042812,-0.4195344,0.57280236,4.8502703,6.755559,0.061086524
96,1780383542183980,-0.08786061,-0.05588911,0.48640612,2.8955014,6.496552,0.3268129
97,1780383542193980,-0.12178457,0.006345488,0.62014943,2.2626448,6.1220913,0.50579643
98,1780383542203980,-0.12886222,-0.061014313,0.97330034,2.2626448,6.1220913,0.50579643
99,1780383542213980,-0.12886222,-0.061014313,0.97330034,1.4416419,5.000543,1.0311406
100,1780383542223980,-0.07443746,-0.18645974,1.3188853,1.9792033,4.4721446,1.2034045
101,1780383542233980,0.08639627,-0.32801294,1.2644606,3.6377025,3.6694674,1.6120734
102,1780383542243980,0.21672285,-0.422219,1.1324255,3.6377025,3.6694674,1.6120734
103,1780383542253980,0.4846977,-0.52789587,0.6635916,3.6377025,3.6694674,1.6120734
104,1780383542263980,0.4846977,-0.52789587,0.6635916,5.5912495,3.8460076,1.8258762
105,1780383542273980,0.4846977,-0.52789587,0.6635916,6.1843996,3.8557813,1.7055358
106,1780383542283980,0.575487,-0.55401,0.36315718,6.180124,3.0341678,0.8240572
107,1780383542293980,0.67530644,-0.6706693,-0.8881243,6.180124,3.0341678,0.8240572
108,1780383542303980,0.67530644,-0.6706693,-0.8881243,5.5906386,2.6645942,0.18387043
109,1780383542313980,0.4898229,-0.68482465,-1.2849613,4.938235,2.262034,-0.34330627
110,1780383542323980,0.07687803,-0.84614646,-1.9546545,4.183205,2.0457878,-0.79351395
111,1780383542333980,-0.08029483,-0.8683557,-2.1633234,3.717726,1.981036,-0.9841039
112,1780383542343980,-0.38048524,-0.9366917,-2.4644902,2.1881194,1.351234,-1.1527027
113,1780383542353980,-0.61795294,-1.0045396,-2.5460052,1.7482964,1.0488557,-1.0732902
114,1780383542363980,-0.66944903,-1.0079564,-2.574072,1.1997393,0.7281514,-0.86315256
115,1780383542373980,-0.66944903,-1.0079564,-2.574072,1.1997393,0.7281514,-0.86315256
116,1780383542383980,-0.67579454,-1.0045396,-2.5996978,0.6713409,0.52106804,-0.59742624
117,1780383542393980,-0.6716455,-0.96402615,-2.4842587,-0.80939645,-0.17104226,-0.19914207
118,1780383542403980,-0.6984919,-0.95475197,-2.392005,-1.3347405,-0.47647488,-0.13133603
119,1780383542413980,-0.7497439,-0.92497694,-2.2543569,-2.147802,-0.8570439,0.1160644
120,1780383542423980,-0.780007,-0.8947139,-2.0981603,-2.466063,-1.006095,0.36041048
121,1780383542433980,-0.77195305,-0.8678676,-1.9487971,-2.624277,-1.1007792,0.55833083
122,1780383542443980,-0.72753465,-0.8402891,-1.7972375,-2.751337,-1.2449434,0.7855727
123,1780383542453980,-0.60086894,-0.74364245,-1.5151074,-2.9840767,-1.8399261,1.2296717
124,1780383542463980,-0.60086894,-0.74364245,-1.5151074,-2.9840767,-1.8399261,1.2296717
125,1780383542473980,-0.51349646,-0.6901939,-1.3545178,-3.069598,-2.058005,1.351234
126,1780383542483980,-0.4195344,-0.6638357,-1.1707426,-3.2375858,-2.611449,1.5992452
127,1780383542493980,-0.38829508,-0.6467517,-1.0938646,-3.268129,-2.7482827,1.6749926
128,1780383542503980,-0.36242503,-0.6133158,-0.9691513,-3.2919528,-2.8173106,1.7330247
129,1780383542513980,-0.35583547,-0.62014943,-0.93327487,-3.3267722,-2.886949,1.8228219
130,1780383542523980,-0.33753118,-0.6252747,-0.9066727,-3.363424,-2.982244,1.9382755
131,1780383542533980,-0.30946457,-0.6191732,-0.86249834,-3.441004,-3.372587,2.1484132
132,1780383542543980,-0.23112221,-0.66700846,-0.7468152,-3.4807103,-3.6480873,2.2449298
133,1780383542553980,-0.19793043,-0.6643238,-0.69263446,-3.5332446,-3.8521163,2.356718
134,1780383542563980,-0.19793043,-0.6643238,-0.69263446,-3.5332446,-3.8521163,2.356718
135,1780383542573980,-0.16473864,-0.6543175,-0.6543175,-3.5772269,-3.9504654,2.4776695
136,1780383542583980,-0.1244692,-0.647972,-0.6145361,-3.7720928,-4.0414844,2.855795
137,1780383542593980,-0.1244692,-0.647972,-0.6145361,-3.7720928,-4.0414844,2.855795
138,1780383542603980,-0.1244692,-0.647972,-0.6145361,-3.7720928,-4.0414844,2.855795
139,1780383542613980,0.028066583,-0.67140144,-0.55840296,-3.911981,-4.056756,2.9798007
140,1780383542623980,0.12886222,-0.77317333,-0.53009236,-3.911981,-4.056756,2.9798007
141,1780383542633980,0.12886222,-0.77317333,-0.53009236,-4.537507,-3.8820486,3.2418618
142,1780383542643980,0.12886222,-0.77317333,-0.53009236,-4.537507,-3.8820486,3.2418618
143,1780383542653980,0.2936009,-1.6854594,-0.11275445,-7.9717913,-2.996294,4.8349986
144,1780383542663980,0.2936009,-1.6854594,-0.11275445,-7.9717913,-2.996294,4.8349986
145,1780383542673980,0.23722363,-1.9275641,0.503002,-8.74698,-3.2632422,5.879578
146,1780383542683980,0.23722363,-1.9275641,0.503002,-8.463538,-3.2064316,5.427538
147,1780383542693980,1.8655735,-1.547567,2.234344,-9.087842,-1.432479,4.7751336
148,1780383542703980,1.8089523,-0.89032084,3.3755558,-6.151413,-3.3481524,2.329229
149,1780383542713980,1.7332945,-0.5771954,3.8600097,-6.151413,-3.3481524,2.329229
150,1780383542723980,1.6105338,-0.40098605,4.0986977,-4.3579125,-3.5967746,1.4862351
151,1780383542733980,0.88690406,-0.041245673,3.5783675,-0.593761,-3.4843755,-0.00061086525
152,1780383542743980,0.88690406,-0.041245673,3.5783675,-0.593761,-3.4843755,-0.00061086525
153,1780383542753980,0.48201308,0.11251039,2.916728,-0.02687807,-3.109915,-0.39522982
154,1780383542763980,0.48201308,0.11251039,2.916728,-0.02687807,-3.109915,-0.39522982
155,1780383542773980,0.13764828,0.19304928,2.6106803,-0.14844026,-2.8081474,-0.5467244
156,1780383542783980,-0.014643434,0.18353106,2.6028705,-0.7959574,-1.3628404,-0.43188173
157,1780383542793980,-0.17425688,0.20110317,2.643384,-0.7959574,-1.3628404,-0.43188173
158,1780383542803980,-0.18597162,0.29384494,2.7087913,-0.84665924,-0.3359759,0.08857546
159,1780383542813980,-0.079562664,0.35632357,2.698541,-0.83077675,0.049480084,0.3475823
160,1780383542823980,-0.079562664,0.35632357,2.698541,-0.8142834,0.6035349,0.5369505
161,1780383542833980,0.34192422,0.5532778,2.7524776,-0.79717916,0.8038987,0.51251596
162,1780383542843980,0.34192422,0.57988006,2.830576,-0.79717916,0.8038987,0.51251596
163,1780383542853980,0.34192422,0.57988006,2.830576,-0.7141015,0.83077675,0.4196644
164,1780383542863980,0.34192422,0.57988006,2.830576,-0.36835176,0.79229224,0.11301007
165,1780383542873980,0.54766446,0.57451075,2.9018407,-0.037873644,0.838718,-0.0983493
166,1780383542883980,0.54766446,0.57451075,2.9018407,-0.037873644,0.838718,-0.0983493
167,1780383542893980,0.5781716,0.5945235,2.9782307,0.40011674,0.9425651,-0.27305678
168,1780383542903980,0.5781716,0.5945235,2.9782307,0.40011674,0.9425651,-0.27305678
169,1780383542913980,0.6033095,0.46322066,3.0653589,0.40011674,0.9425651,-0.27305678
170,1780383542923980,0.6191732,0.38097337,3.0216727,1.572978,0.68477994,-0.8875872
171,1780383542933980,0.6191732,0.38097337,3.0216727,1.572978,0.68477994,-0.8875872
172,1780383542943980,0.68091977,0.094206095,3.0658472,0.7495316,0.9089675,-0.4202753
173,1780383542953980,0.68091977,0.094206095,3.0658472,2.5143213,0.10140363,-1.2779301
174,1780383542963980,0.68091977,0.094206095,3.0658472,2.5143213,0.10140363,-1.2779301
175,1780383542973980,0.81197846,-0.3145898,2.9091625,3.4110715,0.23273966,-1.6994271
176,1780383542983980,0.68214005,-0.029530926,3.022649,2.7073548,-0.16554448,-1.3805555
177,1780383542993980,0.9789136,-0.9525554,2.3934696,4.148997,1.4862351,-1.8545868
178,1780383543003980,0.9789136,-0.9525554,2.3934696,4.910135,2.4819455,-1.9651535
179,1780383543013980,0.9789136,-0.9525554,2.3934696,4.910135,2.4819455,-1.9651535
180,1780383543023980,0.9789136,-0.9525554,2.3934696,4.910135,2.4819455,-1.9651535
181,1780383543033980,0.9789136,-0.9525554,2.3934696,4.910135,2.4819455,-1.9651535
182,1780383543043980,0.9789136,-0.9525554,2.3934696,4.910135,2.4819455,-1.9651535
183,1780383543053980,0.9789136,-0.9525554,2.3934696,4.910135,2.4819455,-1.9651535
184,1780383543063980,0.9789136,-0.9525554,2.3934696,4.910135,2.4819455,-1.9651535
185,1780383543073980,0.8180799,-1.334505,1.7489142,6.6700377,4.24307,-1.0433578
186,1780383543083980,1.2388345,-1.3486603,0.021477038,8.087245,4.029878,-0.8570439
187,1780383543093980,1.2388345,-1.3486603,0.021477038,8.087245,4.029878,-0.8570439
188,1780383543103980,1.2224828,-1.3022895,-0.16254212,8.087245,4.029878,-0.8570439
189,1780383543113980,1.2224828,-1.3022895,-0.16254212,8.087245,4.029878,-0.8570439
190,1780383543123980,1.2224828,-1.3022895,-0.16254212,8.087245,4.029878,-0.8570439
191,1780383543133980,1.2224828,-1.3022895,-0.16254212,8.087245,4.029878,-0.8570439
192,1780383543143980,1.2224828,-1.3022895,-0.16254212,8.087245,4.029878,-0.8570439
193,1780383543153980,1.2224828,-1.3022895,-0.16254212,8.087245,4.029878,-0.8570439
194,1780383543163980,1.2224828,-1.3022895,-0.16254212,8.087245,4.029878,-0.8570439
195,1780383543173980,1.2224828,-1.3022895,-0.16254212,8.087245,4.029878,-0.8570439
196,1780383543183980,1.2224828,-1.3022895,-0.16254212,8.087245,4.029878,-0.8570439
197,1780383543193980,-0.24991462,-0.6879974,-1.5722169,3.3041701,2.3054054,-2.6572638
198,1780383543203980,-0.36364532,-0.6660322,-1.9239032,3.9187005,2.176513,-2.1887302
199,1780383543213980,-0.3321619,-0.7426662,-2.2482553,3.9840631,2.2327125,-2.1197023
200,1780383543223980,-0.37926495,-0.80636513,-2.8762147,3.364035,2.2742512,-2.1630738
201,1780383543233980,-0.37926495,-0.80636513,-2.8762147,3.364035,2.2742512,-2.1630738
202,1780383543243980,-0.37926495,-0.80636513,-2.8762147,3.364035,2.2742512,-2.1630738
203,1780383543253980,-0.37926495,-0.80636513,-2.8762147,3.364035,2.2742512,-2.1630738
204,1780383543263980,-0.37926495,-0.80636513,-2.8762147,3.364035,2.2742512,-2.1630738
205,1780383543273980,-0.37926495,-0.80636513,-2.8762147,3.364035,2.2742512,-2.1630738
206,1780383543283980,-0.37926495,-0.80636513,-2.8762147,3.364035,2.2742512,-2.1630738
207,1780383543293980,-1.27886,-0.77048874,-2.818373,-0.37995818,-1.4208726,-1.0812315
208,1780383543303980,-1.2766634,-0.7812273,-2.7300243,-0.86132,-1.7654005,-0.28710666
209,1780383543313980,-1.2559186,-0.76975656,-2.6067755,-1.1753048,-1.8820758,0.17837265
210,1780383543323980,-1.09118,-0.7556012,-2.3331873,-1.4306464,-1.9749273,0.5381723
211,1780383543333980,-0.9730562,-0.74583894,-2.195539,-1.7684549,-2.0922134,1.0012082
212,1780383543343980,-0.7055695,-0.6889736,-1.9129207,-2.3506095,-2.3225098,1.6780468
213,1780383543353980,-0.7055695,-0.6889736,-1.9129207,-2.6786442,-2.398257,1.9578232
214,1780383543363980,-0.3973252,-0.64211464,-1.5312152,-3.1832187,-2.384207,2.3475552
215,1780383543373980,-0.30458343,-0.6433349,-1.4257824,-3.63587,-2.3854287,2.6224444
216,1780383543383980,-0.30458343,-0.6433349,-1.4257824,-3.63587,-2.3854287,2.6224444
217,1780383543393980,-0.30458343,-0.6433349,-1.4257824,-3.63587,-2.3854287,2.6224444
218,1780383543403980,-0.30458343,-0.6433349,-1.4257824,-3.63587,-2.3854287,2.6224444
219,1780383543413980,-0.30458343,-0.6433349,-1.4257824,-3.63587,-2.3854287,2.6224444
220,1780383543423980,-0.30458343,-0.6433349,-1.4257824,-3.63587,-2.3854287,2.6224444
221,1780383543433980,-0.30458343,-0.6433349,-1.4257824,-3.63587,-2.3854287,2.6224444
222,1780383543443980,-0.30458343,-0.6433349,-1.4257824,-3.63587,-2.3854287,2.6224444
223,1780383543453980,0.41465324,-0.68311626,-0.65968674,-4.414723,-3.1209106,2.1245892
224,1780383543463980,0.41465324,-0.68311626,-0.65968674,-4.4171667,-3.1312952,2.0182989
225,1780383543473980,0.47469133,-0.7804951,-0.47810817,-4.4232755,-3.1948252,1.9449949
226,1780383543483980,0.4751795,-0.8241814,-0.43881494,-4.459927,-3.3347135,1.8729129
227,1780383543493980,0.45760733,-0.86103404,-0.3951287,-4.615698,-3.472158,1.8521434
228,1780383543503980,0.45760733,-0.86103404,-0.3951287,-4.615698,-3.472158,1.8521434
229,1780383543513980,0.45760733,-0.86103404,-0.3951287,-4.615698,-3.472158,1.8521434
230,1780383543523980,0.45760733,-0.86103404,-0.3951287,-4.615698,-3.472158,1.8521434
231,1780383543533980,0.45760733,-0.86103404,-0.3951287,-4.615698,-3.472158,1.8521434
232,1780383543543980,0.45760733,-0.86103404,-0.3951287,-4.615698,-3.472158,1.8521434
233,1780383543553980,0.45760733,-0.86103404,-0.3951287,-4.615698,-3.472158,1.8521434
234,1780383543563980,0.7656076,-1.6080933,-0.007565775,-7.68102,-1.817935,1.7012597
235,1780383543573980,0.852492,-1.8265244,0.15302388,-8.142834,-2.2064452,1.4953982
236,1780383543583980,0.895202,-1.8990095,0.43930307,-8.142834,-2.2064452,1.4953982
237,1780383543593980,1.1009423,-1.9641727,1.1700104,-8.297994,-3.2888985,1.4569136
238,1780383543603980,1.1009423,-1.9641727,1.1700104,-8.297994,-3.2888985,1.4569136
239,1780383543613980,1.1946602,-1.9248794,1.4909457,-8.297994,-3.2888985,1.4569136
240,1780383543623980,1.1946602,-1.9248794,1.4909457,-8.297994,-3.2888985,1.4569136
241,1780383543633980,1.1946602,-1.9248794,1.4909457,-8.297994,-3.2888985,1.4569136
242,1780383543643980,1.1946602,-1.9248794,1.4909457,-8.297994,-3.2888985,1.4569136
243,1780383543653980,1.1946602,-1.9248794,1.4909457,-8.297994,-3.2888985,1.4569136
244,1780383543663980,1.1946602,-1.9248794,1.4909457,-8.297994,-3.2888985,1.4569136
245,1780383543673980,1.1946602,-1.9248794,1.4909457,-8.297994,-3.2888985,1.4569136
246,1780383543683980,1.1946602,-1.9248794,1.4909457,-8.297994,-3.2888985,1.4569136
247,1780383543693980,1.1946602,-1.9248794,1.4909457,-8.297994,-3.2888985,1.4569136
248,1780383543703980,1.1946602,-1.9248794,1.4909457,-8.297994,-3.2888985,1.4569136
249,1780383543713980,0.44955346,-0.5645044,2.6565633,-2.8099802,-2.1911736,0.12644911
250,1780383543723980,0.47859627,-0.46078008,2.630449,-2.7324002,-1.9871446,0.29626966
251,1780383543733980,0.47859627,-0.46078008,2.630449,-2.7079656,-1.8661933,0.33475417
252,1780383543743980,0.79269797,-0.28408262,2.770782,-2.6871963,-1.7556267,0.2938262
253,1780383543753980,0.79611474,-0.24649782,2.8415585,-2.6670377,-1.5021176,0.15699236
254,1780383543763980,0.79611474,-0.24649782,2.8415585,-2.6670377,-1.5021176,0.15699236
255,1780383543773980,0.79611474,-0.24649782,2.8415585,-2.6670377,-1.5021176,0.15699236
256,1780383543783980,0.79611474,-0.24649782,2.8415585,-2.6670377,-1.5021176,0.15699236
257,1780383543793980,0.79611474,-0.24649782,2.8415585,-2.6670377,-1.5021176,0.15699236
258,1780383543803980,0.79611474,-0.24649782,2.8415585,-2.6670377,-1.5021176,0.15699236
259,1780383543813980,0.79611474,-0.24649782,2.8415585,-2.6670377,-1.5021176,0.15699236
260,1780383543823980,0.79611474,-0.24649782,2.8415585,-2.6670377,-1.5021176,0.15699236
261,1780383543833980,0.47078642,-0.2328306,3.692342,-0.27305678,-0.23701571,-0.3652974
262,1780383543843980,0.6794554,-0.3184947,3.7394452,0.09285152,-0.112399206,-0.5852089
263,1780383543853980,0.630888,-0.39830142,3.6088746,0.43188173,0.09773844,-0.7819075
264,1780383543863980,0.5288721,-0.4407674,3.5185733,0.9083566,0.72143185,-0.72509706
265,1780383543873980,0.37121108,-0.4651731,3.427052,1.1594223,1.3500122,-0.3231477
266,1780383543883980,0.37121108,-0.4651731,3.427052,1.1594223,1.3500122,-0.3231477
267,1780383543893980,0.37121108,-0.4651731,3.427052,1.1594223,1.3500122,-0.3231477
268,1780383543903980,0.37121108,-0.4651731,3.427052,1.1594223,1.3500122,-0.3231477
269,1780383543913980,0.37121108,-0.4651731,3.427052,1.1594223,1.3500122,-0.3231477
270,1780383543923980,0.37121108,-0.4651731,3.427052,1.1594223,1.3500122,-0.3231477
271,1780383543933980,0.37121108,-0.4651731,3.427052,1.1594223,1.3500122,-0.3231477
272,1780383543943980,0.37121108,-0.4651731,3.427052,1.1594223,1.3500122,-0.3231477
273,1780383543953980,1.3193735,-1.0948408,2.212379,3.6114354,3.5876117,-0.16249016
274,1780383543963980,1.4252943,-1.1485333,2.0610635,3.7110064,3.8203511,-0.118507855
275,1780383543973980,1.5412215,-1.227364,1.9373264,3.7928624,4.1990876,-0.028710667
276,1780383543983980,1.6254213,-1.2991167,1.8336021,3.785532,4.7207665,0.16982053
277,1780383543993980,1.6254213,-1.2991167,1.8336021,3.780645,5.01276,0.27183503
278,1780383544003980,1.6254213,-1.2991167,1.8336021,3.780645,5.01276,0.27183503
279,1780383544013980,1.6254213,-1.2991167,1.8336021,3.780645,5.01276,0.27183503
280,1780383544023980,1.6254213,-1.2991167,1.8336021,3.780645,5.01276,0.27183503
281,1780383544033980,1.6254213,-1.2991167,1.8336021,3.780645,5.01276,0.27183503
282,1780383544043980,1.4460392,-1.2329772,1.2039344,4.2045856,7.0744305,1.087951
283,1780383544053980,1.479719,-1.2656809,1.1258361,4.600426,6.9510355,1.6389514
284,1780383544063980,1.5617223,-1.2956998,1.0023432,4.7397037,6.7806044,1.817935
285,1780383544073980,1.6569047,-1.3113196,0.8742131,4.89975,6.609562,1.9840903
286,1780383544083980,1.8458049,-1.2671453,0.6469958,5.01276,6.582684,2.0702224
287,1780383544093980,1.8458049,-1.2671453,0.6469958,5.01276,6.582684,2.0702224
288,1780383544103980,1.7943089,-1.1744035,0.34802565,5.7873373,7.8435097,3.0445523
289,1780383544113980,1.8135895,-1.2847173,0.2169669,6.7433414,7.1184125,2.3426683
290,1780383544123980,1.5146192,-1.2200422,-0.38463423,7.348709,5.5057282,1.53205
291,1780383544133980,1.5146192,-1.2200422,-0.38463423,7.348709,5.5057282,1.53205
292,1780383544143980,1.5146192,-1.2200422,-0.38463423,7.348709,5.5057282,1.53205
293,1780383544153980,1.5146192,-1.2200422,-0.38463423,7.348709,5.5057282,1.53205
294,1780383544163980,1.5146192,-1.2200422,-0.38463423,7.348709,5.5057282,1.53205
295,1780383544173980,1.5146192,-1.2200422,-0.38463423,7.348709,5.5057282,1.53205
296,1780383544183980,1.5146192,-1.2200422,-0.38463423,7.348709,5.5057282,1.53205
297,1780383544193980,1.5146192,-1.2200422,-0.38463423,7.348709,5.5057282,1.53205
298,1780383544203980,1.5146192,-1.2200422,-0.38463423,7.348709,5.5057282,1.53205
299,1780383544213980,1.1392592,-0.71313524,-1.5919853,6.010914,4.083023,0.6914995
300,1780383544223980,1.6756971,0.71826047,-1.3481722,-0.906524,4.796514,-2.5369234
301,1780383544233980,1.6756971,0.71826047,-1.3481722,-0.906524,4.796514,-2.5369234
302,1780383544243980,-2.451067,2.3641827,0.7480355,0.68416905,-2.474615,0.7629707
303,1780383544253980,-2.451067,2.3641827,0.7480355,0.68416905,-2.474615,0.7629707
304,1780383544263980,-2.451067,2.3641827,0.7480355,0.68416905,-2.474615,0.7629707
305,1780383544273980,-2.451067,2.3641827,0.7480355,0.68416905,-2.474615,0.7629707
306,1780383544283980,-2.451067,2.3641827,0.7480355,0.68416905,-2.474615,0.7629707
307,1780383544293980,-2.451067,2.3641827,0.7480355,0.68416905,-2.474615,0.7629707
308,1780383544303980,-2.451067,2.3641827,0.7480355,0.68416905,-2.474615,0.7629707
309,1780383544313980,-2.451067,2.3641827,0.7480355,0.68416905,-2.474615,0.7629707
310,1780383544323980,-2.451067,2.3641827,0.7480355,0.68416905,-2.474615,0.7629707
311,1780383544333980,-2.451067,2.3641827,0.7480355,0.68416905,-2.474615,0.7629707
312,1780383544343980,-2.451067,2.3641827,0.7480355,0.68416905,-2.474615,0.7629707
313,1780383544353980,-2.451067,2.3641827,0.7480355,0.68416905,-2.474615,0.7629707
314,1780383544363980,-2.451067,2.3641827,0.7480355,0.68416905,-2.474615,0.7629707
315,1780383544373980,-2.451067,2.3641827,0.7480355,0.68416905,-2.474615,0.7629707
316,1780383544383980,-2.451067,2.3641827,0.7480355,0.68416905,-2.474615,0.7629707
317,1780383544393980,-2.451067,2.3641827,0.7480355,0.68416905,-2.474615,0.7629707
318,1780383544403980,-0.26162934,-0.16058967,-2.8342366,0.11056661,-3.7384953,-1.1447614
319,1780383544413980,-0.52203846,-0.011470691,-0.6765267,-0.45020768,-4.0054436,-0.22540927
320,1780383544423980,-0.42661208,-0.016595893,-0.8256457,-0.6377433,-4.2479568,-0.037873644
321,1780383544433980,-0.2933568,-0.13276714,-0.79660285,-0.9285152,-4.4703116,0.15882497
322,1780383544443980,-0.2933568,-0.13276714,-0.79660285,-1.5424347,-4.750088,0.26389378
323,1780383544453980,-0.2677308,-0.14716652,-0.75364876,-1.9822577,-4.8185053,0.2773328
324,1780383544463980,-0.2677308,-0.14716652,-0.75364876,-1.9822577,-4.8185053,0.2773328
325,1780383544473980,-0.2677308,-0.14716652,-0.75364876,-1.9822577,-4.8185053,0.2773328
326,1780383544483980,-0.2677308,-0.14716652,-0.75364876,-1.9822577,-4.8185053,0.2773328
327,1780383544493980,-0.2677308,-0.14716652,-0.75364876,-1.9822577,-4.8185053,0.2773328
328,1780383544503980,-0.2677308,-0.14716652,-0.75364876,-1.9822577,-4.8185053,0.2773328
329,1780383544513980,-0.2677308,-0.14716652,-0.75364876,-1.9822577,-4.8185053,0.2773328
330,1780383544523980,-0.2677308,-0.14716652,-0.75364876,-1.9822577,-4.8185053,0.2773328
331,1780383544533980,-0.2677308,-0.14716652,-0.75364876,-1.9822577,-4.8185053,0.2773328
332,1780383544543980,-0.2677308,-0.14716652,-0.75364876,-1.9822577,-4.8185053,0.2773328
333,1780383544553980,-0.2677308,-0.14716652,-0.75364876,-1.9822577,-4.8185053,0.2773328
334,1780383544563980,0.37804466,-0.93473923,-0.17279254,-4.938235,-4.425108,3.028059
335,1780383544573980,0.46590528,-1.0128375,-0.009030119,-5.1153855,-4.6352453,3.086702
336,1780383544583980,0.71191496,-0.98013395,0.18109047,-5.2418346,-4.5900416,3.163671
337,1780383544593980,0.71191496,-0.98013395,0.18109047,-5.2418346,-4.5900416,3.163671
338,1780383544603980,1.0008788,-0.9576807,0.54888475,-4.8667636,-3.350596,2.8484647
339,1780383544613980,1.0008788,-0.9576807,0.54888475,-4.8667636,-3.350596,2.8484647
340,1780383544623980,1.0008788,-0.9576807,0.54888475,-4.8667636,-3.350596,2.8484647
341,1780383544633980,1.0008788,-0.9576807,0.54888475,-4.8667636,-3.350596,2.8484647
342,1780383544643980,1.0008788,-0.9576807,0.54888475,-4.8667636,-3.350596,2.8484647
343,1780383544653980,1.0008788,-0.9576807,0.54888475,-4.8667636,-3.350596,2.8484647
344,1780383544663980,1.0008788,-0.9576807,0.54888475,-4.8667636,-3.350596,2.8484647
345,1780383544673980,1.0008788,-0.9576807,0.54888475,-4.8667636,-3.350596,2.8484647
346,1780383544683980,1.0008788,-0.9576807,0.54888475,-4.8667636,-3.350596,2.8484647
347,1780383544693980,1.0008788,-0.9576807,0.54888475,-4.8667636,-3.350596,2.8484647
348,1780383544703980,1.0008788,-0.9576807,0.54888475,-4.8667636,-3.350596,2.8484647
349,1780383544713980,1.0008788,-0.9576807,0.54888475,-4.8667636,-3.350596,2.8484647
350,1780383544723980,0.74632704,-1.0819057,2.1589303,-6.38232,-0.49602258,0.2864958
351,1780383544733980,0.31727442,-0.79513854,4.260507,-3.8472292,-1.138042,-1.1771374
352,1780383544743980,0.31727442,-0.79513854,4.260507,-3.1917708,-1.5577064,-1.3952162
353,1780383544753980,0.16034561,-0.8236932,4.363744,-2.5857925,-1.536326,-1.5008959
354,1780383544763980,-0.17498904,-0.78659654,4.36594,-0.96577793,-0.2180789,-1.4514158
355,1780383544773980,-0.17498904,-0.78659654,4.36594,0.0,0.571159,-1.210124
356,1780383544783980,-0.17498904,-0.78659654,4.36594,0.0,0.571159,-1.210124
357,1780383544793980,-0.17498904,-0.78659654,4.36594,0.0,0.571159,-1.210124
358,1780383544803980,-0.17498904,-0.78659654,4.36594,0.0,0.571159,-1.210124
359,1780383544813980,-0.17498904,-0.78659654,4.36594,0.0,0.571159,-1.210124
360,1780383544823980,-0.17498904,-0.78659654,4.36594,0.0,0.571159,-1.210124
361,1780383544833980,-0.17498904,-0.78659654,4.36594,0.0,0.571159,-1.210124
362,1780383544843980,-0.17498904,-0.78659654,4.36594,0.0,0.571159,-1.210124
363,1780383544853980,-0.17498904,-0.78659654,4.36594,0.0,0.571159,-1.210124
364,1780383544863980,-0.17498904,-0.78659654,4.36594,0.0,0.571159,-1.210124
365,1780383544873980,-0.17498904,-0.78659654,4.36594,0.0,0.571159,-1.210124
366,1780383544883980,1.1780643,-0.95426387,1.9775959,6.499606,2.6230555,0.30909783
367,1780383544893980,1.1475571,-0.8705522,1.6722802,7.6162677,2.0751092,-0.6469063
368,1780383544903980,0.7917217,-0.98574716,1.0941086,8.325482,2.950479,-2.044566
369,1780383544913980,0.6823841,-0.6967834,1.1207108,8.450709,3.4208453,-2.08977
370,1780383544923980,0.5645044,-0.9654905,0.8922733,8.6132,4.2540655,-2.048842
371,1780383544933980,0.5645044,-0.9654905,0.8922733,8.6132,4.2540655,-2.048842
372,1780383544943980,0.5645044,-0.9654905,0.8922733,8.6132,4.2540655,-2.048842
373,1780383544953980,0.5645044,-0.9654905,0.8922733,8.6132,4.2540655,-2.048842
374,1780383544963980,0.5645044,-0.9654905,0.8922733,8.6132,4.2540655,-2.048842
375,1780383544973980,0.5645044,-0.9654905,0.8922733,8.6132,4.2540655,-2.048842
376,1780383544983980,0.5645044,-0.9654905,0.8922733,8.6132,4.2540655,-2.048842
377,1780383544993980,0.5645044,-0.9654905,0.8922733,8.6132,4.2540655,-2.048842
378,1780383545003980,0.5645044,-0.9654905,0.8922733,8.6132,4.2540655,-2.048842
379,1780383545013980,0.5645044,-0.9654905,0.8922733,8.6132,4.2540655,-2.048842
380,1780383545023980,0.5645044,-0.9654905,0.8922733,8.6132,4.2540655,-2.048842
381,1780383545033980,0.5645044,-0.9654905,0.8922733,8.6132,4.2540655,-2.048842
382,1780383545043980,0.05588911,-0.34851375,-0.05686534,1.6511687,3.7934732,-0.657291
383,1780383545053980,0.05588911,-0.34851375,-0.05686534,1.6511687,3.7934732,-0.657291
384,1780383545063980,0.05588911,-0.34851375,-0.05686534,1.6511687,3.7934732,-0.657291
385,1780383545073980,0.2877435,-0.48323336,0.0622346,2.9236012,3.0537155,-0.14477506
386,1780383545083980,0.2877435,-0.48323336,0.0622346,2.9236012,3.0537155,-0.14477506
387,1780383545093980,0.2877435,-0.48323336,0.0622346,2.9236012,3.0537155,-0.14477506
388,1780383545103980,0.2877435,-0.48323336,0.0622346,2.9236012,3.0537155,-0.14477506
389,1780383545113980,0.2877435,-0.48323336,0.0622346,2.9236012,3.0537155,-0.14477506
390,1780383545123980,0.2877435,-0.48323336,0.0622346,2.9236012,3.0537155,-0.14477506
391,1780383545133980,0.2877435,-0.48323336,0.0622346,2.9236012,3.0537155,-0.14477506
392,1780383545143980,0.2877435,-0.48323336,0.0622346,2.9236012,3.0537155,-0.14477506
393,1780383545153980,0.2877435,-0.48323336,0.0622346,2.9236012,3.0537155,-0.14477506
394,1780383545163980,0.2877435,-0.48323336,0.0622346,2.9236012,3.0537155,-0.14477506
395,1780383545173980,0.2877435,-0.48323336,0.0622346,2.9236012,3.0537155,-0.14477506
396,1780383545183980,0.2877435,-0.48323336,0.0622346,2.9236012,3.0537155,-0.14477506
397,1780383545193980,0.2877435,-0.48323336,0.0622346,2.9236012,3.0537155,-0.14477506
398,1780383545203980,0.019036464,-0.44662476,0.5051985,2.9236012,3.0537155,-0.14477506
399,1780383545213980,0.019036464,-0.44662476,0.5051985,1.6511687,3.7934732,-0.657291
400,1780383545223980,-0.72875494,0.16254212,0.119099945,-4.754364,-4.5949283,-1.5564847
401,1780383545233980,-1.3479282,0.8551766,1.180993,-1.2791518,-6.427524,-0.61269784
402,1780383545243980,-1.3479282,0.8551766,1.180993,-1.2791518,-6.427524,-0.61269784
403,1780383545253980,-1.3479282,0.8551766,1.180993,-1.2791518,-6.427524,-0.61269784
404,1780383545263980,-1.3479282,0.8551766,1.180993,-1.2791518,-6.427524,-0.61269784
405,1780383545273980,-1.3479282,0.8551766,1.180993,-1.2791518,-6.427524,-0.61269784
406,1780383545283980,-1.3479282,0.8551766,1.180993,-1.2791518,-6.427524,-0.61269784
407,1780383545293980,-1.3479282,0.8551766,1.180993,-1.2791518,-6.427524,-0.61269784
408,1780383545303980,-1.3479282,0.8551766,1.180993,-1.2791518,-6.427524,-0.61269784
409,1780383545313980,-1.3479282,0.8551766,1.180993,-1.2791518,-6.427524,-0.61269784
410,1780383545323980,-1.3479282,0.8551766,1.180993,-1.2791518,-6.427524,-0.61269784
411,1780383545333980,-1.3479282,0.8551766,1.180993,-1.2791518,-6.427524,-0.61269784
412,1780383545343980,-1.3479282,0.8551766,1.180993,-1.2791518,-6.427524,-0.61269784
413,1780383545353980,-0.41977844,0.04637088,-1.3118078,-2.2284365,-3.1789427,0.8943067
414,1780383545363980,-0.41977844,0.04637088,-1.3118078,-2.2284365,-3.1789427,0.8943067
415,1780383545373980,-0.38609856,0.021965152,-0.7992875,-2.2284365,-3.1789427,0.8943067
416,1780383545383980,-0.3287451,0.0019524579,-0.7485236,-1.7843374,-3.513086,1.3078625
417,1780383545393980,-0.25699228,-0.012935034,-0.73583263,-1.7843374,-3.513086,1.3078625
418,1780383545403980,-0.25699228,-0.012935034,-0.73583263,-1.7843374,-3.513086,1.3078625
419,1780383545413980,-0.25699228,-0.012935034,-0.73583263,-1.7843374,-3.513086,1.3078625
420,1780383545423980,-0.25699228,-0.012935034,-0.73583263,-1.7843374,-3.513086,1.3078625
421,1780383545433980,-0.25699228,-0.012935034,-0.73583263,-1.7843374,-3.513086,1.3078625
422,1780383545443980,-0.25699228,-0.012935034,-0.73583263,-1.7843374,-3.513086,1.3078625
423,1780383545453980,-0.25699228,-0.012935034,-0.73583263,-1.7843374,-3.513086,1.3078625
424,1780383545463980,-0.25699228,-0.012935034,-0.73583263,-1.7843374,-3.513086,1.3078625
425,1780383545473980,-0.25699228,-0.012935034,-0.73583263,-1.7843374,-3.513086,1.3078625
426,1780383545483980,-0.25699228,-0.012935034,-0.73583263,-1.7843374,-3.513086,1.3078625
427,1780383545493980,-0.25699228,-0.012935034,-0.73583263,-1.7843374,-3.513086,1.3078625
428,1780383545503980,0.13496366,-0.18597162,-0.6879974,-1.9853121,-3.7274997,1.5387696
429,1780383545513980,0.473227,-0.80587703,-0.3482697,-3.8020253,-4.138001,1.599856
430,1780383545523980,0.53350914,-0.86933196,-0.29067218,-4.1422772,-4.2137485,1.9749273
431,1780383545533980,0.59110665,-0.9232686,-0.25333142,-4.301713,-4.1587706,2.143526
432,1780383545543980,0.59110665,-0.9232686,-0.25333142,-4.543005,-3.9632938,2.39337
433,1780383545553980,0.75169635,-0.9864794,-0.18450728,-4.543005,-3.9632938,2.39337
434,1780383545563980,0.75169635,-0.9864794,-0.18450728,-4.543005,-3.9632938,2.39337
435,1780383545573980,0.75169635,-0.9864794,-0.18450728,-4.543005,-3.9632938,2.39337
436,1780383545583980,0.75169635,-0.9864794,-0.18450728,-4.543005,-3.9632938,2.39337
437,1780383545593980,0.75169635,-0.9864794,-0.18450728,-4.543005,-3.9632938,2.39337
438,1780383545603980,0.75169635,-0.9864794,-0.18450728,-4.543005,-3.9632938,2.39337
439,1780383545613980,0.75169635,-0.9864794,-0.18450728,-4.543005,-3.9632938,2.39337
440,1780383545623980,0.75169635,-0.9864794,-0.18450728,-4.543005,-3.9632938,2.39337
441,1780383545633980,0.75169635,-0.9864794,-0.18450728,-4.543005,-3.9632938,2.39337
442,1780383545643980,0.75169635,-0.9864794,-0.18450728,-4.543005,-3.9632938,2.39337
443,1780383545653980,0.75169635,-0.9864794,-0.18450728,-4.543005,-3.9632938,2.39337
444,1780383545663980,0.5098356,-1.0523748,2.5157423,-4.742147,-0.27672195,-1.7971655
445,1780383545673980,0.20525214,-0.89300543,2.4793775,-4.397619,0.1282817,-1.5632042
446,1780383545683980,0.04905551,-0.8437059,2.4691272,-4.0500364,-0.12217305,-1.0409144
447,1780383545693980,0.10909359,-1.0557917,2.6592476,-3.7867537,-0.6469063,-0.8246681
448,1780383545703980,0.10909359,-1.0557917,2.6592476,-3.3334916,-1.3811663,-0.7104363
449,1780383545713980,0.10909359,-1.0557917,2.6592476,-3.3334916,-1.3811663,-0.7104363
450,1780383545723980,0.10909359,-1.0557917,2.6592476,-3.3334916,-1.3811663,-0.7104363
451,1780383545733980,0.10909359,-1.0557917,2.6592476,-3.3334916,-1.3811663,-0.7104363
452,1780383545743980,0.10909359,-1.0557917,2.6592476,-3.3334916,-1.3811663,-0.7104363
453,1780383545753980,0.10909359,-1.0557917,2.6592476,-3.3334916,-1.3811663,-0.7104363
454,1780383545763980,0.10909359,-1.0557917,2.6592476,-3.3334916,-1.3811663,-0.7104363
455,1780383545773980,0.10909359,-1.0557917,2.6592476,-3.3334916,-1.3811663,-0.7104363
456,1780383545783980,0.10909359,-1.0557917,2.6592476,-3.3334916,-1.3811663,-0.7104363
457,1780383545793980,0.10909359,-1.0557917,2.6592476,-3.3334916,-1.3811663,-0.7104363
458,1780383545803980,0.10909359,-1.0557917,2.6592476,-3.3334916,-1.3811663,-0.7104363
459,1780383545813980,0.10909359,-1.0557917,2.6592476,-3.3334916,-1.3811663,-0.7104363
460,1780383545823980,-0.07272906,-1.1678139,3.6950269,-1.6059648,-1.6175711,0.65668017
461,1780383545833980,0.45052966,-0.92912596,3.4041104,2.0189097,0.8258898,1.056186
462,1780383545843980,0.59867245,-0.9413288,3.2757363,2.6529877,1.1172725,1.0012082
463,1780383545853980,0.72533816,-0.9601213,3.1654224,3.0634892,1.2131784,0.93951076
464,1780383545863980,0.72533816,-0.9601213,3.1654224,3.6890152,1.4831808,0.689056
465,1780383545873980,0.72533816,-0.9601213,3.1654224,3.6890152,1.4831808,0.689056
466,1780383545883980,0.72533816,-0.9601213,3.1654224,3.6890152,1.4831808,0.689056
467,1780383545893980,0.72533816,-0.9601213,3.1654224,3.6890152,1.4831808,0.689056
468,1780383545903980,0.72533816,-0.9601213,3.1654224,3.6890152,1.4831808,0.689056
469,1780383545913980,0.72533816,-0.9601213,3.1654224,3.6890152,1.4831808,0.689056
470,1780383545923980,0.72533816,-0.9601213,3.1654224,3.6890152,1.4831808,0.689056
471,1780383545933980,0.72533816,-0.9601213,3.1654224,3.6890152,1.4831808,0.689056
472,1780383545943980,0.72533816,-0.9601213,3.1654224,3.6890152,1.4831808,0.689056
473,1780383545953980,0.72533816,-0.9601213,3.1654224,3.6890152,1.4831808,0.689056
474,1780383545963980,0.72533816,-0.9601213,3.1654224,3.6890152,1.4831808,0.689056
475,1780383545973980,0.91619086,-0.83760446,2.9120913,4.0457606,1.7379116,0.48197266
476,1780383545983980,0.75145227,-0.36852646,1.0496902,2.3047945,3.8197403,-1.1410962
477,1780383545993980,0.75145227,-0.36852646,1.0496902,1.8112154,3.7085629,-0.9242391
478,1780383546003980,0.7746377,-0.40952805,1.2900866,2.0818288,2.9248228,-0.49663344
479,1780383546013980,0.7746377,-0.40952805,1.2900866,2.3365595,2.8600712,-0.4783075
480,1780383546023980,0.82296103,-0.46248847,1.2432276,2.3365595,2.8600712,-0.4783075
481,1780383546033980,0.82296103,-0.46248847,1.2432276,2.3365595,2.8600712,-0.4783075
482,1780383546043980,0.82296103,-0.46248847,1.2432276,2.3365595,2.8600712,-0.4783075
483,1780383546053980,0.82296103,-0.46248847,1.2432276,2.3365595,2.8600712,-0.4783075
484,1780383546063980,0.82296103,-0.46248847,1.2432276,2.3365595,2.8600712,-0.4783075
485,1780383546073980,0.82296103,-0.46248847,1.2432276,2.3365595,2.8600712,-0.4783075
486,1780383546083980,0.82296103,-0.46248847,1.2432276,2.3365595,2.8600712,-0.4783075
487,1780383546093980,0.67579454,-0.7316837,0.33069757,4.8130074,4.478864,-0.40500367
488,1780383546103980,0.67579454,-0.7316837,0.33069757,5.113553,4.4293838,-0.44165558
489,1780383546113980,0.64260274,-0.7353445,0.18865626,5.461746,4.4238863,-0.5143485
490,1780383546123980,0.54912883,-0.70337296,0.015375607,5.667608,4.497801,-0.5571091
491,1780383546133980,0.34290043,-0.58158845,-0.33362624,5.5136695,4.624861,-0.47036624
492,1780383546143980,0.34290043,-0.58158845,-0.33362624,5.095838,4.6663995,-0.35796702
493,1780383546153980,0.34290043,-0.58158845,-0.33362624,5.095838,4.6663995,-0.35796702
494,1780383546163980,0.34290043,-0.58158845,-0.33362624,5.095838,4.6663995,-0.35796702
495,1780383546173980,0.34290043,-0.58158845,-0.33362624,5.095838,4.6663995,-0.35796702
496,1780383546183980,0.34290043,-0.58158845,-0.33362624,5.095838,4.6663995,-0.35796702
497,1780383546193980,0.34290043,-0.58158845,-0.33362624,5.095838,4.6663995,-0.35796702
498,1780383546203980,0.34290043,-0.58158845,-0.33362624,5.095838,4.6663995,-0.35796702
499,1780383546213980,0.07297312,-0.11006982,-0.7185045,1.9877555,4.257731,0.8374963
500,1780383546223980,0.04515059,0.08175918,-0.74535084,2.6218336,3.2082644,1.0012082
501,1780383546233980,0.04515059,0.08175918,-0.74535084,2.9260445,3.0500503,1.0922271
502,1780383546243980,0.07199689,0.15107143,-0.86371857,4.0152173,2.8802297,1.1667526
503,1780383546253980,0.1432616,0.14936304,-1.0860548,4.0152173,2.8802297,1.1667526
504,1780383546263980,0.3109289,0.04905551,-1.7125497,-3.3053918,-2.7366762,-0.6377433
505,1780383546273980,1.9336655,0.22624107,-7.9962916,-3.3053918,-2.7366762,-0.6377433
506,1780383546283980,-1.0606729,1.1192465,-3.133451,-6.5154886,-3.500258,-0.39584067
507,1780383546293980,-0.27358818,0.86567104,-0.77561396,-6.024353,-0.625526,-0.08857546
508,1780383546303980,-0.72826684,0.9366917,0.22526483,-1.9321668,1.8973475,-0.37018433
509,1780383546313980,-1.1990532,0.9796458,0.7829357,0.71776664,1.7641789,0.47036624
510,1780383546323980,-1.453605,0.9288819,0.8993509,2.610227,1.5974126,1.3616186
511,1780383546333980,-1.1502419,0.7482795,0.5515694,4.6633453,1.6181821,2.3469443
512,1780383546343980,-1.1502419,0.7482795,0.5515694,5.8588085,0.38362336,2.0555615
513,1780383546353980,0.6716455,0.04148973,-1.9590476,5.2913146,-0.72143185,1.4672983
514,1780383546363980,0.70068836,0.01586372,-2.9223413,4.1239514,-1.949271,0.7031059
515,1780383546373980,0.2945771,0.1398448,-3.1873877,4.1239514,-1.949271,0.7031059
516,1780383546383980,0.09152147,0.23161033,-3.1925128,1.382999,-3.186273,-0.19792034
517,1780383546393980,0.09152147,0.23161033,-3.1925128,-0.41233405,-2.9810224,-0.3182608
518,1780383546403980,-0.03636453,0.09054524,-2.579685,-0.41233405,-2.9810224,-0.3182608
519,1780383546413980,-0.093717985,-0.11275445,-1.274955,-4.3053784,-1.9871446,-0.39095375
520,1780383546423980,-0.1300825,-0.091033354,-0.98330665,-4.1300597,-2.1368067,-0.37507126
521,1780383546433980,-0.19768637,0.013667206,-0.58134437,-3.7360518,-2.3646593,-0.32070425
522,1780383546443980,-0.1901206,0.04148973,-0.49568027,-3.249803,-2.5595255,-0.24129178
523,1780383546453980,-0.1901206,0.04148973,-0.49568027,-2.8704557,-2.6468792,-0.19364429
524,1780383546463980,-0.1444819,0.04271002,-0.5100796,-2.0347922,-2.8661797,-0.14477506
525,1780383546473980,-0.107629254,0.025626011,-0.5688974,-1.8478674,-3.0140092,-0.15393804
526,1780383546483980,-0.060038086,-0.036608588,-0.716308,-1.7146988,-3.19116,-0.16615535
527,1780383546493980,-0.060038086,-0.036608588,-0.716308,-1.7146988,-3.3243287,-0.1740966
528,1780383546503980,0.0017084008,-0.10372432,-0.81246656,-1.998751,-3.4397821,-0.1704314
529,1780383546513980,0.056377225,-0.15961345,-0.8432178,-2.3005185,-3.4110715,-0.15760323
530,1780383546523980,0.19963883,-0.32044718,-0.8156393,-2.6548204,-3.3518176,-0.1600467
531,1780383546533980,0.27456442,-0.40659937,-0.7839119,-2.9290988,-3.2907312,-0.18875736
532,1780383546543980,0.3448529,-0.4927516,-0.73339206,-3.6114354,-3.0451632,-0.41355577
533,1780383546553980,0.3909797,-0.5950116,-0.6884855,-3.8521163,-2.9791899,-0.52656585
534,1780383546563980,0.41196862,-0.6706693,-0.65138876,-4.211916,-2.9633074,-0.66950834
535,1780383546573980,0.43149322,-0.8073414,-0.55059314,-5.395773,-3.091589,-1.006095
536,1780383546583980,0.44882128,-0.88983274,-0.4724948,-5.788559,-3.1239648,-1.1038336
537,1780383546593980,0.39830142,-1.1392592,-0.03929322,-6.1123176,-3.0952542,-1.1643091
538,1780383546603980,0.345341,-1.1870944,0.22111587,-6.294966,-3.097087,-1.1386528
539,1780383546613980,0.32166746,-1.2053988,0.75291663,-6.055507,-3.897931,-0.52473325
540,1780383546623980,0.5876899,-1.1902672,1.0933765,-5.597358,-4.198477,-0.2125811
541,1780383546633980,0.9354714,-1.1048472,1.2136967,-4.5808783,-4.3921213,0.1142318
542,1780383546643980,1.108508,-1.0001466,1.0767806,-4.1129556,-4.456873,0.009773844
543,1780383546653980,1.1229074,-0.9261973,1.1258361,-4.1496077,-4.404949,-0.055588737
544,1780383546663980,1.1575636,-0.86323047,1.3074148,-4.1905355,-5.326745,-0.10751228
545,1780383546673980,1.3655003,-0.9015475,1.8270127,-3.98895,-5.5100045,-0.12461651
546,1780383546683980,1.513643,-0.88226694,2.1242743,-3.98895,-5.5100045,-0.12461651
547,1780383546693980,1.513643,-0.88226694,2.1242743,-3.631594,-5.433646,-0.14966199
548,1780383546703980,1.5441502,-0.71142685,2.299019,-2.8704557,-4.8356094,-0.28955013
549,1780383546713980,1.5578175,-0.7905014,2.2233615,-2.5650232,-4.679228,-0.46609017
550,1780383546723980,1.3122959,-0.541319,2.3666232,-1.6841555,-4.5039096,-1.0122037
551,1780383546733980,0.9772052,-0.46663743,2.1923664,-1.1685852,-4.2394047,-1.2431108
552,1780383546743980,0.827354,-0.5994046,1.8353105,-1.1685852,-3.948633,-1.2486086
553,1780383546753980,0.7475473,-0.61673266,1.9090158,-1.6646078,-3.7342193,-1.1441506
554,1780383546763980,0.7285109,-0.6657882,2.1237862,-2.1361957,-3.7152824,-0.9108001
555,1780383546773980,0.67481834,-0.66798466,2.4164107,-2.3115141,-3.4788775,-0.4361578
556,1780383546783980,0.54253924,-0.53106856,2.791771,-2.3115141,-3.4788775,-0.4361578
557,1780383546793980,0.54253924,-0.53106856,2.791771,-2.1520782,-3.105639,-0.3286455
558,1780383546803980,0.65163285,-0.605262,2.9067218,-2.2510383,-2.1551325,-0.18997909
559,1780383546813980,0.652365,-0.6382097,3.1178312,-2.2510383,-2.1551325,-0.18997909
560,1780383546823980,0.6211257,-0.6545615,3.5346813,-2.9883528,-1.3023647,-0.02076942
561,1780383546833980,0.46736962,-0.7067898,4.2731986,-2.770274,-1.1887437,-0.13072516
562,1780383546843980,0.25723633,-0.6740861,4.529947,-2.770274,-1.1887437,-0.13072516
563,1780383546853980,0.099575356,-0.656514,4.6187835,-0.62125,-0.21319197,-0.1423316
564,1780383546863980,0.099575356,-0.656514,4.6187835,-0.62125,-0.21319197,-0.1423316
565,1780383546873980,0.099575356,-0.656514,4.6187835,-0.62125,-0.21319197,-0.1423316
566,1780383546883980,0.20134723,-0.74461865,3.980574,1.8154916,0.8863655,0.70371675
567,1780383546893980,0.29872608,-0.7494998,3.8436577,2.1398609,1.1276573,0.75869465
568,1780383546903980,0.4053791,-0.78415596,3.7208967,2.371379,1.378112,0.7641924
569,1780383546913980,0.528384,-0.810026,3.467077,2.6670377,1.8069394,0.80756384
570,1780383546923980,0.6357691,-0.8049008,3.3213751,2.9248228,2.2791383,0.929126
571,1780383546933980,0.75486904,-0.827354,3.2044718,3.331659,2.8441887,1.0525209
572,1780383546943980,0.75486904,-0.827354,3.2044718,3.331659,2.8441887,1.0525209
573,1780383546953980,1.0252845,-0.882511,2.8701131,3.8325686,3.1569517,0.9602802
574,1780383546963980,1.1988091,-0.92937,2.604579,4.4935246,3.6438112,0.79168135
575,1780383546973980,1.274467,-0.92937,2.4517992,4.5888195,3.8313468,0.7678576
576,1780383546983980,1.274467,-0.92937,2.4517992,4.5888195,3.8313468,0.7678576
577,1780383546993980,1.4272468,-0.9247329,2.0923028,4.7067165,4.3090434,0.602924
578,1780383547003980,1.415044,-0.88055855,1.9922394,4.753753,4.6169195,0.41783184
579,1780383547013980,1.415044,-0.88055855,1.9922394,4.753753,4.6169195,0.41783184
580,1780383547023980,1.4443307,-0.81441903,1.7706354,4.8020115,4.8044553,0.2510656
581,1780383547033980,1.6617858,-0.9020356,1.6093135,4.794681,4.768414,0.14538592
582,1780383547043980,1.7584325,-0.95694846,1.5739251,4.900972,4.330424,-0.5742133
583,1780383547053980,1.75648,-0.9715919,1.5434179,4.900972,4.330424,-0.5742133
584,1780383547063980,1.5365844,-0.895446,1.4260265,5.0842314,4.3627996,-0.8753699
585,1780383547073980,1.355738,-0.8437059,1.1370627,5.539326,5.128214,-1.0952814
586,1780383547083980,1.3576905,-0.8639627,0.94865054,5.539326,5.128214,-1.0952814
587,1780383547093980,1.3576905,-0.8639627,0.94865054,5.482516,5.448918,-0.90285885
588,1780383547103980,1.4770344,-0.8881243,0.5344854,5.4379225,5.5234437,-0.8582657
589,1780383547113980,1.4985116,-0.8542004,0.42587993,5.2748213,5.5106153,-0.8246681
590,1780383547123980,1.4904575,-0.8005078,0.31947094,5.2076263,5.461746,-0.86254174
591,1780383547133980,1.4743499,-0.7721971,0.18401916,5.1648655,5.3633966,-0.9645562
592,1780383547143980,1.4477476,-0.78757274,0.10909359,5.2027392,5.222898,-1.1160508
593,1780383547153980,1.3935668,-0.77756643,0.033923957,5.2687125,5.094616,-1.2443326
594,1780383547163980,1.2503053,-0.7700006,-0.16449459,5.530774,4.7800207,-1.6242907
595,1780383547173980,1.2503053,-0.7700006,-0.16449459,5.6285124,4.5998154,-1.8716911
596,1780383547183980,1.0391958,-0.83077085,-0.44149956,5.6743274,4.4898596,-2.0561724
597,1780383547193980,0.9096014,-0.86664724,-0.5835409,5.580865,4.280944,-2.4721715
598,1780383547203980,0.7397375,-0.89398164,-0.77634615,5.4281487,4.2216897,-2.547308
599,1780383547213980,0.37877685,-0.844194,-1.1412116,5.087286,4.1764855,-2.5399778
600,1780383547223980,0.043930303,-0.7285109,-1.5329236,3.2583551,4.232685,-1.9004018
601,1780383547233980,-0.082003236,-0.64431113,-1.6730124,2.415972,4.442823,-1.5063937
602,1780383547243980,-0.119099945,-0.56011134,-1.7079126,1.6933185,4.745201,-1.1007792
603,1780383547253980,-0.11031388,-0.5649925,-1.615659,1.3793337,5.013371,-0.8246681
604,1780383547263980,-0.1483868,-0.5015376,-1.5436621,1.3322971,5.1434855,-0.50823987
605,1780383547273980,-0.1483868,-0.5015376,-1.5436621,1.3322971,5.1434855,-0.50823987
606,1780383547283980,-0.21599068,-0.27602875,-1.7530633,2.4538457,3.0567696,0.30482176
607,1780383547293980,-0.21599068,-0.27602875,-1.7530633,2.4538457,3.0567696,0.30482176
608,1780383547303980,1.0262607,-0.08371163,-7.9962916,-4.8942523,-6.324288,-1.2186762
609,1780383547313980,-1.1370627,-0.71045065,-4.2539177,-5.2998667,-2.2046127,0.18509217
610,1780383547323980,-1.1048472,0.23893206,-2.7573588,-4.9113564,0.7086037,0.8558222
611,1780383547333980,-1.2485968,0.340948,-1.2817887,-4.9113564,0.7086037,0.8558222
612,1780383547343980,-1.1956364,0.3248402,-0.61722076,-1.2754866,2.08977,1.0238101
613,1780383547353980,-0.8339436,0.24600971,-0.6872652,2.1917844,1.1111639,1.8338175
614,1780383547363980,-0.50885934,0.0034168016,-0.8983747,4.92113,0.032375857,2.4104743
615,1780383547373980,-0.28164205,-0.20329969,-1.0831261,4.92113,0.032375857,2.4104743
616,1780383547383980,-0.06589546,-0.28115395,-1.5356082,5.421429,-1.3420709,2.425746
617,1780383547393980,0.18182266,-0.46492904,-2.732709,4.5814896,-2.6218336,2.1832323
618,1780383547403980,0.07224095,-0.45297024,-3.1566365,3.6511416,-3.4422257,1.9682078
619,1780383547413980,0.07224095,-0.45297024,-3.1566365,0.53878313,-3.7977493,1.7507398
620,1780383547423980,-0.03904916,-0.3785328,-3.014107,-0.62980205,-3.3701437,1.8173242
621,1780383547433980,-0.0034168016,-0.47981656,-2.4110415,-1.9401081,-2.8081474,1.9065105
622,1780383547443980,0.009030119,-0.53717,-1.6759411,-3.6694674,-2.4410176,1.7104226
623,1780383547453980,-0.051252022,-0.511544,-1.360131,-3.659083,-2.8087585,1.7146988
624,1780383547463980,-0.10421244,-0.4898229,-1.1558552,-3.659083,-2.8087585,1.7146988
625,1780383547473980,-0.10421244,-0.4898229,-1.1558552,-3.2345314,-3.4367278,1.9737056
626,1780383547483980,-0.09152147,-0.44540447,-0.8246695,-2.8845057,-3.6713002,2.1838431
627,1780383547493980,-0.0156196635,-0.48006064,-0.818568,-2.4080307,-3.9290853,2.5014932
628,1780383547503980,0.18182266,-0.52960426,-0.93107843,-2.4080307,-3.9290853,2.5014932
629,1780383547513980,0.30043447,-0.55645055,-0.9784255,-2.4740043,-3.8124099,2.7097983
630,1780383547523980,0.39537275,-0.5954997,-0.98208636,-3.0127873,-3.5527923,2.6933048
631,1780383547533980,0.4876264,-0.65334123,-0.9484064,-3.378085,-3.4092388,2.6163359
632,1780383547543980,0.5637722,-0.75999427,-0.86469483,-3.378085,-3.4092388,2.6163359
633,1780383547553980,0.5725583,-0.83833665,-0.8156393,-4.044539,-3.199712,2.4807239
634,1780383547563980,0.5757311,-0.9257092,-0.759018,-4.828279,-3.015231,2.4874432
635,1780383547573980,0.5954997,-1.0101529,-0.6889736,-5.128214,-3.0085113,2.5344799
636,1780383547583980,0.6369894,-1.1353543,-0.47054234,-5.128214,-3.0085113,2.5344799
637,1780383547593980,0.71996886,-1.2561626,-0.3333822,-5.9687643,-3.7836993,2.878397
638,1780383547603980,0.79587066,-1.3801438,-0.1769415,-5.9687643,-3.7836993,2.878397
639,1780383547613980,0.8793382,-1.4843562,-0.031239327,-5.847813,-4.4501534,3.186273
640,1780383547623980,0.9654905,-1.5539125,0.09225364,-5.847813,-4.4501534,3.186273
641,1780383547633980,1.2373703,-1.7188951,0.49397188,-5.425094,-5.5063396,3.4568865
642,1780383547643980,1.2373703,-1.7188951,0.49397188,-5.425094,-5.5063396,3.4568865
643,1780383547653980,1.3384099,-1.842144,0.7072779,-4.967556,-5.499009,3.477045
644,1780383547663980,1.3694052,-1.9392788,0.75218445,-4.6810603,-5.091562,3.6383133
645,1780383547673980,1.445795,-2.007615,0.7050814,-4.283387,-4.0927973,4.166101
646,1780383547683980,1.5656272,-2.1059701,0.67506236,-4.1001277,-4.0225477,4.401895
647,1780383547693980,1.7555038,-2.2553332,0.72167724,-3.9193115,-4.6773953,4.5069637
648,1780383547703980,1.8301853,-2.3563728,0.76511943,-3.767206,-5.5045066,4.510018
649,1780383547713980,1.8872948,-2.4449656,0.80294836,-3.5527923,-6.574743,4.468479
650,1780383547723980,1.9724706,-2.591644,0.89080894,-3.2155948,-7.153232,4.589431
651,1780383547733980,2.1372094,-2.8637679,0.94572186,-2.896723,-6.6975265,4.7751336
652,1780383547743980,1.8340902,-2.9489436,1.0814177,-2.5760188,-6.2796946,4.918687
653,1780383547753980,1.8340902,-2.9489436,1.0814177,-2.147802,-5.991977,6.042068
654,1780383547763980,1.666667,-2.890614,1.0836142,-1.8295414,-5.785505,7.0054026
655,1780383547773980,1.666667,-2.890614,1.0836142,-1.8295414,-5.785505,7.0054026
656,1780383547783980,1.666667,-2.890614,1.0836142,-1.8295414,-5.785505,7.0054026
657,1780383547793980,1.666667,-2.890614,1.0836142,-1.8295414,-5.785505,7.0054026
658,1780383547803980,1.666667,-2.890614,1.0836142,-1.8295414,-5.785505,7.0054026
659,1780383547813980,2.2826674,-3.0194762,1.0933765,-1.0677924,-5.007262,7.5997744
660,1780383547823980,2.2826674,-3.0194762,1.0933765,-1.4501941,-5.7726765,7.698124
661,1780383547833980,2.8398502,-2.984332,0.9623177,-2.1410828,-3.3573153,7.605883
662,1780383547843980,3.4028902,-2.3890765,1.5507398,-1.1673635,-5.7183094,7.9045963
663,1780383547853980,2.8798754,-2.924294,0.88641596,-1.0677924,-5.007262,7.5997744
664,1780383547863980,2.51623,-2.8984237,1.5524482,-1.0677924,-5.007262,7.5997744
665,1780383547873980,4.745205,-1.2649487,1.6310346,-3.962072,0.5888741,5.086064
666,1780383547883980,4.7674146,-1.0211354,2.0012693,-3.3921347,-1.3200798,5.359121
667,1780383547893980,4.2497687,-1.0577441,3.103432,-3.3921347,-1.3200798,5.359121
668,1780383547903980,6.0252852,1.0772687,3.1866555,-3.3921347,-1.3200798,6.921103
669,1780383547913980,7.9950714,1.5612342,5.721434,-2.8716774,-0.19181168,6.7335677
670,1780383547923980,7.9950714,2.2223854,5.309953,-0.7470882,0.59498274,4.4635925
671,1780383547933980,7.9950714,2.3273299,4.48382,1.7165314,2.0024164,1.9260582
672,1780383547943980,7.9950714,1.7723436,3.4736667,3.5417967,1.8081611,-3.0659328
673,1780383547953980,6.7803984,-0.01415532,2.5850544,4.0579777,1.496009,-5.743966
674,1780383547963980,4.8860264,-1.7596527,2.145019,4.546059,1.0280862,-7.7170606
675,1780383547973980,4.8860264,-1.7596527,2.145019,5.108055,-0.29077184,-9.400605
676,1780383547983980,4.0747795,-2.403964,1.9988288,5.1104984,-0.9963212,-9.589973
677,1780383547993980,3.6059456,-2.7597995,1.8091964,4.776966,-1.0494665,-9.585087
678,1780383548003980,3.2430327,-2.958462,1.2068632,4.2357397,-0.50518554,-9.652282
679,1780383548013980,2.843267,-3.0214286,1.1875826,1.210735,4.641965,-10.277197
680,1780383548023980,2.843267,-3.0214286,1.1875826,1.210735,4.641965,-10.277197
681,1780383548033980,2.455216,-2.8317962,1.940011,0.8527679,7.379252,-9.421986
682,1780383548043980,2.5101287,-2.681945,2.1352568,0.8527679,7.379252,-9.421986
683,1780383548053980,2.6043348,-2.545273,2.2821794,3.300505,5.8239894,-7.3132787
684,1780383548063980,2.741251,-2.4932888,2.2858403,4.464814,4.7116036,-6.6627073
685,1780383548073980,3.1798217,-2.4576566,1.7716117,5.2418346,4.0091085,-6.329786
686,1780383548083980,3.326256,-2.4230003,1.3486603,6.0952134,2.9944615,-6.3175683
687,1780383548093980,3.3833656,-2.3297706,0.852492,5.8636956,2.983466,-6.5387015
688,1780383548103980,3.2152102,-2.1760144,0.30629185,5.23145,3.1991012,-6.8783426
689,1780383548113980,3.055841,-2.1574662,0.22258021,4.443434,3.4831536,-7.1691146
690,1780383548123980,2.8542495,-2.1447752,0.2630937,3.6994,3.7653735,-7.374976
691,1780383548133980,2.5750482,-2.127691,0.35193056,2.85213,4.2106943,-7.4464474
692,1780383548143980,1.8772882,-2.0244548,0.5103237,2.584571,4.338365,-7.3138895
693,1780383548153980,1.7127937,-1.9629525,0.52423495,2.375044,4.4098363,-6.954701
694,1780383548163980,1.7127937,-1.9629525,0.52423495,2.375044,4.4098363,-6.954701
695,1780383548173980,1.4570218,-1.8768003,0.5266756,2.3243423,3.8887682,-6.436076
696,1780383548183980,1.1844097,-1.7459855,0.5684093,2.3512204,3.6138787,-6.257704
697,1780383548193980,1.0609169,-1.679602,0.5730464,2.557082,3.436117,-5.839261
698,1780383548203980,0.93278676,-1.6088253,0.5603554,2.7305677,3.44528,-5.542991
699,1780383548213980,0.93278676,-1.6088253,0.5603554,2.7305677,3.44528,-5.542991
700,1780383548223980,0.6740861,-1.4262705,0.40147418,3.0390546,3.4929276,-4.905859
701,1780383548233980,0.64089435,-1.3523211,0.27822527,3.1789427,3.5210273,-4.533842
702,1780383548243980,0.64089435,-1.3523211,0.27822527,3.3567045,3.4110715,-4.0372086
703,1780383548253980,0.61502427,-1.2930154,0.22575295,3.4336736,3.2907312,-3.8539488
704,1780383548263980,0.5217944,-1.1814811,0.06955632,3.4293976,3.0427198,-3.63587
705,1780383548273980,0.4549227,-1.1617125,0.020012695,3.2223141,3.1429017,-3.503312
706,1780383548283980,0.4549227,-1.1617125,0.020012695,3.2223141,3.1429017,-3.503312
707,1780383548293980,0.17620933,-1.0186949,-0.18938842,2.8991663,3.689626,-3.2119296
708,1780383548303980,0.17620933,-1.0186949,-0.18938842,2.8991663,3.689626,-3.2119296
709,1780383548313980,0.11324256,-0.9613415,-0.26406994,2.6621506,4.223522,-2.969416
710,1780383548323980,0.05906185,-0.88104665,-0.3577879,2.6621506,4.223522,-2.969416
711,1780383548333980,0.017572122,-0.8088057,-0.43417785,1.3445144,6.037792,-1.7916678
712,1780383548343980,-0.119343996,-0.6587105,-0.48787045,0.9993755,6.055507,-1.3811663
713,1780383548353980,-0.08151512,-0.6208816,-0.47103047,0.7165449,5.601023,-0.6646214
714,1780383548363980,-0.022697324,-0.5469323,-0.55010504,0.7318166,5.1532593,-0.15149458
715,1780383548373980,0.13276714,-0.5047104,-0.63967407,0.7318166,5.1532593,-0.15149458
716,1780383548383980,0.16351835,-0.4300289,-0.7175283,0.9859365,5.0261993,0.062308256
717,1780383548393980,0.12935033,-0.27944556,-0.8346757,1.178359,4.9919906,0.087964594
718,1780383548403980,0.06980037,-0.174745,-0.9706156,2.1184807,4.6804495,0.023823744
719,1780383548413980,-0.27139166,-0.09493827,-1.688632,2.6755898,4.0958514,-0.048258353
720,1780383548423980,1.0069802,0.17791773,-7.9962916,-3.7189476,-4.3346996,-1.1050552
721,1780383548433980,-0.75145227,-1.0211354,-7.140627,-6.326731,-3.458719,-0.13988814
722,1780383548443980,-1.4904575,0.4041588,-3.675746,-5.8410935,-0.79717916,1.287704
723,1780383548453980,-1.1438963,0.72485006,-2.1877291,-5.3469033,-0.020158553,1.359786
724,1780383548463980,-1.4301754,0.7336361,-1.0340706,-1.7745636,2.4917192,0.571159
725,1780383548473980,-1.666911,0.7004443,-0.29482117,0.9841039,2.8215866,1.1551461
726,1780383548483980,-1.2605556,0.40708748,-0.5954997,0.9841039,2.8215866,1.1551461
727,1780383548493980,-0.70923036,0.11543907,-1.4438426,5.402492,0.81000733,3.0885346
728,1780383548503980,-0.18523945,-0.26358184,-2.659492,5.8184915,-0.015882496,3.4330628
729,1780383548513980,0.31556603,-0.50617474,-3.440475,2.1618521,-3.975511,2.547308
730,1780383548523980,0.34973404,-0.38829508,-3.764095,0.28038713,-4.174653,1.9498819
731,1780383548533980,0.17084008,-0.4053791,-3.3779964,-2.85946,-3.2931745,1.5674802
732,1780383548543980,0.064919226,-0.5435155,-2.8735301,-4.194812,-2.738509,1.6016886
733,1780383548553980,-0.19573392,-0.7124031,-1.5914973,-4.996267,-2.5705209,1.822211
734,1780383548563980,-0.23673552,-0.728999,-1.2044226,-5.2161784,-2.8099802,2.1972823
735,1780383548573980,-0.23673552,-0.728999,-1.2044226,-4.7470336,-3.0787609,3.0121765
736,1780383548583980,-0.23429495,-0.72875494,-0.6245425,-4.246735,-3.1349604,3.4746015
737,1780383548593980,-0.17254847,-0.7387613,-0.48787045,-3.8557813,-3.1435125,3.7818668
738,1780383548603980,0.06980037,-0.7512082,-0.41758195,-3.3646457,-3.1257975,4.0811906
739,1780383548613980,0.06980037,-0.7512082,-0.41758195,-3.3646457,-3.1257975,4.0811906
740,1780383548623980,0.28627914,-0.7721971,-0.50617474,-2.8490756,-3.0457742,4.2308526
741,1780383548633980,0.43881494,-0.8217408,-0.5474204,-3.018896,-2.8887818,3.8246274
742,1780383548643980,0.44271985,-0.8495633,-0.5232587,-3.018896,-2.8887818,3.8246274
743,1780383548653980,0.44271985,-0.8495633,-0.5232587,-3.5253034,-2.6444356,3.2351422
744,1780383548663980,0.43515408,-0.88739216,-0.48445365,-3.62182,-2.6401596,3.0775392
745,1780383548673980,0.328257,-1.0821499,-0.30385128,-3.7018435,-2.7446175,2.9132164
746,1780383548683980,0.328257,-1.0821499,-0.30385128,-3.6438112,-3.182608,2.805704
747,1780383548693980,0.21379416,-1.2642165,-0.15473229,-3.4752123,-3.5381315,2.8906143
748,1780383548703980,0.21379416,-1.2642165,-0.15473229,-3.2100968,-3.8875463,3.0604348
749,1780383548713980,0.24478942,-1.61151,-0.10860548,-2.9181032,-4.183205,3.2662964
750,1780383548723980,0.32044718,-1.7882075,-0.19280522,-2.5711317,-4.4593163,3.7140608
751,1780383548733980,0.4327135,-2.1430666,-0.3943965,-2.5876253,-4.451986,4.0011673
752,1780383548743980,0.6545615,-2.868893,-0.340948,-4.1538835,-4.1050143,5.7958894
753,1780383548753980,1.504857,-3.798995,0.16913168,-5.1349335,-3.6554177,7.2247033
754,1780383548763980,1.6844832,-4.0655055,0.26529023,-5.353623,-3.1019738,7.788532
755,1780383548773980,1.6844832,-4.0655055,0.26529023,-5.353623,-3.1019738,7.788532
756,1780383548783980,1.9297606,-4.3854647,0.7480355,-5.6718836,-3.1557298,8.437881
757,1780383548793980,1.9297606,-4.3854647,0.7480355,-5.6718836,-3.1557298,8.437881
758,1780383548803980,2.5233078,-4.6934648,1.1158297,-5.2387805,-3.9956696,8.944289
759,1780383548813980,2.7659009,-4.742276,1.2210184,-4.802623,-4.3957863,8.756143
760,1780383548823980,2.7659009,-4.742276,1.2210184,-4.802623,-4.3957863,8.756143
761,1780383548833980,3.073413,-4.777177,1.5033927,-3.798971,-5.7183094,8.310822
762,1780383548843980,3.1249092,-4.769855,1.6766733,-2.637716,-6.660875,8.064643
763,1780383548853980,2.9218535,-4.6234207,2.0415387,-2.637716,-6.660875,8.064643
764,1780383548863980,2.5355108,-4.34788,2.1874852,-1.2174544,-6.4354653,8.186816
765,1780383548873980,2.7737105,-4.088203,1.8292091,-1.2174544,-6.4354653,8.186816
766,1780383548883980,2.7737105,-4.088203,1.8292091,-0.45753807,-5.26688,8.641911
767,1780383548893980,3.712599,-3.5356572,1.4565337,-0.7470882,1.1746938,9.412211
768,1780383548903980,3.712599,-3.5356572,1.4565337,-1.450805,1.8637499,9.139766
769,1780383548913980,4.4640512,-2.9001322,1.4858205,-2.656042,2.3530529,8.384126
770,1780383548923980,4.752771,-2.5523508,1.6017478,-3.2058208,1.990199,7.70973
771,1780383548933980,4.6016994,-0.5859815,1.5199885,-3.4574974,0.98349303,7.1379604
772,1780383548943980,6.808221,-0.6445552,1.2527459,-4.6053133,2.0873265,10.364551
773,1780383548953980,7.9950714,-4.118222,4.0769763,-5.004208,0.56016344,10.855076
774,1780383548963980,7.9950714,-2.8786552,6.129254,-2.1691825,-0.5729916,6.4495153
775,1780383548973980,7.9950714,0.50324607,5.283839,0.63529986,-1.7342464,1.46852
776,1780383548983980,7.2028613,0.50885934,4.3024855,3.6138787,-2.1142046,-1.758681
777,1780383548993980,5.6945877,-0.09640261,2.6272762,6.272975,-3.382361,-4.3689084
778,1780383549003980,4.578026,-1.4738617,0.12422514,5.6590557,-4.1050143,-5.799555
779,1780383549013980,4.145068,-2.0129843,-0.18523945,4.6034803,-4.2168026,-6.640716
780,1780383549023980,3.9691029,-2.488896,-0.07297312,2.8955014,-4.10196,-7.3309937
781,1780383549033980,3.999122,-3.1480944,1.142676,-0.8063421,-3.321885,-9.119607
782,1780383549043980,3.9359112,-3.291112,2.3390448,-0.8063421,-3.321885,-9.119607
783,1780383549053980,3.9359112,-3.291112,2.3390448,-1.0134255,-2.302351,-10.026742
784,1780383549063980,3.2454734,-3.9747164,2.4361794,0.06414085,3.9865067,-12.081082
785,1780383549073980,2.9601703,-4.2871094,2.267048,0.6969972,6.586349,-12.278392
786,1780383549083980,2.2885249,-4.641237,2.0654564,1.2815952,8.1629925,-12.191038
787,1780383549093980,2.2885249,-4.641237,2.0654564,1.2815952,8.1629925,-12.191038
788,1780383549103980,1.8868065,-4.3588624,2.217016,3.381139,8.798903,-10.674259
789,1780383549113980,1.8868065,-4.3588624,2.217016,4.687169,7.542964,-9.513616
790,1780383549123980,1.9636846,-4.241471,2.2262902,5.6944857,6.373157,-8.688336
791,1780383549133980,2.545029,-3.9983897,1.3647681,7.6547523,3.5589008,-7.2363095
792,1780383549143980,2.8391178,-3.588862,0.7314396,7.4641623,1.9889772,-6.845356
793,1780383549153980,2.8391178,-3.588862,0.7314396,6.805039,1.7269161,-6.885062
794,1780383549163980,2.8759706,-2.9960468,0.73778504,5.661499,2.0653355,-7.4238453
795,1780383549173980,2.8759706,-2.9960468,0.73778504,5.661499,2.0653355,-7.4238453
796,1780383549183980,2.4740083,-2.9230738,0.7304634,5.112942,2.7543914,-8.379849
797,1780383549193980,1.8880268,-2.8415585,0.51544887,5.1874676,3.5424075,-8.904583
798,1780383549203980,1.6051645,-2.7600434,0.43515408,5.31636,3.8912115,-8.960172
799,1780383549213980,1.4611707,-2.8391178,0.3053156,5.5240545,4.2632284,-8.869152
800,1780383549223980,1.2825208,-2.8530293,0.15790504,5.8129935,4.2730026,-8.699943
801,1780383549233980,0.8049008,-2.6277645,-0.12129646,5.787948,3.9449677,-8.53562
802,1780383549243980,0.8049008,-2.6277645,-0.12129646,5.787948,3.9449677,-8.53562
803,1780383549253980,0.8049008,-2.6277645,-0.12129646,4.8698177,2.6871963,-6.985855
804,1780383549263980,0.38585448,-2.0993805,-0.39073566,4.030489,2.3561072,-5.975484
805,1780383549273980,0.30873242,-1.6949776,-0.47493544,4.5307875,2.5283713,-6.5215974
806,1780383549283980,0.234539,-1.3542737,-0.44003522,3.4800992,2.2473733,-5.5454345
807,1780383549293980,0.234539,-1.3542737,-0.44003522,2.1539109,2.702468,-4.6944995
808,1780383549303980,0.17816179,-1.2176017,-0.37487194,2.1539109,2.702468,-4.6944995
809,1780383549313980,-0.00048811449,-0.9405966,-0.12398108,1.7843374,3.2100968,-4.246735
810,1780383549323980,-0.040513504,-0.87274873,-0.08444381,1.840537,3.5393531,-3.6713002
811,1780383549333980,-0.06613952,-0.8107582,-0.07370529,1.9260582,3.5387423,-3.4373388
812,1780383549343980,-0.07541369,-0.67555046,-0.14399378,2.0518963,3.472769,-3.14168
813,1780383549353980,-0.08322352,-0.6543175,-0.24552159,2.1820107,3.3860261,-2.892447
814,1780383549363980,-0.13520771,-0.6457755,-0.33948365,2.2809708,3.2259793,-2.479502
815,1780383549373980,-0.18255483,-0.6020892,-0.4080637,2.2650883,3.0952542,-2.230269
816,1780383549383980,-0.2853029,-0.54839665,-0.6203935,2.225382,3.0720413,-2.0280726
817,1780383549393980,-0.3121492,-0.5015376,-0.70337296,2.1368067,3.150843,-1.777007
818,1780383549403980,-0.40147418,-0.41294485,-0.7831797,1.9339994,3.4019086,-1.3842206
819,1780383549413980,-0.49592432,-0.34704942,-0.8254016,1.9058995,3.445891,-1.1917981
820,1780383549423980,-0.53253293,-0.28994003,-1.0348027,1.9517145,3.5430183,-0.8949176
821,1780383549433980,-0.54083085,-0.2801777,-1.3203497,2.3915374,3.3670893,-0.3145956
822,1780383549443980,-0.54083085,-0.2801777,-1.3203497,2.3915374,3.3670893,-0.3145956
823,1780383549453980,0.45589894,0.21379416,-7.9962916,2.669481,-1.2956452,0.030543262
824,1780383549463980,-1.138527,-0.47444725,-4.394983,-4.1911464,-5.3291883,-0.93767816
825,1780383549473980,-1.5424417,-0.93986446,-2.4930449,-5.203961,-0.7507534,1.3432927
826,1780383549483980,-1.5424417,-0.93986446,-2.4930449,-4.762916,1.0140363,1.7947221
827,1780383549493980,-1.1575636,0.4583395,-1.227608,-4.002389,2.0738876,1.7256943
828,1780383549503980,-1.1575636,0.4583395,-1.227608,-4.002389,2.0738876,1.7256943
829,1780383549513980,-1.3415827,0.45052966,-0.13545178,0.27488935,1.3952162,1.4300356
830,1780383549523980,-1.2676333,0.4373506,-0.12129646,2.3047945,0.31764993,1.9101756
831,1780383549533980,-1.0479817,0.12837411,-0.4085518,4.2479568,-0.4447099,2.3200662
832,1780383549543980,-0.51740134,-0.12495731,-0.64016217,5.5197783,-0.8216137,2.4697282
833,1780383549553980,-0.6208816,-0.24698594,-1.3806318,6.623001,-1.6719382,2.4471262
834,1780383549563980,-0.56474847,-0.53643787,-2.195783,4.777577,-6.0402355,2.3964243
835,1780383549573980,-0.58378494,-0.6555378,-3.121004,3.6102135,-5.5814757,2.4129176
836,1780383549583980,-0.58378494,-0.6555378,-3.121004,3.6102135,-5.5814757,2.4129176
837,1780383549593980,-0.5793919,-0.5342413,-2.8720655,-0.84299403,-2.1361957,3.35365
838,1780383549603980,-0.43710655,-0.6450433,-2.5782208,-2.2510383,-1.1142182,3.4941492
839,1780383549613980,-0.32239962,-0.73632073,-2.2560651,-3.1080823,-0.5198463,3.5069773
840,1780383549623980,-0.23136626,-0.80587703,-1.5695322,-4.538118,-0.08368854,3.3921347
841,1780383549633980,-0.24015234,-0.8097819,-1.2664131,-4.759862,-0.28710666,3.376863
842,1780383549643980,-0.25723633,-0.7804951,-0.6723777,-4.776966,-0.7415904,3.4519994
843,1780383549653980,-0.22233616,-0.7641432,-0.4888467,-4.492303,-1.2669345,3.6236527
844,1780383549663980,-0.17498904,-0.75999427,-0.37536004,-3.6163223,-2.1160371,4.002389
845,1780383549673980,-0.105676785,-0.7614586,-0.33240595,-3.0634892,-2.4831672,4.20092
846,1780383549683980,0.15570852,-0.8332114,-0.5208182,-2.3408356,-2.833804,4.4171667
847,1780383549693980,0.23868799,-0.87299275,-0.6125837,-2.108096,-2.937651,4.3634105
848,1780383549703980,0.23868799,-0.87299275,-0.6125837,-2.2321017,-2.8820622,4.3035455
849,1780383549713980,0.38463423,-1.0809295,-0.89056486,-2.5552492,-2.7305677,4.2491784
850,1780383549723980,0.38463423,-1.0809295,-0.89056486,-2.9950724,-2.466063,4.2216897
851,1780383549733980,0.41733786,-1.2798362,-0.8742131,-3.3731978,-2.2156084,4.2174134
852,1780383549743980,0.43588626,-1.3894179,-0.8070973,-4.3670754,-1.5974126,4.293161
853,1780383549753980,0.52960426,-1.6700838,-0.64431113,-4.8020115,-1.4110987,4.330424
854,1780383549763980,0.5920829,-1.8401916,-0.5603554,-5.0982814,-1.3377949,4.3463063
855,1780383549773980,0.64357895,-2.007615,-0.4803047,-5.4782395,-1.2901474,4.3750167
856,1780383549783980,0.69214636,-2.1708894,-0.37877685,-6.073833,-1.2144,4.574159
857,1780383549793980,0.8022162,-2.3912728,-0.1381364,-6.3340616,-1.0952814,4.7928486
858,1780383549803980,1.0560358,-2.58359,0.035144243,-7.0145655,-0.6933321,5.3200254
859,1780383549813980,1.0560358,-2.58359,0.035144243,-7.0145655,-0.6933321,5.3200254
860,1780383549823980,1.1892909,-2.6760879,0.15107143,-7.294953,-0.5919284,5.4470854
861,1780383549833980,1.9790602,-3.0241134,0.7297312,-7.6590285,-0.74464476,5.580865
862,1780383549843980,1.9790602,-3.0241134,0.7297312,-7.6761327,-0.784351,5.2161784
863,1780383549853980,2.6160498,-3.3050232,1.0196712,-7.6761327,-0.784351,5.2161784
864,1780383549863980,2.6160498,-3.3050232,1.0196712,-7.642535,-0.7012733,4.8820353
865,1780383549873980,2.8252068,-3.3953242,1.1187584,-7.5875573,-0.68966687,4.2223005
866,1780383549883980,2.823254,-3.3020947,1.564407,-7.5093665,-1.3720033,3.7103956
867,1780383549893980,3.006053,-3.0924494,2.2946262,-7.356039,-2.2913556,3.5650096
868,1780383549903980,3.2220438,-2.9340563,2.6214187,-4.954728,-6.3071837,3.4012976
869,1780383549913980,3.2220438,-2.9340563,2.6214187,-4.954728,-6.3071837,3.4012976
870,1780383549923980,2.8549817,-2.3095136,2.5948167,-3.1991012,-6.5032716,2.5955665
871,1780383549933980,2.8549817,-2.3095136,2.5948167,-3.1991012,-6.5032716,2.5955665
872,1780383549943980,2.1642997,-2.0447116,2.2177482,-2.0427334,-4.0818014,2.3469443
873,1780383549953980,1.8353105,-1.9146291,1.8196908,-1.9480493,-3.19116,2.6633725
874,1780383549963980,1.8138335,-1.8089523,1.5831994,-1.9804251,-2.533869,3.0170634
875,1780383549973980,1.9285403,-1.7169427,1.3903941,-2.5674667,-1.4416419,3.9577959
876,1780383549983980,2.299019,-1.4994878,1.2949678,-3.0072896,-1.3109168,4.083023
877,1780383549993980,2.4630256,-1.1265682,1.4726415,-4.3175955,-0.9804387,3.9694023
878,1780383550003980,2.5928643,-0.9374239,1.6080933,-4.7073274,-0.71837753,3.9950588
879,1780383550013980,2.5928643,-0.9374239,1.6080933,-4.7073274,-0.71837753,3.9950588
880,1780383550023980,2.8361893,-0.72655845,1.8094405,-5.295591,-0.3268129,3.889379
881,1780383550033980,3.3145413,-0.36413342,2.5225759,-5.9852576,-0.07147124,3.6053267
882,1780383550043980,3.3701866,0.102748096,3.7911851,-7.4183474,0.27672195,4.042095
883,1780383550053980,3.3701866,0.102748096,3.7911851,-7.4183474,0.27672195,4.042095
884,1780383550063980,3.3701866,0.102748096,3.7911851,-7.4183474,0.27672195,4.042095
885,1780383550073980,5.79758,1.4560456,7.987262,-6.006027,0.57543504,3.7501018
886,1780383550083980,5.79758,1.4560456,7.987262,-1.7837266,2.6994135,0.5369505
887,1780383550093980,5.542784,1.1546348,7.987262,1.5705346,2.7366762,-1.754405
888,1780383550103980,4.185826,-0.17401282,7.147705,4.9858823,1.9737056,-3.5485163
889,1780383550113980,3.5988681,-0.9508471,6.0994787,7.3450437,1.1233811,-4.4898596
890,1780383550123980,2.6394792,-2.220677,3.6684246,12.148888,-1.3677273,-5.963877
891,1780383550133980,2.3766294,-2.6101923,1.6869236,11.91004,-1.4220943,-5.8954606
892,1780383550143980,2.3766294,-2.6101923,1.6869236,11.91004,-1.4220943,-5.8954606
893,1780383550153980,2.5286772,-2.5926201,1.0521308,9.007819,-0.6389651,-5.860641
894,1780383550163980,2.8588867,-2.152829,0.4612682,5.122716,2.0830505,-6.614449
895,1780383550173980,2.5630891,-1.6300584,1.189779,3.2876768,4.24307,-6.8618493
896,1780383550183980,2.5611367,-1.6337193,1.7584325,3.2876768,4.24307,-6.8618493
897,1780383550193980,2.5865185,-1.6842391,2.3563728,2.4312437,6.5961227,-6.5961227
898,1780383550203980,2.5865185,-1.6842391,2.3563728,2.4312437,6.5961227,-6.5961227
899,1780383550213980,2.6126328,-1.7501346,3.0216727,5.0897293,3.9883392,-5.9993076
900,1780383550223980,2.9391813,-2.4276376,3.597892,7.180721,2.012801,-5.646838
901,1780383550233980,3.0189881,-2.6568072,3.231318,10.490389,-0.32803464,-5.5234437
902,1780383550243980,3.205448,-2.9228296,2.545273,11.503203,-0.62980205,-5.8184915
903,1780383550253980,3.205448,-2.9228296,2.545273,11.57101,-0.44165558,-6.260147
904,1780383550263980,3.00044,-2.2050574,0.34241232,9.511783,0.51007247,-6.805039
905,1780383550273980,2.8598628,-1.6251773,-0.31068486,6.0891047,2.4813347,-6.8930035
906,1780383550283980,2.6631527,-1.3579346,-0.23771177,5.001765,3.164893,-6.850243
907,1780383550293980,2.5374632,-1.2485968,-0.032703668,3.8527272,3.662748,-6.7751064
908,1780383550303980,2.4679067,-1.194172,0.17157225,2.7415633,3.5399642,-6.6425486
909,1780383550313980,2.3419733,-1.2346857,0.45394647,2.5503623,3.4300084,-6.608951
910,1780383550323980,2.2375169,-1.2517697,0.51398456,2.5350907,3.3799174,-6.6309423
911,1780383550333980,2.1084106,-1.2356619,0.5127643,2.5692992,3.3677,-6.65049
912,1780383550343980,1.8538588,-1.2317569,0.4983649,2.6719246,3.4898732,-6.5393124
913,1780383550353980,1.8538588,-1.2317569,0.4983649,2.7177396,3.4416149,-6.4318004
914,1780383550363980,1.6134624,-1.2410312,0.49812084,2.7892108,3.4257324,-6.351166
915,1780383550373980,1.4858205,-1.2461562,0.47737598,2.946814,3.4122932,-6.246708
916,1780383550383980,1.3574464,-1.2588474,0.4339338,3.566842,3.2534683,-5.9333344
917,1780383550393980,1.2168695,-1.2825208,0.3585201,3.566842,3.2534683,-5.9333344
918,1780383550403980,0.95426387,-1.334261,0.1483868,3.7690387,3.2033772,-5.7903914
919,1780383550413980,0.6801876,-1.3567142,-0.07834238,4.01705,2.9578094,-5.2387805
920,1780383550423980,0.5120321,-1.3367015,-0.23112221,3.957185,2.7458394,-4.944343
921,1780383550433980,0.19988288,-1.1875826,-0.57524294,3.825849,2.5668557,-4.682893
922,1780383550443980,0.11519502,-1.1187584,-0.7143555,3.4984252,2.4110851,-4.276057
923,1780383550453980,0.0741934,-1.0748281,-0.82247293,2.7391198,2.833804,-3.6004398
924,1780383550463980,0.07297312,-1.0667742,-0.94816244,2.356718,3.3579264,-3.313333
925,1780383550473980,0.10592084,-1.0221118,-1.2776396,1.9975294,3.8038578,-3.1398473
926,1780383550483980,-0.05344854,-0.92229235,-1.5158396,1.3298537,4.152051,-3.0133982
927,1780383550493980,-0.05344854,-0.92229235,-1.5158396,1.024421,4.0872993,-2.883895
928,1780383550503980,-0.18597162,-0.9027678,-1.5382929,0.9279043,3.9009855,-2.607173
929,1780383550513980,-0.36047253,-0.92961407,-1.4487238,1.0140363,3.6352592,-2.3658812
930,1780383550523980,-0.36047253,-0.92961407,-1.4487238,1.3652838,3.0854805,-2.0470095
931,1780383550533980,-0.36047253,-0.92961407,-1.4487238,1.3652838,3.0854805,-2.0470095
932,1780383550543980,-0.9261973,-0.6901939,-5.5740232,-4.383569,-3.3585372,-2.7629435
933,1780383550553980,-1.292039,-1.551472,-3.282326,-4.460538,1.536937,-0.8045095
934,1780383550563980,-1.4816716,-0.40513504,-1.2232149,-2.4697282,2.2473733,-0.8136725
935,1780383550573980,-1.6378682,-0.2604091,-0.7050814,-0.33292156,1.4300356,-0.5919284
936,1780383550583980,-1.7735641,-0.35461518,-0.3943965,1.3518448,0.34025195,-0.13072516
937,1780383550593980,-1.4765464,-0.5379022,-0.20134723,3.6511416,-1.1392636,0.59803706
938,1780383550603980,-1.2991167,-0.75291663,-0.38219365,6.710355,-3.5069773,1.6035212
939,1780383550613980,-1.0511546,-0.94816244,-0.6894617,7.5411315,-4.627304,1.8875736
940,1780383550623980,-1.1436522,-0.9637821,-2.058867,7.3413787,-5.6602774,2.2003367
941,1780383550633980,-0.8427297,-1.0511546,-2.561625,6.7549477,-6.0585613,2.4666739
942,1780383550643980,-0.68458056,-1.0328503,-2.5723634,2.9358184,-4.3896775,3.123354
943,1780383550653980,-0.68458056,-1.0328503,-2.5723634,2.9358184,-4.3896775,3.123354
944,1780383550663980,-0.5281399,-1.0150341,-2.2741253,1.8997909,-3.6053267,3.1429017
945,1780383550673980,-0.5537659,-1.0506665,-1.7789333,-0.9254609,-1.5180001,3.4526103
946,1780383550683980,-0.5210622,-1.0819057,-1.3681849,-1.4825699,-1.4343116,3.6603045
947,1780383550693980,-0.5037342,-1.0789771,-1.1704986,-1.8332067,-1.6548339,3.8704422
948,1780383550703980,-0.48128092,-1.0716554,-1.0382195,-1.8332067,-1.6548339,3.8704422
949,1780383550713980,-0.48128092,-1.0716554,-1.0382195,-1.9804251,-1.8869628,4.0463715
950,1780383550723980,-0.4463807,-1.0762925,-0.93571544,-2.0463986,-2.111761,4.290107
951,1780383550733980,-0.42319524,-1.087275,-0.87299275,-2.0091357,-2.334727,4.764138
952,1780383550743980,-0.40049794,-1.1089962,-0.827354,-1.9889772,-2.3988678,4.9651127
953,1780383550753980,-0.23990828,-1.2429836,-0.75389284,-2.0182989,-2.4550674,5.756183
954,1780383550763980,-0.16425052,-1.3010693,-0.75047606,-2.2186625,-2.3218987,6.296188
955,1780383550773980,0.0959145,-1.5109584,-0.78366786,-2.2186625,-2.3218987,6.296188
956,1780383550783980,0.17254847,-1.5980868,-0.77512586,-2.3512204,-2.2553146,6.4696736
957,1780383550793980,0.24015234,-1.6661788,-0.7494998,-2.8350255,-2.0971005,6.891171
958,1780383550803980,0.24015234,-1.6661788,-0.7494998,-3.1410692,-1.9975294,7.108028
959,1780383550813980,0.44394013,-1.8811932,-0.65993077,-3.38175,-1.8637499,7.258301
960,1780383550823980,0.44394013,-1.8811932,-0.65993077,-3.38175,-1.8637499,7.258301
961,1780383550833980,0.5720702,-2.0010254,-0.60697037,-4.3371434,-1.042747,7.583281
962,1780383550843980,0.73485637,-2.1211014,-0.54034275,-4.692667,-0.6988298,7.543575
963,1780383550853980,1.001855,-2.3302586,-0.41758195,-4.692667,-0.6988298,7.543575
964,1780383550863980,1.3713577,-2.7600434,-0.3065359,-5.6853228,0.029932396,7.1459017
965,1780383550873980,1.4828918,-2.895251,-0.26065314,-6.613838,0.21563543,6.9052205
966,1780383550883980,1.7467177,-3.1851912,-0.10958171,-7.000516,0.31337386,6.8074822
967,1780383550893980,1.8489777,-3.2676823,0.021965152,-7.52586,0.4538729,6.67859
968,1780383550903980,2.016401,-3.3689663,0.21330604,-8.320596,0.48563787,6.437298
969,1780383550913980,2.843755,-3.7655594,0.7975791,-8.644965,0.46670106,6.224106
970,1780383550923980,2.5037832,-3.5676289,0.6020892,-8.883813,0.52412236,5.8636956
971,1780383550933980,3.0219169,-3.8375561,1.0028312,-9.150762,0.7153232,4.782464
972,1780383550943980,3.1170993,-3.9002788,1.1848979,-9.263161,0.70432764,4.20092
973,1780383550953980,3.1170993,-3.9002788,1.1848979,-9.263161,0.70432764,4.20092
974,1780383550963980,3.1170993,-3.9002788,1.1848979,-9.263161,0.70432764,4.20092
975,1780383550973980,3.1170993,-3.9002788,1.1848979,-9.263161,0.70432764,4.20092
976,1780383550983980,3.1170993,-3.9002788,1.1848979,-9.263161,0.70432764,4.20092
977,1780383550993980,3.1170993,-3.9002788,1.1848979,-9.263161,0.70432764,4.20092
978,1780383551003980,3.1056285,-3.6996639,1.7830821,-7.677965,-1.8686367,0.87598073
979,1780383551013980,3.0885444,-3.8536637,1.5583055,-9.279043,0.1001819,3.2736268
980,1780383551023980,3.0885444,-3.8536637,1.5583055,-9.334632,0.6102544,3.7739255
981,1780383551033980,2.1071904,-2.7480845,2.9404018,-5.225952,-3.9907827,0.22174409
982,1780383551043980,2.3078055,-2.9155078,3.022161,-5.225952,-3.9907827,0.22174409
983,1780383551053980,2.3078055,-2.9155078,3.022161,-6.119648,-3.4733799,0.09896017
984,1780383551063980,2.2172601,-1.6800901,2.305853,-4.747645,-2.0323486,0.8686504
985,1780383551073980,2.2172601,-1.6800901,2.305853,-4.747645,-2.0323486,0.8686504
986,1780383551083980,2.0185976,-1.1197346,3.6855083,-5.4819045,-5.114164,1.4630222
987,1780383551093980,2.7104998,-0.3219115,5.953777,-5.7543507,-5.3921075,2.3157902
988,1780383551103980,3.4014258,-0.037584815,6.78772,-5.331021,-5.2564955,3.6603045
989,1780383551113980,3.6557336,0.35168648,7.3610106,-3.2400293,-1.9254472,2.5815165
990,1780383551123980,3.576171,0.5122762,7.987262,-0.8949176,0.59131753,1.351234
991,1780383551133980,3.1173432,0.22697324,7.5408807,1.2986995,1.645671,0.1863139
992,1780383551143980,2.481574,-0.255772,6.5404897,7.24364,1.0189233,-1.9040669
993,1780383551153980,2.003466,-0.7150877,5.5171585,9.599136,-0.27122417,-2.2901337
994,1780383551163980,1.1507299,-1.5929617,3.3748236,10.91433,-1.3848315,-2.4764478
995,1780383551173980,0.8266219,-1.8719192,2.493777,12.207531,-3.7708712,-2.4550674
996,1780383551183980,0.42856455,-2.1501443,1.0284572,12.207531,-3.7708712,-2.4550674
997,1780383551193980,0.42856455,-2.1501443,1.0284572,11.457389,-3.6230419,-2.2235496
998,1780383551203980,0.36706212,-2.0691173,0.5349735,10.241156,-2.9217684,-1.994475
999,1780383551213980,0.49446,-1.7245085,-0.08005078,9.097005,-2.1148155,-1.8777997
1000,1780383551223980,0.609655,-1.5109584,-0.13105874,7.3957458,-0.72509706,-1.8057177
