id,timestamp,acc_x,acc_y,acc_z,gyro_x,gyro_y,gyro_z
0,1780383639321980,-0.6655441,-0.38268176,0.7380291,0.03359759,0.18448131,-0.10262536
1,1780383639331980,-0.6823841,-0.3995217,0.7473033,0.047036625,0.18203785,-0.052534413
2,1780383639341980,-0.6272271,-0.3385074,0.73583263,0.016493361,0.058643065,0.018936822
3,1780383639351980,-0.588178,-0.33045352,0.737541,0.016493361,0.058643065,0.018936822
4,1780383639361980,-0.50031734,-0.28554696,0.75218445,0.07819075,-0.06719518,0.00061086525
5,1780383639371980,-0.4803047,-0.29506522,0.73461235,0.07819075,-0.047036625,-0.047647487
6,1780383639381980,-0.4978768,-0.28969595,0.73339206,-0.018936822,0.036651913,-0.2510656
7,1780383639391980,-0.5749989,-0.25040275,0.7167961,-0.112399206,0.16615535,-0.30298916
8,1780383639401980,-0.5608435,-0.3392396,0.6909261,-0.22724187,0.2742785,-0.3585779
9,1780383639411980,-0.6035536,-0.358032,0.72021294,-0.45631635,0.5039638,-0.6041457
10,1780383639421980,-0.6731099,-0.34509695,0.73583263,-0.50640726,0.6078109,-0.66156703
11,1780383639431980,-0.70215267,-0.2638259,0.673842,-0.5821546,0.70005155,-0.70554936
12,1780383639441980,-0.64040625,-0.26065314,0.6133158,-0.64812803,0.64873886,-0.7519751
13,1780383639451980,-0.5430274,-0.28579104,0.541319,-0.9401216,-0.081855945,-0.9804387
14,1780383639461980,-0.49616838,-0.30238694,0.51447266,-0.9401216,-0.081855945,-0.9804387
15,1780383639471980,-0.47786412,-0.37706846,0.49397188,-1.1954633,-0.3304781,-1.1759156
16,1780383639481980,-0.5103237,-0.4368625,0.53887844,-1.3530666,-0.2864958,-1.287093
17,1780383639491980,-0.5103237,-0.4368625,0.53887844,-1.5424347,-0.18509217,-1.3249667
18,1780383639501980,-0.65212095,-0.52789587,0.63503695,-1.5473217,-0.118507855,-1.2125676
19,1780383639511980,-0.7175283,-0.42270714,0.6118515,-1.8387043,-0.46609017,-0.8185594
20,1780383639521980,-0.7082541,-0.38609856,0.68262815,-1.7513506,-0.002443461,-0.30665436
21,1780383639531980,-0.6972716,-0.366574,0.78806084,-1.5845845,0.1600467,-0.16065755
22,1780383639541980,-0.6284474,-0.39634898,0.81149036,-1.3011429,0.39767328,-0.02443461
23,1780383639551980,-0.60892284,-0.38951537,0.8007518,-1.006095,0.7684685,0.01282817
24,1780383639561980,-0.6272271,-0.3824377,0.78464407,-0.6230826,1.2809844,-0.014660766
25,1780383639571980,-0.68458056,-0.34973404,0.626739,-0.49296826,1.4654657,-0.19975294
26,1780383639581980,-0.6465077,-0.3270367,0.6128277,-0.49296826,1.4654657,-0.19975294
27,1780383639591980,-0.6465077,-0.3270367,0.6128277,-0.6817256,1.5662584,-0.48930305
28,1780383639601980,-0.55840296,-0.37706846,0.5757311,-0.8741482,1.178359,-0.5900958
29,1780383639611980,-0.5793919,-0.35095432,0.5374141,-0.8741482,1.178359,-0.5900958
30,1780383639621980,-0.5503491,-0.32898918,0.52033,-0.9602802,1.1716396,-0.79290307
31,1780383639631980,-0.49982923,-0.3077562,0.51593703,-1.0647382,1.2162327,-0.7648033
32,1780383639641980,-0.37926495,-0.29213652,0.48445365,-1.1496484,1.3756685,-0.752586
33,1780383639651980,-0.16449459,-0.3219115,0.33484653,-1.1704178,1.7018706,-0.906524
34,1780383639661980,-0.11031388,-0.24478942,0.22819352,-1.2174544,2.0549507,-1.1612549
35,1780383639671980,-0.037828874,-0.26870704,0.0622346,-1.7250835,3.2821789,-2.3371704
36,1780383639681980,-0.031483386,-0.30751213,0.014643434,-2.0231857,3.7953057,-2.7049112
37,1780383639691980,0.006833603,-0.528384,0.17816179,-2.4263568,3.916868,-3.2192597
38,1780383639701980,-0.0319715,-0.74510676,0.447601,-2.5595255,3.4574974,-3.7678168
39,1780383639711980,-0.028798755,-0.9235126,0.55718267,-1.4679092,1.704314,-4.246735
40,1780383639721980,0.04344219,-1.146825,0.49128726,-0.6310238,1.0079277,-4.5802674
41,1780383639731980,0.037828874,-0.97744924,-0.18768002,-0.124005646,0.7122689,-4.863709
42,1780383639741980,0.08932495,-1.0377314,-0.21477039,-1.1710287,2.1245892,-5.8850756
43,1780383639751980,0.1381364,-1.244936,-0.11299851,-1.5173893,2.243097,-6.477004
44,1780383639761980,-0.00976229,-1.2432276,0.012690976,-1.8380935,2.4196372,-7.1178017
45,1780383639771980,-0.111046046,-1.274467,0.13740423,-2.134974,1.7128662,-7.8545055
46,1780383639781980,-0.28579104,-1.2158931,0.24967057,-2.1649065,1.065349,-8.015774
47,1780383639791980,-0.41855815,-1.1133891,0.3521746,-2.1276436,0.096516706,-8.122675
48,1780383639801980,-0.21257387,-1.1597601,0.22258021,-2.0732768,-0.66889745,-8.3407545
49,1780383639811980,-0.10714114,-1.0694588,0.122272685,-2.0732768,-1.0207558,-8.548449
50,1780383639821980,-0.059305906,-0.9725681,-0.053936653,-2.1453588,-1.0458013,-8.974833
51,1780383639831980,-0.1010397,-0.8175918,-0.19475769,-2.2327125,-0.64751714,-9.009041
52,1780383639841980,-0.21208574,-0.5379022,-0.18084641,-2.244319,-0.01160644,-8.830057
53,1780383639851980,-0.2072046,-0.5427833,-0.21843125,-2.212554,0.4129449,-8.523403
54,1780383639861980,-0.18450728,-0.55645055,-0.19817449,-2.1496348,0.6621779,-7.9992805
55,1780383639871980,-0.11031388,-0.49201941,-0.079562664,-2.043955,0.5186246,-7.7231693
56,1780383639881980,-0.11202228,-0.43051702,0.022209208,-1.8515326,0.15760323,-7.4146824
57,1780383639891980,-0.16107778,-0.26406994,0.14082102,-0.79534656,-2.2174408,-5.799555
58,1780383639901980,-0.13691612,-0.18768002,0.08346757,-0.40744713,-3.0091221,-5.1844134
59,1780383639911980,-0.13691612,-0.18768002,0.08346757,-0.40744713,-3.0091221,-5.1844134
60,1780383639921980,-0.10006347,-0.21965154,-0.041733786,0.029321533,-3.984674,-4.3573017
61,1780383639931980,1.0750722,-1.0123495,-0.38341394,0.3036,-4.7342057,-3.3622024
62,1780383639941980,3.4246116,-2.4549718,-1.3039979,1.2027937,-1.9199494,-1.858252
63,1780383639951980,3.4246116,-2.4549718,-1.3039979,1.5943583,0.3145956,-0.8765916
64,1780383639961980,3.4246116,-2.4549718,-1.3039979,1.5943583,0.3145956,-0.8765916
65,1780383639971980,3.4990487,-2.1340365,-1.3479282,1.6578883,1.9620992,-0.069027774
66,1780383639981980,3.0458343,-1.7003468,-0.9884319,0.6365216,3.182608,0.12156218
67,1780383639991980,3.0458343,-1.7003468,-0.9884319,0.6365216,3.182608,0.12156218
68,1780383640001980,1.0091767,-0.545468,-0.02757847,-0.4025602,1.9651535,-0.19364429
69,1780383640011980,0.7602383,-0.41245672,0.032215554,-1.6346754,-0.01038471,-0.6041457
70,1780383640021980,0.35022214,-0.2809099,0.20598431,-2.6945267,-1.2522738,-0.94134337
71,1780383640031980,0.25845662,-0.29579738,0.25015867,-3.2662964,-1.681712,-1.0616838
72,1780383640041980,0.25821257,-0.42368335,0.35534734,-3.5008688,-1.133155,-0.6603453
73,1780383640051980,0.31947094,-0.52960426,0.38780698,-3.3689218,-0.8558222,-0.5015204
74,1780383640061980,0.31947094,-0.52960426,0.38780698,-3.3689218,-0.8558222,-0.5015204
75,1780383640071980,0.49641246,-0.7490117,0.5781716,-1.600467,-0.15760323,0.09712757
76,1780383640081980,0.5344854,-0.78610843,0.61941725,-1.600467,-0.15760323,0.09712757
77,1780383640091980,0.673842,-0.84883106,0.5610876,0.108123146,0.040317107,0.20769419
78,1780383640101980,0.673842,-0.84883106,0.5610876,0.108123146,0.040317107,0.20769419
79,1780383640111980,0.7058135,-0.81441903,0.328257,1.6975945,0.12767084,0.035430185
80,1780383640121980,0.6867771,-0.78464407,0.21379416,2.7849348,-0.16310102,0.021991149
81,1780383640131980,0.7382732,-0.73485637,-0.025870068,3.0213394,-0.267559,0.09040806
82,1780383640141980,0.7770783,-0.7150877,-0.123004854,3.1874948,-0.36896262,0.13927728
83,1780383640151980,0.8066092,-0.6875093,-0.20598431,3.1172454,-0.34147367,0.049480084
84,1780383640161980,0.8019721,-0.6474839,-0.27529657,3.1172454,-0.34147367,0.049480084
85,1780383640171980,0.7822035,-0.59061855,-0.4127008,2.7146852,0.08002335,-0.02321288
86,1780383640181980,0.74583894,-0.5105677,-0.5339973,2.3463335,0.46303585,-0.020158553
87,1780383640191980,0.73583263,-0.50763905,-0.45394647,1.7324139,0.82772243,0.005497787
88,1780383640201980,0.7297312,-0.50812715,-0.3904916,1.4721853,0.73853606,0.02443461
89,1780383640211980,0.73778504,-0.5503491,-0.3236199,1.1032226,0.35063666,0.06291912
90,1780383640221980,0.73607665,-0.54815257,-0.34192422,0.9053023,0.15577064,0.095294975
91,1780383640231980,0.73607665,-0.54815257,-0.34192422,0.9053023,0.15577064,0.095294975
92,1780383640241980,0.72338563,-0.5100796,-0.37023485,0.26511553,-0.018936822,0.30787608
93,1780383640251980,0.72338563,-0.5100796,-0.37023485,0.26511553,-0.018936822,0.30787608
94,1780383640261980,0.70068836,-0.48640612,-0.37316352,-0.06536258,-0.07696902,0.4642576
95,1780383640271980,0.67530644,-0.4588276,-0.20183535,-1.2180653,0.02076942,1.056186
96,1780383640281980,0.60989904,-0.47835222,0.0012202862,-1.5454891,0.1142318,1.2901474
97,1780383640291980,0.5171573,-0.5379022,0.05296042,-1.9694295,0.15882497,1.672549
98,1780383640301980,0.42148685,-0.63503695,0.14301755,-2.2956316,0.16249016,2.108096
99,1780383640311980,0.35559142,-0.69507504,0.2020794,-2.3054054,0.27672195,2.8460212
100,1780383640321980,0.3431445,-0.74315435,0.29872608,-1.9956968,0.48197266,3.1129694
101,1780383640331980,0.64943635,-0.7294871,0.48225713,-1.4941764,0.8332202,3.1722233
102,1780383640341980,0.9093573,-0.6562699,0.532777,-1.0103711,1.1435398,3.037833
103,1780383640351980,1.0780008,-0.58964235,0.5749989,-0.3042109,1.4654657,2.6700919
104,1780383640361980,1.1578076,-0.51471674,0.5957437,0.96944314,1.4288138,1.7311921
105,1780383640371980,1.0850785,-0.41562948,0.38585448,1.627345,1.0824533,1.1606439
106,1780383640381980,0.9794017,-0.3660859,0.12690976,2.039679,0.7641924,0.679893
107,1780383640391980,0.92278045,-0.35583547,-0.071264714,2.0726657,0.64751714,0.16126843
108,1780383640401980,0.93937635,-0.36559775,-0.4527262,1.5406022,0.63285637,-0.38789943
109,1780383640411980,1.0284572,-0.4131889,-0.5256993,1.2889256,0.71776664,-0.59803706
110,1780383640421980,1.0806855,-0.4898229,-0.59037447,0.602924,1.1337659,-1.2327261
111,1780383640431980,1.0806855,-0.4898229,-0.59037447,0.602924,1.1337659,-1.2327261
112,1780383640441980,1.104359,-0.58085626,-0.6191732,0.3830125,1.2852604,-1.4789047
113,1780383640451980,1.6058967,-1.0596966,-0.49934113,0.07880162,1.4807373,-2.0873265
114,1780383640461980,1.8404356,-1.2578712,-0.47176263,0.115453534,1.9822577,-2.4410176
115,1780383640471980,2.1154883,-1.5529363,-0.4378387,0.20525073,2.4110851,-2.4941628
116,1780383640481980,2.5601604,-2.1384296,-0.21306199,0.20525073,2.4110851,-2.4941628
117,1780383640491980,2.7397866,-2.4007912,-0.049543623,0.43066,2.5167649,-1.8344283
118,1780383640501980,2.762484,-2.5003664,0.07980672,0.4569272,2.1044307,-1.1826351
119,1780383640511980,2.4891398,-2.289013,0.21403822,-0.124005646,0.41783184,-0.5180137
120,1780383640521980,2.0842488,-1.9907749,0.3116611,-0.5467244,-0.7672467,-0.52778757
121,1780383640531980,1.3532975,-1.4448189,0.29042813,-0.72082096,-1.4892895,-0.45448375
122,1780383640541980,1.1270564,-1.2605556,0.24723,-0.7654142,-1.7208074,-0.3585779
123,1780383640551980,0.7089863,-0.88934463,0.18255483,-0.75991637,-0.93584555,0.032986723
124,1780383640561980,0.7089863,-0.88934463,0.18255483,-0.75991637,-0.93584555,0.032986723
125,1780383640571980,0.6155124,-0.8070973,0.22209209,-0.7641924,-0.5992588,0.15271631
126,1780383640581980,0.49860895,-0.5867136,0.1986626,-0.8399397,0.15821409,0.3182608
127,1780383640591980,0.44516042,-0.50544256,0.26992732,-0.79779,0.28099802,0.36896262
128,1780383640601980,0.33826336,-0.38878322,0.41221267,-0.6762278,0.19914207,0.3915646
129,1780383640611980,0.29116032,-0.33533466,0.4549227,-0.32253686,-0.34330627,0.3659083
130,1780383640621980,0.21062139,-0.2677308,0.4356422,-0.105068825,-0.70554936,0.34147367
131,1780383640631980,0.1403329,-0.20012695,0.413677,0.11178834,-1.0433578,0.34025195
132,1780383640641980,0.054668825,-0.111046046,0.33631086,0.2687807,-1.2577715,0.34697145
133,1780383640651980,0.032703668,-0.071020655,0.32020313,0.6640105,-1.3500122,0.34025195
134,1780383640661980,0.013667206,-0.03441207,0.26943922,0.8142834,-1.2247849,0.32253686
135,1780383640671980,-0.044174362,0.009030119,0.17303659,0.9779953,-1.0726794,0.30848694
136,1780383640681980,-0.07443746,0.061014313,0.027090356,1.1307116,-0.86376345,0.32925636
137,1780383640691980,-0.07443746,0.061014313,0.027090356,1.1307116,-0.86376345,0.32925636
138,1780383640701980,-0.090789296,0.119099945,-0.18353106,0.9987647,-0.2742785,0.44715336
139,1780383640711980,-0.090789296,0.119099945,-0.18353106,0.9987647,-0.2742785,0.44715336
140,1780383640721980,-0.07492557,0.12983845,-0.1769415,0.7965683,0.3115413,0.56199604
141,1780383640731980,-0.07492557,0.12983845,-0.1769415,0.7965683,0.3115413,0.56199604
142,1780383640741980,-0.10128376,0.11568313,-0.0156196635,0.7623598,0.67011917,0.752586
143,1780383640751980,-0.12861817,0.107385196,0.00048811449,0.8784242,0.55771995,0.8240572
144,1780383640761980,-0.12861817,0.107385196,0.00048811449,1.1930199,0.35369098,0.98715824
145,1780383640771980,-0.21257387,0.117879644,-0.030019043,1.382388,0.29993483,1.1093313
146,1780383640781980,-0.26065314,0.12983845,-0.08517598,1.5803084,0.33414328,1.2302825
147,1780383640791980,-0.2848148,0.1444819,-0.102259986,1.7373008,0.38240165,1.319469
148,1780383640801980,-0.2796896,0.13716017,-0.099575356,2.1184807,0.3885103,1.5564847
149,1780383640811980,-0.2604091,0.12642166,-0.07614586,2.2699752,0.36835176,1.6395624
150,1780383640821980,-0.21794313,0.10909359,-0.03807293,2.4782803,0.29993483,1.7214183
151,1780383640831980,-0.11836776,0.05344854,-0.002928687,2.792876,0.12644911,1.772731
152,1780383640841980,-0.088104665,0.04344219,-0.043198135,2.8814514,0.04153884,1.7537941
153,1780383640851980,-0.071264714,0.035876416,-0.03904916,2.9321532,-0.1001819,1.7348573
154,1780383640861980,-0.042221904,0.019280521,-0.07004443,2.933375,-0.19120082,1.7293595
155,1780383640871980,-0.006345488,-0.010494461,-0.03465613,2.91566,-0.21502456,1.7281377
156,1780383640881980,1.2603117,-1.0074683,3.9014993,5.5478783,-0.8509353,0.77640975
157,1780383640891980,1.3713577,-1.427979,2.2194567,6.9565334,-0.28893927,-0.02321288
158,1780383640901980,1.3713577,-1.427979,2.2194567,6.9565334,-0.28893927,-0.02321288
159,1780383640911980,1.7950411,-1.9912632,0.053204484,6.1721826,-3.8924334,-1.6511687
160,1780383640921980,1.3440232,-1.8165181,-0.49885303,3.5369098,-5.4867916,-2.2504275
161,1780383640931980,0.47810817,-1.7215798,-0.5047104,-0.9914343,-4.40556,1.5247196
162,1780383640941980,0.6587105,-2.1218338,-0.5942794,-2.2510383,-3.2809572,4.1581597
163,1780383640951980,0.8088057,-2.2790065,-0.6455314,-4.5704937,-1.7214183,8.927795
164,1780383640961980,0.86274236,-2.213355,-0.4334457,-4.5313983,-1.1435398,9.507506
165,1780383640971980,0.7770783,-2.097672,-0.23819989,-4.114788,-0.44043383,9.673662
166,1780383640981980,0.59794027,-1.7301219,-0.31190515,-3.612657,-0.20708331,9.577146
167,1780383640991980,1.8792408,-3.2303417,-0.5940353,-2.7983737,1.1710287,7.5362444
168,1780383641001980,2.3751652,-4.2566023,-0.77805454,-2.2809708,3.0940325,4.5362854
169,1780383641011980,2.5467372,-4.8867583,-0.9938011,-1.7922786,4.8081203,1.0128145
170,1780383641021980,0.699224,-4.038903,-0.3219115,-0.048258353,5.7861156,-4.211305
171,1780383641031980,0.18231077,-3.4927032,-0.09640261,0.3408628,5.1300464,-4.2308526
172,1780383641041980,-0.36779428,-2.4066484,0.076389916,0.55771995,3.9602394,-3.7226129
173,1780383641051980,-0.7058135,-1.7364672,0.1415532,0.55771995,3.9602394,-3.7226129
174,1780383641061980,-0.77122086,-1.3825843,0.11006982,-1.4422529,-2.0115793,-0.38056904
175,1780383641071980,-0.64772797,-1.1883147,0.08175918,-2.2149973,-3.6737435,0.7489208
176,1780383641081980,-0.2884757,-0.8664033,0.12593354,-2.7666087,-4.777577,1.5674802
177,1780383641091980,-0.13740423,-0.7082541,0.19378147,-3.0763173,-5.3249125,1.9834795
178,1780383641101980,-0.056377225,-0.55840296,0.29482117,-3.3554828,-5.7629027,2.334727
179,1780383641111980,-0.05027579,-0.38268176,0.5959878,-3.2925637,-6.0781093,2.6529877
180,1780383641121980,-0.093473926,-0.105676785,1.2864257,-2.420248,-5.719531,2.796541
181,1780383641131980,0.2111095,-0.031483386,0.92863786,-1.5937474,-4.9797735,2.7617218
182,1780383641141980,0.30092257,-0.020988923,0.7922098,-0.39522982,-3.4397821,2.3958135
183,1780383641151980,0.3756041,0.029042812,0.5640163,0.18509217,-2.5008824,2.1282544
184,1780383641161980,0.3316738,0.058085624,0.44564855,1.1930199,-1.4410311,1.6701056
185,1780383641171980,0.268463,0.10030753,0.3392396,2.0030272,-0.8539896,1.3713925
186,1780383641181980,0.268463,0.10030753,0.3392396,2.0030272,-0.8539896,1.3713925
187,1780383641191980,0.27090356,0.19134088,0.20354374,2.4306328,-0.48380527,1.2791518
188,1780383641201980,0.34753752,0.3355787,0.11324256,2.629164,-0.29810223,1.2400564
189,1780383641211980,0.40342662,0.45760733,0.04490653,2.7281241,0.06291912,1.2479976
190,1780383641221980,0.5315567,0.6428468,0.01513155,2.552806,0.4636467,1.2443326
191,1780383641231980,0.8090498,1.0233321,-0.14350566,2.271808,0.8503244,1.2217305
192,1780383641241980,0.87226063,1.0924002,-0.090789296,1.7873917,1.2944235,1.1178834
193,1780383641251980,0.86298645,1.0709232,-0.06321083,1.1007792,1.2699889,0.6444628
194,1780383641261980,0.8751893,1.0138137,-0.10372432,0.89980453,1.042747,0.34330627
195,1780383641271980,0.87396896,0.7414459,-0.21501444,0.68600166,1.0030408,-0.108123146
196,1780383641281980,0.5186216,0.375116,-0.41684976,0.4905248,1.3109168,-0.36896262
197,1780383641291980,0.3738957,0.26699865,-0.41343296,0.32742378,1.6933185,-0.48380527
198,1780383641301980,0.25674823,0.06345488,-0.34949,-0.112399206,2.4788911,-0.5161811
199,1780383641311980,0.24283697,-0.01513155,-0.27920148,-0.5332854,2.6590965,-0.539394
200,1780383641321980,0.24283697,-0.01513155,-0.27920148,-0.5332854,2.6590965,-0.539394
201,1780383641331980,0.23356278,-0.13618395,-0.16742326,-0.93951076,2.4061983,-0.6169739
202,1780383641341980,0.24698594,-0.20159128,-0.13203497,-0.9773844,2.2498167,-0.61758476
203,1780383641351980,0.3082443,-0.33313814,-0.05222825,-1.0115929,2.0005836,-0.6957755
204,1780383641361980,0.32581642,-0.4876264,-0.057841565,-1.4202617,0.8552113,-0.97127575
205,1780383641371980,0.4983649,-0.8959341,-0.20110317,-1.8020525,0.16798794,-1.2687671
206,1780383641381980,1.0823939,-1.8514184,-0.12886222,-2.043955,-0.06291912,-1.8875736
207,1780383641391980,1.1055794,-4.0403676,0.39488465,-1.5375478,0.36896262,-2.8832839
208,1780383641401980,0.8454143,-4.5711923,0.28994003,-0.47952923,2.624888,-4.3811255
209,1780383641411980,0.65797836,-5.149364,0.15912533,-0.47952923,2.624888,-4.3811255
210,1780383641421980,-0.36632994,-5.5901313,-0.19719826,0.79290307,2.8527408,-3.8240163
211,1780383641431980,-0.9386441,-5.009519,-0.31581008,1.8106046,2.5466971,-2.339614
212,1780383641441980,-0.31434575,-3.9124818,-0.6882414,2.1948388,-2.1325307,0.6597345
213,1780383641451980,-0.31434575,-3.9124818,-0.6882414,2.1948388,-2.1325307,0.6597345
214,1780383641461980,0.16986385,-2.1516087,-0.51447266,1.6169603,-2.1508565,0.4111123
215,1780383641471980,0.20818083,-1.7708794,-0.3431445,0.8857546,-1.5656476,0.03848451
216,1780383641481980,0.33265,-1.5729489,-0.20232345,-0.3585779,0.35185838,0.12217305
217,1780383641491980,0.6718896,-1.479719,0.0024405725,-0.62125,0.79473567,0.24801129
218,1780383641501980,0.7653635,-1.530483,0.06882414,-0.77091193,0.8979719,0.22479841
219,1780383641511980,0.7963588,-1.5656272,0.08444381,-0.81489426,0.7965683,0.11911872
220,1780383641521980,0.73510045,-1.5636748,0.08517598,-0.7648033,0.22968534,-0.29749137
221,1780383641531980,0.5427833,-1.4296874,0.053936653,-0.7067711,-0.009773844,-0.4251622
222,1780383641541980,0.46736962,-1.3401184,0.022697324,-0.64934975,-0.312763,-0.52595496
223,1780383641551980,0.383658,-1.2154051,-0.010982576,-0.6597345,-0.7287622,-0.5326745
224,1780383641561980,0.30800024,-1.0806855,-0.009030119,-0.70005155,-0.8546005,-0.47891834
225,1780383641571980,0.24015234,-0.9081371,0.018304294,-0.784351,-1.0189233,-0.37201694
226,1780383641581980,0.15424417,-0.5706058,0.099819414,-0.9083566,-1.1814134,-0.23823744
227,1780383641591980,0.07443746,-0.24674188,0.22672918,-1.138042,-1.5577064,0.009773844
228,1780383641601980,0.016595893,-0.040269446,0.27871338,-1.205848,-1.8216002,0.14966199
229,1780383641611980,0.016595893,-0.040269446,0.27871338,-1.2040154,-2.008525,0.25228736
230,1780383641621980,-0.0051252022,0.0388051,0.25601605,-0.8912524,-2.162463,0.60048056
231,1780383641631980,-0.01513155,0.059305906,0.24845028,-0.7470882,-2.0995438,0.6621779
232,1780383641641980,-0.012446919,0.082003236,0.25015867,-0.5345071,-2.057394,0.72692966
233,1780383641651980,-0.016351834,0.097134784,0.2328306,-0.29810223,-2.0451767,0.7684685
234,1780383641661980,-0.012202863,0.105676785,0.2294138,-0.11911872,-2.0146337,0.7855727
235,1780383641671980,-0.0102504045,0.09835507,0.21550256,0.3817908,-1.8771889,0.788627
236,1780383641681980,0.012690976,0.063943,0.16595893,0.5510005,-1.8167132,0.7733554
237,1780383641691980,0.03172744,0.055645052,0.15863721,0.77091193,-1.704925,0.73364913
238,1780383641701980,0.062478654,0.046858992,0.1683995,1.2412782,-1.2773192,0.56382865
239,1780383641711980,0.08005078,0.04002539,0.15009521,1.4135422,-1.0958922,0.46914452
240,1780383641721980,0.0707766,0.0302631,0.06760386,1.5919148,-0.8881981,0.3378085
241,1780383641731980,0.040269446,0.027334413,0.020744866,1.930945,-0.19547687,0.052534413
242,1780383641741980,0.040269446,0.027334413,0.020744866,1.930945,-0.19547687,0.052534413
243,1780383641751980,0.037584815,0.040269446,-0.006833603,1.9755383,0.08674286,-0.03359759
244,1780383641761980,0.030751213,0.05588911,-0.041001618,1.9749273,0.31703907,-0.09590584
245,1780383641771980,-0.0026846298,0.09396204,-0.0776102,1.8808541,1.169807,-0.2779437
246,1780383641781980,-0.008297946,0.10909359,-0.079562664,1.8521434,1.3384057,-0.29932398
247,1780383641791980,-0.013179091,0.1164153,-0.060770255,1.8191566,1.5387696,-0.31520647
248,1780383641801980,-0.017084008,0.09859913,-0.04881145,1.8209893,1.7281377,-0.3286455
249,1780383641811980,-0.016351834,0.08005078,-0.041977845,1.9016235,1.9498819,-0.34269542
250,1780383641821980,-0.013179091,0.076389916,0.08078295,2.1649065,1.690875,-0.32559118
251,1780383641831980,-0.016107777,-0.1849954,1.3354812,3.1801646,0.37507126,-0.12950343
252,1780383641841980,0.1010397,-0.11519502,0.20354374,4.433049,-1.3274102,-0.13194689
253,1780383641851980,0.08712844,-0.13105874,-0.31751847,4.5674396,-1.6859881,-0.26633725
254,1780383641861980,0.3917119,-0.91619086,0.9076489,3.7323866,-1.3475688,-0.5766568
255,1780383641871980,0.3917119,-0.91619086,0.9076489,3.7323866,-1.3475688,-0.5766568
256,1780383641881980,1.6054085,-2.6282525,2.9648075,3.1991012,-4.5277333,-1.5754215
257,1780383641891980,1.6054085,-2.6282525,2.9648075,2.403144,-8.180097,-4.5277333
258,1780383641901980,1.4538491,-3.1236887,0.057109397,1.3646729,-6.9473705,-5.309641
259,1780383641911980,0.95524013,-3.0516918,-0.7734174,-0.069027774,-3.218038,-5.6712728
260,1780383641921980,0.61209553,-2.8476598,-0.74242216,-2.5014932,2.5399778,-3.8704422
261,1780383641931980,0.33484653,-2.6550987,-0.5688974,-3.3475416,4.3401976,-1.6548339
262,1780383641941980,0.20451997,-2.4854789,-0.31556603,-3.7006216,5.4470854,0.63407815
263,1780383641951980,0.60989904,-2.097428,-0.099575356,-3.659083,5.920506,2.0592268
264,1780383641961980,0.62014943,-1.8194468,-0.08566409,-3.568064,5.214346,2.6487117
265,1780383641971980,0.6028214,-1.5746574,-0.024893839,-3.385415,4.056756,2.456289
266,1780383641981980,0.545468,-1.3691611,0.010982576,-3.1844406,3.1007519,2.225382
267,1780383641991980,0.40562314,-1.0828819,-0.073217176,-2.8918362,1.8551978,1.885741
268,1780383642001980,0.33142975,-0.8969103,-0.30043447,-2.656042,0.51007247,1.3133603
269,1780383642011980,0.3943965,-1.1953924,-0.47273886,-2.7232373,0.5369505,0.9083566
270,1780383642021980,0.8232051,-2.3348956,-0.37706846,-2.5546384,0.79290307,0.07513642
271,1780383642031980,0.77146494,-3.4141169,-0.532777,-2.2314909,1.4996742,-1.5558738
272,1780383642041980,0.43930307,-3.2681708,-0.41245672,-1.9004018,2.1600194,-1.7947221
273,1780383642051980,-0.22794947,-2.7344174,-0.065163285,-1.6792686,1.981036,-1.0965031
274,1780383642061980,-0.17425688,-2.46327,0.020744866,-1.4880677,1.3732251,0.04642576
275,1780383642071980,-0.09615856,-2.170401,0.10982577,-1.5088371,0.3463606,0.8228355
276,1780383642081980,-0.13471961,-1.7938206,0.15400012,-2.34389,-2.4697282,1.251052
277,1780383642091980,-0.13789235,-1.4011327,0.19622204,-3.0836477,-3.8429532,1.3048081
278,1780383642101980,-0.051007964,-0.9618296,0.33362624,-3.5760052,-4.572937,1.400714
279,1780383642111980,-0.08419975,-0.67481834,0.72631437,-3.657861,-4.9883256,1.6114625
280,1780383642121980,-0.4170938,-0.12837411,2.3942015,-3.657861,-4.9883256,1.6114625
281,1780383642131980,-0.026114125,-0.110801995,1.7623373,-1.1191051,-3.5094209,1.9388863
282,1780383642141980,0.24747404,-0.07834238,1.3240106,-0.07696902,-2.6713138,1.8606955
283,1780383642151980,0.340948,-0.07736614,0.99965847,1.3866642,-1.5601498,1.5198327
284,1780383642161980,0.36974674,-0.062478654,0.64772797,1.6340646,-1.2394456,1.2980887
285,1780383642171980,0.38829508,0.0056133163,0.39659303,1.7654005,-0.79290307,1.102001
286,1780383642181980,0.43295756,0.27432033,0.28579104,1.8344283,-0.105068825,0.86132
287,1780383642191980,0.49397188,0.35168648,0.38951537,2.1820107,0.8045095,0.5907067
288,1780383642201980,0.49397188,0.35168648,0.38951537,2.1820107,0.8045095,0.5907067
289,1780383642211980,0.5549862,0.43027294,0.2421048,2.3585508,1.2260065,0.5002986
290,1780383642221980,0.5879339,0.6465077,-0.21062139,2.2266037,2.0152445,0.6053675
291,1780383642231980,0.65944266,0.7060576,-0.13349932,1.7715092,1.885741,0.8173377
292,1780383642241980,0.6638357,0.6794554,-0.24674188,1.568702,1.3225232,0.84849185
293,1780383642251980,0.61111933,0.61966133,-0.2962855,1.2980887,0.4868596,0.81183994
294,1780383642261980,0.5852493,0.55571836,-0.33631086,1.10139,-0.20891592,0.73731434
295,1780383642271980,0.5759751,0.5020258,-0.4148973,0.64568454,-1.5448782,0.27977628
296,1780383642281980,0.5383903,0.45687518,-0.48323336,0.462425,-1.7947221,0.053145275
297,1780383642291980,0.34241232,0.38780698,-0.5710939,0.16737708,-1.9914207,-0.22785273
298,1780383642301980,0.20476402,0.3533949,-0.5730464,-0.4746423,-2.1203132,-0.54183745
299,1780383642311980,0.102259986,0.32581642,-0.5762192,-0.8472701,-2.0842721,-0.6035349
300,1780383642321980,0.0012202862,0.29921418,-0.5186216,-1.1453724,-1.9730947,-0.589485
301,1780383642331980,0.010006348,-0.009030119,-0.3487578,-1.2626585,-1.4385877,-0.4783075
302,1780383642341980,0.010006348,-0.009030119,-0.3487578,-1.2626585,-1.4385877,-0.4783075
303,1780383642351980,-0.00024405724,-0.06321083,-0.36242503,-1.0910053,-0.32803464,-0.43493605
304,1780383642361980,0.11153416,-0.38268176,-0.72704655,-1.1246029,0.116675265,-0.41783184
305,1780383642371980,0.0993313,-0.8102701,0.26919514,-1.7446312,2.1911736,-0.42149702
306,1780383642381980,-0.13593988,-1.3103434,1.0221118,-0.73792523,9.136711,0.069027774
307,1780383642391980,-0.28920785,-2.8613272,0.48957884,-0.9987647,10.72374,0.1863139
308,1780383642401980,1.1536586,-5.4312496,0.29164842,-1.2748758,10.173349,-1.0256428
309,1780383642411980,0.6765267,-5.8825116,-0.2818861,-1.6878207,8.245459,-2.2363777
310,1780383642421980,0.08029483,-6.013326,-0.3482697,-2.5363126,2.9309313,-3.2974505
311,1780383642431980,-0.41245672,-5.7121596,-0.041001618,-1.6676621,1.6890424,-2.3341162
312,1780383642441980,-0.43417785,-4.440377,0.06833603,-0.33841935,-0.06841691,-0.5009095
313,1780383642451980,0.32557237,-3.6759903,-0.23746772,0.3213151,-0.8179486,0.593761
314,1780383642461980,0.6228341,-2.834725,-0.10055158,0.28099802,-0.47219884,0.5186246
315,1780383642471980,0.5976962,-1.3994243,0.28505886,-0.23701571,-0.6914995,-0.42271876
316,1780383642481980,0.6428468,-1.2632403,0.20549619,-0.02076942,-0.79779,-0.32986724
317,1780383642491980,0.7551131,-1.3320644,0.15619664,-0.02076942,-0.79779,-0.32986724
318,1780383642501980,0.869576,-1.5360963,0.12520137,0.15088372,-0.56321776,-0.66645396
319,1780383642511980,0.869576,-1.5360963,0.12520137,0.15088372,-0.56321776,-0.66645396
320,1780383642521980,0.5515694,-1.6822866,0.05515694,0.2779437,-0.37568212,-1.1636983
321,1780383642531980,0.41977844,-1.602724,0.009274175,0.22968534,-0.31703907,-1.0793989
322,1780383642541980,0.41977844,-1.602724,0.009274175,0.22968534,-0.31703907,-1.0793989
323,1780383642551980,0.31825066,-1.458242,-0.00707766,0.13988814,-0.24862215,-0.94134337
324,1780383642561980,0.1461903,-0.856885,0.061746486,-0.022602014,-0.28588495,-0.70616025
325,1780383642571980,0.09737884,-0.6665203,0.046858992,-0.29932398,-0.50640726,-0.5174029
326,1780383642581980,0.09737884,-0.6665203,0.046858992,-0.29932398,-0.50640726,-0.5174029
327,1780383642591980,-0.06199054,-0.2523552,0.05588911,-0.5925393,-0.68111473,-0.35430184
328,1780383642601980,-0.113974735,-0.1552204,0.13496366,-0.6536258,-0.90224797,-0.24251351
329,1780383642611980,-0.13716017,-0.08322352,0.18938842,-0.5271767,-1.4782939,-0.022602014
330,1780383642621980,-0.12349297,0.037828874,0.23697957,-0.35613444,-1.7983873,0.087964594
331,1780383642631980,-0.10689708,0.071020655,0.24259292,-0.14172074,-2.0891593,0.18509217
332,1780383642641980,-0.088836834,0.102992155,0.22331238,0.032375857,-2.284636,0.24251351
333,1780383642651980,-0.073217176,0.11543907,0.17889395,0.67256266,-2.6578746,0.37507126
334,1780383642661980,-0.058085624,0.087616555,0.1181237,0.87109387,-2.6719246,0.39645153
335,1780383642671980,-0.05222825,0.07028849,0.073217176,1.0451905,-2.6181684,0.40133846
336,1780383642681980,-0.05222825,0.07028849,0.073217176,1.2748758,-2.3591616,0.37690386
337,1780383642691980,-0.043930303,0.05686534,0.039537273,1.2748758,-2.3591616,0.37690386
338,1780383642701980,-0.021965152,0.039537273,-0.03734076,1.4569136,-1.7898352,0.30604348
339,1780383642711980,-0.004881145,0.03929322,-0.028798755,1.627345,-1.1453724,0.19120082
340,1780383642721980,0.008053889,0.04490653,-0.03294773,1.7183639,-0.7281514,0.095294975
341,1780383642731980,0.0156196635,0.06199054,-0.045638707,1.7629571,-0.38423425,0.013439035
342,1780383642741980,0.017816179,0.0741934,-0.056377225,1.8118263,0.0842994,-0.096516706
343,1780383642751980,-0.0056133163,0.107385196,-0.05759751,1.8564194,0.50518554,-0.20769419
344,1780383642761980,-0.020256752,0.13227904,-0.05759751,1.9462167,1.1301007,-0.38056904
345,1780383642771980,-0.04002539,0.15766099,-0.06345488,2.0103576,1.4526376,-0.45631635
346,1780383642781980,-0.067847915,0.18841219,-0.040269446,2.1111503,1.7275269,-0.50518554
347,1780383642791980,-0.08786061,0.21403822,-0.025870068,2.525317,2.180789,-0.5375614
348,1780383642801980,-0.08956901,0.24625377,-0.030507157,2.6236663,2.204002,-0.52290064
349,1780383642811980,-0.082735404,0.24600971,-0.04490653,2.6236663,2.204002,-0.52290064
350,1780383642821980,-0.082735404,0.24600971,-0.04490653,2.7214046,2.166739,-0.48747048
351,1780383642831980,-0.053936653,0.17889395,-0.030751213,2.8154778,2.0280726,-0.38423425
352,1780383642841980,0.8305268,-0.8005078,3.492459,3.0042353,0.5534439,-0.22296582
353,1780383642851980,0.73290396,-1.3528093,2.7168453,4.365854,-3.01462,-0.83199847
354,1780383642861980,0.8588374,-1.7850347,2.0862012,5.309641,-7.418958,-2.384207
355,1780383642871980,1.1351103,-2.280715,1.6024799,4.8857,-7.3878045,-3.009733
356,1780383642881980,1.4394495,-3.2840343,0.69434285,3.4067955,-5.798944,-3.86189
357,1780383642891980,1.1168059,-3.017768,0.1871919,1.2620476,-3.580892,-4.2949934
358,1780383642901980,1.1343781,-2.6265442,-0.24503349,-2.0879374,0.28893927,-4.2400155
359,1780383642911980,0.5608435,-2.6482651,-0.5554743,-4.4672575,3.472769,-2.5943446
360,1780383642921980,0.34900185,-2.0317764,0.6828722,-4.6480737,4.233907,-0.8729264
361,1780383642931980,0.5422952,-1.8069998,0.66847277,-3.0292807,3.6994,1.8167132
362,1780383642941980,0.72021294,-1.700591,0.44418418,-2.5179865,2.964529,2.2369885
363,1780383642951980,0.7897693,-1.5963784,0.037584815,-2.0158553,2.025629,2.4581218
364,1780383642961980,0.7897693,-1.5963784,0.037584815,-1.6927075,1.1551461,2.4581218
365,1780383642971980,0.65944266,-1.4558015,-0.27773714,-1.5900823,0.58276546,2.3774874
366,1780383642981980,0.5937913,-1.2778838,-0.30897647,-1.9847012,-0.7837401,1.9779817
367,1780383642991980,0.45297024,-0.99965847,-0.29604146,-2.324953,-1.3451253,1.7165314
368,1780383643001980,0.48054874,-0.9711038,-0.16351835,-2.833193,-1.5008959,1.3793337
369,1780383643011980,0.48445365,-0.9525554,-0.13862452,-3.1972687,-1.3848315,1.0213667
370,1780383643021980,0.43076107,-0.94572186,-0.29433304,-3.6480873,-0.44837508,0.4905248
371,1780383643031980,0.77561396,-2.8108072,-0.34070393,-3.8802161,0.61208695,0.24556783
372,1780383643041980,0.622346,-3.6052139,-0.24649782,-3.8319576,1.7379116,-0.19547687
373,1780383643051980,0.17816179,-3.5256512,-0.036852647,-2.8716774,3.222925,0.81000733
374,1780383643061980,0.3961049,-3.0216727,0.24283697,-2.406809,2.9046643,1.4434745
375,1780383643071980,0.4795725,-2.6023824,0.277005,-1.8863518,2.225382,1.7214183
376,1780383643081980,0.39976576,-2.1806517,0.28359452,-1.4074335,0.39400807,1.4330899
377,1780383643091980,0.39976576,-2.1806517,0.28359452,-1.4074335,0.39400807,1.4330899
378,1780383643101980,0.18231077,-1.2956998,0.28286234,-1.5839735,-1.2296717,1.2663237
379,1780383643111980,0.021965152,-0.64479923,0.32410803,-1.7751744,-2.0928242,1.3017539
380,1780383643121980,0.0134231495,-0.44345203,0.33020946,-2.0518963,-3.2583551,1.5503759
381,1780383643131980,0.012202863,-0.25943285,0.36144876,-2.134974,-3.7110064,1.736079
382,1780383643141980,0.00048811449,0.12495731,0.88226694,-2.1178699,-3.9926152,1.885741
383,1780383643151980,0.054424766,0.28871974,1.1539028,-1.7201965,-4.316374,2.1025982
384,1780383643161980,0.17669745,0.33582276,1.0862988,-0.9236283,-4.4733663,2.2797492
385,1780383643171980,0.2894519,0.3328941,1.0152781,0.5015204,-4.180762,2.239432
386,1780383643181980,0.5359497,0.33435842,0.81197846,1.2980887,-3.6157115,1.9889772
387,1780383643191980,0.61819696,0.2975058,0.536926,2.0971005,-2.4801128,1.5900823
388,1780383643201980,0.51666915,0.26577836,0.14570218,3.1905491,-0.45631635,0.5907067
389,1780383643211980,0.51666915,0.26577836,0.14570218,3.1905491,-0.45631635,0.5907067
390,1780383643221980,0.45809543,0.4288086,0.05515694,3.4049628,0.08246681,0.49113566
391,1780383643231980,0.63332856,0.5217944,0.007321717,3.7201693,0.59620446,0.5448918
392,1780383643241980,0.80587703,0.64162654,-0.23990828,3.5613444,0.874759,0.41355577
393,1780383643251980,0.8856837,0.81734776,-0.55864704,3.0445523,1.2925909,0.16676621
394,1780383643261980,0.7831797,0.97549677,-0.53058046,2.4397957,1.559539,-0.14294247
395,1780383643271980,0.6557818,0.9498709,-0.45736328,1.5674802,1.4404203,-0.689056
396,1780383643281980,0.56670094,0.91057765,-0.4368625,1.1032226,1.2400564,-0.9663888
397,1780383643291980,0.48274526,0.8241814,-0.39781332,0.7648033,1.1215485,-1.1533136
398,1780383643301980,0.15839316,0.5210622,-0.32972133,-0.41538838,0.8533788,-1.5045611
399,1780383643311980,0.07516963,0.39634898,-0.31947094,-0.67073005,0.8729264,-1.4807373
400,1780383643321980,-0.041977845,0.13154685,-0.18865626,-0.9388999,0.90102625,-1.3933836
401,1780383643331980,-0.041977845,0.13154685,-0.18865626,-1.1227703,0.893085,-1.269378
402,1780383643341980,-0.0741934,-0.082247294,-0.06589546,-1.359786,0.80878556,-0.9266826
403,1780383643351980,-0.0741934,-0.082247294,-0.06589546,-1.359786,0.80878556,-0.9266826
404,1780383643361980,0.03904916,-0.30897647,-0.30897647,-1.6029104,0.60903263,-0.45081854
405,1780383643371980,0.18255483,-0.5554743,-0.43417785,-1.8668042,0.56138515,-0.18570304
406,1780383643381980,0.38780698,-0.8407772,-0.63503695,-2.4373524,0.6957755,0.087964594
407,1780383643391980,0.38268176,-1.8677702,1.6178555,-2.7171285,3.436117,0.6365216
408,1780383643401980,0.7824476,-3.7694643,0.46639338,-2.5259278,5.4733524,0.43188173
409,1780383643411980,1.4846002,-5.738518,-0.48738232,-2.7049112,5.932723,-0.9437868
410,1780383643421980,1.0321181,-6.176357,-0.5530337,-2.0732768,4.51124,-3.258966
411,1780383643431980,-0.39854547,-5.5054436,-0.2545517,1.4001031,-0.08735373,-1.536937
412,1780383643441980,-0.39854547,-5.5054436,-0.2545517,1.4001031,-0.08735373,-1.536937
413,1780383643451980,-0.035876416,-3.2869632,-0.88690406,1.4569136,-3.3066137,-0.68416905
414,1780383643461980,-0.035876416,-3.2869632,-0.88690406,1.4569136,-3.3066137,-0.68416905
415,1780383643471980,0.118855886,-1.6935132,-0.24942651,-0.16554448,-1.4031575,-0.90285885
416,1780383643481980,0.29823795,-1.1485333,0.26504618,-0.5180137,-0.47647488,-0.69027776
417,1780383643491980,0.45419052,-1.1441404,0.30897647,-0.68600166,0.71776664,0.018325957
418,1780383643501980,0.69312257,-1.279104,0.29140437,-0.75502944,1.1820242,0.2565634
419,1780383643511980,1.1114367,-1.8306733,0.24186075,-0.7788532,1.378112,0.19975294
420,1780383643521980,1.1087521,-2.029824,0.1637624,-0.68844515,1.3805555,-0.069027774
421,1780383643531980,0.9869675,-2.0800998,0.06980037,-0.2968805,1.0836749,-0.74281216
422,1780383643541980,0.758774,-2.0325086,-0.021965152,-0.16065755,0.93279123,-0.852157
423,1780383643551980,0.28994003,-1.4587301,-0.026114125,-0.05009095,0.63713247,-0.80939645
424,1780383643561980,0.28994003,-1.4587301,-0.026114125,-0.048258353,0.27550024,-0.6469063
425,1780383643571980,0.17645338,-0.9706156,0.12813005,-0.48197266,-1.1484267,-0.23335053
426,1780383643581980,0.09054524,-0.5525456,0.13960074,-0.66523224,-1.5210545,-0.1600467
427,1780383643591980,0.09054524,-0.5525456,0.13960074,-0.66523224,-1.5210545,-0.1600467
428,1780383643601980,0.014643434,-0.26236153,0.10177187,-1.3793337,-2.2009475,0.14110987
429,1780383643611980,0.013667206,-0.1769415,0.18011424,-1.41904,-2.3658812,0.21135938
430,1780383643621980,0.012690976,-0.03172744,0.47493544,-1.2932017,-2.5906794,0.2828306
431,1780383643631980,-0.022209208,0.030751213,0.6216138,-0.92179567,-2.723848,0.344528
432,1780383643641980,-0.037584815,0.029286869,0.45736328,0.032986723,-2.4917192,0.4288274
433,1780383643651980,-0.031239327,0.020744866,0.32508424,0.44348818,-2.243097,0.42638394
434,1780383643661980,-0.023429496,0.019280521,0.22233616,0.68966687,-2.0677788,0.40500367
435,1780383643671980,-0.033679903,0.055400997,0.07687803,0.9505063,-1.8625281,0.36896262
436,1780383643681980,-0.05027579,0.07565775,0.023673553,1.2638801,-1.4202617,0.3323107
437,1780383643691980,-0.06638357,0.08175918,-0.035876416,1.3182472,-1.1997393,0.34147367
438,1780383643701980,-0.06882414,0.07150877,-0.10958171,1.3402383,-0.87598073,0.36285394
439,1780383643711980,-0.044174362,0.055400997,-0.108117364,1.3365731,-0.03176499,0.38912117
440,1780383643721980,-0.01952458,0.049787678,-0.08127106,1.3665055,0.22052236,0.3555236
441,1780383643731980,-0.00097622897,0.05735345,-0.044662476,1.4056009,0.41172317,0.3182608
442,1780383643741980,-0.00097622897,0.05735345,-0.044662476,1.4056009,0.41172317,0.3182608
443,1780383643751980,0.007321717,0.08956901,-0.019280521,1.5711454,0.97066486,0.17104226
444,1780383643761980,0.006345488,0.108117364,-0.011226633,1.7983873,1.5705346,0.0018325958
445,1780383643771980,-0.0078098318,0.16986385,0.030751213,1.9975294,1.8741345,-0.08002335
446,1780383643781980,-0.029042812,0.22233616,0.041245673,2.234545,2.0292943,-0.1337795
447,1780383643791980,-0.027822526,0.26626647,0.05588911,2.6755898,1.9938642,-0.11301007
448,1780383643801980,-0.0078098318,0.30629185,0.049787678,2.9413161,1.8753563,-0.08552113
449,1780383643811980,0.06687169,0.37365165,0.035632357,3.128852,1.7580702,-0.05497787
450,1780383643821980,0.06687169,0.37365165,0.035632357,3.3530393,1.5210545,-0.02321288
451,1780383643831980,0.107385196,0.35632357,0.03441207,3.6981783,0.58032197,-0.058643065
452,1780383643841980,0.12471326,0.31995904,0.0319715,3.7824776,0.020158553,-0.09162979
453,1780383643851980,0.12520137,0.24747404,-0.004148973,3.8136318,-0.7324274,-0.09712757
454,1780383643861980,0.37536004,-0.19329333,1.180993,3.821573,-1.4795157,-0.14294247
455,1780383643871980,0.456143,-1.3413386,1.7142582,4.2571197,-8.834333,-1.5662584
456,1780383643881980,0.53033644,-2.0832727,0.5366819,3.3371568,-9.645562,-2.0451767
457,1780383643891980,1.2288283,-2.8327725,2.4881637,1.2516629,-9.824546,-2.579073
458,1780383643901980,1.4057697,-2.5079324,0.64431113,0.015271631,-4.0549235,-3.8423424
459,1780383643911980,1.0948408,-2.2628987,0.18768002,-0.8258898,-1.96271,-4.106236
460,1780383643921980,0.9474302,-2.361254,-0.13935669,-1.9358319,0.6658431,-4.346917
461,1780383643931980,0.69898,-2.4500906,-0.15082738,-2.7507262,2.6236663,-4.2418485
462,1780383643941980,0.5618198,-2.3344076,-0.0056133163,-3.0952542,3.6053267,-3.6926804
463,1780383643951980,0.84248555,-2.1516087,0.422219,-3.177721,4.111734,-0.52106804
464,1780383643961980,1.0064921,-1.9605118,0.14692247,-2.4630086,3.1392365,2.3011293
465,1780383643971980,1.0064921,-1.9605118,0.14692247,-2.4630086,3.1392365,2.3011293
466,1780383643981980,1.0636015,-1.8538588,0.010982576,-2.2852468,1.3891076,2.819754
467,1780383643991980,0.7063017,-1.5736811,-0.30092257,-1.8490891,0.45265114,2.1209242
468,1780383644001980,0.5964759,-1.3711137,-0.49958518,-1.8649716,0.40317106,1.7513506
469,1780383644011980,0.5957437,-1.5844196,-0.8241814,-2.6224444,1.10139,0.9779953
470,1780383644021980,0.7905014,-2.2824233,-0.66969305,-2.6224444,1.10139,0.9779953
471,1780383644031980,0.8222289,-2.7131844,-0.5440036,-3.154508,2.3952026,-0.19730948
472,1780383644041980,0.4932397,-2.8508327,-0.255772,-3.2027664,3.059824,-0.66645396
473,1780383644051980,0.2323425,-2.7946997,-0.11275445,-2.7366762,3.7891972,-0.009162978
474,1780383644061980,0.067847915,-2.736614,0.048567392,-2.4489589,3.6743546,0.6200282
475,1780383644071980,0.15009521,-2.3470986,0.20647243,-2.1594086,3.0353894,1.2980887
476,1780383644081980,0.18914436,-2.0534978,0.26480213,-2.0952678,2.2143865,1.6096299
477,1780383644091980,0.10323621,-1.5827112,0.37926495,-3.227812,-2.1093178,1.3805555
478,1780383644101980,0.10323621,-1.5827112,0.37926495,-3.227812,-2.1093178,1.3805555
479,1780383644111980,0.051007964,-1.1590278,0.48567393,-3.2565227,-2.8252518,1.432479
480,1780383644121980,-0.008542004,-0.882511,0.69409883,-3.1703906,-3.5717292,1.5625933
481,1780383644131980,-0.071264714,-0.4407674,1.2437156,-1.5796975,-5.657834,2.1398609
482,1780383644141980,0.19768637,-0.23161033,1.001855,-0.6291912,-6.222884,2.2650883
483,1780383644151980,0.3109289,-0.19280522,0.6743302,0.24862215,-6.3896503,2.2449298
484,1780383644161980,0.34949,-0.15570852,0.40562314,0.79168135,-6.208834,2.1459696
485,1780383644171980,0.3526627,-0.10958171,0.18548352,1.6615535,-4.7671924,1.7513506
486,1780383644181980,0.33484653,0.007321717,-0.022697324,1.8350391,-4.05248,1.6114625
487,1780383644191980,0.32459614,0.05735345,-0.047103047,2.0146337,-3.1575625,1.4587462
488,1780383644201980,0.2865232,0.12032023,-0.08029483,2.3047945,-1.8777997,1.2773192
489,1780383644211980,0.23966423,0.19988288,-0.09127741,2.4135287,-1.5601498,1.2846496
490,1780383644221980,0.2272173,0.31019676,-0.07736614,2.5906794,-1.2718215,1.3475688
491,1780383644231980,0.3392396,0.5615757,-0.16644704,2.7568347,-1.0219775,1.4660766
492,1780383644241980,0.5735345,1.036267,-0.29774985,2.723848,0.36468655,1.7373008
493,1780383644251980,0.5735345,1.036267,-0.29774985,2.723848,0.36468655,1.7373008
494,1780383644261980,1.0513986,1.5182801,-0.48225713,1.9462167,1.8680259,0.6450737
495,1780383644271980,0.9698835,1.5714846,-0.5266756,1.5540411,2.4813347,-0.24251351
496,1780383644281980,0.82906246,1.3789234,-0.37682438,0.88697636,2.8845057,-1.2278391
497,1780383644291980,0.52203846,1.1641531,0.063943,0.7495316,2.5308146,-1.4178182
498,1780383644301980,0.19109683,0.72826684,0.24064046,0.6792821,1.9034561,-1.4471397
499,1780383644311980,0.14301755,0.54717636,0.15155955,0.5681047,1.5357152,-1.4477507
500,1780383644321980,0.13276714,0.38048524,0.111046046,0.2950479,1.3310753,-1.351234
501,1780383644331980,0.13545178,0.11568313,0.16986385,0.18142697,1.3884968,-1.3548992
502,1780383644341980,0.052472305,-0.37609223,2.2868164,0.047036625,1.3164146,-1.3603969
503,1780383644351980,-0.17108414,-0.97354436,1.1365746,0.376293,-1.8026633,-1.4630222
504,1780383644361980,-0.04271002,-0.47493544,-0.17352471,-0.82344633,-1.9889772,-0.9621128
505,1780383644371980,0.028554698,-0.3687705,-0.4983649,-1.1759156,-0.92179567,-0.35979962
506,1780383644381980,1.5997953,-2.2094502,-0.8361401,-1.0867293,-0.24190263,0.06536258
507,1780383644391980,2.3121984,-4.531899,-1.0164984,-1.3469579,0.18325958,-0.4361578
508,1780383644401980,2.1237862,-4.6819944,-0.6540734,-3.3957999,4.820338,-3.6120462
509,1780383644411980,2.1237862,-4.6819944,-0.6540734,-3.8398988,7.746382,-4.3548584
510,1780383644421980,-0.07785426,-4.54337,0.022941383,-4.344474,10.500773,-4.6163087
511,1780383644431980,-0.2962855,-3.9529953,0.17254847,-1.817935,4.54667,0.14049901
512,1780383644441980,-0.2962855,-3.9529953,0.17254847,-1.817935,4.54667,0.14049901
513,1780383644451980,0.17596528,-3.18934,-0.52203846,-0.3555236,-0.67256266,1.5088371
514,1780383644461980,0.17889395,-2.621663,-0.74339837,0.9370673,-6.794654,0.10445796
515,1780383644471980,-0.1313028,-2.3468544,-0.53912246,0.77518797,-6.381709,-0.68539083
516,1780383644481980,-0.6472398,-1.722312,-0.09005712,0.49480084,-5.5998015,-1.0268645
517,1780383644491980,-0.6233222,-1.5058333,0.027090356,-0.02321288,-3.540575,-1.2345587
518,1780383644501980,-0.43808278,-1.5897889,0.25040275,-0.56077427,-1.3182472,-1.2119566
519,1780383644511980,-0.12080834,-1.7389079,0.3568117,-0.6249151,0.83260936,-0.64996064
520,1780383644521980,0.36852646,-1.9395229,0.36413342,-0.57910025,1.5980235,-0.5332854
521,1780383644531980,0.41587353,-2.0339732,0.25943285,-0.5919284,2.1587977,-0.5021312
522,1780383644541980,0.36437747,-2.032997,0.1415532,-0.64996064,2.5466971,-0.4801401
523,1780383644551980,0.26968327,-1.9517258,0.09176553,-0.8197812,3.241251,-0.16371189
524,1780383644561980,0.19207305,-1.5741693,0.14008886,-0.8686504,3.1520646,0.16371189
525,1780383644571980,0.20647243,-1.3564702,0.16400647,-0.9315695,2.7586675,0.5381723
526,1780383644581980,0.19988288,-0.8920292,0.1871919,-1.0354166,1.6694947,0.9615019
527,1780383644591980,0.19988288,-0.8920292,0.1871919,-1.0665708,0.729984,1.1386528
528,1780383644601980,0.24259292,-0.39268813,0.21916342,-1.0195341,0.15454891,1.17897
529,1780383644611980,0.32215557,-0.24454537,0.39293218,-0.6621779,-1.0146471,1.0928379
530,1780383644621980,0.31873876,-0.10958171,0.5227706,-0.26328292,-1.7953329,0.9877691
531,1780383644631980,0.23136626,-0.050031736,0.25992095,-0.07147124,-2.126422,0.9401216
532,1780383644641980,0.26480213,-0.0065895454,0.15033926,0.12644911,-2.2589796,0.8258898
533,1780383644651980,0.25333142,0.05832968,-0.002928687,0.4129449,-2.0512855,0.4978552
534,1780383644661980,0.21525851,0.07272906,-0.020988923,0.48991394,-1.9321668,0.38423425
535,1780383644671980,0.19085276,0.09005712,-0.0319715,0.6102544,-1.7880026,0.25900686
536,1780383644681980,0.14252943,0.13886857,-0.038561042,0.915687,-1.67316,0.12705997
537,1780383644691980,0.14374973,0.14228538,-0.04881145,1.0793989,-1.5766432,0.084910266
538,1780383644701980,0.13496366,0.119099945,-0.067847915,1.310306,-1.4013249,-0.01160644
539,1780383644711980,0.1513155,0.11348662,-0.082735404,1.409877,-1.282817,-0.081855945
540,1780383644721980,0.1513155,0.11348662,-0.082735404,1.409877,-1.282817,-0.081855945
541,1780383644731980,0.14692247,0.060770255,-0.1147069,1.4703526,-1.0262536,-0.38789943
542,1780383644741980,0.15717287,0.07980672,-0.19671014,1.2864822,-0.7696902,-0.54061574
543,1780383644751980,0.37194324,0.47395915,-0.40049794,0.8552113,-0.12767084,-0.8228355
544,1780383644761980,0.4497975,0.6901939,-0.3392396,-0.0842994,1.4257594,-1.7562376
545,1780383644771980,0.41904628,0.7326599,-0.28335047,-0.4654793,2.175902,-2.2950208
546,1780383644781980,0.2272173,0.4837215,-0.16010156,-0.5705481,2.5491407,-2.5320365
547,1780383644791980,0.041245673,0.27895743,-0.08590815,-0.4251622,3.300505,-2.9107728
548,1780383644801980,-0.12080834,0.1889003,0.03294773,0.053145275,3.5534031,-2.850908
549,1780383644811980,-0.15058333,0.2186753,0.033191785,0.34025195,3.6425896,-2.764776
550,1780383644821980,-0.1615659,0.23673552,0.03929322,0.6627888,3.6706893,-2.6713138
551,1780383644831980,0.033435844,-1.2605556,3.460976,5.2503867,-1.1081096,-2.5809057
552,1780383644841980,0.0026846298,-0.38463423,1.2710502,6.4843345,-2.2870796,-2.6786442
553,1780383644851980,-0.08908089,-0.21574661,0.042465962,6.586349,-2.4135287,-2.5949554
554,1780383644861980,0.08175918,-0.38829508,-0.37658033,6.419583,-2.4288,-2.5185974
555,1780383644871980,0.1564407,-0.5012936,-0.38780698,6.0542855,-2.3744333,-2.453235
556,1780383644881980,0.31385764,-0.76219076,-0.07907455,5.5649824,-2.9773571,-2.0305161
557,1780383644891980,1.5373166,-3.0270422,1.8621569,6.510602,-4.198477,-1.6609426
558,1780383644901980,2.1413581,-3.9110172,1.7110853,7.5228057,-4.114177,-0.71776664
559,1780383644911980,2.0700936,-4.1582475,0.9230245,7.537466,-4.229631,0.2773328
560,1780383644921980,1.6627622,-3.5786114,-0.69214636,5.8588085,-4.2852197,1.8173242
561,1780383644931980,1.6627622,-3.5786114,-0.69214636,3.4190128,-1.5234979,3.263853
562,1780383644941980,0.8969103,-2.2829115,-0.20769271,-5.23145,2.094046,2.3976462
563,1780383644951980,0.8969103,-2.2829115,-0.20769271,-5.23145,2.094046,2.3976462
564,1780383644961980,0.4978768,-1.9173138,0.26406994,-5.9302797,1.6676621,1.5106697
565,1780383644971980,0.25089085,-1.0945967,0.82759815,-4.850881,1.2486086,1.5442673
566,1780383644981980,0.35290676,-0.9642702,0.65285313,-3.9199224,1.0152581,1.536326
567,1780383644991980,0.4556549,-0.8449261,0.37267542,-1.7427986,0.74464476,1.169807
568,1780383645001980,0.53058046,-0.69898,-0.04759116,-1.3200798,0.7171558,0.9260717
569,1780383645011980,0.5288721,-0.63186425,-0.37218732,-1.17897,0.8081747,0.593761
570,1780383645021980,0.47835222,-0.54107493,-0.6016011,-1.3622295,1.1582005,0.3115413
571,1780383645031980,0.40562314,-0.50031734,-0.4148973,-1.6713274,2.0274618,-0.06963864
572,1780383645041980,0.29921418,-0.45638704,-0.32166746,-1.7928895,2.5735753,-0.12705997
573,1780383645051980,0.925221,-2.3951778,-0.26236153,-2.107485,3.123354,-0.12339478
574,1780383645061980,1.177088,-3.5183294,-0.26504618,-2.1905627,3.435506,-0.38240165
575,1780383645071980,1.0001466,-4.2497687,-0.29897013,-2.4996605,4.119675,-0.7825184
576,1780383645081980,0.3141017,-3.3540788,0.24552159,-2.7140744,4.043317,-0.28527406
577,1780383645091980,0.3141017,-3.3540788,0.24552159,-2.9089403,3.3573153,0.7910705
578,1780383645101980,0.33240595,-2.8169088,0.44491637,-3.2100968,1.7458528,1.2669345
579,1780383645111980,0.19036464,-1.7745403,0.40708748,-3.218038,-2.7446175,1.282817
580,1780383645121980,-0.082735404,-0.90472025,0.43442193,-3.1538973,-3.6077702,1.3946054
581,1780383645131980,-0.17547716,-0.5793919,0.63357264,-3.095865,-4.125784,1.5296066
582,1780383645141980,-0.24918245,-0.29945824,1.0343146,-2.1832323,-5.3872204,2.094657
583,1780383645151980,-0.28335047,-0.060770255,1.2473766,-1.4899004,-5.7048707,2.3432791
584,1780383645161980,0.016839951,0.07272906,0.75364876,-0.65668017,-5.7311378,2.5326474
585,1780383645171980,0.14545812,0.099087246,0.49470404,0.01282817,-5.321858,2.56991
586,1780383645181980,0.21184167,0.122272685,0.32532832,0.7703011,-3.940081,2.3732114
587,1780383645191980,0.24674188,0.13862452,0.21623473,1.1233811,-3.1465669,2.207056
588,1780383645201980,0.2403964,0.15204766,0.102259986,1.4953982,-2.5607471,2.0390682
589,1780383645211980,0.29384494,0.19085276,0.027822526,2.3958135,-1.7867808,1.5931365
590,1780383645221980,0.29384494,0.19085276,0.027822526,2.6077838,-1.6762142,1.4996742
591,1780383645231980,0.2767609,0.21965154,-0.037584815,2.6077838,-1.6762142,1.4996742
592,1780383645241980,0.25552794,0.39830142,-0.1696198,3.101363,-1.359786,1.5497651
593,1780383645251980,0.41611758,0.5588911,-0.20866893,3.3127222,-1.0726794,1.6536123
594,1780383645261980,0.8927614,1.1099724,-0.48542988,3.245527,-0.8338311,1.5302174
595,1780383645271980,0.96817505,1.4062579,-0.507395,2.8270843,-0.11484267,1.0451905
596,1780383645281980,0.9169231,1.4584862,-0.4595598,2.5088236,0.46914452,0.5870415
597,1780383645291980,0.81149036,1.368429,-0.44345203,2.1343632,1.1178834,0.023823744
598,1780383645301980,0.72216535,1.2085714,-0.31825066,1.4654657,2.039679,-0.65240407
599,1780383645311980,0.503002,0.7643873,-0.0017084008,1.142318,2.298686,-0.84421575
600,1780383645321980,0.44833317,0.5527897,0.18865626,0.86376345,2.3157902,-0.947452
601,1780383645331980,0.38121742,0.38878322,0.24796216,0.6585127,2.0500638,-1.056186
602,1780383645341980,0.28432667,0.268463,0.19719826,0.548557,1.8368717,-1.1343768
603,1780383645351980,0.20940112,0.18572757,0.17035197,0.3323107,1.5931365,-1.273654
604,1780383645361980,0.08590815,-0.22233616,0.8717725,0.28221974,1.4825699,-1.3029755
605,1780383645371980,-0.00097622897,-0.28994003,-0.2277054,-0.75869465,0.70616025,-0.68783426
606,1780383645381980,0.35534734,-0.63381666,-0.46712556,-1.3322971,0.9969321,-0.3640757
607,1780383645391980,0.91863143,-1.875824,0.17791773,-2.185065,1.7427986,-0.61391956
608,1780383645401980,1.7735641,-4.1509256,0.38780698,-1.582141,4.003,-2.1197023
609,1780383645411980,2.000049,-4.4960227,-0.6294237,-2.1905627,4.9571714,-3.8698313
610,1780383645421980,0.35974038,-5.8383374,-0.44149956,-2.2009475,4.3432517,-4.1770964
611,1780383645431980,-0.5691415,-5.400987,0.048323333,-0.7104363,2.5118778,-2.3328943
612,1780383645441980,-0.8681116,-4.646606,-0.017816179,0.8729264,-0.4202753,-0.1863139
613,1780383645451980,-0.8681116,-4.646606,-0.017816179,1.5790867,-2.5833492,0.7330383
614,1780383645461980,-0.052716363,-2.6245918,-0.6877533,1.5699236,-3.349374,0.6542367
615,1780383645471980,-0.011714748,-1.8133454,-0.23087814,0.6249151,-2.4294112,-0.17654006
616,1780383645481980,0.058085624,-1.504857,-0.019280521,0.13622294,-1.387275,-0.5369505
617,1780383645491980,0.12666571,-1.3371897,0.09127741,-0.111177474,-0.6035349,-0.6743952
618,1780383645501980,0.12666571,-1.3371897,0.09127741,-0.111177474,-0.6035349,-0.6743952
619,1780383645511980,0.43100512,-1.330112,0.18109047,-0.66889745,1.6835446,-0.42638394
620,1780383645521980,0.673598,-1.7891837,0.1696198,-0.7275405,2.2821925,-0.30115658
621,1780383645531980,0.7165521,-1.922927,0.19719826,-0.625526,2.4856107,-0.28893927
622,1780383645541980,0.6796995,-1.9636846,0.19597797,-0.2919936,1.740966,-0.3481932
623,1780383645551980,0.59110665,-1.8958366,0.14252943,-0.32498032,0.47158796,-0.36468655
624,1780383645561980,0.28554696,-1.3659884,0.12837411,-0.32498032,0.47158796,-0.36468655
625,1780383645571980,0.23258655,-1.1441404,0.15595257,-0.47342056,-0.049480084,-0.31642818
626,1780383645581980,0.19402552,-0.91448253,0.19329333,-1.4001031,-2.003638,-0.07086037
627,1780383645591980,0.13740423,-0.55742675,0.2421048,-1.4001031,-2.003638,-0.07086037
628,1780383645601980,0.1147069,-0.44003522,0.26211748,-1.8038851,-2.5876253,0.10934488
629,1780383645611980,0.12764193,-0.3414361,0.30922052,-1.7427986,-2.742785,0.2724459
630,1780383645621980,0.1867038,-0.21062139,0.60599416,-1.2632693,-2.82403,0.30482176
631,1780383645631980,0.13398743,-0.050763905,0.37633628,-0.5656612,-2.7366762,0.30298916
632,1780383645641980,0.099819414,-0.021965152,0.24747404,-0.1563815,-2.4312437,0.31520647
633,1780383645651980,0.099819414,-0.021965152,0.24747404,-0.1563815,-2.4312437,0.31520647
634,1780383645661980,0.047103047,0.017084008,0.008542004,0.80939645,-1.0409144,0.30909783
635,1780383645671980,0.047103047,0.017084008,0.008542004,0.97005403,-0.6401868,0.29993483
636,1780383645681980,0.06467517,0.04344219,-0.033435844,1.0891727,-0.3359759,0.27977628
637,1780383645691980,0.05344854,0.051007964,-0.05515694,1.319469,0.18692477,0.14294247
638,1780383645701980,0.035876416,0.04075756,-0.09664667,1.3548992,0.31948254,0.103847094
639,1780383645711980,0.035876416,0.04075756,-0.09664667,1.3646729,0.4343252,0.076358154
640,1780383645721980,0.018060237,0.036852647,-0.13349932,1.2974777,0.8216137,0.009773844
641,1780383645731980,0.009274175,0.036608588,-0.14716652,1.2504412,0.9651671,-0.004886922
642,1780383645741980,0.0056133163,0.03807293,-0.14423785,1.196685,1.1881329,-0.027488936
643,1780383645751980,-0.010494461,0.047347106,-0.10543273,1.1636983,1.4514158,-0.05131268
644,1780383645761980,-0.008542004,0.054668825,-0.08542004,1.1594223,1.9480493,-0.10873401
645,1780383645771980,-0.0051252022,0.061014313,-0.06638357,1.1734722,2.21683,-0.15027285
646,1780383645781980,-0.010006348,0.05906185,-0.038561042,1.2137892,2.4623978,-0.18936823
647,1780383645791980,-0.01513155,0.065163285,-0.033679903,1.2651019,2.620001,-0.21380283
648,1780383645801980,-0.020988923,0.071020655,-0.024893839,1.4294246,2.91566,-0.2443461
649,1780383645811980,-0.01952458,0.06931226,-0.026358182,1.6029104,3.0311134,-0.23090707
650,1780383645821980,-0.01952458,0.06931226,-0.026358182,1.6029104,3.0311134,-0.23090707
651,1780383645831980,-0.014643434,0.08053889,-0.022697324,1.8564194,3.0879238,-0.21930063
652,1780383645841980,-0.25259924,0.18060236,0.75364876,2.6645942,1.8118263,0.035430185
653,1780383645851980,-0.077122085,-0.034168016,0.4170938,4.330424,-1.2027937,0.6017023
654,1780383645861980,0.016351834,-0.06613952,-0.1398448,4.538118,-1.8454239,0.5870415
655,1780383645871980,0.055400997,-0.08297946,-0.27505252,4.065919,-2.5027149,0.37751472
656,1780383645881980,0.117635585,-0.17352471,-0.34900185,3.6755762,-2.9633074,0.20647246
657,1780383645891980,0.14985114,-0.9508471,0.26529023,2.8728993,-5.6718836,-0.23579398
658,1780383645901980,0.21745501,-1.2539662,-0.07516963,1.564426,-8.26745,-0.78801614
659,1780383645911980,0.40098605,-1.4643435,0.97208,-0.86437434,-10.901501,-1.6505579
660,1780383645921980,1.0858107,-1.9075515,2.0129843,-0.9602802,-12.142168,-2.683531
661,1780383645931980,2.4610732,-2.6538785,1.1033828,-1.2260065,-10.092105,-3.9639046
662,1780383645941980,1.185142,-3.2047157,-1.0706791,-1.6145169,-6.0267963,-3.749491
663,1780383645951980,0.98525906,-2.6570513,-0.47835222,-4.111123,4.593096,1.359786
664,1780383645961980,0.98525906,-2.6570513,-0.47835222,-4.111123,4.593096,1.359786
665,1780383645971980,0.86982006,-2.2253141,-0.26187342,-4.053091,6.0078597,2.4825563
666,1780383645981980,1.0855666,-3.3064876,-0.1696198,-3.781256,6.469063,2.2198844
667,1780383645991980,1.2720264,-4.0896673,-0.16986385,-3.1899383,5.808107,1.133155
668,1780383646001980,1.0972813,-4.019135,0.018792408,-2.4288,5.190522,-0.15088372
669,1780383646011980,0.6289356,-3.5859332,0.097134784,-1.749518,4.696943,-0.9083566
670,1780383646021980,0.24088451,-3.1883638,0.102992155,-0.8552113,4.0604215,-1.3787229
671,1780383646031980,-0.091033354,-2.7270956,0.051740136,0.047647487,2.8258626,-0.98471475
672,1780383646041980,-0.42075467,-1.9343977,-0.06272271,-0.052534413,1.5931365,-0.47952923
673,1780383646051980,-0.49763274,-1.5758777,-0.010982576,-0.8026769,-0.5320636,-0.03726278
674,1780383646061980,-0.45589894,-1.3777032,-0.0302631,-1.9981402,-2.8008173,0.820392
675,1780383646071980,-0.36974674,-1.1714748,0.006833603,-1.9981402,-2.8008173,0.820392
676,1780383646081980,-0.13227904,-0.69165826,0.1300825,-2.7421741,-3.4275649,1.5534303
677,1780383646091980,-0.13227904,-0.69165826,0.1300825,-2.8790078,-3.3310483,1.7220291
678,1780383646101980,-0.1295944,-0.5588911,0.18743597,-2.9883528,-2.765998,2.0182989
679,1780383646111980,-0.136428,-0.4288086,0.30116665,-2.9883528,-2.765998,2.0182989
680,1780383646121980,-0.016351834,-0.17645338,0.44271985,-1.8613064,-1.6749926,2.5442538
681,1780383646131980,0.070532545,-0.15400012,0.35241866,-1.1704178,-1.0366384,2.7036896
682,1780383646141980,0.1403329,-0.11226633,0.311173,-0.77213365,-0.8717047,2.7171285
683,1780383646151980,0.1403329,-0.11226633,0.311173,-0.77213365,-0.8717047,2.7171285
684,1780383646161980,0.23429495,0.08175918,0.25992095,0.03359759,-1.0622946,2.6945267
685,1780383646171980,0.25674823,0.15326795,0.2626056,0.8741482,-1.6163495,2.6187794
686,1780383646181980,0.31312546,0.22697324,0.25089085,1.1630874,-1.9688187,2.5558603
687,1780383646191980,0.41001618,0.34949,0.2111095,1.5161675,-2.5552492,2.4630086
688,1780383646201980,0.4373506,0.4971446,0.183287,1.8216002,-3.1251867,2.3536637
689,1780383646211980,0.51398456,0.7058135,0.09615856,2.0433443,-3.5124753,2.3432791
690,1780383646221980,0.72655845,1.099966,0.00707766,1.8057177,-2.9260445,2.371379
691,1780383646231980,1.3376778,1.599063,0.49934113,1.613906,-1.8869628,2.2602015
692,1780383646241980,1.3396302,1.4335922,0.20525214,1.7953329,-0.8723156,1.9792033
693,1780383646251980,1.1570754,1.2122324,0.00976229,1.8167132,0.053145275,1.4697418
694,1780383646261980,0.74193406,0.44271985,-0.25211114,0.99265605,1.9468275,0.02443461
695,1780383646271980,0.52374685,0.23771177,-0.14863087,0.63346726,2.5772405,-0.41233405
696,1780383646281980,0.413677,0.10543273,-0.082735404,0.15454891,3.1581733,-0.87598073
697,1780383646291980,0.34582913,-0.046614934,-0.07468152,-0.19486602,3.3457088,-1.0500773
698,1780383646301980,0.37291947,-0.24356914,-0.099087246,-0.6236934,3.55829,-1.2217305
699,1780383646311980,0.2186753,-0.15400012,-0.19085276,-0.7348709,3.9315288,-1.2767084
700,1780383646321980,0.3265486,-0.22135992,-0.19671014,-0.7556403,4.742758,-1.5864171
701,1780383646331980,0.5383903,-0.34924594,-0.31605414,-0.7281514,5.15387,-1.8301523
702,1780383646341980,0.9364477,-0.6074585,-0.50934744,-0.77457714,5.5814757,-2.330451
703,1780383646351980,2.1394057,-3.5905702,-0.62551874,-0.84482664,5.6920424,-3.128852
704,1780383646361980,2.621663,-5.1654716,-0.51642513,0.22785273,5.4586916,-5.5051174
705,1780383646371980,2.4171429,-6.3281603,-0.60770255,1.0274754,4.4238863,-6.1996713
706,1780383646381980,0.2762728,-6.051155,-0.8361401,1.5925257,0.9266826,-4.600426
707,1780383646391980,0.13081467,-4.5484953,-1.2991167,1.5943583,-2.950479,-2.4654522
708,1780383646401980,0.13081467,-4.5484953,-1.2991167,1.2302825,-8.197201,-0.4361578
709,1780383646411980,-0.06296677,-3.7284625,-1.1729392,-0.22968534,-12.387736,0.027488936
710,1780383646421980,-0.97647303,-1.598819,-0.21159762,-4.909524,-4.721988,-0.8729264
711,1780383646431980,-0.97647303,-1.598819,-0.21159762,-4.909524,-4.721988,-0.8729264
712,1780383646441980,-1.0975254,-0.7992875,0.67579454,-4.547281,2.5350907,-0.3622431
713,1780383646451980,-0.99502134,-0.28261828,0.98452693,-2.6859746,6.963253,0.26083946
714,1780383646461980,-0.84809893,-0.08542004,0.9200958,-2.6859746,6.963253,0.26083946
715,1780383646471980,-0.71020657,0.0370967,0.84565836,-1.3469579,7.1581187,0.88147855
716,1780383646481980,-0.5635282,0.08859278,0.77170897,-0.6059783,6.044512,1.4746287
717,1780383646491980,-0.3180066,-0.0353883,0.65944266,-0.32986724,5.1184397,1.7763962
718,1780383646501980,-0.2208718,-0.1581491,0.6238103,-0.08674286,4.0927973,2.0280726
719,1780383646511980,-0.13569583,-0.2860351,0.59183884,0.3359759,2.298686,2.3335052
720,1780383646521980,-0.04490653,-0.42270714,0.56011134,0.56077427,1.3371841,2.4098635
721,1780383646531980,0.01586372,-0.53253293,0.5354616,0.7837401,0.45265114,2.4043655
722,1780383646541980,0.065407336,-0.6355251,0.51520485,0.9779953,-0.115453534,2.3469443
723,1780383646551980,0.22013964,-0.852492,0.35144243,1.6884315,-1.0177015,1.740966
724,1780383646561980,0.31312546,-0.9752528,0.22526483,1.9889772,-1.1447614,1.3310753
725,1780383646571980,0.2633378,-1.0321181,-0.04344219,2.3402247,-1.1850786,0.72509706
726,1780383646581980,0.12471326,-0.90496427,-0.3184947,2.6218336,-1.0732902,-0.16982053
727,1780383646591980,0.07443746,-0.8329674,-0.4600479,2.3280075,-0.89980453,-0.49846604
728,1780383646601980,0.011958805,-0.7250941,-0.55864704,1.9822577,-0.92179567,-0.552833
729,1780383646611980,0.04807928,-0.73485637,-0.53912246,1.6737708,-1.0946705,-0.56016344
730,1780383646621980,0.0924977,-0.7658516,-0.49055508,1.2577715,-1.4630222,-0.57604593
731,1780383646631980,0.1381364,-0.8241814,-0.41416514,0.6469063,-2.1801782,-0.6646214
732,1780383646641980,0.21989559,-0.9003272,-0.36218095,0.39706242,-2.4929411,-0.7770206
733,1780383646651980,0.5269196,-1.1541467,-0.3077562,0.20219639,-2.6645942,-0.9969321
734,1780383646661980,0.69336665,-1.3015573,-0.32606047,0.05131268,-2.702468,-1.350623
735,1780383646671980,0.84053314,-1.4516525,-0.36315718,-0.19975294,-2.28036,-2.2015584
736,1780383646681980,0.5957437,-1.6129744,-0.4275883,-0.43493605,-1.1856894,-2.8295279
737,1780383646691980,0.2831064,-1.6281059,-0.40293851,-0.4813618,-0.25473082,-2.3878722
738,1780383646701980,0.07541369,-1.74745,-0.31947094,-0.88514376,2.090381,0.12095132
739,1780383646711980,0.1300825,-1.824572,-0.19646609,-1.2070698,2.7861564,0.9089675
740,1780383646721980,0.39537275,-1.768927,-0.023673553,-1.6627752,3.3976326,1.328021
741,1780383646731980,0.5720702,-1.5661154,0.536926,-2.0152445,3.63587,1.3335189
742,1780383646741980,0.635281,-1.534876,1.5265781,-0.9578367,4.0378194,1.0201449
743,1780383646751980,1.1273005,-1.7105973,2.6853619,1.8307631,4.088521,0.4550946
744,1780383646761980,0.74364245,-1.5734371,2.088398,3.3573153,2.9724703,0.0983493
745,1780383646771980,0.50617474,-1.4824038,1.38112,4.846605,0.8765916,-0.0720821
746,1780383646781980,0.45248213,-1.3562261,0.5793919,5.6944857,-2.8118126,-0.28955013
747,1780383646791980,0.52911615,-1.2185779,0.012446919,5.4696875,-3.5839465,-0.48624873
748,1780383646801980,0.6887296,-0.8603018,-0.6101431,4.9748864,-3.9132028,-0.8185594
749,1780383646811980,0.61844105,-0.73680884,-0.40293851,4.139223,-2.461787,-1.4257594
750,1780383646821980,0.42417148,-0.6284474,-0.62551874,3.6004398,-0.6236934,-1.7250835
751,1780383646831980,0.38609856,-0.62600684,-0.6379657,3.2895093,0.15027285,-1.7189748
752,1780383646841980,0.33631086,-0.6460195,-0.5947675,2.8655689,1.1734722,-1.6701056
753,1780383646851980,0.15570852,-0.6672525,-0.601113,2.4642303,1.9547688,-1.572978
754,1780383646861980,-0.014887493,-0.67530644,-0.6028214,1.4886786,2.0066924,-1.0781772
755,1780383646871980,-0.20305562,-0.7038611,-0.6291796,0.81489426,1.4795157,-0.7171558
756,1780383646881980,-0.19085276,-0.7299752,-0.69385475,0.105068825,0.7275405,-0.43676865
757,1780383646891980,-0.1552204,-0.73778504,-0.6450433,-0.870483,-0.52778757,-0.4373795
758,1780383646901980,-0.13276714,-0.70361704,-0.5464442,-1.1679744,-1.142318,-0.6585127
759,1780383646911980,-0.26699865,-0.60721445,-0.24259292,-1.2363913,-1.53205,-0.883922
760,1780383646921980,-0.26699865,-0.60721445,-0.24259292,-1.1508701,-1.958434,-1.2144
761,1780383646931980,-0.33020946,-0.54156303,-0.13667206,-0.6786713,-2.2149973,-2.125811
762,1780383646941980,-0.33020946,-0.54156303,-0.13667206,-0.6786713,-2.2149973,-2.125811
763,1780383646951980,-0.4825012,-0.33582276,-0.03465613,-0.7690793,-2.235767,-2.13925
764,1780383646961980,-0.5108118,-0.27090356,0.027334413,-0.9266826,-2.240043,-1.9486601
765,1780383646971980,-0.5742667,-0.21379416,0.14008886,-1.5106697,-1.9730947,-1.0225884
766,1780383646981980,-0.6626154,-0.18597162,0.3192269,-1.6157386,-1.5919148,-0.5839872
767,1780383646991980,-0.7365648,-0.383658,0.5181335,-1.5656476,-0.9120218,0.012217305
768,1780383647001980,-0.68580085,-0.55059314,0.4932397,-1.3768903,-0.2687807,0.5766568
769,1780383647011980,-0.61770886,-0.71996886,0.4502856,-0.9987647,0.80878556,1.3445144
770,1780383647021980,-0.38561043,-1.0677505,0.33826336,-0.84971356,1.3836098,1.6542231
771,1780383647031980,-0.20085911,-1.2332213,0.32801294,-0.79045963,1.9382755,1.8735237
772,1780383647041980,0.033923957,-1.3913703,0.43930307,-0.816116,2.3041837,1.9620992
773,1780383647051980,0.44442827,-1.6464102,0.635281,-0.97310835,2.4495697,1.6804903
774,1780383647061980,1.3052181,-2.2048132,0.49909708,-0.9211848,1.9950858,1.319469
775,1780383647071980,1.4748379,-2.3485627,0.26870704,-0.19120082,0.6921103,0.5888741
776,1780383647081980,1.3889297,-2.1581984,0.29530928,-0.022602014,0.28588495,0.86315256
777,1780383647091980,1.3308442,-1.9204865,0.3236199,0.116675265,-0.46181414,1.251052
778,1780383647101980,1.0765365,-1.5888127,0.24771811,0.12522738,-1.3365731,1.5137241
779,1780383647111980,1.0186949,-1.4933863,0.18572757,-0.30665436,-2.987742,1.3255776
780,1780383647121980,1.0091767,-1.3884417,0.123004854,-0.59986967,-3.5650096,1.028697
781,1780383647131980,0.96036524,-1.253478,0.11665936,-0.7788532,-3.8417315,0.83199847
782,1780383647141980,0.74461865,-1.056768,0.23844394,-0.93828905,-4.021937,0.68661255
783,1780383647151980,0.66969305,-1.0330943,0.37584817,-0.7892379,-3.948633,0.729984
784,1780383647161980,0.6203935,-1.0001466,0.5447358,-0.54733527,-3.9223657,0.7770206
785,1780383647171980,0.78488815,-0.94035256,0.77756643,-0.1160644,-3.9101484,0.75991637
786,1780383647181980,0.9354714,-0.9232686,0.8022162,0.33292156,-3.7702603,0.61208695
787,1780383647191980,1.0435888,-0.8978866,0.8305268,0.6585127,-3.5301902,0.44715336
788,1780383647201980,1.1021625,-0.86323047,0.8649389,1.5864171,-2.5906794,0.02565634
789,1780383647211980,0.9850151,-0.7487676,0.7438865,2.352442,-1.2382239,-0.12705997
790,1780383647221980,0.9408407,-0.7246059,0.6240544,2.352442,-1.2382239,-0.12705997
791,1780383647231980,0.9371798,-0.7304634,0.511544,2.7207937,0.6414085,-0.17104226
792,1780383647241980,0.9405966,-0.7402256,0.07565775,2.5668557,2.0787745,-0.31703907
793,1780383647251980,0.9066727,-0.69312257,-0.06760386,2.3041837,2.9119947,-0.45020768
794,1780383647261980,0.84809893,-0.6299118,-0.16937573,1.6603317,4.211305,-0.6432411
795,1780383647271980,0.77951884,-0.5747548,-0.22404456,1.2913691,4.7342057,-0.68783426
796,1780383647281980,0.5142286,-0.43417785,-0.5779276,0.90408057,5.0035973,-0.6609562
797,1780383647291980,0.31019676,-0.37291947,-0.9613415,0.3903429,4.785518,-0.5039638
798,1780383647301980,0.15155955,-0.36364532,-1.2010058,-1.8246545,3.0305026,0.1685988
799,1780383647311980,0.020012695,-0.32386398,-1.4675162,-2.8979447,1.9853121,0.48380527
800,1780383647321980,-0.24137263,-0.23014598,-1.4892373,-4.301713,0.50518554,0.97127575
801,1780383647331980,-0.27334413,-0.18109047,-1.2298045,-5.3346863,-0.8228355,1.5155567
802,1780383647341980,-0.24625377,-0.12813005,-0.954996,-5.788559,-2.1661282,2.3445008
803,1780383647351980,-0.16400647,-0.11324256,-0.7094744,-5.439144,-2.384207,2.52043
804,1780383647361980,-0.057109397,-0.1164153,-0.4966565,-4.8612657,-2.26631,2.4312437
805,1780383647371980,0.106164895,-0.22282428,-0.23209843,-4.3579125,-1.9425515,2.2229385
806,1780383647381980,0.13496366,-0.4183141,-0.08566409,-2.5411994,-0.047036625,0.8491027
807,1780383647391980,-0.0388051,-0.588178,0.35925224,-2.003638,0.8472701,0.19303341
808,1780383647401980,-0.7268025,-0.72216535,0.97403246,-2.003638,0.8472701,0.19303341
809,1780383647411980,-0.3687705,-1.0862988,0.076633975,0.11362094,6.8471885,-0.5821546
810,1780383647421980,-0.36755022,-1.4970472,-0.23331872,0.023823744,7.029837,-0.82772243
811,1780383647431980,-0.47664383,-1.922927,-0.39634898,0.1282817,5.453194,-0.7495316
812,1780383647441980,0.117879644,-2.694636,-0.264314,0.25473082,3.807523,-0.766025
813,1780383647451980,0.23258655,-3.000684,-0.10982577,0.23151793,1.7654005,-0.98899084
814,1780383647461980,0.32923323,-3.1900723,0.14057697,-0.41050145,-0.66950834,-1.4538593
815,1780383647471980,0.7817154,-3.0424178,1.2673893,-1.078788,-1.7128662,-1.717753
816,1780383647481980,1.1563432,-2.561869,1.854835,-0.729984,-1.3799446,-2.1252003
817,1780383647491980,0.6530972,-2.0434911,1.5080298,0.3390302,-0.3830125,-2.453235
818,1780383647501980,0.3214234,-1.5636748,1.2368821,0.73731434,-0.20463985,-1.7373008
819,1780383647511980,0.06272271,-1.1146095,1.0545714,1.1954633,-0.12767084,-0.5882632
820,1780383647521980,0.36730617,-0.80246025,0.7455949,2.058616,-0.35918877,0.9101892
821,1780383647531980,0.8261338,-0.83077085,0.30165476,2.1050417,-0.18997909,0.8246681
822,1780383647541980,1.3105874,-0.9130182,0.05588911,2.098933,0.21502456,0.53023106
823,1780383647551980,1.308879,-0.8861718,0.030507157,2.098933,0.21502456,0.53023106
824,1780383647561980,1.3318204,-0.8258897,0.14106509,2.008525,0.9993755,-0.40500367
825,1780383647571980,1.4311516,-0.8095379,0.24186075,2.0329595,0.8552113,-0.75747293
826,1780383647581980,1.441158,-0.6789673,0.28627914,2.0995438,0.42332962,-1.1636983
827,1780383647591980,1.2956998,-0.5886661,0.22258021,2.157576,0.0842994,-1.4978416
828,1780383647601980,1.0931324,-0.53131264,0.153512,2.275473,-0.09101892,-1.922393
829,1780383647611980,0.8886124,-0.50885934,0.08639627,2.4764478,0.02565634,-2.4397957
830,1780383647621980,0.48054874,-0.5735345,0.014643434,2.5784621,0.16982053,-2.5583036
831,1780383647631980,0.36242503,-0.6367454,-0.053692598,2.6529877,0.3023783,-2.5485299
832,1780383647641980,0.33704305,-0.73680884,-0.062478654,2.6768115,0.6963864,-2.4349089
833,1780383647651980,0.15619664,-1.1258361,-0.08566409,2.7189612,1.2076806,-2.3988678
834,1780383647661980,-0.45321432,-1.3074148,-0.6897058,2.0451767,1.7055358,-1.7708983
835,1780383647671980,-0.5337532,-1.3716017,-0.8095379,2.0451767,1.7055358,-1.7708983
836,1780383647681980,-0.52350277,-1.380876,-0.7726852,-0.9914343,-0.22785273,-0.19486602
837,1780383647691980,-0.52350277,-1.380876,-0.7726852,-0.9914343,-0.22785273,-0.19486602
838,1780383647701980,-0.40293851,-1.3335288,-0.6389419,-1.6041322,-0.91690874,0.021380283
839,1780383647711980,-0.26919514,-1.001855,-0.25479576,-1.1068878,-1.133155,-0.4654793
840,1780383647721980,-0.31141704,-0.8859278,-0.26065314,-0.7244862,-0.9560041,-0.7153232
841,1780383647731980,-0.36144876,-0.6984919,-0.16815543,-0.44226643,-0.81122905,-0.8943067
842,1780383647741980,-0.40318257,-0.6042857,-0.045638707,-0.2443461,-0.8179486,-0.9266826
843,1780383647751980,-0.42905265,-0.5432714,0.024649782,-0.0067195175,-0.91690874,-0.8002335
844,1780383647761980,-0.42270714,-0.49616838,0.06760386,0.2669481,-1.0848967,-0.18387043
845,1780383647771980,-0.35827604,-0.49446,0.064919226,0.30482176,-1.1600331,0.21319197
846,1780383647781980,-0.3128814,-0.5198419,0.08151512,0.2883284,-1.2614367,0.5742133
847,1780383647791980,-0.2779812,-0.52789587,0.07297312,0.258396,-1.4019357,0.79412484
848,1780383647801980,-0.23819989,-0.528384,0.043930303,0.13133603,-1.5974126,1.2113458
849,1780383647811980,-0.056133166,-0.46492904,-0.055645052,-0.051923547,-1.29198,1.400714
850,1780383647821980,0.0026846298,-0.45126185,-0.09200958,-0.23701571,-0.97127575,1.4318681
851,1780383647831980,0.0026846298,-0.45126185,-0.09200958,-0.23701571,-0.97127575,1.4318681
852,1780383647841980,0.13276714,-0.46590528,-0.13203497,-0.9633345,0.2510656,1.3591752
853,1780383647851980,0.29067218,-0.5269196,-0.054668825,-1.2986995,0.5204572,1.3041973
854,1780383647861980,0.37365165,-0.5972081,0.003172744,-1.8387043,0.6200282,1.1948525
855,1780383647871980,0.5108118,-0.6543175,0.35046622,-1.7702875,0.03176499,1.0800097
856,1780383647881980,0.8834872,-0.79660285,1.0035634,-1.29198,-1.2302825,0.7715228
857,1780383647891980,1.3325526,-1.5951582,0.5891542,-0.9126327,-1.5460999,0.47769663
858,1780383647901980,1.457998,-1.8436085,0.54253924,-0.22357668,-1.6041322,0.09468412
859,1780383647911980,1.4084544,-1.952214,0.41880223,1.1404854,-1.5082263,0.106901415
860,1780383647921980,1.1836777,-1.8057796,0.0741934,1.7037032,-1.3530666,0.63224554
861,1780383647931980,1.1558552,-1.7411044,-0.06028214,1.9755383,-1.2308935,1.1404854
862,1780383647941980,1.0413923,-1.6874118,-0.054424766,1.9559906,-1.2003502,1.3200798
863,1780383647951980,0.73388016,-1.4360328,-0.25333142,0.13988814,-2.4061983,1.0152581
864,1780383647961980,0.8156393,-1.4731296,-0.27383223,-0.3109304,-1.9480493,1.0366384
865,1780383647971980,0.8156393,-1.4731296,-0.27383223,-0.3109304,-1.9480493,1.0366384
866,1780383647981980,0.86225426,-1.445795,0.020988923,-1.2986995,-0.6365216,0.8594874
867,1780383647991980,1.0091767,-1.334261,0.21672285,-1.2986995,-0.6365216,0.8594874
868,1780383648001980,1.0972813,-1.2649487,0.46297657,-1.9144517,-0.040317107,1.0464121
869,1780383648011980,1.1875826,-1.2134526,0.8283303,-1.3304645,-0.7629707,0.7122689
870,1780383648021980,1.1875826,-1.2134526,0.8283303,-1.3304645,-0.7629707,0.7122689
871,1780383648031980,1.0718994,-1.1243718,1.2998489,0.7861836,-2.2174408,-0.073303826
872,1780383648041980,0.83174706,-1.2010058,1.1966126,1.6859881,-2.5534167,-0.3622431
873,1780383648051980,0.8110022,-1.3052181,0.8607899,4.203364,-2.2498167,-1.3359623
874,1780383648061980,0.9086252,-1.2761754,0.5091034,4.8582115,-0.9230174,-1.6584991
875,1780383648071980,0.89105296,-1.1111927,0.14545812,4.415334,0.1459968,-1.6120734
876,1780383648081980,0.844194,-1.0326062,-0.02391761,3.798971,0.82772243,-1.5125023
877,1780383648091980,0.7636551,-0.937912,-0.15692882,3.100141,1.5650368,-1.382388
878,1780383648101980,0.5608435,-0.7241178,-0.25723633,2.5711317,2.0909917,-1.269378
879,1780383648111980,0.36730617,-0.51740134,-0.23600335,1.0800097,3.4599407,-0.81122905
880,1780383648121980,0.36730617,-0.51740134,-0.23600335,1.0800097,3.4599407,-0.81122905
881,1780383648131980,-0.065407336,-0.25284332,-0.65993077,0.07574729,3.5185838,-0.45020768
882,1780383648141980,-0.065407336,-0.25284332,-0.65993077,0.07574729,3.5185838,-0.45020768
883,1780383648151980,-0.3128814,-0.27480847,-0.652365,-2.0555615,1.7379116,0.5308419
884,1780383648161980,-0.6262509,-0.35046622,-0.32557237,-2.5894578,1.4709635,1.0140363
885,1780383648171980,-0.6811638,-0.3682824,-0.20549619,-2.787989,1.5448782,1.4544702
886,1780383648181980,-0.54253924,-0.38561043,-0.11836776,-2.823419,1.6902641,2.3383923
887,1780383648191980,-0.35022214,-0.3807293,-0.08639627,-2.823419,1.6902641,2.3383923
888,1780383648201980,-0.12837411,-0.30726805,-0.07150877,-2.5705209,1.4666874,2.3499987
889,1780383648211980,-0.105676785,-0.25552794,-0.0924977,-2.3493876,1.0671816,2.1917844
890,1780383648221980,-0.122516744,-0.22575295,-0.11324256,-2.1673498,0.6462954,2.0622811
891,1780383648231980,-0.13325526,-0.21769907,-0.15741692,-1.7446312,-0.41722095,1.777007
892,1780383648241980,-0.12032023,-0.22965786,-0.2677308,-1.6749926,-0.53023106,1.6548339
893,1780383648251980,-0.12471326,-0.24527754,-0.36340126,-1.6982054,-0.3640757,1.5906931
894,1780383648261980,-0.11153416,-0.30629185,-0.43661842,-1.9126191,0.6047566,1.4923438
895,1780383648271980,-0.09493827,-0.3448529,-0.39634898,-1.9126191,0.6047566,1.4923438
896,1780383648281980,-0.062478654,-0.4058672,-0.2865232,-2.02624,1.5082263,1.3445144
897,1780383648291980,-0.13496366,-0.5435155,0.20647243,-1.9547688,1.9785925,1.201572
898,1780383648301980,-0.3231318,-0.9615856,0.469078,-1.1111639,3.2559118,0.8063421
899,1780383648311980,-0.041977845,-1.2566508,0.024161667,-1.4306464,3.3628132,0.20097467
900,1780383648321980,0.008786061,-1.735247,-0.020744866,-1.7537941,3.2064316,-0.3323107
901,1780383648331980,-0.17938207,-2.084493,0.23039004,-1.7537941,3.2064316,-0.3323107
902,1780383648341980,-0.24942651,-2.6702304,1.1992973,-2.3762658,1.9144517,-1.2699889
903,1780383648351980,0.5933032,-3.2266808,2.310734,-0.51007247,-1.1447614,-1.3775011
904,1780383648361980,0.8859278,-3.0080056,2.2026167,1.4434745,-3.6346483,-1.3658947
905,1780383648371980,0.9967298,-2.7766392,1.5580615,4.079358,-5.9498277,-1.6835446
906,1780383648381980,1.010397,-2.5010989,0.7968469,4.450764,-5.6413407,-1.89918
907,1780383648391980,0.8815348,-1.7935767,-0.08419975,4.2449026,-4.6395216,-1.9285016
908,1780383648401980,0.7797629,-1.1778203,-0.21501444,3.8973203,-3.7555995,-1.7922786
909,1780383648411980,0.7797629,-1.1778203,-0.21501444,3.3127222,-2.705522,-1.432479
910,1780383648421980,0.8607899,-0.93059033,-0.26406994,2.0054705,-1.4880677,-0.8381071
911,1780383648431980,1.2171135,-0.61770886,-0.2238005,0.5112942,-0.4709771,-0.7519751
912,1780383648441980,1.2171135,-0.61770886,-0.2238005,0.5112942,-0.4709771,-0.7519751
913,1780383648451980,1.3864892,-0.4300289,0.09445015,0.17898351,-0.07391469,-0.8240572
914,1780383648461980,1.3374337,-0.30214286,0.3014107,0.14477506,1.2125676,-1.1307116
915,1780383648471980,1.2395668,-0.27212384,0.24576566,0.2125811,1.6517797,-1.2144
916,1780383648481980,1.2395668,-0.27212384,0.24576566,0.2125811,1.6517797,-1.2144
917,1780383648491980,0.60013676,-0.33509058,-0.10006347,-0.18875736,2.7617218,-1.2125676
918,1780383648501980,0.60013676,-0.33509058,-0.10006347,-0.18875736,2.7617218,-1.2125676
919,1780383648511980,0.3116611,-0.5725583,-0.3402158,-0.95356065,2.2333233,-1.2205088
920,1780383648521980,0.25357547,-0.7167961,-0.26553428,-1.1960741,1.6230689,-1.2345587
921,1780383648531980,0.25796852,-0.87860614,-0.23014598,-1.3408492,0.8594874,-1.2577715
922,1780383648541980,0.24064046,-1.0736078,-0.10494461,-1.3457361,0.43982297,-1.3469579
923,1780383648551980,0.06369894,-1.3823403,0.0065895454,-0.40622538,-0.22235495,-1.8698585
924,1780383648561980,0.06369894,-1.3823403,0.0065895454,-0.40622538,-0.22235495,-1.8698585
925,1780383648571980,-0.36047253,-1.4509203,-0.23405088,0.33353242,-0.92485,-2.2156084
926,1780383648581980,-0.53106856,-1.3515891,-0.24600971,0.23396139,-1.1588113,-2.1111503
927,1780383648591980,-0.6386978,-1.2241911,-0.23478307,0.076358154,-1.3048081,-1.9077321
928,1780383648601980,-0.67481834,-1.0604287,-0.2203837,-0.5045747,-1.3457361,-1.0769554
929,1780383648611980,-0.6645679,-0.8583493,-0.14057697,-0.7733554,-1.1496484,-0.65484756
930,1780383648621980,-0.57377857,-0.55010504,0.10128376,-0.93034774,-0.9505063,-0.36651915
931,1780383648631980,-0.5137405,-0.46151224,0.23600335,-1.073901,-0.6169739,-0.05497787
932,1780383648641980,-0.4685899,-0.38268176,0.36803833,-1.061073,-0.099571034,0.25534168
933,1780383648651980,-0.4544346,-0.30385128,0.511544,-0.90285885,-0.0061086523,0.3494149
934,1780383648661980,-0.38585448,-0.29213652,0.6657882,-0.6218608,-0.106901415,0.43799037
935,1780383648671980,-0.34070393,-0.40049794,0.5464442,-0.31398472,-0.24678956,0.5375614
936,1780383648681980,-0.34070393,-0.40049794,0.5464442,0.8228355,-0.57848936,1.1520919
937,1780383648691980,-0.122760795,-0.5339973,0.12764193,0.9370673,-0.5198463,1.2767084
938,1780383648701980,-0.034168016,-0.5508372,0.031239327,1.0134255,-0.31703907,1.3976597
939,1780383648711980,0.04271002,-0.56767714,-0.071264714,1.0134255,-0.31703907,1.3976597
940,1780383648721980,0.15961345,-0.6035536,-0.2037878,0.8399397,1.0458013,1.4086553
941,1780383648731980,0.4720067,-0.80246025,-0.3248402,0.63041294,1.8240436,1.2400564
942,1780383648741980,0.626495,-0.93254274,-0.35095432,0.45081854,2.4593434,1.0537425
943,1780383648751980,0.77659017,-1.0777569,-0.32410803,-0.06047566,3.93947,0.50640726
944,1780383648761980,0.84468216,-1.2188219,-0.2306341,-0.3408628,4.076304,0.60903263
945,1780383648771980,0.92912596,-1.4804512,0.4275883,-0.571159,3.7146716,0.9236283
946,1780383648781980,1.1111927,-1.6869236,0.6787232,-1.6963727,-1.6340646,1.8570304
947,1780383648791980,1.5722169,-1.8965688,0.06589546,-2.1746802,-3.462995,1.7690657
948,1780383648801980,1.5722169,-1.8965688,0.06589546,-2.7977629,-4.891198,1.3017539
949,1780383648811980,1.1783084,-1.7293897,-0.10323621,-3.3731978,-5.5906386,0.82344633
950,1780383648821980,1.1783084,-1.7293897,-0.10323621,-3.6890152,-5.702427,0.61819565
951,1780383648831980,1.1168059,-1.7359792,0.07370529,-3.5057557,-4.393343,0.4990769
952,1780383648841980,1.0711672,-1.7381756,0.5850052,-2.607173,-3.6120462,0.45875978
953,1780383648851980,1.4030851,-1.7894278,1.0987457,-1.6786577,-3.2076533,0.23884831
954,1780383648861980,1.1004542,-1.5739251,0.77292925,1.5650368,-1.4117095,-0.9254609
955,1780383648871980,0.74583894,-1.2886223,0.43076107,2.2333233,-0.81000733,-1.029308
956,1780383648881980,0.6406503,-1.1695224,0.3162982,2.601675,-0.41172317,-0.9993755
957,1780383648891980,0.59110665,-1.1148535,0.24405725,2.7207937,-0.18387043,-0.9224065
958,1780383648901980,0.5835409,-1.0919122,0.19109683,2.7250698,0.12095132,-0.80939645
959,1780383648911980,0.6321083,-1.0714114,0.16595893,2.3561072,0.75625116,-0.79229224
960,1780383648921980,0.78366786,-1.0177187,0.28579104,2.189952,0.929126,-0.9272934
961,1780383648931980,0.80563295,-0.9850151,0.38048524,1.994475,0.93279123,-1.3469579
962,1780383648941980,0.6970275,-0.87860614,0.43124917,2.0781636,0.71837753,-1.4813483
963,1780383648951980,0.54937285,-0.77634615,0.29482117,2.094657,0.6579019,-1.4544702
964,1780383648961980,0.503002,-0.7465711,0.22794947,2.071444,0.6621779,-1.4159856
965,1780383648971980,0.46663743,-0.7155758,0.17498904,1.8503108,0.79412484,-1.350623
966,1780383648981980,0.41929033,-0.6657882,0.13374338,1.7324139,0.87109387,-1.3384057
967,1780383648991980,0.37267542,-0.6147802,0.088104665,1.5546521,1.0231993,-1.3139712
968,1780383649001980,0.27554062,-0.4971446,0.002928687,1.35551,1.2174544,-1.2632693
969,1780383649011980,0.24161668,-0.44027928,-0.033191785,0.97494096,1.6701056,-1.1050552
970,1780383649021980,0.18914436,-0.38902727,-0.07614586,0.72692966,1.9303342,-0.9822713
971,1780383649031980,0.105676785,-0.3577879,-0.18109047,0.36163223,1.9694295,-0.8038987
972,1780383649041980,-0.024161667,-0.37365165,-0.37633628,0.017715093,1.9193386,-0.6395759
973,1780383649051980,-0.082247294,-0.41880223,-0.4412555,-0.46792278,1.9120082,-0.39522982
974,1780383649061980,-0.082247294,-0.41880223,-0.4412555,-1.2565498,2.2021692,0.10140363
975,1780383649071980,-0.073949344,-0.5188657,-0.67140144,-1.745242,2.4373524,0.39950588
976,1780383649081980,-0.20476402,-0.6828722,-0.873725,-3.0524936,2.4715607,1.0769554
977,1780383649091980,-0.2997023,-0.7570656,-0.8998391,-3.0524936,2.4715607,1.0769554
978,1780383649101980,-0.34582913,-0.82149667,-0.73607665,-4.194201,1.6548339,1.9089539
979,1780383649111980,-0.3277689,-0.8102701,-0.6101431,-4.718934,0.2773328,2.7275133
980,1780383649121980,-0.3277689,-0.8102701,-0.6101431,-4.718934,0.2773328,2.7275133
981,1780383649131980,-0.22013964,-0.73778504,-0.37536004,-3.5760052,-2.085494,3.3041701
982,1780383649141980,-0.4058672,-0.5869577,0.0873725,-2.8112018,-2.3200662,3.196047
983,1780383649151980,-0.5176454,-0.545712,0.26553428,-1.6688838,-1.4862351,3.1685581
984,1780383649161980,-0.46736962,-0.5720702,0.17889395,-0.002443461,0.9425651,3.0854805
985,1780383649171980,-0.45052966,-0.622346,0.19353738,0.44104472,2.1801782,2.9565878
986,1780383649181980,-0.6152683,-0.7055695,0.53131264,0.7122689,3.2100968,2.8808405
987,1780383649191980,-0.42441553,-1.0672623,0.118855886,0.5174029,3.458719,2.6994135
988,1780383649201980,-0.16522676,-1.1507299,-0.10836142,-0.36835176,3.1074715,2.117259
989,1780383649211980,0.099819414,-1.3269392,-0.15717287,-2.1019874,1.4141531,0.5546656
990,1780383649221980,-0.0622346,-1.5155954,0.06662763,-2.734233,0.4801401,-0.16920967
991,1780383649231980,-0.16571487,-1.9627084,0.49104318,-3.1630602,-0.19181168,-0.54061574
992,1780383649241980,0.41538543,-2.277542,1.2776396,-1.700038,-1.2986995,-0.59681535
993,1780383649251980,2.2370288,-2.856202,3.522478,2.1923954,-2.6975808,-2.26631
994,1780383649261980,1.4072341,-2.3390448,1.7069364,4.649906,-3.8411207,-3.313333
995,1780383649271980,1.087519,-2.1320841,0.68531275,6.931488,-4.3499713,-3.3475416
996,1780383649281980,0.8664033,-2.0232346,0.136428,6.931488,-4.3499713,-3.3475416
997,1780383649291980,1.363792,-1.8043152,-0.33631086,5.784283,-4.307211,-1.3377949
998,1780383649301980,1.6498269,-1.381364,-0.4327135,4.233296,-4.32798,-0.7287622
999,1780383649311980,1.7550157,-1.074096,-0.47737598,1.572978,-3.2662964,-0.820392
1000,1780383649321980,1.8001662,-0.82906246,-0.3968371,0.5015204,-1.9468275,-1.2186762
