id,timestamp,acc_x,acc_y,acc_z,gyro_x,gyro_y,gyro_z
0,1780383667349980,-0.34168017,-0.716308,0.5759751,0.16432275,0.23579398,0.18875736
1,1780383667359980,-0.3448529,-0.7180164,0.57377857,0.06536258,0.29077184,0.19181168
2,1780383667369980,-0.35241866,-0.70410514,0.609655,0.015882496,0.26816985,0.21624629
3,1780383667379980,-0.34680536,-0.69507504,0.6360132,0.02321288,0.20952678,0.22479841
4,1780383667389980,-0.3385074,-0.6816519,0.6343048,0.02443461,0.06841691,0.23396139
5,1780383667399980,-0.32679266,-0.686289,0.64040625,0.026267206,0.050701816,0.20708331
6,1780383667409980,-0.33265,-0.70117646,0.65212095,0.040927973,0.07452556,0.19058995
7,1780383667419980,-0.32923323,-0.70923036,0.6574902,0.12767084,0.21380283,0.18387043
8,1780383667429980,-0.33582276,-0.7058135,0.6460195,0.15943582,0.21319197,0.18203785
9,1780383667439980,-0.35119838,-0.70142055,0.60697037,0.18203785,0.18020524,0.19058995
10,1780383667449980,-0.37487194,-0.72021294,0.4886026,0.13072516,0.13439035,0.19486602
11,1780383667459980,-0.38561043,-0.72338563,0.44833317,0.0421497,0.10934488,0.19914207
12,1780383667469980,-0.39146784,-0.72753465,0.4356422,-0.3903429,0.20891592,0.19914207
13,1780383667479980,-0.42417148,-0.7316837,0.5137405,-0.46181414,0.27855456,0.20097467
14,1780383667489980,-0.4334457,-0.7297312,0.5706058,-0.49541172,0.5155703,0.24617869
15,1780383667499980,-0.4334457,-0.7297312,0.5706058,-0.49541172,0.5155703,0.24617869
16,1780383667509980,-0.49812084,-0.6958072,0.69507504,-0.3200934,0.8949176,0.31887165
17,1780383667519980,-0.59989274,-0.7370529,0.7138674,-0.12461651,0.97066486,0.46609017
18,1780383667529980,-0.605262,-0.75486904,0.61941725,0.037873644,0.92179567,0.58276546
19,1780383667539980,-0.59183884,-0.79318607,0.49641246,0.19730948,0.8888089,0.8509353
20,1780383667549980,-0.5620638,-0.82491344,0.40318257,0.19364429,0.947452,0.947452
21,1780383667559980,-0.5620638,-0.82491344,0.40318257,0.19364429,0.947452,0.947452
22,1780383667569980,1.752575,-1.3213259,0.29140437,-0.13255776,1.0152581,1.0323622
23,1780383667579980,-0.44808912,-0.5989165,0.1461903,-0.4905248,1.7458528,-0.226631
24,1780383667589980,-0.77122086,-0.68653303,0.2818861,-0.9272934,1.3322971,0.22540927
25,1780383667599980,-0.85590875,-0.64821607,0.35583547,-1.3060299,0.52778757,0.48502702
26,1780383667609980,-0.818568,-0.6889736,0.3321619,-1.5216653,0.0036651916,0.7984009
27,1780383667619980,-0.6662763,-0.7919658,0.31873876,-1.7757853,-0.6939429,1.2718215
28,1780383667629980,-0.5720702,-0.8649389,0.2923806,-1.7825048,-0.52656585,1.2815952
29,1780383667639980,-0.42783237,-0.9576807,0.25211114,-1.7403551,-0.20586158,1.2308935
30,1780383667649980,0.34338856,-1.056768,0.31532198,-1.6230689,0.3707952,1.0531317
31,1780383667659980,-0.5710939,-0.95328766,0.18914436,-1.4196508,1.3408492,0.44898596
32,1780383667669980,-0.47737598,-0.9613415,0.21452633,-1.509448,1.4465289,0.4654793
33,1780383667679980,-0.47737598,-0.9613415,0.21452633,-1.509448,1.4465289,0.4654793
34,1780383667689980,-0.56743306,-0.85542065,0.1244692,-1.8319849,0.9266826,0.3817908
35,1780383667699980,-0.673842,-0.75340474,0.20964517,-2.7452285,-0.3286455,0.6401868
36,1780383667709980,-0.70361704,-0.70971847,0.2767609,-2.7977629,-0.5662721,0.6835582
37,1780383667719980,-0.7065457,-0.67530644,0.2809099,-2.8527408,-0.77213365,0.752586
38,1780383667729980,-0.7065457,-0.60941094,0.30751213,-2.9565878,-0.743423,0.86254174
39,1780383667739980,-0.7250941,-0.5269196,0.3572998,-2.9529226,-0.63713247,0.9260717
40,1780383667749980,-0.7319277,-0.47273886,0.41562948,-2.8619037,-0.49113566,1.0067059
41,1780383667759980,-0.48152497,-0.3939084,0.68531275,-2.6688702,-0.23335053,1.0256428
42,1780383667769980,-0.255772,-0.3648656,0.93473923,-1.4526376,1.2901474,0.64934975
43,1780383667779980,0.054912884,-0.35290676,1.4953387,-0.17592919,2.6902506,0.15760323
44,1780383667789980,-0.13203497,-0.24991462,1.138527,-0.17592919,2.6902506,0.15760323
45,1780383667799980,-0.26797485,-0.11861181,0.8856837,1.3274102,3.323107,-0.24801129
46,1780383667809980,-0.3692586,-0.064919226,0.6855568,1.5919148,2.5179865,-0.19242255
47,1780383667819980,-0.4424758,-0.15107143,0.38853914,1.106277,1.5393804,-0.07452556
48,1780383667829980,-0.4898229,-0.27139166,0.4170938,0.9260717,1.3121386,-0.06780604
49,1780383667839980,-0.5976962,-0.38146147,0.42051062,0.9798279,0.61208695,-0.047647487
50,1780383667849980,-0.7819594,-0.4729829,0.2809099,1.0574077,0.4129449,0.048258353
51,1780383667859980,-0.80441266,-0.42514774,0.03636453,1.0421361,0.31398472,0.07880162
52,1780383667869980,-0.79269797,-0.4234393,-0.03636453,0.8698721,0.5699373,-0.1459968
53,1780383667879980,-0.7602383,-0.447601,-0.06296677,0.8698721,0.5699373,-0.1459968
54,1780383667889980,-0.6897058,-0.5276518,0.14814276,0.70066243,1.1472049,-0.5522222
55,1780383667899980,-0.80368054,-0.5598673,0.80246025,0.94989544,1.5057828,-0.7153232
56,1780383667909980,-0.7883049,-0.5210622,0.933519,1.2657127,1.8784106,-0.72692966
57,1780383667919980,-0.7370529,-0.49543622,0.94035256,2.039679,2.3689353,-0.79168135
58,1780383667929980,-0.6953191,-0.44418418,0.44491637,2.2974641,1.4288138,-0.9804387
59,1780383667939980,-0.6953191,-0.44418418,0.44491637,2.2974641,1.4288138,-0.9804387
60,1780383667949980,-0.51593703,-0.8066092,0.3116611,1.3457361,0.43860126,-1.1691961
61,1780383667959980,-0.29604146,-0.8537123,0.36901456,1.2217305,-0.6010914,-1.5583172
62,1780383667969980,-0.29604146,-0.8537123,0.36901456,1.2217305,-0.6010914,-1.5583172
63,1780383667979980,-0.04759116,-0.9188756,0.15180361,0.33353242,-1.1136073,-1.7385225
64,1780383667989980,0.0690682,-0.8973985,0.33582276,-0.68233645,-4.3035455,-0.6169739
65,1780383667999980,-0.13496366,-0.13325526,0.026602242,-0.5589417,-4.6254716,-0.111177474
66,1780383668009980,0.21403822,-0.30629185,-0.24967057,-0.535118,-4.3438625,-0.28893927
67,1780383668019980,0.17376876,-0.2689511,-0.24259292,-0.54733527,-3.9058723,-0.66767573
68,1780383668029980,0.111290105,-0.20915705,-0.22502078,-0.698219,-3.8001926,-0.95905846
69,1780383668039980,0.031239327,-0.15277983,-0.21745501,-1.1856894,-4.1850376,-1.0641272
70,1780383668049980,0.0017084008,-0.17987019,-0.20988922,-1.491733,-4.4220533,-1.033584
71,1780383668059980,-0.024893839,-0.268463,-0.18426323,-1.7269161,-4.5527787,-0.98899084
72,1780383668069980,-0.053692598,-0.3577879,-0.17816179,-2.6028967,-4.38418,-0.7666359
73,1780383668079980,-0.18231077,-0.93620354,0.19963883,-3.1117475,-0.634689,-0.058643065
74,1780383668089980,-0.15790504,-1.1888028,0.036852647,-3.0109549,1.885741,0.48258355
75,1780383668099980,-0.11031388,-1.6659348,0.10640897,-2.4019222,4.120286,0.7086037
76,1780383668109980,-0.36852646,-2.110363,1.193928,-1.5210545,4.473977,0.75869465
77,1780383668119980,-0.45931572,-2.1667402,1.0304097,0.91507614,3.6981783,1.187522
78,1780383668129980,-0.5171573,-2.1950507,0.8000197,1.5968018,2.7183504,1.5106697
79,1780383668139980,-0.56767714,-2.1584423,0.54912883,1.8246545,1.9407189,1.7641789
80,1780383668149980,-1.3374337,-2.3002396,0.11568313,1.8264871,1.0873401,2.1233675
81,1780383668159980,-1.8165181,-2.7737105,-0.09859913,1.10139,-0.90224797,4.1819835
82,1780383668169980,-1.8165181,-2.7737105,-0.09859913,1.10139,-0.90224797,4.1819835
83,1780383668179980,-0.84785485,-2.3727245,-0.16449459,0.86742866,-0.75747293,4.034765
84,1780383668189980,-0.545712,-2.0371459,-0.12080834,0.7415904,-0.2657264,3.3933563
85,1780383668199980,-0.37658033,-1.0884954,-0.003172744,0.12889257,0.44715336,-0.11911872
86,1780383668209980,-0.5442477,-0.5098356,0.20574026,-0.030543262,0.22235495,-0.55771995
87,1780383668219980,-0.62259,-0.4097721,0.18182266,-0.112399206,0.11301007,-0.72143185
88,1780383668229980,-0.65334123,-0.3077562,0.16205402,-0.119729586,0.06169739,-0.5870415
89,1780383668239980,-0.6550496,-0.21818718,0.16034561,-0.084910266,0.037873644,-0.11911872
90,1780383668249980,-0.65163285,-0.15546446,0.15473229,-0.06780604,0.020158553,0.16798794
91,1780383668259980,-0.5605995,-0.19988288,0.07443746,-0.029932396,0.07819075,0.33108896
92,1780383668269980,-0.5339973,-0.20671648,0.0039049159,0.07269296,0.36713,0.5681047
93,1780383668279980,-0.47981656,-0.21818718,-0.05588911,0.06047566,0.45753807,0.5882632
94,1780383668289980,-0.45687518,-0.25040275,-0.17913802,0.069027774,0.6377433,0.7770206
95,1780383668299980,-0.41099238,-0.24723,-0.15180361,-0.07696902,0.77091193,0.9816604
96,1780383668309980,-0.37096703,-0.24234885,-0.0656514,-0.116675265,0.90041536,1.073901
97,1780383668319980,-0.37096703,-0.24234885,-0.0656514,-0.116675265,0.90041536,1.073901
98,1780383668329980,-0.29506522,-0.24503349,0.30385128,-0.08735373,1.1276573,1.2406673
99,1780383668339980,-0.30458343,-0.28798756,0.49348375,0.1337795,0.9737192,1.450805
100,1780383668349980,-0.39073566,-0.40952805,0.7665838,0.3475823,0.71837753,1.6334536
101,1780383668359980,-0.71215904,-0.9445015,0.95377576,0.49541172,0.6059783,1.8118263
102,1780383668369980,-0.71167094,-1.1429201,0.69409883,0.47708577,0.84665924,1.9914207
103,1780383668379980,-0.6240544,-1.1814811,0.3943965,-0.14721853,1.5589281,1.7379116
104,1780383668389980,-0.47469133,-1.1141213,0.32166746,-0.38240165,1.8167132,1.2351695
105,1780383668399980,-0.25479576,-1.2442038,0.19426957,-0.38973203,2.0005836,0.5467244
106,1780383668409980,-0.17645338,-1.3752626,0.018304294,-0.2779437,2.1630738,-0.07513642
107,1780383668419980,-0.25748038,-1.4875289,-0.12129646,-0.032986723,2.362216,-0.9950995
108,1780383668429980,-1.0199152,-1.5185242,-0.17425688,0.43371433,1.999362,-2.4141395
109,1780383668439980,-1.194172,-1.5668476,-0.1683995,0.4428773,1.9688187,-2.3188446
110,1780383668449980,-1.194172,-1.5668476,-0.1683995,0.4428773,1.9688187,-2.3188446
111,1780383668459980,-1.3035098,-1.5958903,-0.25015867,0.30848694,2.2944098,-1.7935003
112,1780383668469980,-2.1281793,-1.9468447,-0.28969595,0.23335053,2.1398609,-0.90285885
113,1780383668479980,-2.4608293,-2.0783916,-0.25723633,0.29138273,1.8716911,-0.35430184
114,1780383668489980,-2.6834095,-2.131108,-0.18426323,0.43371433,1.4135422,1.4874569
115,1780383668499980,-2.5843222,-2.0359256,-0.12495731,0.35430184,1.7122552,2.270586
116,1780383668509980,-2.309758,-1.8963249,-0.07272906,0.2125811,1.8558086,2.5961773
117,1780383668519980,-1.9090158,-1.7259729,0.06760386,0.032375857,1.772731,2.6554313
118,1780383668529980,-1.4079663,-1.4465274,0.63064396,0.24007004,0.6963864,1.9975294
119,1780383668539980,-1.3098553,-1.3013133,0.6460195,0.44776422,-0.0012217305,1.382388
120,1780383668549980,-1.0762925,-1.0301657,0.4886026,0.56321776,-0.59986967,0.5833763
121,1780383668559980,-1.0833701,-0.8251576,0.40293851,0.552833,-1.0586295,-0.09407325
122,1780383668569980,-1.1661055,-0.68482465,0.32337585,0.31520647,-1.5632042,-0.6737844
123,1780383668579980,-0.97085977,-0.38707477,0.13081467,0.1337795,-1.5442673,-0.31948254
124,1780383668589980,-0.97085977,-0.38707477,0.13081467,0.1337795,-1.5442673,-0.31948254
125,1780383668599980,-0.82491344,-0.30336314,0.12398108,0.09285152,-1.3414601,-0.15454891
126,1780383668609980,-0.5122762,-0.10177187,0.077122085,0.0421497,-0.86498517,0.031154128
127,1780383668619980,-0.24625377,0.018060237,0.0353883,-0.002443461,-0.8222246,0.028710667
128,1780383668629980,-0.15302388,0.045638707,0.0065895454,-0.04337143,-0.8142834,0.01038471
129,1780383668639980,-0.079318605,0.06662763,-0.019036464,-0.18142697,-0.8313876,-0.08674286
130,1780383668649980,-0.010494461,0.0873725,-0.03904916,-0.25778514,-0.8374963,-0.14049901
131,1780383668659980,0.10323621,0.10470056,-0.08444381,-0.31703907,-0.8491027,-0.18020524
132,1780383668669980,0.1415532,0.108117364,-0.10592084,-0.3915646,-0.870483,-0.24556783
133,1780383668679980,0.17157225,0.11495096,-0.12422514,-0.46853364,-0.8491027,-0.3903429
134,1780383668689980,0.20061506,0.113974735,-0.14545812,-0.47036624,-0.77763146,-0.49235737
135,1780383668699980,0.22477673,0.10689708,-0.16058967,-0.44715336,-0.66339964,-0.6114761
136,1780383668709980,0.23112221,0.10714114,-0.15790504,-0.30115658,-0.3463606,-0.7959574
137,1780383668719980,0.19207305,0.1244692,-0.13398743,-0.30115658,-0.3463606,-0.7959574
138,1780383668729980,0.18255483,0.14301755,-0.09200958,0.06841691,0.23273966,-0.9810496
139,1780383668739980,0.18597162,0.15033926,-0.08346757,0.20708331,0.35918877,-1.042747
140,1780383668749980,0.18694785,0.16351835,0.0039049159,0.3390302,0.398895,-1.0940597
141,1780383668759980,0.18963248,0.18841219,0.12715383,0.7122689,-0.1740966,-1.151481
142,1780383668769980,0.19793043,0.23014598,0.1415532,1.0054842,-0.766025,-1.1624765
143,1780383668779980,0.18865626,0.23917611,0.11373068,1.2486086,-1.1685852,-1.1594223
144,1780383668789980,0.16303024,0.24405725,0.09274176,1.5906931,-1.6517797,-1.128879
145,1780383668799980,0.14985114,0.19256116,0.073949344,1.9578232,-1.9486601,-1.0647382
146,1780383668809980,0.093717985,0.14911897,0.30922052,2.2907448,-2.7006352,-1.0067059
147,1780383668819980,0.03172744,0.17767367,0.64089435,2.4471262,-3.4892623,-0.93645644
148,1780383668829980,-0.43417785,0.36852646,1.9295166,2.8857274,-7.0634346,-0.54611355
149,1780383668839980,-0.14863087,-0.5000733,0.13886857,0.9443977,-7.0102897,-0.766025
150,1780383668849980,-0.14863087,-0.5000733,0.13886857,0.9443977,-7.0102897,-0.766025
151,1780383668859980,-0.058573738,-0.5610876,0.16522676,-0.8943067,-2.7574458,-0.5308419
152,1780383668869980,-0.058573738,-0.5610876,0.16522676,-0.8943067,-2.7574458,-0.5308419
153,1780383668879980,-0.31654227,-1.1861182,-0.2186753,-2.3102922,-0.50579643,-0.29932398
154,1780383668889980,-0.5708499,-1.6747209,-0.12910628,-2.850908,1.0250319,-0.20280726
155,1780383668899980,-2.2109146,-2.9909217,0.65382934,-3.1264083,2.4098635,0.22540927
156,1780383668909980,-3.3814132,-3.6613467,1.9019382,-1.0311406,3.8747182,2.456289
157,1780383668919980,-3.166643,-3.6794071,0.37975308,-0.5815437,3.1752775,3.8673878
158,1780383668929980,-2.6204426,-3.184215,0.10396838,-0.4905248,3.422678,4.2497897
159,1780383668939980,-2.255577,-2.6148295,0.102504045,-0.45020768,4.215581,3.961461
160,1780383668949980,-1.918534,-1.9658812,0.06931226,-0.2773328,2.158187,2.7049112
161,1780383668959980,-1.428711,-1.5138872,-0.12422514,-0.39828414,1.0873401,2.193617
162,1780383668969980,-0.85542065,-1.014546,0.021232981,-0.65118235,0.5558874,1.4526376
163,1780383668979980,-0.93010217,-0.93620354,0.27456442,-0.90041536,0.6719518,0.82894415
164,1780383668989980,-1.0482259,-0.873725,0.2831064,-1.2406673,2.5442538,0.35979962
165,1780383668999980,-0.9586569,-0.85590875,0.14497001,-1.3017539,2.9260445,0.40317106
166,1780383669009980,-0.8778739,-0.8468786,-0.0017084008,-1.5063937,3.4251215,0.37201694
167,1780383669019980,-0.85175985,-0.8358961,-0.119343996,-1.636508,3.3469307,0.34330627
168,1780383669029980,-0.75047606,-0.81466305,-0.14570218,-1.6688838,3.2491922,0.23457226
169,1780383669039980,-0.596964,-0.65968674,-0.1849954,-1.6212363,3.0812044,0.03359759
170,1780383669049980,-0.46151224,-0.5452239,-0.16107778,-1.6847663,2.833193,-0.27366763
171,1780383669059980,-0.60062486,-0.45345837,-0.111046046,-1.6933185,2.63344,-0.3408628
172,1780383669069980,-1.3410946,-0.59086263,-0.23649146,-1.8038851,2.112983,0.36774087
173,1780383669079980,-2.3029244,-0.87982637,-0.27846932,-2.0384574,1.2473868,1.395827
174,1780383669089980,-1.7518429,-0.8495633,-0.1564407,-2.4862216,-0.58276546,3.9327505
175,1780383669099980,-1.2588474,-0.83223516,-0.022941383,-2.3518312,-0.679893,4.226577
176,1780383669109980,-0.6604189,-0.8019721,0.110557936,-2.171015,-0.535118,4.061643
177,1780383669119980,-0.36437747,-0.74583894,0.20012695,-1.9065105,-0.21502456,3.3677
178,1780383669129980,-0.06467517,-0.6965394,0.2613853,-1.4752395,0.03848451,1.2046263
179,1780383669139980,-0.13227904,-0.3526627,0.29213652,-1.3310753,-0.15577064,0.31703907
180,1780383669149980,-0.13227904,-0.3526627,0.29213652,-1.2925909,-0.45998153,-0.015882496
181,1780383669159980,0.12886222,-0.1432616,0.3265486,-1.4049901,-0.9560041,-0.07269296
182,1780383669169980,0.255772,-0.08322352,0.39756927,-1.5351044,-1.6798794,-0.226631
183,1780383669179980,0.34949,-0.05588911,0.41977844,-1.5442673,-1.9792033,-0.34025195
184,1780383669189980,0.47005424,-0.0873725,0.39878955,-1.518611,-2.276084,-0.5345071
185,1780383669199980,0.5108118,-0.12593354,0.400742,-1.3292428,-2.588236,-0.97127575
186,1780383669209980,0.5701177,-0.17425688,0.4368625,-1.0952814,-2.733011,-1.2901474
187,1780383669219980,0.7900133,-0.2806658,0.6540734,-0.7263188,-2.9382617,-1.6786577
188,1780383669229980,0.82100856,-0.3414361,0.76219076,-0.3585779,-3.1746666,-2.0402899
189,1780383669239980,0.76072645,-0.39195594,0.66871685,0.82344633,-3.426954,-2.9614747
190,1780383669249980,0.6760386,-0.4356422,0.55742675,1.3976597,-2.8765645,-3.2449162
191,1780383669259980,0.6372335,-0.4685899,0.4368625,1.7605137,-2.2534819,-3.3927455
192,1780383669269980,0.65163285,-0.47225076,0.2796896,2.1093178,-1.2803736,-3.540575
193,1780383669279980,0.6257628,-0.3973252,0.07590181,2.2437081,-0.5320636,-3.6511416
194,1780383669289980,0.40513504,-0.14082102,-0.33655494,1.5851953,0.13072516,-3.8857138
195,1780383669299980,0.2638259,-0.09518232,-0.30507156,1.2956452,0.0067195175,-3.8368447
196,1780383669309980,0.14765464,-0.10421244,-0.21403822,0.5290093,-0.43982297,-3.3444872
197,1780383669319980,0.032703668,-0.19231711,-0.050763905,0.03176499,-0.56382865,-2.9669726
198,1780383669329980,-0.12690976,-0.4927516,0.25772443,-0.5180137,-0.35246924,-2.7232373
199,1780383669339980,-0.14789869,-0.16400647,-0.33020946,-0.59315014,0.9401216,-2.3945918
200,1780383669349980,-0.07858644,-0.21306199,-0.5274077,-0.41905355,1.3353515,-2.3542747
201,1780383669359980,-0.08517598,-0.29433304,-0.75145227,-0.45814893,1.0769554,-2.4581218
202,1780383669369980,-0.88007045,-0.84931916,-0.6469958,-0.689056,0.3036,-3.3279939
203,1780383669379980,-0.96719885,-1.8963249,-0.67091334,-0.689056,0.3036,-3.3279939
204,1780383669389980,-0.96719885,-1.8963249,-0.67091334,-0.5888741,0.63591075,-3.335935
205,1780383669399980,-2.5050037,-4.847465,-0.77903074,-0.005497787,-0.7360926,-3.4550538
206,1780383669409980,-4.3178606,-5.5615764,-1.1336459,0.042760566,-0.54550266,-2.4129176
207,1780383669419980,-4.4579496,-5.692879,-1.099966,-0.24984388,1.4862351,0.5363397
208,1780383669429980,-3.8961298,-5.487871,-1.193928,-1.0726794,4.3896775,1.6530013
209,1780383669439980,-2.6577835,-4.4728374,-0.8617661,-1.0726794,4.3896775,1.6530013
210,1780383669449980,-2.6577835,-4.4728374,-0.8617661,-1.9963076,7.827627,1.7146988
211,1780383669459980,0.082491346,-2.3273299,1.7230443,-2.0158553,11.128132,0.50823987
212,1780383669469980,0.7421781,-1.9246354,2.7356377,-0.32742378,8.042041,-1.3274102
213,1780383669479980,0.39805737,-1.6817985,2.1984677,-0.02443461,5.1294355,-1.5931365
214,1780383669489980,-0.53985465,-1.3916144,0.76194674,0.06291912,0.96944314,-1.4660766
215,1780383669499980,-0.53985465,-1.3916144,0.76194674,0.05681047,-2.5827382,-1.1233811
216,1780383669509980,-0.6272271,-1.3903941,0.3568117,-0.018936822,-5.6016345,-0.84604836
217,1780383669519980,-0.6535853,-1.3584226,0.16351835,-0.021991149,-6.056729,-0.8539896
218,1780383669529980,-0.6631035,-1.185142,-0.062478654,0.029321533,-6.0891047,-0.8900307
219,1780383669539980,-0.6772589,-0.9174112,-0.19597797,0.15699236,-5.467244,-0.8943067
220,1780383669549980,-0.6399181,-0.7592621,-0.20964517,0.15332718,-4.477031,-0.71593404
221,1780383669559980,-0.41465324,-0.41684976,-0.26748675,0.093462385,-3.8331795,-0.6017023
222,1780383669569980,-0.41465324,-0.41684976,-0.26748675,0.093462385,-3.8331795,-0.6017023
223,1780383669579980,-0.32410803,-0.25894472,-0.27456442,-0.032375857,-2.3157902,-0.44348818
224,1780383669589980,-0.19060871,-0.030019043,-0.11251039,0.058643065,-0.5149594,-0.22724187
225,1780383669599980,-0.06980037,0.082735404,0.017084008,0.1441642,0.007330383,-0.15760323
226,1780383669609980,-0.012935034,0.111290105,0.04002539,0.27305678,0.5839872,-0.0842994
227,1780383669619980,0.05222825,0.12715383,0.033679903,0.5021312,1.2809844,-0.077579886
228,1780383669629980,0.08395569,0.12568948,0.008053889,0.5925393,1.4483615,-0.1301143
229,1780383669639980,0.08956901,0.12813005,-0.041733786,0.7452556,1.6627752,-0.2302962
230,1780383669649980,0.08688438,0.13154685,-0.061502427,0.95172805,1.8692477,-0.33841935
231,1780383669659980,0.09054524,0.13227904,-0.08102701,1.3732251,2.262034,-0.5149594
232,1780383669669980,0.10689708,0.1330112,-0.09200958,1.600467,2.4727826,-0.6047566
233,1780383669679980,0.08175918,0.11617125,-0.08590815,1.9095647,2.8136454,-0.7324274
234,1780383669689980,0.061014313,0.10470056,-0.0622346,2.176513,2.9901853,-0.79473567
235,1780383669699980,0.056133166,0.09689073,-0.044662476,2.2821925,2.968805,-0.7984009
236,1780383669709980,0.05515694,0.0976229,-0.015375607,2.4153612,2.8887818,-0.7867944
237,1780383669719980,0.04881145,0.06418706,-0.029774986,2.5509732,2.701857,-0.7635816
238,1780383669729980,0.045882765,0.05759751,-0.041001618,2.6022859,2.5314255,-0.73975784
239,1780383669739980,0.032215554,0.12568948,-0.022209208,2.7122416,1.9620992,-0.63041294
240,1780383669749980,0.0053692595,0.33704305,-0.061014313,2.737287,1.6468927,-0.56016344
241,1780383669759980,0.017572122,0.39268813,-0.06931226,2.6126707,1.0409144,-0.42638394
242,1780383669769980,0.021721095,0.36413342,0.09005712,2.179567,-1.0641272,-0.084910266
243,1780383669779980,0.021721095,0.36413342,0.09005712,2.179567,-1.0641272,-0.084910266
244,1780383669789980,0.06882414,0.11324256,-0.043930303,2.1019874,-2.1453588,0.1282817
245,1780383669799980,0.1010397,0.024161667,-0.06199054,1.9346102,-2.6126707,0.13561209
246,1780383669809980,0.1010397,0.024161667,-0.06199054,1.9346102,-2.6126707,0.13561209
247,1780383669819980,0.14277348,-0.067359805,-0.0690682,1.5027285,-3.3444872,-0.07574729
248,1780383669829980,0.084687866,-0.9371798,2.5484457,1.2211196,-4.3218718,-0.2846632
249,1780383669839980,-0.20134723,-1.4462832,2.9491878,-0.28160888,-15.5788965,-1.8197676
250,1780383669849980,-0.20134723,-1.4462832,2.9491878,-0.28160888,-15.5788965,-1.8197676
251,1780383669859980,-0.48518583,-2.4395962,2.2641191,-3.2876768,-14.742011,-2.2608123
252,1780383669869980,-0.5374141,-1.803095,-0.32020313,-3.3677,-7.3199983,-1.5784758
253,1780383669879980,-0.33533466,-1.6068729,-1.1155857,-3.2895093,-2.0292943,-1.1111639
254,1780383669889980,-0.35583547,-1.5112025,-1.2395668,-3.8722749,6.442185,-0.79473567
255,1780383669899980,-0.32728076,-1.615659,-1.5392691,-4.0671406,8.424442,-0.92179567
256,1780383669909980,-0.0622346,-1.2244352,-0.8295506,-4.174653,8.96567,-1.2003502
257,1780383669919980,-0.0622346,-1.2244352,-0.8295506,-4.174653,8.96567,-1.2003502
258,1780383669929980,0.20159128,-4.6165867,0.26504618,-1.9847012,3.517362,-1.518611
259,1780383669939980,0.30946457,-5.1273985,-0.018060237,-0.13622294,1.509448,-1.6676621
260,1780383669949980,0.5801241,-4.3681364,-0.69312257,0.9627236,0.61269784,-1.7476854
261,1780383669959980,0.8161274,-4.638308,-0.916679,1.6646078,0.22540927,-2.2369885
262,1780383669969980,0.68262815,-4.715674,-0.8561529,1.5338826,0.19486602,-2.638327
263,1780383669979980,0.1986626,-4.028653,-0.53180075,1.2021828,0.054367006,-2.7592783
264,1780383669989980,-0.19353738,-3.1917806,-0.3568117,-0.6310238,-2.0500638,-1.568091
265,1780383669999980,-0.39830142,-2.374921,-0.15790504,-1.9077321,-3.7555995,-0.9944886
266,1780383670009980,-0.30726805,-1.7838144,-0.011714748,-3.1435125,-5.1355443,-0.3213151
267,1780383670019980,-0.19573392,-1.2883781,0.22013964,-4.8068986,-6.3566637,1.0922271
268,1780383670029980,-0.19573392,-1.2883781,0.22013964,-4.8068986,-6.3566637,1.0922271
269,1780383670039980,-0.07272906,-0.77683425,0.41904628,-4.992602,-6.263201,1.4043792
270,1780383670049980,-0.07272906,-0.77683425,0.41904628,-5.032919,-6.0805526,1.5442673
271,1780383670059980,0.04344219,-0.071020655,1.5341438,-0.36651915,-3.8649445,2.026851
272,1780383670069980,0.17962612,-0.058817793,1.2356619,0.44409904,-3.3609805,1.9559906
273,1780383670079980,0.32117933,-0.088836834,0.50446635,1.29198,-2.6364944,1.8069394
274,1780383670089980,0.32288775,-0.08175918,0.20183535,1.8197676,-1.9211712,1.6255124
275,1780383670099980,0.28383857,-0.045882765,0.076389916,2.2742512,-1.0775663,1.3921618
276,1780383670109980,0.25796852,0.01513155,0.02318544,2.4507914,-0.86559606,1.3475688
277,1780383670119980,0.25748038,0.119343996,0.044174362,2.5583036,-0.75502944,1.3310753
278,1780383670129980,0.3328941,0.20159128,0.070532545,2.71102,-0.6597345,1.2913691
279,1780383670139980,0.5976962,0.48542988,0.035144243,3.0750957,-0.68539083,1.1820242
280,1780383670149980,0.5976962,0.48542988,0.035144243,3.0750957,-0.68539083,1.1820242
281,1780383670159980,1.1419438,1.3701375,-0.19109683,2.5772405,-0.24129178,1.0531317
282,1780383670169980,1.1419438,1.3701375,-0.19109683,2.5772405,-0.24129178,1.0531317
283,1780383670179980,1.159272,1.4980234,0.10933765,1.432479,0.32620203,0.46853364
284,1780383670189980,1.159272,1.4980234,0.10933765,1.432479,0.32620203,0.46853364
285,1780383670199980,0.8664033,0.6560259,-0.3660859,0.9016371,0.74220127,-0.069027774
286,1780383670209980,0.7321718,0.5469323,-0.34558508,0.20830505,1.541213,-0.6261369
287,1780383670219980,0.5339973,0.46078008,-0.28994003,0.032375857,1.717753,-0.66889745
288,1780383670229980,0.3756041,0.3568117,-0.30800024,-0.19486602,2.0054705,-0.66339964
289,1780383670239980,0.3653537,0.08395569,-0.30019042,-0.36163223,2.3182335,-0.65240407
290,1780383670249980,0.3922,-0.04490653,-0.3104408,-0.63591075,3.20521,-0.81245077
291,1780383670259980,0.38878322,-0.17157225,-0.24015234,-0.73731434,3.5906658,-0.86315256
292,1780383670269980,0.40952805,-0.302631,-0.17572121,-0.73426,3.684739,-0.8857546
293,1780383670279980,0.56694496,-0.5183776,-0.33997175,-0.6010914,4.134336,-1.042747
294,1780383670289980,0.56694496,-0.5183776,-0.33997175,-0.6010914,4.134336,-1.042747
295,1780383670299980,1.6471423,-3.7889888,-0.13886857,-1.5161675,2.5259278,-2.8490756
296,1780383670309980,1.6471423,-3.7889888,-0.13886857,-1.5161675,2.5259278,-2.8490756
297,1780383670319980,1.4162643,-4.0657496,-0.3746279,-1.822211,1.7507398,-4.1092906
298,1780383670329980,0.328257,-5.2699285,-0.2889638,-1.6242907,-0.5571091,-4.1422772
299,1780383670339980,-0.83858067,-4.8826094,-0.20281157,-0.83077675,-0.66950834,-3.0042353
300,1780383670349980,-0.97037166,-4.766438,-0.25137895,0.3640757,-1.2797627,-1.2534955
301,1780383670359980,-0.8254016,-4.301997,-0.7582859,1.3927728,-3.1031954,0.5925393
302,1780383670369980,-0.6972716,-3.8978384,-0.87274873,1.2498302,-3.1856623,0.5900958
303,1780383670379980,-0.38097337,-3.2923322,-0.76243484,1.0042624,-2.557082,0.25595254
304,1780383670389980,-0.11299851,-2.0981603,-0.42392743,0.62796944,-1.3408492,-0.15027285
305,1780383670399980,-0.020012695,-1.5631866,-0.21330604,-0.0018325958,0.5021312,-0.5516113
306,1780383670409980,0.016595893,-1.2598236,-0.035632357,-0.24617869,0.9761627,-0.48380527
307,1780383670419980,0.1381364,-1.1265682,0.117391534,-0.3652974,1.1239921,-0.38912117
308,1780383670429980,0.36291313,-1.1138773,0.11983211,-0.7153232,1.1539245,-0.017104227
309,1780383670439980,0.36291313,-1.1138773,0.11983211,-0.7153232,1.1539245,-0.017104227
310,1780383670449980,0.34778157,-1.121443,0.12544543,-0.806953,1.0042624,0.115453534
311,1780383670459980,0.37658033,-1.1856301,0.08127106,-1.061073,0.46853364,0.22418754
312,1780383670469980,0.33240595,-1.0428566,0.10396838,-1.1355985,0.27672195,0.21074851
313,1780383670479980,0.31141704,-0.94254905,0.1432616,-1.2144,-0.3726278,0.21991149
314,1780383670489980,0.26480213,-0.6960513,0.20940112,-1.2223413,-0.65484756,0.24251351
315,1780383670499980,0.23942018,-0.5835409,0.22648512,-1.2260065,-1.0140363,0.29077184
316,1780383670509980,0.20403185,-0.4685899,0.22331238,-1.2253957,-1.318858,0.344528
317,1780383670519980,0.17791773,-0.3912238,0.2037878,-1.1484267,-1.6206255,0.45265114
318,1780383670529980,0.12983845,-0.25650415,0.16742326,-1.0549643,-1.6707164,0.4972443
319,1780383670539980,0.12593354,-0.20329969,0.15790504,-0.9053023,-1.6530013,0.5332854
320,1780383670549980,0.10348027,-0.14472595,0.14423785,-0.5271767,-1.5247196,0.54611355
321,1780383670559980,0.036120474,0.061014313,0.117635585,0.20219639,-1.2486086,0.54550266
322,1780383670569980,0.037584815,0.102504045,0.10323621,0.72143185,-1.1759156,0.54611355
323,1780383670579980,0.038561042,0.119343996,0.08078295,0.8961393,-1.1502593,0.54000485
324,1780383670589980,0.031239327,0.11861181,0.046858992,1.1093313,-1.0928379,0.53023106
325,1780383670599980,0.09127741,0.076389916,0.013179091,1.5717562,-0.7788532,0.35979962
326,1780383670609980,0.09127741,0.076389916,0.013179091,1.5717562,-0.7788532,0.35979962
327,1780383670619980,0.08346757,0.037828874,-0.0026846298,1.6694947,-0.6389651,0.27183503
328,1780383670629980,0.08786061,0.025137896,0.011958805,1.7782288,-0.4361578,0.10751228
329,1780383670639980,0.08419975,0.012202863,0.022209208,1.890017,-0.27916542,-0.099571034
330,1780383670649980,0.09225364,0.0034168016,0.018792408,1.9236146,-0.204029,-0.18020524
331,1780383670659980,0.0873725,0.035144243,-0.026114125,1.9236146,-0.026267206,-0.2950479
332,1780383670669980,0.065407336,0.055400997,-0.062478654,1.8674151,0.23457226,-0.40439278
333,1780383670679980,0.051740136,0.05832968,-0.059305906,1.8051068,0.45448375,-0.47342056
334,1780383670689980,0.035632357,0.05418071,0.023429496,1.8289305,0.90041536,-0.59131753
335,1780383670699980,-0.17425688,0.12129646,0.98892,2.3848178,0.3286455,-0.49968776
336,1780383670709980,-0.3360668,-0.16913168,1.6005274,3.7592647,-1.097114,-0.17959438
337,1780383670719980,-0.009030119,-0.1696198,0.2928687,5.3016996,-2.1105394,-0.08552113
338,1780383670729980,-0.008053889,-0.15033926,-0.3192269,5.108055,-1.6933185,-0.13133603
339,1780383670739980,0.31678632,-0.4556549,-0.17401282,4.6773953,-1.1117748,-0.23640485
340,1780383670749980,0.43588626,-0.7990434,-0.00024405724,3.6529741,-0.8491027,-0.61575216
341,1780383670759980,0.43588626,-0.7990434,-0.00024405724,3.6529741,-0.8491027,-0.61575216
342,1780383670769980,0.71020657,-1.1460928,-0.063943,1.3487904,-0.32803464,-1.4288138
343,1780383670779980,1.8338462,-2.60946,1.2351737,0.04642576,-0.20647246,-2.0329595
344,1780383670789980,1.6871678,-2.7981162,0.15229172,-2.6407704,-0.47586402,-4.9748864
345,1780383670799980,1.4057697,-2.8842685,-0.4471129,-3.5894442,0.56382865,-4.836831
346,1780383670809980,0.3904916,-2.476693,-0.9169231,-4.356691,2.5308146,-3.695124
347,1780383670819980,0.21672285,-2.3451462,-0.5625519,-4.860044,4.7305403,-1.9486601
348,1780383670829980,0.27261195,-1.7147462,-0.41684976,-4.157549,6.3365054,0.31948254
349,1780383670839980,0.51593703,-2.9233177,-0.60721445,-3.5228598,6.871012,0.93279123
350,1780383670849980,0.9232686,-4.1172457,-0.6638357,-2.8136454,6.7915998,1.1258247
351,1780383670859980,0.96402615,-4.140675,-0.65041256,-2.0237966,5.9046235,1.0158689
352,1780383670869980,0.85444444,-3.9581203,-0.63406074,-1.486846,4.033543,0.5216789
353,1780383670879980,0.07614586,-2.9006205,-0.3397277,-0.6200282,-1.4776831,-0.76174897
354,1780383670889980,-0.2169669,-2.506956,-0.22916976,-0.5338962,-2.7159069,-0.88086766
355,1780383670899980,-0.2169669,-2.506956,-0.22916976,-0.5338962,-2.7159069,-0.88086766
356,1780383670909980,-0.45467865,-1.8240839,0.09322987,-1.3536774,-3.902818,-0.23151793
357,1780383670919980,-0.45199403,-1.5021724,0.15692882,-1.8674151,-4.042095,-0.040927973
358,1780383670929980,-0.5186216,-1.1578076,0.27773714,-2.6108382,-4.13739,0.21624629
359,1780383670939980,-0.5095915,-1.0233321,0.35827604,-3.186273,-4.035987,0.5852089
360,1780383670949980,-0.47078642,-0.89032084,0.45297024,-3.649309,-3.4666603,1.3322971
361,1780383670959980,-0.4024504,-0.5720702,1.2344415,-3.0604348,-1.9963076,1.6902641
362,1780383670969980,-0.45931572,-0.3431445,1.3359693,-2.2321017,-0.65668017,2.0073032
363,1780383670979980,-0.24332508,-0.19109683,1.274711,-1.0445796,0.15699236,2.3793201
364,1780383670989980,-0.1181237,-0.15888128,1.3069266,-0.30970868,0.059253927,2.4788911
365,1780383670999980,0.021477038,-0.1330112,1.2695858,0.26939157,-0.1740966,2.4984388
366,1780383671009980,0.2672427,-0.16791138,0.35437113,1.604743,-1.269378,2.1704042
367,1780383671019980,0.30165476,-0.15448824,0.11177822,1.6358972,-1.3011429,2.0097466
368,1780383671029980,0.31483385,-0.04807928,-0.10909359,1.5888605,-1.2027937,1.7910569
369,1780383671039980,0.30409533,0.034900185,-0.093473926,1.536326,-1.0415252,1.6084082
370,1780383671049980,0.29921418,0.114462845,-0.05686534,1.5448782,-0.9633345,1.5143349
371,1780383671059980,0.31263736,0.18255483,-0.055400997,1.6267341,-0.91507614,1.4245378
372,1780383671069980,0.40952805,0.29555333,-0.09030118,1.8509218,-0.91751957,1.3439035
373,1780383671079980,0.46956614,0.3590082,-0.12935033,2.0091357,-0.93767816,1.3072516
374,1780383671089980,0.5525456,0.43954712,-0.21086545,2.2779164,-1.0005972,1.2082914
375,1780383671099980,0.64992446,0.50788313,-0.33704305,2.2785273,-1.061073,1.1154399
376,1780383671109980,0.71899265,0.6489482,-0.5747548,2.1355848,-1.2119566,0.94989544
377,1780383671119980,0.67018116,0.70923036,-0.6389419,1.8698585,-1.4795157,0.784351
378,1780383671129980,0.6411384,0.79562664,-0.64187056,1.2412782,-2.1905627,0.5216789
379,1780383671139980,0.6147802,0.76072645,-0.6025773,0.90285885,-2.4098635,0.33475417
380,1780383671149980,0.5264315,0.5361938,-0.5188657,0.6224717,-2.3041837,0.20708331
381,1780383671159980,0.4720067,0.4024504,-0.44271985,0.204029,-1.8600847,0.10140363
382,1780383671169980,0.4497975,0.27334413,-0.36510965,-0.8741482,0.03481932,-0.10751228
383,1780383671179980,0.4497975,0.27334413,-0.36510965,-0.8741482,0.03481932,-0.10751228
384,1780383671189980,0.2853029,-0.18645974,-0.06296677,-1.3536774,1.423316,-0.25534168
385,1780383671199980,0.20354374,-0.4702983,0.08346757,-1.5735888,1.7916678,-0.26633725
386,1780383671209980,0.19890666,-0.65285313,0.2933568,-2.0347922,2.1300871,-0.23335053
387,1780383671219980,0.35754386,-2.0930347,5.532046,1.0622946,0.26816985,-0.3707952
388,1780383671229980,1.3777032,-3.5585988,0.7900133,2.4678955,1.0763446,-0.7733554
389,1780383671239980,1.5741693,-3.9024756,-0.6901939,2.07572,2.7605,-1.9065105
390,1780383671249980,1.3869773,-4.566311,-1.4667841,-1.2266175,5.16792,-4.1551056
391,1780383671259980,-0.21232979,-5.166936,-0.7831797,-4.6718974,2.792876,-4.6102
392,1780383671269980,-0.21232979,-5.166936,-0.7831797,-4.6718974,2.792876,-4.6102
393,1780383671279980,-0.67628264,-4.907259,-0.037584815,-2.543032,0.7464773,-1.7910569
394,1780383671289980,-0.17328064,-3.6864848,-0.40684342,-0.057421334,-1.0671816,-0.009162978
395,1780383671299980,0.26455808,-2.6060433,-0.32996538,0.33292156,-0.86742866,-0.13927728
396,1780383671309980,0.19646609,-2.2565534,-0.08029483,0.43249258,-0.258396,-0.54061574
397,1780383671319980,0.099819414,-1.9209745,0.13520771,0.43249258,-0.258396,-0.54061574
398,1780383671329980,0.032703668,-1.6449459,0.23771177,0.3378085,0.16371189,-0.81061816
399,1780383671339980,0.009030119,-1.5029045,0.21013328,0.09712757,-0.1459968,-0.5381723
400,1780383671349980,0.10884953,-1.4252943,0.119588055,-0.45020768,-0.37690386,-0.032986723
401,1780383671359980,0.21891935,-1.470933,0.06028214,-0.72143185,-0.119729586,0.073303826
402,1780383671369980,0.29726174,-1.462391,0.011958805,-0.90469146,0.18325958,0.06719518
403,1780383671379980,0.3014107,-1.3391421,0.048323333,-1.1191051,0.60231316,0.0018325958
404,1780383671389980,0.2706595,-1.2349297,0.12178457,-1.2687671,0.93645644,-0.08246681
405,1780383671399980,0.22306833,-1.1158297,0.19817449,-1.2993103,1.1392636,-0.18509217
406,1780383671409980,0.1147069,-0.8437059,0.32215557,-1.1826351,0.99082345,-0.18203785
407,1780383671419980,0.1147069,-0.8437059,0.32215557,-0.9810496,0.66950834,-0.1160644
408,1780383671429980,0.016595893,-0.45174995,0.36584184,-0.18509217,-0.52778757,0.20952678
409,1780383671439980,0.016595893,-0.45174995,0.36584184,-0.18509217,-0.52778757,0.20952678
410,1780383671449980,-0.006345488,-0.1483868,0.25943285,0.38240165,-1.2748758,0.41905355
411,1780383671459980,0.018060237,-0.08664032,0.19378147,0.38240165,-1.2748758,0.41905355
412,1780383671469980,0.044174362,-0.035632357,0.14106509,1.0152581,-2.0158553,0.5681047
413,1780383671479980,0.05662128,0.016595893,0.08639627,1.1893547,-2.1368067,0.5467244
414,1780383671489980,0.0605262,0.088348724,0.040269446,1.3610078,-2.1771238,0.5112942
415,1780383671499980,0.051740136,0.09567044,0.027090356,1.5070046,-2.1704042,0.48380527
416,1780383671509980,0.043930303,0.088104665,-0.006345488,1.8118263,-2.1471913,0.42149702
417,1780383671519980,0.037584815,0.073217176,-0.0319715,1.8832976,-2.111761,0.39522982
418,1780383671529980,0.036852647,0.057841565,-0.056133166,1.9474384,-2.0274618,0.3622431
419,1780383671539980,0.042954076,0.05051985,-0.057841565,1.9999728,-1.9089539,0.32375857
420,1780383671549980,0.046858992,0.044662476,-0.06321083,2.0738876,-1.6975945,0.23396139
421,1780383671559980,0.05418071,0.040269446,-0.08029483,2.094657,-1.541213,0.16737708
422,1780383671569980,0.14106509,0.17523311,-0.29994637,1.6108516,-0.32742378,-0.14049901
423,1780383671579980,0.19134088,0.30385128,-0.37267542,1.6108516,-0.32742378,-0.14049901
424,1780383671589980,0.23161033,0.44271985,-0.39244407,0.8020661,1.2370021,-0.5900958
425,1780383671599980,0.29433304,0.5976962,-0.27993366,0.8020661,1.2370021,-0.5900958
426,1780383671609980,0.23185438,0.53082454,-0.18987654,0.2321288,2.7727172,-1.3726143
427,1780383671619980,0.13032657,0.45419052,-0.12373702,0.34330627,3.617544,-1.9260582
428,1780383671629980,-0.06272271,0.28286234,-0.06272271,0.56016344,3.9810088,-2.0726657
429,1780383671639980,-0.106164895,0.26162934,-0.055645052,0.7831292,4.1270056,-2.1313088
430,1780383671649980,-0.12178457,0.23966423,-0.04759116,0.93523467,4.142888,-2.1374176
431,1780383671659980,-0.12739788,0.22184804,-0.05906185,1.0861185,4.0323215,-2.1160371
432,1780383671669980,-0.12398108,0.19158493,-0.0388051,1.1948525,3.5613444,-1.9792033
433,1780383671679980,-0.05588911,0.049299564,0.022209208,1.2308935,3.159395,-1.8863518
434,1780383671689980,-0.009518232,-0.020256752,0.09567044,1.4385877,2.2461514,-1.7660115
435,1780383671699980,0.520086,-0.6020892,2.8830483,3.1520646,0.12095132,-2.1471913
436,1780383671709980,0.33094162,-1.5575734,2.175038,5.3914967,-1.8209893,-2.6010642
437,1780383671719980,0.4698102,-1.88461,1.4428664,7.317555,-6.053064,-3.3652565
438,1780383671729980,0.35559142,-2.229219,0.801484,4.5313983,-8.754921,-2.7806585
439,1780383671739980,0.35559142,-2.229219,0.801484,4.5313983,-8.754921,-2.7806585
440,1780383671749980,0.021965152,-2.413238,-0.16205402,2.1789563,-8.172155,-0.6976081
441,1780383671759980,0.3912238,-2.481086,-2.4588768,-6.7152414,0.5907067,6.5961227
442,1780383671769980,0.4429639,-2.225558,-2.0220141,-7.7714276,2.4318545,6.9333205
443,1780383671779980,1.3886857,-2.4366674,0.4651731,-7.860614,4.215581,6.6077294
444,1780383671789980,1.7913802,-4.4672236,0.5103237,-6.048177,5.7958894,5.2919254
445,1780383671799980,1.9138969,-5.336312,0.40318257,-4.2510114,7.066489,3.8270707
446,1780383671809980,1.667155,-5.14253,0.08102701,0.0580322,7.2411966,-0.28771752
447,1780383671819980,1.1783084,-4.3283553,-0.46688148,0.7049385,6.0713897,-0.9486737
448,1780383671829980,0.5447358,-3.9034517,-0.58158845,1.0732902,4.3035455,-1.241889
449,1780383671839980,0.32923323,-3.4512136,-0.58939826,1.0781772,2.5607471,-1.078788
450,1780383671849980,0.16034561,-2.9765222,-0.5288721,0.66828656,1.1496484,-0.77763146
451,1780383671859980,-0.04759116,-2.4691272,-0.3961049,-0.76174897,-0.7861836,-0.18448131
452,1780383671869980,-0.18353106,-1.6769173,-0.13862452,-2.021353,-2.248595,0.049480084
453,1780383671879980,-0.1803583,-1.4680043,-0.010982576,-2.8472428,-3.1209106,0.22724187
454,1780383671889980,-0.17498904,-1.2881342,0.11299851,-4.1966443,-4.3902884,0.7275405
455,1780383671899980,-0.20256752,-1.0794652,0.24649782,-4.469701,-4.6315804,0.91690874
456,1780383671909980,-0.4583395,-0.24967057,1.6561725,-4.4959683,-5.0744576,1.4966198
457,1780383671919980,-0.29994637,-0.19597797,1.2432276,-2.864958,-4.302324,2.1398609
458,1780383671929980,-0.153512,-0.13203497,1.0518868,-2.1526892,-3.74888,2.324953
459,1780383671939980,-0.0707766,-0.087616555,0.895202,-1.5314392,-3.1239648,2.4446826
460,1780383671949980,0.14765464,-0.06833603,0.588178,-0.6383542,-1.8936822,2.4611762
461,1780383671959980,0.24991462,-0.071264714,0.50324607,-0.16676621,-1.2302825,2.3530529
462,1780383671969980,0.3660859,-0.05027579,0.5264315,0.24129178,-0.9615019,2.2204952
463,1780383671979980,0.42368335,-0.014643434,0.4566311,0.82650065,-0.84299403,2.0115793
464,1780383671989980,0.456143,0.038316987,0.34168017,1.3652838,-0.8185594,1.7605137
465,1780383671999980,0.4497975,0.17816179,0.16425052,2.1288655,-1.0946705,1.0665708
466,1780383672009980,0.5266756,0.34656128,0.2706595,2.3848178,-1.0824533,0.8900307
467,1780383672019980,0.5266756,0.34656128,0.2706595,2.3848178,-1.0824533,0.8900307
468,1780383672029980,0.53033644,0.41977844,0.16571487,2.593123,-1.0995574,0.77091193
469,1780383672039980,0.4837215,0.60086894,0.05906185,2.6145031,-1.010982,0.8185594
470,1780383672049980,0.56426036,0.6787232,0.094206095,2.5051584,-0.8344419,0.93828905
471,1780383672059980,0.68091977,0.71728426,-0.08542004,2.4104743,-0.68539083,0.96577793
472,1780383672069980,0.5513253,0.67506236,-0.26480213,1.9046779,-0.5821546,0.98532563
473,1780383672079980,0.5020258,0.6028214,-0.37584817,1.5314392,-0.39828414,0.89736104
474,1780383672089980,0.55010504,0.4217309,-0.46322066,1.1404854,-0.16920967,0.6542367
475,1780383672099980,0.5210622,0.3687705,-0.44369608,0.8381071,0.021991149,0.39767328
476,1780383672109980,0.5005614,0.3219115,-0.39854547,0.1001819,0.28955013,-0.33658674
477,1780383672119980,0.3402158,0.21501444,-0.34119204,-0.12950343,0.2932153,-0.51923543
478,1780383672129980,0.28457075,0.10665302,-0.29042813,-0.36346483,0.37507126,-0.6908886
479,1780383672139980,0.17157225,-0.08151512,-0.19573392,-0.55833083,0.61758476,-0.81245077
480,1780383672149980,0.14497001,-0.15253578,-0.14692247,-0.8228355,1.1588113,-0.874759
481,1780383672159980,0.20012695,-0.23942018,-0.1210524,-0.97494096,1.5021176,-0.947452
482,1780383672169980,0.46541715,-0.48103684,-0.33509058,-1.3151928,2.5137105,-1.2144
483,1780383672179980,0.5845171,-1.7821059,2.2253141,-0.516792,4.2216897,-1.7232509
484,1780383672189980,1.0472497,-3.142481,0.59794027,-0.22235495,5.254052,-2.2748623
485,1780383672199980,1.2754432,-4.5038323,-0.30409533,-0.17348573,6.070168,-3.2797356
486,1780383672209980,1.0233321,-5.2113547,-0.5645044,-0.4978552,5.7861156,-4.276057
487,1780383672219980,0.27920148,-5.5403438,-0.7153318,-1.178359,4.5393395,-4.8478265
488,1780383672229980,-0.51471674,-5.4583406,-0.7721971,-1.287093,0.13561209,-2.438574
489,1780383672239980,-0.3909797,-4.6202474,-0.37023485,-0.49541172,-2.402533,-0.539394
490,1780383672249980,-0.032703668,-3.9166307,-0.56694496,0.3213151,-3.5301902,0.122783914
491,1780383672259980,-0.032703668,-3.9166307,-0.56694496,0.3213151,-3.5301902,0.122783914
492,1780383672269980,0.14252943,-3.2623134,-0.65138876,0.9963212,-2.8643472,-0.6206391
493,1780383672279980,0.20647243,-1.389662,0.021965152,0.874759,-2.0549507,-0.929126
494,1780383672289980,0.20647243,-1.389662,0.021965152,0.7367035,-1.3151928,-1.047023
495,1780383672299980,0.21769907,-1.1787965,-0.006345488,0.44776422,0.08674286,-0.7556403
496,1780383672309980,0.16107778,-1.0382195,0.014399378,0.2284636,0.8717047,-0.28344148
497,1780383672319980,0.16132185,-1.0692148,0.03734076,-0.017715093,1.3170254,0.21624629
498,1780383672329980,0.4288086,-1.3100992,-0.09567044,-0.24556783,1.5723672,0.47219884
499,1780383672339980,0.5027579,-1.3537855,-0.071020655,-1.1007792,1.8698585,0.45631635
500,1780383672349980,0.5027579,-1.3537855,-0.071020655,-1.1007792,1.8698585,0.45631635
501,1780383672359980,0.33484653,-1.1900232,0.06662763,-1.350623,1.6279559,0.35185838
502,1780383672369980,0.2716357,-1.057256,0.13789235,-1.709201,0.7440339,0.30726522
503,1780383672379980,0.21721096,-0.9203399,0.20061506,-1.8338175,-0.17837265,0.35796702
504,1780383672389980,0.14228538,-0.5469323,0.2877435,-1.8112154,-0.64568454,0.39767328
505,1780383672399980,0.12422514,-0.44662476,0.28042176,-1.7568485,-0.9437868,0.41722095
506,1780383672409980,0.12422514,-0.44662476,0.28042176,-1.7568485,-0.9437868,0.41722095
507,1780383672419980,0.088104665,-0.2545517,0.19817449,-1.2907583,-1.6609426,0.49174652
508,1780383672429980,0.061014313,-0.09225364,0.27993366,-1.078788,-1.7305813,0.52839845
509,1780383672439980,0.050031736,-0.028066583,0.30580372,-0.65668017,-1.7489072,0.58459806
510,1780383672449980,0.041245673,0.010982576,0.26480213,0.22052236,-1.6346754,0.6658431
511,1780383672459980,0.052716363,0.03734076,0.19134088,0.6224717,-1.5961909,0.66156703
512,1780383672469980,0.047347106,0.0873725,0.08712844,1.178359,-1.5839735,0.6169739
513,1780383672479980,0.04637088,0.08151512,0.040269446,1.604743,-1.6120734,0.52778757
514,1780383672489980,0.04637088,0.08151512,0.040269446,1.604743,-1.6120734,0.52778757
515,1780383672499980,0.1010397,0.061746486,-0.015375607,1.8307631,-1.4703526,0.3726278
516,1780383672509980,0.11690342,0.04637088,-0.071020655,1.9230038,-1.29198,0.25534168
517,1780383672519980,0.1398448,0.042221904,-0.09493827,1.9926424,-0.8698721,0.002443461
518,1780383672529980,0.15497635,0.0370967,-0.09689073,2.0066924,-0.59131753,-0.1685988
519,1780383672539980,0.14252943,0.024405725,-0.06955632,2.0366247,-0.3475823,-0.34025195
520,1780383672549980,0.14570218,0.028554698,-0.088104665,2.058005,-0.18142697,-0.45937067
521,1780383672559980,0.15253578,0.03636453,-0.108117364,2.0409007,0.0580322,-0.6206391
522,1780383672569980,0.12080834,0.057109397,-0.10592084,1.8997909,0.57787853,-0.9297369
523,1780383672579980,0.055400997,0.13667206,-0.117635585,1.8521434,0.8063421,-1.0134255
524,1780383672589980,0.05735345,0.17620933,-0.11153416,1.7892243,1.1643091,-1.0934488
525,1780383672599980,0.043198135,0.191829,-0.0776102,1.7574593,1.5387696,-1.1710287
526,1780383672609980,-0.15204766,-0.07907455,1.1443844,3.0946434,1.5008959,-1.1148291
527,1780383672619980,0.04783522,-0.018060237,0.18011424,4.094019,1.0091494,-0.9975429
528,1780383672629980,0.04783522,-0.018060237,0.18011424,4.094019,1.0091494,-0.9975429
529,1780383672639980,0.0019524579,-0.042954076,-0.24771811,4.235129,0.6096435,-1.0519099
530,1780383672649980,0.04368625,-0.6667644,0.4834774,3.8203511,0.5009095,-1.0341948
531,1780383672659980,0.12715383,-0.92400074,0.8925173,3.299894,-0.14110987,-1.1117748
532,1780383672669980,0.12715383,-0.92400074,0.8925173,3.299894,-0.14110987,-1.1117748
533,1780383672679980,0.45931572,-1.6388444,1.4187049,1.205848,-2.9846876,-1.5467108
534,1780383672689980,0.49299565,-1.7701472,0.68140787,-0.45081854,-3.5607336,-1.7996091
535,1780383672699980,0.6548056,-1.6642264,-0.8066092,-1.9486601,-3.5888333,-1.9639318
536,1780383672709980,0.912286,-2.1079226,-1.3877095,-6.136752,-1.1594223,-2.2650883
537,1780383672719980,0.74169,-1.8892472,-1.5978427,-7.262577,0.883922,-1.9730947
538,1780383672729980,0.49738866,-1.7935767,-0.008297946,-6.7635,2.4306328,-1.7018706
539,1780383672739980,0.6621273,-3.7208967,-0.10982577,-5.434257,4.219857,-1.1032226
540,1780383672749980,0.98818773,-4.67931,-0.03807293,-1.9572122,8.046317,0.25045475
541,1780383672759980,1.1334019,-5.188657,-0.26358184,-0.59315014,8.339532,0.85154617
542,1780383672769980,1.1519502,-4.941183,-0.49812084,-0.24678956,7.16606,1.1948525
543,1780383672779980,1.4035733,-4.607069,-0.55010504,-0.32925636,5.8826323,1.2290609
544,1780383672789980,0.6987359,-3.4560945,-0.19915071,-1.001819,1.1435398,-0.21746802
545,1780383672799980,0.05662128,-2.2524045,-0.07175283,-1.5754215,-0.050701816,-0.40500367
546,1780383672809980,-0.08566409,-1.9087718,0.026602242,-2.4104743,-1.5222762,-0.43188173
547,1780383672819980,-0.13911264,-1.6593453,0.11568313,-3.4342844,-3.4599407,-0.059864793
548,1780383672829980,-0.17767367,-1.4123594,0.2020794,-3.8142426,-4.297437,0.17837265
549,1780383672839980,-0.22331238,-1.197833,0.27920148,-4.067752,-4.8905873,0.41599923
550,1780383672849980,-0.35193056,-0.72582626,0.4737151,-4.2168026,-5.1850243,0.59315014
551,1780383672859980,-0.439059,-0.4515059,0.9288819,-4.3175955,-5.3316317,0.86193085
552,1780383672869980,-0.6033095,-0.13593988,1.5168158,-2.8771753,-4.510629,1.6548339
553,1780383672879980,-0.3577879,-0.15448824,1.0496902,-2.352442,-4.0591993,1.8686367
554,1780383672889980,-0.08639627,-0.1666911,0.6648119,-1.7311921,-3.3939674,2.0775528
555,1780383672899980,0.04344219,-0.18279888,0.45394647,-0.784351,-1.9254472,2.2467623
556,1780383672909980,0.13081467,-0.1867038,0.33020946,-0.30787608,-1.0384709,2.243097
557,1780383672919980,0.18084641,-0.1696198,0.29872608,0.15760323,-0.43310347,2.1716259
558,1780383672929980,0.29213652,0.0065895454,0.30238694,0.99082345,-0.13316862,1.9095647
559,1780383672939980,0.31776255,0.073461235,0.27261195,1.7886134,-0.45204028,1.5650368
560,1780383672949980,0.29921418,0.13618395,0.24283697,2.0140228,-0.6969972,1.4660766
561,1780383672959980,0.25845662,0.22331238,0.20183535,2.3170118,-1.0488557,1.3817772
562,1780383672969980,0.26992732,0.2801777,0.14497001,2.5760188,-1.4025466,1.3170254
563,1780383672979980,0.2848148,0.33704305,0.1010397,2.8454103,-1.917506,1.2974777
564,1780383672989980,0.35022214,0.50885934,-0.011714748,2.869234,-1.9865338,1.3658947
565,1780383672999980,0.4288086,0.605506,-0.046614934,2.8325822,-1.9089539,1.4581354
566,1780383673009980,0.5786598,0.69898,-0.041245673,2.579684,-1.1820242,1.65911
567,1780383673019980,0.6367454,0.7319277,-0.15497635,2.3591616,-0.6969972,1.6420058
568,1780383673029980,0.64992446,0.6233222,-0.33533466,1.8454239,0.07941248,1.3616186
569,1780383673039980,0.64992446,0.6233222,-0.33533466,1.8454239,0.07941248,1.3616186
570,1780383673049980,0.6147802,0.50788313,-0.38146147,1.2278391,0.9309586,0.7684685
571,1780383673059980,0.6135599,0.4566311,-0.41196862,0.86070913,1.4330899,0.36102137
572,1780383673069980,0.51544887,0.20622836,-0.21452633,0.33536503,2.2009475,-0.50823987
573,1780383673079980,0.45394647,0.114218794,-0.17059602,0.14905111,2.4831672,-0.86926126
574,1780383673089980,0.33020946,-0.008542004,-0.051496077,-0.11178834,2.6774223,-1.2315043
575,1780383673099980,0.31532198,-0.099819414,-0.030751213,-0.11178834,2.6774223,-1.2315043
576,1780383673109980,0.5469323,-0.35534734,-0.06809197,-0.33658674,2.7079656,-1.5125023
577,1780383673119980,0.81734776,-0.6577343,0.54668826,-0.26511553,2.071444,-2.2656991
578,1780383673129980,1.00576,-1.0792211,1.4511645,0.5039638,0.11301007,-2.9981265
579,1780383673139980,0.97427654,-1.9063311,1.4362769,0.56077427,-0.7348709,-3.6334264
580,1780383673149980,1.5365844,-3.717724,-0.35705575,0.1740966,-0.0580322,-4.3035455
581,1780383673159980,1.4248062,-4.5628943,-0.5976962,-0.14721853,1.7941113,-5.1605897
582,1780383673169980,1.0365112,-5.1903653,-1.1048472,-1.7837266,4.1764855,-5.7897806
583,1780383673179980,-0.37413976,-5.7609715,-0.9781815,-1.9639318,4.0689735,-4.8563786
584,1780383673189980,-0.37413976,-5.7609715,-0.9781815,-1.4239268,2.4776695,-2.7146852
585,1780383673199980,0.1615659,-4.6622257,-0.9525554,-0.8533788,-0.32925636,-0.5326745
586,1780383673209980,0.32728076,-4.0101047,-0.75291663,-0.44593164,-5.9412756,0.116675265
587,1780383673219980,-0.06955632,-1.7457415,-0.12983845,-1.0885619,-4.404949,-0.9297369
588,1780383673229980,0.12764193,-0.80514485,0.77073276,-1.387275,1.4410311,-1.3939945
589,1780383673239980,-0.10909359,-0.74461865,0.6587105,-1.0005972,2.7617218,-1.1282681
590,1780383673249980,-0.15863721,-0.70142055,0.6467517,-0.78801614,3.5075881,-0.65668017
591,1780383673259980,-0.18426323,-0.643823,0.6460195,-0.6267477,3.74888,0.5326745
592,1780383673269980,-0.1295944,-0.6631035,0.63235235,-0.6065892,3.3835826,1.0586295
593,1780383673279980,0.010494461,-0.7404697,0.50763905,-0.5925393,3.0017917,1.3298537
594,1780383673289980,0.056377225,-0.74437463,0.43954712,-0.56321776,2.4080307,1.5558738
595,1780383673299980,0.107873306,-0.70264083,0.38316986,-0.34574974,1.1667526,1.6633861
596,1780383673309980,0.16937573,-0.54815257,0.22453266,-0.2180789,0.77763146,1.6206255
597,1780383673319980,0.22843759,-0.4803047,0.11251039,-0.047036625,0.39706242,1.527774
598,1780383673329980,0.19109683,-0.29872608,-0.025137896,0.25411993,0.1704314,1.1154399
599,1780383673339980,0.17620933,-0.15058333,-0.054912884,0.25411993,0.1704314,1.1154399
600,1780383673349980,0.16400647,-0.090789296,-0.044174362,0.38789943,0.25778514,0.88025683
601,1780383673359980,0.16083373,-0.0302631,-0.041977845,0.48930305,0.24923302,0.75991637
602,1780383673369980,0.16986385,0.03172744,-0.04905551,0.48930305,0.24923302,0.75991637
603,1780383673379980,0.1598575,0.07614586,-0.05198419,0.86376345,0.015271631,0.45081854
604,1780383673389980,0.09884319,0.12764193,-0.038561042,1.0268645,-0.14844026,0.398895
605,1780383673399980,0.088836834,0.13618395,-0.026358182,1.2113458,-0.35796702,0.37995818
606,1780383673409980,0.088836834,0.13569583,-0.027334413,1.5442673,-0.7257079,0.36835176
607,1780383673419980,0.105676785,0.12935033,-0.04905551,1.6951511,-0.8729264,0.3408628
608,1780383673429980,0.114218794,0.113974735,-0.06687169,1.7922786,-0.95722586,0.30298916
609,1780383673439980,0.11373068,0.10470056,-0.07541369,1.8985692,-1.0616838,0.24190263
610,1780383673449980,0.111046046,0.08981306,-0.10958171,2.0097466,-1.1630874,0.06963864
611,1780383673459980,0.16449459,0.06638357,-0.18938842,1.9883664,-1.1557571,-0.016493361
612,1780383673469980,0.15741692,0.06638357,-0.19671014,1.8606955,-0.9987647,-0.3378085
613,1780383673479980,0.15741692,0.06638357,-0.19671014,1.8606955,-0.9987647,-0.3378085
614,1780383673489980,0.13105874,0.047103047,-0.20696054,1.6352862,-0.72204274,-0.7867944
615,1780383673499980,0.13105874,0.047103047,-0.20696054,1.6352862,-0.72204274,-0.7867944
616,1780383673509980,0.009274175,0.15766099,-0.064919226,1.8246545,-0.13622294,-1.0372492
617,1780383673519980,0.009274175,0.15766099,-0.064919226,1.8246545,-0.13622294,-1.0372492
618,1780383673529980,0.0102504045,0.16058967,-0.03734076,2.1716259,0.21380283,-1.346347
619,1780383673539980,-0.020500809,0.07736614,-0.010494461,2.2131648,0.204029,-1.400714
620,1780383673549980,-0.021721095,0.024649782,-0.020012695,2.2033908,0.14721853,-1.4172074
621,1780383673559980,-0.014399378,-0.03441207,-0.032703668,2.1679606,0.055588737,-1.4068227
622,1780383673569980,0.23307467,-1.3198615,3.3140533,2.9071076,-2.9364293,-1.7910569
623,1780383673579980,0.23307467,-1.3198615,3.3140533,2.9071076,-2.9364293,-1.7910569
624,1780383673589980,0.3077562,-1.6737447,2.0105436,4.5081854,-5.744577,-2.3878722
625,1780383673599980,0.6850687,-1.9456245,0.94938266,2.7757716,-8.844718,-3.3982434
626,1780383673609980,0.4617563,-2.4222682,-2.1935866,-2.4440718,-3.7360518,0.10995574
627,1780383673619980,0.51471674,-2.310246,-1.8755801,-5.362786,-0.1337795,2.6126707
628,1780383673629980,0.69336665,-2.2284868,-1.304486,-7.3426003,4.474588,4.410447
629,1780383673639980,0.946454,-2.2150636,-0.7402256,-6.8435235,6.451348,4.029878
630,1780383673649980,0.946454,-2.2150636,-0.7402256,-6.8435235,6.451348,4.029878
631,1780383673659980,1.5007081,-5.198663,0.07443746,-4.033543,9.459249,1.7208074
632,1780383673669980,1.1263242,-4.32079,-0.01854835,-0.9419542,6.762278,-0.40866885
633,1780383673679980,0.8920292,-4.132377,-0.08102701,-0.13988814,5.1642547,-0.6047566
634,1780383673689980,0.46956614,-3.3662815,-0.18060236,0.59803706,3.1355712,-0.6945538
635,1780383673699980,0.20940112,-2.9220974,-0.21574661,0.93523467,1.3310753,-0.73548174
636,1780383673709980,-0.023673553,-2.4993904,-0.22746135,0.87964594,0.1282817,-0.7049385
637,1780383673719980,-0.35925224,-1.2905748,-0.03294773,-1.2272283,-3.6438112,-0.017715093
638,1780383673729980,-0.35925224,-1.2905748,-0.03294773,-1.2272283,-3.6438112,-0.017715093
639,1780383673739980,-0.32923323,-0.88275504,0.20451997,-2.1062634,-4.4874163,0.3200934
640,1780383673749980,-0.32606047,-0.68580085,0.33069757,-3.1838295,-5.272989,0.9651671
641,1780383673759980,-0.4842096,-0.08566409,1.5929617,-3.2284229,-5.580865,1.5314392
642,1780383673769980,-0.29823795,-0.06955632,1.1182703,-2.3475552,-5.1697526,1.9187278
643,1780383673779980,-0.13398743,-0.06321083,0.91814333,-1.3445144,-3.9584067,2.3414464
644,1780383673789980,0.004881145,-0.07614586,0.76389915,-0.9053023,-3.1942143,2.4727826
645,1780383673799980,0.13935669,-0.10665302,0.6262509,-0.6096435,-2.5943446,2.5265386
646,1780383673809980,0.2831064,-0.122272685,0.4795725,0.13927728,-0.9957104,2.4959953
647,1780383673819980,0.32630453,-0.12056428,0.4729829,0.54550266,-0.46975538,2.4037547
648,1780383673829980,0.32630453,-0.12056428,0.4729829,0.54550266,-0.46975538,2.4037547
649,1780383673839980,0.37584817,-0.071020655,0.40513504,1.3225232,-0.27550024,2.1820107
650,1780383673849980,0.35071027,0.007321717,0.17889395,1.7128662,-0.40317106,2.031127
651,1780383673859980,0.31995904,0.067359805,0.079562664,1.9553796,-0.49480084,1.930945
652,1780383673869980,0.29945824,0.117391534,0.028066583,2.402533,-0.6102544,1.822211
653,1780383673879980,0.3243521,0.23014598,-0.05296042,2.5503623,-0.61636305,1.8118263
654,1780383673889980,0.49982923,0.34387666,-0.16303024,3.0537155,-0.7959574,1.6798794
655,1780383673899980,0.60941094,0.38561043,-0.27846932,3.0836477,-0.79290307,1.536326
656,1780383673909980,0.76804817,0.60038084,-0.5850052,2.9810224,-0.77824235,1.2712106
657,1780383673919980,0.76804817,0.60038084,-0.5850052,2.9810224,-0.77824235,1.2712106
658,1780383673929980,0.8856837,0.8917852,-0.75316066,2.3542747,-0.6206391,0.7257079
659,1780383673939980,0.80465674,0.9279056,-0.7492558,1.2131784,-0.20280726,-0.073303826
660,1780383673949980,0.60843474,0.7512082,-0.53814626,0.7733554,0.11911872,-0.23884831
661,1780383673959980,0.52960426,0.58305275,-0.3704789,0.2406809,0.6102544,-0.3866777
662,1780383673969980,0.43442193,0.42807645,-0.29116032,-0.66889745,1.5198327,-0.5510005
663,1780383673979980,0.3316738,0.29433304,-0.24723,-0.9584476,1.8997909,-0.5766568
664,1780383673989980,0.23258655,0.16254212,-0.1867038,-1.269378,2.4367414,-0.60231316
665,1780383673999980,0.07150877,-0.06980037,-0.024893839,-1.4941764,2.9425378,-0.5852089
666,1780383674009980,-0.005857374,-0.31263736,0.12324891,-1.9920316,3.3970215,-0.45081854
667,1780383674019980,0.044418417,-0.3734076,0.042954076,-2.3194554,3.4758232,-0.38423425
668,1780383674029980,1.2612879,-1.8091964,0.7136234,-0.3408628,1.6841555,-1.1533136
669,1780383674039980,1.7962613,-3.047787,0.61209553,1.0916162,2.5638015,-3.8099666
670,1780383674049980,2.123054,-4.599747,0.65846646,1.0916162,2.5638015,-3.8099666
671,1780383674059980,2.123054,-4.599747,0.65846646,1.1667526,3.0860913,-5.269324
672,1780383674069980,0.34851375,-6.084347,-0.6987359,0.02321288,4.5497246,-7.8520617
673,1780383674079980,-0.67042524,-5.532046,-0.6706693,0.05009095,1.8710803,-3.2925637
674,1780383674089980,-0.8925173,-5.1393576,-0.77561396,0.047036625,-1.0830641,-0.18875736
675,1780383674099980,0.062478654,-4.1553187,-0.99917036,-0.4184427,-2.8661797,0.79351395
676,1780383674109980,0.17767367,-3.406551,-0.6357691,-0.98899084,-4.3957863,0.91324353
677,1780383674119980,0.09811102,-2.7895741,-0.3790209,-1.2980887,-4.9846606,0.33536503
678,1780383674129980,-0.058573738,-2.21604,-0.14179726,-1.4086553,-4.387234,-0.689056
679,1780383674139980,-0.19256116,-1.1575636,0.18768002,-1.056186,-2.5986207,-0.8313876
680,1780383674149980,-0.15424417,-0.9969738,0.17303659,-1.056186,-2.5986207,-0.8313876
681,1780383674159980,-0.15424417,-0.9969738,0.17303659,-0.68294734,-1.0036516,-0.49602258
682,1780383674169980,-0.036852647,-0.8107582,0.22526483,-0.44593164,0.07880162,-0.077579886
683,1780383674179980,0.022697324,-0.81295466,0.2072046,-0.44593164,0.07880162,-0.077579886
684,1780383674189980,0.022697324,-0.81295466,0.2072046,-0.38912117,0.43127087,0.10323623
685,1780383674199980,0.071020655,-0.801484,0.15717287,-0.44715336,0.8509353,0.38545597
686,1780383674209980,0.071020655,-0.801484,0.15717287,-0.44715336,0.8509353,0.38545597
687,1780383674219980,0.117391534,-0.6850687,0.12080834,-0.57848936,0.99082345,0.552833
688,1780383674229980,0.12349297,-0.60819066,0.12910628,-0.6719518,0.97310835,0.66767573
689,1780383674239980,0.12520137,-0.5122762,0.14204131,-0.6988298,0.89552844,0.7165449
690,1780383674249980,0.06711575,-0.3109289,0.1786499,-0.70066243,0.79229224,0.76174897
691,1780383674259980,0.04002539,-0.22160399,0.1871919,-0.69027776,0.60903263,0.84849185
692,1780383674269980,0.057109397,-0.15009521,0.23014598,-0.59986967,0.12767084,1.0207558
693,1780383674279980,0.10909359,-0.07370529,0.39073566,-0.4373795,-0.15577064,1.0341948
694,1780383674289980,0.16473864,0.0388051,0.4127008,-0.12461651,-0.59498274,1.0054842
695,1780383674299980,0.17498904,0.09005712,0.20988922,0.29993483,-1.1850786,0.9108001
696,1780383674309980,0.16278619,0.10640897,0.14692247,0.63591075,-1.4770721,0.79351395
697,1780383674319980,0.13960074,0.13374338,0.065407336,0.7556403,-1.5106697,0.76052725
698,1780383674329980,0.12593354,0.13667206,0.030751213,0.91751957,-1.5039502,0.729984
699,1780383674339980,0.14423785,0.13716017,-0.0017084008,1.0690142,-1.4495832,0.7086037
700,1780383674349980,0.17376876,0.13374338,-0.029530926,1.29198,-1.1759156,0.59620446
701,1780383674359980,0.22892569,0.14008886,-0.08078295,1.4013249,-0.9083566,0.4783075
702,1780383674369980,0.24478942,0.13203497,-0.09127741,1.5057828,-0.56688297,0.32620203
703,1780383674379980,0.26675457,0.118855886,-0.09835507,1.6664404,0.055588737,-0.0036651916
704,1780383674389980,0.28798756,0.110557936,-0.10030753,1.7348573,0.37995818,-0.2302962
705,1780383674399980,0.3116611,0.10543273,-0.099819414,1.7751744,0.60048056,-0.4166101
706,1780383674409980,0.34949,0.079562664,-0.11495096,1.8008307,0.88025683,-0.6817256
707,1780383674419980,0.33460248,0.07248501,-0.088348724,1.8118263,1.5503759,-1.4886786
708,1780383674429980,0.27944556,0.084931925,-0.07785426,1.8118263,1.5503759,-1.4886786
709,1780383674439980,0.27944556,0.084931925,-0.07785426,1.7965547,1.781283,-1.7342464
710,1780383674449980,-0.08029483,0.1295944,0.8112463,1.7886134,2.0525072,-1.9138408
711,1780383674459980,0.012446919,0.019280521,0.69458693,2.8173106,0.6059783,-2.0109684
712,1780383674469980,0.117391534,-0.15033926,0.28432667,2.9541442,0.2938262,-2.0665572
713,1780383674479980,0.3162982,-0.7165521,1.3825843,3.0127873,-0.25778514,-2.0964894
714,1780383674489980,0.5171573,-0.9925808,1.8055356,3.2363641,-2.1856759,-2.3719897
715,1780383674499980,0.59135073,-1.2442038,1.4509203,3.8325686,-5.425705,-3.182608
716,1780383674509980,0.5850052,-1.4035733,0.8088057,3.4238997,-6.3175683,-3.2907312
717,1780383674519980,0.7167961,-1.9734468,0.114462845,2.8405235,-5.9400535,-3.087313
718,1780383674529980,0.5959878,-2.1413581,-1.0164984,-0.77274454,-2.6871963,-1.7427986
719,1780383674539980,0.4612682,-2.1223218,-1.599063,-0.77274454,-2.6871963,-1.7427986
720,1780383674549980,0.4139211,-2.6526582,-1.4975352,-5.336519,-0.37323865,0.6053675
721,1780383674559980,1.3860011,-4.582907,-1.2302926,-6.776328,4.5252895,1.5192219
722,1780383674569980,1.3860011,-4.582907,-1.2302926,-6.776328,4.5252895,1.5192219
723,1780383674579980,1.2388345,-5.001953,-0.319715,-5.2174,9.323636,0.3200934
724,1780383674589980,0.91204196,-5.060039,0.8112463,-2.6780334,9.61563,0.076358154
725,1780383674599980,0.5945235,-3.4604878,-0.029530926,0.41172317,6.5759645,0.6243043
726,1780383674609980,0.49958518,-2.8452194,-0.052716363,0.68294734,3.2210925,0.33475417
727,1780383674619980,0.06296677,-1.900718,0.073217176,0.52656585,2.1789563,0.20586158
728,1780383674629980,-0.1564407,-1.5153515,0.11299851,-0.1001819,0.24617869,0.111177474
729,1780383674639980,-0.21769907,-1.347684,0.11275445,-1.6352862,-3.4642167,0.25595254
730,1780383674649980,-0.23380683,-1.2456682,0.12373702,-1.6352862,-3.4642167,0.25595254
731,1780383674659980,-0.20622836,-1.1390152,0.15253578,-2.3102922,-4.904026,0.6536258
732,1780383674669980,-0.21403822,-0.9159469,0.21281794,-2.5118778,-5.1783047,0.84971356
733,1780383674679980,-0.23722363,-0.7946504,0.26284966,-2.579073,-5.1324897,1.0012082
734,1780383674689980,-0.27724904,-0.65895456,0.33899552,-2.588236,-4.8765373,1.2064588
735,1780383674699980,-0.31556603,-0.24918245,0.63503695,-1.001819,-2.792876,2.2742512
736,1780383674709980,-0.12861817,-0.25137895,0.4368625,-0.36285394,-1.8600847,2.5949554
737,1780383674719980,0.017572122,-0.26651052,0.27212384,-0.36285394,-1.8600847,2.5949554
738,1780383674729980,0.14960709,-0.26992732,0.1210524,0.7703011,-0.25411993,2.8722885
739,1780383674739980,0.298482,-0.18206671,-0.039781332,1.0115929,0.092240654,2.8484647
740,1780383674749980,0.3436326,-0.110801995,-0.09005712,1.3096951,0.40561453,2.7763824
741,1780383674759980,0.3704789,-0.0302631,-0.10177187,1.427592,0.35613444,2.7635543
742,1780383674769980,0.4148973,0.053692598,-0.102992155,1.518611,0.19181168,2.7482827
743,1780383674779980,0.5281399,0.20305562,-0.1552204,1.6548339,-0.18142697,2.715296
744,1780383674789980,0.6108753,0.2779812,-0.23429495,1.7763962,-1.0684034,2.460565
745,1780383674799980,0.6660322,0.35241866,-0.3226437,1.7110336,-1.2754866,2.2925773
746,1780383674809980,0.7477914,0.5464442,-0.3431445,1.536326,-1.423316,2.0390682
747,1780383674819980,0.7477914,0.5464442,-0.3431445,1.2357804,-1.4141531,1.781894
748,1780383674829980,0.78537625,0.9266854,-0.20647243,0.93645644,-1.3384057,1.5748106
749,1780383674839980,0.7268025,0.99136055,-0.033435844,-0.06169739,-0.9963212,0.8979719
750,1780383674849980,0.7268025,0.99136055,-0.033435844,-0.39095375,-0.88025683,0.6059783
751,1780383674859980,0.6572462,0.9271735,0.05832968,-0.69027776,-0.7666359,0.18509217
752,1780383674869980,0.45467865,0.6257628,0.14716652,-0.91874135,-0.16493362,-0.77457714
753,1780383674879980,0.302631,0.43613032,0.24576566,-0.8772025,0.25595254,-0.8594874
754,1780383674889980,0.06296677,0.028554698,0.8092938,-0.5216789,0.7104363,-0.7788532
755,1780383674899980,0.0014643435,-0.4356422,2.7222145,2.0433443,2.4642303,-0.43982297
756,1780383674909980,0.3790209,-0.6460195,2.2402015,3.3872478,2.6902506,-0.47219884
757,1780383674919980,0.30092257,-1.4211453,0.40049794,2.1862867,1.8887954,-0.63407815
758,1780383674929980,0.33191785,-0.7143555,-0.97793734,-0.26206118,1.9602666,-0.86437434
759,1780383674939980,0.43661842,-0.75657743,-1.2910628,-1.4624114,3.3060026,-0.73792523
760,1780383674949980,0.83077085,-1.3227903,-1.3183973,-2.4642303,5.8087177,-1.1392636
761,1780383674959980,0.83077085,-1.3227903,-1.3183973,-2.4642303,5.8087177,-1.1392636
762,1780383674969980,1.7701472,-4.958023,-0.95938903,-2.4294112,6.0952134,-3.5796704
763,1780383674979980,1.7701472,-4.958023,-0.95938903,-2.1038198,5.747631,-4.4959683
764,1780383674989980,0.9586569,-4.8574715,-0.6106312,-0.38362336,2.982244,-3.7061195
765,1780383674999980,-0.073217176,-5.2421055,-0.40708748,0.05375614,-0.47403142,-2.1038198
766,1780383675009980,-0.11543907,-4.0225515,-0.60062486,0.41722095,-4.736038,-0.2669481
767,1780383675019980,-0.11543907,-4.0225515,-0.60062486,0.41722095,-4.736038,-0.2669481
768,1780383675029980,-0.16498269,-2.3041446,0.17913802,0.5045747,-3.4636059,-1.2113458
769,1780383675039980,-0.16498269,-2.3041446,0.17913802,0.5045747,-3.4636059,-1.2113458
770,1780383675049980,-0.44955346,-1.5270662,0.15400012,0.8723156,-0.94806284,-1.6762142
771,1780383675059980,-0.42148685,-1.2764194,0.05418071,0.5204572,0.15332718,-0.9108001
772,1780383675069980,-0.15473229,-1.0575,0.14643435,0.20769419,0.47952923,-0.35735616
773,1780383675079980,0.06662763,-1.1585398,0.029042812,0.0036651916,0.6267477,0.031154128
774,1780383675089980,0.22013964,-1.2659249,-0.060770255,-0.25961772,0.84788096,0.38789943
775,1780383675099980,0.27773714,-1.3059504,-0.0976229,-0.45753807,1.0409144,0.49846604
776,1780383675109980,0.28627914,-1.2322451,-0.119343996,-0.6395759,1.1459832,0.46853364
777,1780383675119980,0.26162934,-1.1499978,-0.08517598,-0.68600166,1.1410962,0.39645153
778,1780383675129980,0.22746135,-1.0596966,-0.05515694,-0.7128797,1.0720685,0.26389378
779,1780383675139980,0.18279888,-0.96768695,-0.032215554,-0.7128797,1.0720685,0.26389378
780,1780383675149980,0.09518232,-0.7499879,0.019768637,-0.68111473,0.76174897,0.27000242
781,1780383675159980,0.071264714,-0.5025139,0.06443111,-0.68111473,0.76174897,0.27000242
782,1780383675169980,0.09127741,-0.38194957,0.07809832,-0.59681535,0.05131268,0.46303585
783,1780383675179980,0.09689073,-0.25406358,0.08590815,-0.5314528,-0.31887165,0.5326745
784,1780383675189980,0.09689073,-0.25406358,0.08590815,-0.5314528,-0.31887165,0.5326745
785,1780383675199980,0.08956901,0.008542004,0.14057697,-0.34269542,-1.0073168,0.689056
786,1780383675209980,0.079562664,0.05588911,0.19744232,0.027488936,-1.817935,0.86620694
787,1780383675219980,0.06833603,0.08615221,0.1637624,0.2144137,-2.1325307,0.9334021
788,1780383675229980,0.06833603,0.08615221,0.1637624,0.3304781,-2.2858577,0.97310835
789,1780383675239980,0.06369894,0.099819414,0.06687169,0.46975538,-2.4269676,1.0158689
790,1780383675249980,0.08590815,0.11495096,0.01952458,0.6750061,-2.552806,1.074512
791,1780383675259980,0.12593354,0.12935033,-0.007565775,0.7703011,-2.5540276,1.078788
792,1780383675269980,0.21306199,0.14350566,-0.04075756,0.8582657,-2.4984388,1.0476339
793,1780383675279980,0.25528386,0.13838045,-0.063943,0.91874135,-2.415972,0.99204516
794,1780383675289980,0.3018988,0.13960074,-0.082003236,0.9957104,-2.2235496,0.874759
795,1780383675299980,0.44394013,0.11690342,-0.10030753,1.1301007,-1.3585643,0.20463985
796,1780383675309980,0.46834585,0.136428,-0.13886857,1.1545353,-0.9798279,-0.1423316
797,1780383675319980,0.46834585,0.136428,-0.13886857,1.1545353,-0.9798279,-0.1423316
798,1780383675329980,0.47347105,0.3533949,-0.24674188,0.5510005,0.86132,-1.3322971
799,1780383675339980,0.31507793,0.5337532,0.024649782,0.33964106,1.5851953,-1.777007
800,1780383675349980,0.1952458,0.5779276,0.34558508,0.30787608,1.9468275,-2.053729
801,1780383675359980,-0.060770255,0.536926,0.8754333,1.3090842,1.1838568,-2.2907448
802,1780383675369980,-0.44442827,0.3577879,1.5629426,2.6994135,-0.1600467,-1.9407189
803,1780383675379980,-0.24747404,-0.0012202862,1.5314592,3.667635,-0.7360926,-1.8723019
804,1780383675389980,0.1010397,0.0319715,-0.24308102,3.6480873,0.2773328,-1.9321668
805,1780383675399980,0.119343996,-0.054424766,-0.16498269,3.5827246,0.44715336,-1.8270979
806,1780383675409980,0.15912533,-0.14350566,-0.054668825,3.5521815,0.6780604,-1.704314
807,1780383675419980,0.22111587,-0.30019042,0.21599068,3.513697,0.7098254,-1.6676621
808,1780383675429980,0.6291796,-1.0953289,1.193684,3.4104607,-4.373795,-2.4831672
809,1780383675439980,0.6291796,-1.0953289,1.193684,3.4104607,-4.373795,-2.4831672
810,1780383675449980,0.536926,-2.2360525,-1.0643337,2.207056,-5.678603,-2.5760188
811,1780383675459980,0.536926,-2.2360525,-1.0643337,0.8784242,-6.3713245,-2.2406538
812,1780383675469980,0.460536,-2.3861477,-1.6422611,-1.59558,-4.8123965,-0.98654735
813,1780383675479980,1.2944796,-4.596818,-1.8128573,-6.0035834,-0.5271767,1.5271631
814,1780383675489980,1.1751356,-6.396497,-0.073949344,-7.379252,6.4892216,1.2260065
815,1780383675499980,0.6914142,-5.5867147,0.83809257,-6.2314363,8.336478,0.6420194
816,1780383675509980,0.5520575,-5.255529,0.8351639,-0.9737192,7.6480327,0.42088616
817,1780383675519980,0.6962953,-4.52653,0.3243521,0.48380527,6.073222,0.3463606
818,1780383675529980,0.47444725,-3.0233812,-0.022209208,1.0818423,4.508796,0.105068825
819,1780383675539980,0.2506468,-2.4464297,-0.1295944,1.3988814,2.325564,-0.24740042
820,1780383675549980,0.005857374,-2.004198,-0.26821893,0.8368854,-0.67011917,-0.3903429
821,1780383675559980,-0.25015867,-1.6266416,-0.21330604,0.14294247,-1.971873,-0.15699236
822,1780383675569980,-0.3141017,-1.3564702,-0.093473926,-0.5589417,-2.9248228,0.15027285
823,1780383675579980,-0.16693515,-0.8778739,0.09859913,-1.5375478,-3.3573153,0.89369583
824,1780383675589980,-0.15546446,-0.72631437,0.10689708,-1.7562376,-3.1716123,1.105666
825,1780383675599980,-0.15546446,-0.72631437,0.10689708,-1.7562376,-3.1716123,1.105666
826,1780383675609980,-0.102748096,-0.39024755,0.18743597,-2.035403,-2.6633725,1.4263704
827,1780383675619980,-0.093473926,-0.29262465,0.22819352,-2.116648,-2.0030272,1.7647897
828,1780383675629980,-0.093473926,-0.29262465,0.22819352,-2.116648,-2.0030272,1.7647897
829,1780383675639980,-0.034168016,0.00024405724,0.55840296,-1.4703526,-0.8527679,2.1856759
830,1780383675649980,0.008053889,0.027090356,0.5269196,-1.4703526,-0.8527679,2.1856759
831,1780383675659980,0.062478654,0.046614934,0.5127643,-0.8038987,-0.14355333,2.5735753
832,1780383675669980,0.12544543,0.06199054,0.52350277,-0.062308256,-0.010995574,2.969416
833,1780383675679980,0.31385764,0.09396204,0.43539813,0.26267207,-0.24923302,3.0702088
834,1780383675689980,0.31385764,0.09396204,0.43539813,0.6420194,-0.6432411,3.1166344
835,1780383675699980,0.4556549,0.09493827,0.19402552,1.033584,-1.1911873,2.9999592
836,1780383675709980,0.51642513,0.09835507,0.10177187,1.1563679,-1.4288138,2.8228083
837,1780383675719980,0.5608435,0.1181237,0.035144243,1.2370021,-1.564426,2.584571
838,1780383675729980,0.5784157,0.27871338,-0.019768637,1.3536774,-1.4520267,1.9938642
839,1780383675739980,0.5784157,0.27871338,-0.019768637,1.3536774,-1.4520267,1.9938642
840,1780383675749980,0.59135073,0.3526627,-0.00024405724,1.3475688,-1.3487904,1.8362609
841,1780383675759980,0.58842206,0.40659937,0.017816179,1.3255776,-1.2705997,1.7373008
842,1780383675769980,0.51618105,0.43051702,-0.25406358,0.8717047,-0.49174652,1.0598512
843,1780383675779980,0.43759465,0.35363895,-0.23405088,0.6805039,-0.25778514,0.816116
844,1780383675789980,0.3380193,0.24137263,-0.10518867,0.23823744,0.036651913,0.15821409
845,1780383675799980,0.37072295,0.12202863,-0.07175283,0.06841691,0.087964594,-0.07452556
846,1780383675809980,0.31825066,-0.2889638,0.45248213,-0.1282817,0.065973446,-0.22174409
847,1780383675819980,0.28237423,-0.6545615,0.17303659,-0.8038987,-0.31764993,-0.46975538
848,1780383675829980,0.41074833,-0.53009236,-0.32044718,-1.6933185,0.6792821,-0.8063421
849,1780383675839980,0.77170897,-0.7734174,-0.28554696,-1.5577064,3.7110064,-1.5039502
850,1780383675849980,1.6505592,-2.6414316,0.42075467,0.095294975,5.58453,-2.5668557
851,1780383675859980,1.6505592,-2.6414316,0.42075467,0.9242391,6.7983193,-3.5014796
852,1780383675869980,2.1596625,-4.190219,-0.07809832,1.509448,8.138557,-6.174015
853,1780383675879980,1.1368186,-5.6238112,-0.6384538,0.37690386,6.3975916,-5.8239894
854,1780383675889980,-0.067847915,-5.1903653,-0.5210622,-0.10445796,2.8820622,-3.780034
855,1780383675899980,0.07224095,-4.664178,-0.835652,-0.10445796,2.8820622,-3.780034
856,1780383675909980,0.20769271,-3.9791093,-0.82003236,0.5235115,-5.861252,0.12644911
857,1780383675919980,0.17352471,-3.4797683,-0.8358961,0.4978552,-7.2497487,-0.105068825
858,1780383675929980,-0.27261195,-2.343926,-0.89617825,0.2657264,-7.565566,-0.39095375
859,1780383675939980,-0.4041588,-1.8289651,-0.66017485,-0.7556403,-6.8062606,-0.7257079
860,1780383675949980,-0.53765815,-1.3489044,-0.41050428,-1.0818423,-6.3566637,-0.6542367
861,1780383675959980,-0.51666915,-0.74632704,0.0036608586,-1.4153748,-5.5381045,-0.41599923
862,1780383675969980,-0.38902727,-0.5503491,0.17767367,-1.563815,-3.8954878,-0.11789699
863,1780383675979980,-0.21721096,-0.51520485,0.28505886,-1.4446963,-0.09590584,0.22235495
864,1780383675989980,-0.10006347,-0.5859815,0.34119204,-1.2932017,1.319469,0.32559118
865,1780383675999980,-0.032215554,-0.65919864,0.28383857,-1.1667526,2.1887302,0.44776422
866,1780383676009980,0.05662128,-0.6240544,0.21769907,-1.0922271,3.051272,0.57787853
867,1780383676019980,0.082003236,-0.5715821,0.20744865,-1.1252137,3.5069773,0.54244834
868,1780383676029980,0.0873725,-0.44101146,0.22135992,-1.1227703,3.6297612,0.47525316
869,1780383676039980,0.070532545,-0.3682824,0.2272173,-1.0910053,3.6700783,0.40317106
870,1780383676049980,0.057109397,-0.29604146,0.25943285,-1.0146471,3.5833356,0.34208453
871,1780383676059980,0.057841565,-0.20549619,0.30507156,-0.7086037,3.0799825,0.28344148
872,1780383676069980,0.088104665,-0.035632357,0.45711923,-0.42455134,2.6401596,0.2724459
873,1780383676079980,0.09811102,0.041001618,0.5274077,-0.13927728,2.2308798,0.2742785
874,1780383676089980,0.08151512,0.09493827,0.49738866,0.3042109,1.5882497,0.30604348
875,1780383676099980,0.07492557,0.13935669,0.4283205,0.9419542,0.4343252,0.47219884
876,1780383676109980,0.084931925,0.16180995,0.19646609,1.3451253,-0.70066243,0.6786713
877,1780383676119980,0.084931925,0.16180995,0.19646609,1.3451253,-0.70066243,0.6786713
878,1780383676129980,0.12129646,0.14082102,0.06711575,1.632232,-1.409877,0.8142834
879,1780383676139980,0.12129646,0.14082102,0.06711575,1.632232,-1.409877,0.8142834
880,1780383676149980,0.17962612,0.08786061,-0.06858008,1.7006488,-1.4159856,0.74281216
881,1780383676159980,0.20696054,0.07614586,-0.10592084,1.7067575,-1.3023647,0.6383542
882,1780383676169980,0.23722363,0.06662763,-0.13764828,1.6688838,-0.91324353,0.34269542
883,1780383676179980,0.23722363,0.06662763,-0.13764828,1.6688838,-0.91324353,0.34269542
884,1780383676189980,0.33582276,0.05735345,-0.14301755,1.5986344,-0.16249016,-0.14782938
885,1780383676199980,0.34704942,0.045882765,-0.117391534,1.5986344,-0.16249016,-0.14782938
886,1780383676209980,0.31751847,0.033923957,-0.08322352,1.5766432,0.57726765,-0.9651671
887,1780383676219980,0.27505252,0.023429496,-0.05662128,1.59558,0.6939429,-1.2070698
888,1780383676229980,0.061258372,0.029042812,0.13545178,1.6346754,0.7330383,-1.3267993
889,1780383676239980,0.09005712,0.01586372,-0.0302631,1.8038851,0.70554936,-1.4801265
890,1780383676249980,0.13862452,0.013667206,-0.070532545,1.7941113,0.75991637,-1.5674802
891,1780383676259980,0.1598575,0.0026846298,-0.045638707,1.781283,0.73364913,-1.7024814
892,1780383676269980,0.5252112,-0.84102124,1.8072438,3.908316,-3.6884043,-2.7281241
893,1780383676279980,0.5252112,-0.84102124,1.8072438,3.908316,-3.6884043,-2.7281241
894,1780383676289980,0.5549862,-1.0575,1.3947871,4.2088614,-5.2619934,-3.1801646
895,1780383676299980,0.44784504,-2.1550255,-1.3057063,2.6004534,-4.352415,-3.5191946
896,1780383676309980,0.23771177,-2.311222,-1.4389615,-2.9639182,-1.3432927,-1.1184943
897,1780383676319980,0.053936653,-2.3688195,-1.325719,-4.410447,-0.21502456,0.14355333
898,1780383676329980,1.3022895,-4.9731545,-1.3244987,-4.410447,-0.21502456,0.14355333
899,1780383676339980,1.2383465,-5.1361847,-1.0684826,-5.590028,4.448321,1.3603969
900,1780383676349980,1.2000295,-5.1391134,-0.86615914,-4.968167,7.18011,1.4245378
901,1780383676359980,1.2112561,-5.167912,-0.43417785,-3.6047158,7.1287975,1.3811663
902,1780383676369980,1.0008788,-4.777177,-0.102259986,-2.112983,5.757405,1.3029755
903,1780383676379980,0.85908157,-4.0642853,0.06687169,-1.1972959,4.3114867,1.1074986
904,1780383676389980,0.52472305,-2.5191588,-0.057841565,-0.45998153,2.5644124,0.79229224
905,1780383676399980,0.23258655,-1.889003,0.026602242,-0.24678956,0.25778514,0.34208453
906,1780383676409980,-0.21989559,-1.2097918,0.1313028,-0.40500367,-1.0030408,0.3042109
907,1780383676419980,-0.34241232,-0.93937635,0.09176553,-0.90285885,-2.533869,0.3921755
908,1780383676429980,-0.34509695,-0.8166155,0.13764828,-2.0201313,-4.387234,0.6768387
909,1780383676439980,-0.29897013,-0.73558855,0.20183535,-2.3548856,-4.6975536,0.87598073
910,1780383676449980,-0.23575929,-0.5635282,0.31141704,-2.5552492,-4.6370783,1.0415252
911,1780383676459980,-0.26797485,-0.34070393,0.4463807,-2.4996605,-3.6694674,1.5088371
912,1780383676469980,-0.5130083,-0.09664667,1.3132721,-1.7269161,-2.4550674,1.7782288
913,1780383676479980,-0.37536004,-0.0039049159,1.0333383,-0.86193085,-1.3384057,2.0421226
914,1780383676489980,-0.16693515,0.08517598,0.80441266,-0.21502456,-0.7501425,2.1820107
915,1780383676499980,-0.11592719,0.11690342,0.66798466,0.27000242,-0.61636305,2.2858577
916,1780383676509980,-0.039537273,0.13886857,0.47688788,0.6908886,-1.047023,2.443461
917,1780383676519980,0.17376876,0.2438132,0.29262465,0.7825184,-1.2406673,2.5344799
918,1780383676529980,0.17376876,0.2438132,0.29262465,0.7825184,-1.2406673,2.5344799
919,1780383676539980,0.45589894,0.34582913,0.24649782,0.6921103,-0.82711154,2.6352727
920,1780383676549980,0.54766446,0.39244407,0.24112856,0.6243043,-0.49174652,2.561358
921,1780383676559980,0.72021294,0.55108124,0.3162982,0.6560693,-0.45142943,2.461787
922,1780383676569980,0.8815348,0.5864696,0.035144243,0.7312057,-0.56138515,2.3188446
923,1780383676579980,0.79318607,0.52423495,-0.2255089,0.91751957,-1.4434745,1.8142698
924,1780383676589980,0.6660322,0.4742032,-0.34753752,0.82772243,-2.5326474,1.065349
925,1780383676599980,0.6660322,0.4742032,-0.34753752,0.82772243,-2.5326474,1.065349
926,1780383676609980,0.46614933,0.277005,-0.5427833,0.71776664,-2.542421,0.8179486
927,1780383676619980,0.42954078,0.01854835,-0.6279593,0.04642576,-0.62796944,0.14905111
928,1780383676629980,0.4085518,-0.09469421,-0.71118283,-0.28160888,0.7141015,-0.002443461
929,1780383676639980,0.53033644,-0.35315084,-1.0301657,-0.70921457,2.3958135,-0.18997909
930,1780383676649980,0.6465077,-0.5256993,-1.022844,-1.6132951,5.9534926,-0.7330383
931,1780383676659980,0.8681116,-0.86884385,-0.85444444,-1.9419407,7.66697,-1.3432927
932,1780383676669980,1.0431006,-1.3823403,-0.7438865,-1.9755383,9.194133,-2.1655173
933,1780383676679980,1.1539028,-2.2067657,-0.5632841,-1.781283,10.241767,-2.8221974
934,1780383676689980,1.1973449,-2.460097,-0.65285313,-1.4263704,11.203879,-3.517973
935,1780383676699980,1.3142483,-2.9911656,-0.5613316,-0.88208944,9.869139,-4.120286
936,1780383676709980,1.171963,-3.5151567,-0.28798756,-0.35124752,6.2680883,-3.6456437
937,1780383676719980,1.0167425,-4.7896237,0.17206036,0.3659083,0.48747048,-2.9064968
938,1780383676729980,0.37145513,-4.4564853,-0.06931226,1.9779817,-11.071933,-1.885741
939,1780383676739980,-0.1889003,-3.2296095,-0.42099872,1.7996091,-11.779315,-1.9498819
940,1780383676749980,-0.4419877,-2.5970132,-0.4685899,1.4489723,-11.696237,-1.8887954
941,1780383676759980,-0.47493544,-1.8550792,-1.0980135,0.7959574,-11.067045,-1.5925257
942,1780383676769980,-0.5034901,-1.2007617,-0.9964857,-4.2595634,-4.056145,-1.7635679
943,1780383676779980,-0.8061211,-0.86201024,0.042954076,-5.2064047,-1.0629056,-1.3090842
944,1780383676789980,-0.82052046,-0.6765267,0.39146784,-5.2797084,1.4740179,-0.7867944
945,1780383676799980,-0.83174706,-0.511544,0.70068836,-4.742758,3.8924334,-0.41722095
946,1780383676809980,-0.83174706,-0.511544,0.70068836,-4.742758,3.8924334,-0.41722095
947,1780383676819980,-0.8112463,-0.2238005,0.865427,-1.8661933,6.4379086,0.39095375
948,1780383676829980,-0.5972081,-0.060038086,0.7231416,-1.0995574,6.0750546,0.64934975
949,1780383676839980,-0.5972081,-0.060038086,0.7231416,0.5839872,3.7501018,1.3646729
950,1780383676849980,-0.44808912,-0.026602242,0.6282034,1.0207558,2.7568347,1.5894713
951,1780383676859980,-0.10909359,-0.1701079,0.36510965,1.5882497,0.2864958,2.108096
952,1780383676869980,-0.041733786,-0.2630937,0.28627914,1.6823229,-0.7293731,2.2852468
953,1780383676879980,0.028066583,-0.37316352,0.2072046,1.8209893,-2.0384574,2.3102922
954,1780383676889980,0.08053889,-0.47639978,0.14130914,1.9205604,-2.4831672,2.1471913
955,1780383676899980,0.13203497,-0.5874458,0.07468152,2.0042489,-2.673757,1.9382755
956,1780383676909980,0.19378147,-0.7829357,-0.030019043,2.143526,-2.7220156,1.5491543
957,1780383676919980,0.20061506,-0.8768977,-0.07687803,2.5088236,-2.430022,0.70432764
958,1780383676929980,0.19134088,-1.0643337,-0.18475133,2.7440066,-2.094046,0.2284636
959,1780383676939980,0.21501444,-1.1822133,-0.2706595,2.918714,-1.6621643,-0.23273966
960,1780383676949980,0.25821257,-1.2817887,-0.34924594,2.9907963,-1.2009611,-0.68294734
961,1780383676959980,0.33875147,-1.4021089,-0.45004156,2.823419,-0.37934732,-1.4953982
962,1780383676969980,0.5422952,-1.667155,-0.677747,2.515543,0.19547687,-2.017077
963,1780383676979980,0.6491923,-1.8306733,-0.7138674,2.1704042,0.6768387,-2.4312437
964,1780383676989980,0.70068836,-1.943672,-0.70166457,1.5919148,1.3487904,-2.9614747
965,1780383676999980,0.7304634,-1.9910189,-0.44442827,0.91813046,2.0317378,-3.3695326
966,1780383677009980,0.7304634,-1.9910189,-0.44442827,-0.18875736,3.1746666,-3.399465
967,1780383677019980,2.2140872,-1.624445,3.6862407,-0.16737708,4.633413,-0.8790351
968,1780383677029980,2.2140872,-1.624445,3.6862407,-0.16737708,4.633413,-0.8790351
969,1780383677039980,1.7696592,-1.3574464,2.681945,5.067738,3.1410692,-0.67011917
970,1780383677049980,1.3193735,-0.54937285,-0.17718557,5.0298643,2.126422,-0.625526
971,1780383677059980,1.3288918,-0.4378387,-0.43295756,4.002389,0.27977628,-1.4727961
972,1780383677069980,1.0987457,-0.41416514,-0.37487194,3.630983,-0.32375857,-1.7556267
973,1780383677079980,0.9938011,-0.5034901,-0.014399378,3.5234706,-0.9737192,-2.044566
974,1780383677089980,0.8988628,-0.6877533,0.22209209,3.6560285,-1.3151928,-2.176513
975,1780383677099980,0.2550398,-0.91545874,-0.5947675,2.5130997,-2.0115793,-1.3982705
976,1780383677109980,-0.10030753,-0.91497064,-1.095573,1.1691961,-2.6401596,-0.5693264
977,1780383677119980,-0.302631,-0.97037166,-1.3181533,-0.09468412,-3.0341678,0.18509217
978,1780383677129980,-0.3287451,-0.99184865,-1.1536586,-0.8356637,-3.0518827,0.6273586
979,1780383677139980,-0.26114124,-0.98428285,-0.75291663,-1.4379768,-2.9028316,1.0238101
980,1780383677149980,-0.26114124,-0.98428285,-0.75291663,-1.6230689,-2.6053402,1.1716396
981,1780383677159980,-0.26480213,-0.82906246,-0.485918,-1.0952814,-1.3164146,0.46792278
982,1780383677169980,-0.26480213,-0.82906246,-0.485918,-1.0952814,-1.3164146,0.46792278
983,1780383677179980,-0.46370876,-0.5793919,-0.37975308,-0.8570439,-0.75808376,0.047647487
984,1780383677189980,-0.55767083,-0.48396555,-0.36803833,-0.46975538,0.62980205,-0.46975538
985,1780383677199980,-0.647972,-0.4058672,-0.3277689,-0.48563787,0.870483,-0.36102137
986,1780383677209980,-0.70068836,-0.30019042,-0.16180995,-0.54428095,1.0671816,-0.11484267
987,1780383677219980,-0.70068836,-0.30019042,-0.16180995,-0.54428095,1.0671816,-0.11484267
988,1780383677229980,-0.5645044,-0.23868799,0.3133695,-0.8368854,0.6585127,0.7104363
989,1780383677239980,-0.59232694,-0.29921418,0.43881494,-1.0635164,0.15149458,0.93828905
990,1780383677249980,-0.6379657,-0.3441207,0.51349646,-1.3573426,-0.42394048,1.1417072
991,1780383677259980,-0.67506236,-0.5122762,0.6467517,-1.8686367,-0.93401295,1.5125023
992,1780383677269980,-0.97354436,-0.69458693,1.8782645,-0.8332202,0.42210788,1.8686367
993,1780383677279980,-0.89007676,-1.0841023,1.3735542,-0.4007276,1.1001683,2.0983222
994,1780383677289980,-0.3904916,-1.5666034,0.1867038,-0.34697145,2.1691825,2.2565362
995,1780383677299980,1.5382929,-2.5159862,1.0887394,-0.6267477,4.0903535,1.4844025
996,1780383677309980,1.5382929,-2.5159862,1.0887394,-0.6267477,4.0903535,1.4844025
997,1780383677319980,2.2367847,-2.6968327,0.6765267,0.31520647,2.6297748,0.015271631
998,1780383677329980,1.6639824,-2.4525313,0.63625723,1.994475,-1.1441506,-1.627345
999,1780383677339980,1.3559821,-2.2406895,0.41880223,2.1453588,-2.2247713,-0.106901415
1000,1780383677349980,1.5802706,-1.9016942,-0.038561042,2.0769417,-2.7727172,1.0122037
