id,timestamp,acc_x,acc_y,acc_z,gyro_x,gyro_y,gyro_z
0,1778612594170,0.13179092,0.36950266,0.041977845,-1.3274102,-0.64568454,0.6414085
1,1778612594180,0.30873242,0.34558508,0.12764193,-1.2889256,-0.73914695,0.52595496
2,1778612594190,0.3939084,0.27432033,0.25381953,-1.1099422,-0.7959574,0.3359759
3,1778612594200,0.409284,0.07809832,0.52472305,-0.34513888,-0.7806858,0.07880162
4,1778612594210,0.4424758,-0.0056133163,0.6042857,0.25167647,-0.9462303,-0.02687807
5,1778612594220,0.536926,-0.14301755,0.6242984,0.8509353,-1.1985176,-0.17287487
6,1778612594230,0.6321083,-0.31190515,0.51788944,1.2345587,-1.3530666,-0.34147367
7,1778612594240,0.6321083,-0.31190515,0.51788944,1.2345587,-1.3530666,-0.34147367
8,1778612594250,0.44369608,-0.45370242,-0.17279254,1.3518448,-1.3628404,-0.7629707
9,1778612594260,0.44369608,-0.45370242,-0.17279254,1.3518448,-1.3628404,-0.7629707
10,1778612594270,0.028554698,0.0021965152,-0.49763274,0.65179324,-1.2357804,-0.68477994
11,1778612594280,-0.2853029,0.1718163,-0.3704789,0.55771995,-1.1453724,-0.63285637
12,1778612594290,-0.48665017,0.16571487,-0.14057697,0.6017023,-0.17837265,-0.5338962
13,1778612594300,-0.89349353,-0.038316987,-0.13740423,0.84849185,1.4630222,-0.09101892
14,1778612594310,-1.0213796,-0.2135501,-0.49446,0.6273586,2.2107213,0.3145956
15,1778612594320,-0.93571544,-0.38561043,-0.58427304,0.2864958,2.4495697,0.62980205
16,1778612594330,-0.66237134,-0.64138246,-0.37536004,-0.07086037,2.5149322,0.9114109
17,1778612594340,-0.41001618,-0.8671354,0.33582276,0.084910266,2.2088888,1.070236
18,1778612594350,0.3133695,-1.8472692,2.250696,2.6395488,0.31764993,1.1673635
19,1778612594360,0.47688788,-2.3551524,0.94865054,3.2217033,-1.2308935,1.0091494
20,1778612594370,0.60697037,-2.775175,-0.15033926,2.543032,-1.1557571,0.8313876
21,1778612594380,0.69458693,-3.2513306,0.31019676,1.4544702,-0.004886922,0.46609017
22,1778612594390,0.35583547,-2.4278815,-0.019280521,0.5002986,2.597399,-0.076358154
23,1778612594400,0.13032657,-1.3179091,0.15717287,0.3213151,2.7348437,0.17531833
24,1778612594410,0.13032657,-1.3179091,0.15717287,0.33841935,2.1239784,0.6933321
25,1778612594420,0.38853914,-1.1805049,0.48542988,0.398895,1.1068878,1.03786
26,1778612594430,0.6560259,-1.5893008,0.5432714,-0.5180137,1.2284501,0.14294247
27,1778612594440,0.6560259,-1.5893008,0.5432714,-0.8063421,1.6096299,-0.34330627
28,1778612594450,0.09298581,-2.6011622,0.61966133,-0.8063421,1.6096299,-0.34330627
29,1778612594460,0.09298581,-2.6011622,0.61966133,-0.91996306,1.1826351,-1.1972959
30,1778612594470,-0.28261828,-2.8017771,0.7165521,-0.79779,0.33841935,-1.0855075
31,1778612594480,-0.55108124,-2.7920148,0.82247293,-0.9578367,-0.6988298,-0.41538838
32,1778612594490,-0.26992732,-2.6162937,0.9198518,-0.9975429,-0.7098254,-0.28893927
33,1778612594500,0.06028214,-2.3942015,0.92229235,-0.90469146,-1.001819,-0.61208695
34,1778612594510,0.1696198,-2.3168354,0.8439499,-0.8570439,-1.2638801,-0.6957755
35,1778612594520,0.25821257,-2.250452,0.74461865,-0.8240572,-1.4178182,-0.72692966
36,1778612594530,0.345341,-2.0710697,0.58256465,-0.7415904,-1.5503759,-0.77640975
37,1778612594540,0.38561043,-1.9204865,0.49690056,-0.5870415,-1.496009,-0.82833326
38,1778612594550,0.24747404,-1.7742962,0.3441207,-0.52778757,-1.273654,-0.79534656
39,1778612594560,0.20183535,-1.582223,0.20940112,-0.51007247,-0.9816604,-0.59498274
40,1778612594570,0.3082443,-1.3569584,0.17596528,-0.4831944,-0.7733554,-0.49296826
41,1778612594580,0.26236153,-0.92156017,0.18109047,-0.47036624,-0.5119051,-0.4251622
42,1778612594590,0.05686534,-0.5191097,-0.036852647,-0.43554693,-0.30604348,-0.30970868
43,1778612594600,0.05686534,-0.5191097,-0.036852647,-0.43554693,-0.30604348,-0.30970868
44,1778612594610,-0.30677995,-0.050031736,-0.061502427,-0.45998153,-0.27366763,-0.25289822
45,1778612594620,-0.3385074,0.08908089,-0.027334413,-0.8008443,-0.06658431,0.09773844
46,1778612594630,-0.30458343,0.17645338,0.02831064,-0.95905846,0.16187929,0.23640485
47,1778612594640,-0.17328064,0.2928687,0.17230442,-1.0476339,0.68661255,0.3866777
48,1778612594650,-0.10079564,0.31068486,0.20793676,-1.0177015,0.86437434,0.44898596
49,1778612594660,-0.036852647,0.31507793,0.23990828,-0.9236283,0.95294976,0.52473325
50,1778612594670,-0.019036464,0.30385128,0.27139166,-0.8008443,0.9975429,0.6053675
51,1778612594680,0.0017084008,0.2523552,0.30043447,-0.5723807,1.0207558,0.7305948
52,1778612594690,0.054424766,0.09298581,0.22331238,-0.09773844,0.9077458,0.79901177
53,1778612594700,0.058573738,0.027334413,0.12593354,0.13255776,0.9193522,0.7892379
54,1778612594710,0.047347106,-0.011714748,0.04807928,0.28099802,0.9315695,0.77946407
55,1778612594720,0.0134231495,-0.01513155,-0.067359805,0.3268129,0.86620694,0.7867944
56,1778612594730,0.01586372,-0.042954076,-0.07175283,0.1685988,0.3555236,0.86132
57,1778612594740,0.01586372,-0.042954076,-0.07175283,0.027488936,0.18692477,0.8765916
58,1778612594750,-0.0053692595,-0.067847915,-0.054668825,-0.051923547,0.23945917,0.874759
59,1778612594760,-0.14472595,-0.11202228,0.05662128,-0.0580322,1.0751228,0.9804387
60,1778612594770,-0.14545812,-0.12349297,0.07980672,0.06414085,1.3842206,0.98532563
61,1778612594780,-0.14545812,-0.12349297,0.07980672,0.06414085,1.3842206,0.98532563
62,1778612594790,-0.14960709,-0.04612682,0.0026846298,0.35796702,1.6719382,0.8912524
63,1778612594800,-0.14350566,0.0065895454,-0.0656514,0.5180137,1.6670512,0.8216137
64,1778612594810,-0.084687866,0.07297312,-0.15473229,0.7715228,1.2382239,0.61391956
65,1778612594820,-0.076633975,0.06662763,-0.18255483,0.788627,0.96577793,0.5687156
66,1778612594830,0.13838045,-0.20598431,-0.08566409,0.7122689,0.48380527,0.56688297
67,1778612594840,0.22355644,-0.35607952,0.0024405725,0.38362336,-0.35796702,0.61208695
68,1778612594850,0.31190515,-0.53033644,0.14789869,0.25961772,-0.82711154,0.66339964
69,1778612594860,0.51496077,-0.80465674,0.43491003,0.40561453,-1.1960741,0.62980205
70,1778612594870,0.58427304,-1.9817449,0.94035256,1.604743,-0.9126327,0.32742378
71,1778612594880,0.58427304,-1.9817449,0.94035256,1.604743,-0.9126327,0.32742378
72,1778612594890,0.6723777,-2.3244014,0.46224442,2.6322184,0.4642576,0.14294247
73,1778612594900,0.79489446,-2.7856693,0.24942651,2.0347922,1.6786577,-0.36957347
74,1778612594910,-0.7558453,-1.9492851,0.9103335,1.6615535,2.3835962,0.56505036
75,1778612594920,-0.6294237,-1.6095576,0.7492558,1.6517797,2.3359487,1.2253957
76,1778612594930,-0.3380193,-1.3308442,0.42002252,1.500285,1.6896533,1.4330899
77,1778612594940,-0.044418417,-0.92595315,0.27480847,1.3054191,0.29871312,0.97310835
78,1778612594950,0.02831064,-0.8507836,0.38146147,1.2156218,-0.25961772,0.44532076
79,1778612594960,0.043930303,-0.8537123,0.3572998,1.0622946,-0.6084218,-0.008552114
80,1778612594970,0.0065895454,-0.95572823,0.21135357,0.65118235,-0.68233645,-0.5174029
81,1778612594980,-0.051496077,-1.1094842,0.09396204,0.10751228,-0.23884831,-0.8399397
82,1778612594990,-0.11617125,-1.3010693,0.073949344,-0.3866777,0.31948254,-1.006095
83,1778612595000,-0.38878322,-1.9012059,0.43637437,-1.1362094,0.68233645,-1.2528846
84,1778612595010,-0.5730464,-2.378094,0.7563334,-1.4697418,0.7654142,-1.0812315
85,1778612595020,-0.6123396,-2.8684049,0.9452337,-1.5460999,0.86559606,-0.79473567
86,1778612595030,-0.41562948,-3.1751847,0.81466305,-1.1307116,0.23823744,-0.12339478
87,1778612595040,-0.2111095,-2.234344,0.7141115,-1.029308,-0.095294975,-0.03970624
88,1778612595050,0.117879644,-1.8426323,0.8959341,-1.1068878,0.05681047,-0.25778514
89,1778612595060,0.117879644,-1.8426323,0.8959341,-1.1068878,0.05681047,-0.25778514
90,1778612595070,0.19378147,-1.7984579,0.89715445,-1.0574077,0.03176499,-0.5161811
91,1778612595080,0.2591888,-1.7965053,0.7636551,-0.6914995,-0.64751714,-0.9841039
92,1778612595090,0.28994003,-1.7228,0.6303999,-0.41599923,-1.4440855,-1.2260065
93,1778612595100,0.23502712,-1.5993071,0.5696296,-0.36896262,-1.7201965,-1.273654
94,1778612595110,0.15058333,-1.5131549,0.49446,-0.34025195,-1.790446,-1.2321151
95,1778612595120,0.06662763,-1.3860011,0.4825012,-0.26206118,-1.7935003,-1.1459832
96,1778612595130,-0.026114125,-1.26202,0.42246306,-0.08979719,-1.890628,-1.0965031
97,1778612595140,-0.24600971,-0.9781815,0.29872608,0.22907446,-2.1154263,-1.1007792
98,1778612595150,-0.3577879,-0.86664724,0.23087814,0.3463606,-2.240043,-1.0903945
99,1778612595160,-0.47005424,-0.74510676,0.091033354,0.35918877,-2.2449298,-0.9981538
100,1778612595170,-0.47005424,-0.74510676,0.091033354,0.35918877,-2.2449298,-0.9981538
101,1778612595180,-0.52301466,-0.30043447,-0.12129646,-0.047647487,-1.5778649,-0.22785273
102,1778612595190,-0.42197496,-0.1598575,-0.16547081,-0.18509217,-1.2986995,-0.012217305
103,1778612595200,-0.29091623,-0.0622346,-0.174745,-0.34269542,-0.90408057,0.20708331
104,1778612595210,0.010006348,0.19841854,-0.18597162,-0.5314528,-0.22174409,0.4184427
105,1778612595220,0.010006348,0.19841854,-0.18597162,-0.62125,0.10995574,0.50335294
106,1778612595230,0.08639627,0.23990828,-0.18523945,-0.6914995,0.3378085,0.56016344
107,1778612595240,0.14179726,0.26675457,-0.1552204,-0.73914695,0.40133846,0.57848936
108,1778612595250,0.37536004,0.30751213,0.088104665,-0.77579886,0.31520647,0.5699373
109,1778612595260,0.39415246,0.3031191,0.17718557,-0.82344633,-0.54183745,0.41783184
110,1778612595270,0.44735694,0.2591888,0.21891935,-0.58459806,-1.1844677,0.32375857
111,1778612595280,0.37584817,0.0134231495,0.2545517,-0.17287487,-1.5180001,0.040317107
112,1778612595290,0.31263736,-0.09274176,0.19500175,0.05131268,-1.577254,-0.15393804
113,1778612595300,0.2545517,-0.15595257,0.12154051,0.2443461,-1.4764613,-0.34330627
114,1778612595310,0.18304294,-0.19963883,0.041977845,0.35430184,-1.3139712,-0.45204028
115,1778612595320,0.10152781,-0.22526483,-0.035876416,0.44776422,-1.0586295,-0.5131268
116,1778612595330,0.09396204,-0.17596528,-0.057841565,0.516792,-0.75808376,-0.46486846
117,1778612595340,0.107629254,-0.15326795,-0.008297946,0.56688297,-0.71959925,-0.44776422
118,1778612595350,0.13105874,-0.13618395,0.0873725,0.6994407,-0.71837753,-0.44165558
119,1778612595360,0.10372432,-0.05051985,0.3360668,1.3811663,-0.6554584,-0.46609017
120,1778612595370,0.07224095,-0.050763905,0.3128814,1.6261233,-0.5919284,-0.4868596
121,1778612595380,0.009030119,-0.0707766,0.24942651,1.6261233,-0.5919284,-0.4868596
122,1778612595390,-0.09518232,-0.11324256,0.18645974,1.8216002,-0.38545597,-0.5222898
123,1778612595400,-0.3360668,-0.21306199,-0.08371163,1.7250835,0.21197024,-0.3213151
124,1778612595410,-0.50885934,-0.29726174,-0.37706846,1.564426,0.6114761,-0.15454891
125,1778612595420,-0.6118515,-0.3841461,-0.5835409,1.17897,1.287704,0.12644911
126,1778612595430,-0.47054234,-0.64431113,-0.31532198,0.37995818,2.3878722,0.6872234
127,1778612595440,-0.31141704,-0.7990434,0.268463,0.18936823,2.565634,0.93645644
128,1778612595450,-0.05515694,-1.1287647,2.0327528,0.70188415,1.9339994,1.1759156
129,1778612595460,0.6016011,-1.850442,4.0718513,2.1374176,0.5540548,1.2815952
130,1778612595470,1.6571487,-3.0280182,-0.78488815,3.6059375,-1.5216653,0.9627236
131,1778612595480,1.6571487,-3.0280182,-0.78488815,2.8997774,-0.8258898,0.21563543
132,1778612595490,0.7700006,-3.1105096,-0.6726217,0.8527679,3.4697146,-1.4355333
133,1778612595500,-0.1381364,-2.3856597,0.7585299,0.66645396,2.3719897,-0.87109387
134,1778612595510,-0.10689708,-1.4257824,0.27310005,0.9804387,1.2235631,0.9138544
135,1778612595520,-0.24283697,-1.2141849,0.5613316,0.46303585,1.6475036,0.9016371
136,1778612595530,-0.19329333,-1.2849613,1.0382195,0.25717425,1.1496484,0.77213365
137,1778612595540,-0.19329333,-1.2849613,1.0382195,0.25717425,1.1496484,0.77213365
138,1778612595550,0.022453265,-1.5480552,0.97476465,-0.018325957,-0.08124508,-0.18142697
139,1778612595560,0.10665302,-1.6847272,0.81295466,-0.5888741,-0.25595254,-0.43860126
140,1778612595570,0.19402552,-1.7745403,0.91472656,-0.77579886,-0.36346483,-0.46914452
141,1778612595580,0.27822527,-1.892664,0.95475197,-0.8210029,-0.39278635,-0.5564982
142,1778612595590,0.34631723,-2.1984677,1.0492021,-0.8924741,-0.4654793,-0.8216137
143,1778612595600,0.26236153,-2.3497832,1.0726316,-0.98715824,-0.5338962,-0.91874135
144,1778612595610,-0.021232981,-2.1901696,0.921072,-1.4404203,-0.960891,-0.6554584
145,1778612595620,-0.021232981,-2.1901696,0.921072,-1.4404203,-0.960891,-0.6554584
146,1778612595630,-0.05588911,-2.0273836,0.86664724,-1.5796975,-1.0665708,-0.57910025
147,1778612595640,-0.046614934,-1.8638653,0.76219076,-1.7647897,-1.1942415,-0.5204572
148,1778612595650,-0.020012695,-1.7662423,0.72875494,-1.9052887,-1.3353515,-0.52656585
149,1778612595660,-0.018792408,-1.5766098,0.4742032,-2.057394,-1.9578232,-0.45020768
150,1778612595670,-0.03294773,-1.5138872,0.41587353,-1.9822577,-2.067168,-0.42088616
151,1778612595680,0.041001618,-1.4262705,0.23893206,-1.8759671,-2.0916026,-0.3463606
152,1778612595690,-0.061746486,-1.3288918,0.23722363,-1.7953329,-1.9737056,-0.2761111
153,1778612595700,0.0976229,-1.0601847,0.1564407,-1.6358972,-1.5460999,0.009162978
154,1778612595710,0.15936938,-0.912286,0.16034561,-1.599856,-1.2809844,0.029321533
155,1778612595720,0.17596528,-0.79782313,0.15546446,-1.491122,-1.028697,0.0061086523
156,1778612595730,0.17596528,-0.79782313,0.15546446,-1.491122,-1.028697,0.0061086523
157,1778612595740,0.03636453,-0.41099238,0.19304928,-1.0586295,-1.0409144,-0.03848451
158,1778612595750,-0.03294773,-0.21965154,0.12739788,-0.956615,-0.86498517,-0.017104227
159,1778612595760,-0.046614934,-0.11275445,0.07785426,-0.91996306,-0.61086524,0.0030543262
160,1778612595770,-0.050763905,0.008542004,0.06980037,-0.8881981,-0.21624629,0.08124508
161,1778612595780,0.027334413,0.16888762,0.009030119,-0.7079928,0.48197266,0.23273966
162,1778612595790,0.10396838,0.2403964,-0.073217176,-0.36285394,1.110553,0.31031954
163,1778612595800,0.10396838,0.2403964,-0.073217176,-0.36285394,1.110553,0.31031954
164,1778612595810,0.10006347,0.27432033,-0.09274176,-0.22113322,1.17897,0.30848694
165,1778612595820,0.082003236,0.2672427,-0.058085624,0.096516706,1.0567969,0.41355577
166,1778612595830,0.082491346,0.25699228,0.0053692595,0.19608775,0.8912524,0.51007247
167,1778612595840,0.23502712,0.04490653,0.13252309,0.36346483,0.11056661,0.66828656
168,1778612595850,0.23502712,0.04490653,0.13252309,0.36346483,0.11056661,0.66828656
169,1778612595860,0.06711575,-0.20842488,0.01854835,0.30604348,0.26633725,0.46975538
170,1778612595870,-0.041733786,-0.23942018,0.034900185,0.2742785,0.70371675,0.49663344
171,1778612595880,-0.09127741,-0.24259292,0.041733786,0.24923302,1.2260065,0.6151413
172,1778612595890,-0.09030118,-0.23087814,0.03441207,0.2510656,1.4251486,0.67011917
173,1778612595900,-0.099575356,-0.19768637,0.010494461,0.26450464,1.5735888,0.7049385
174,1778612595910,-0.10665302,-0.16937573,0.017816179,0.2938262,1.7354681,0.7733554
175,1778612595920,-0.05735345,-0.16815543,0.06296677,0.38240165,1.7941113,0.82772243
176,1778612595930,-0.003172744,-0.14106509,0.10177187,0.5369505,1.745242,0.8405506
177,1778612595940,0.03294773,-0.0959145,0.084687866,0.83016586,1.4795157,0.820392
178,1778612595950,0.045882765,-0.076389916,0.06711575,0.9407325,1.2620476,0.80878556
179,1778612595960,0.029530926,-0.12080834,0.082247294,1.0671816,0.72021013,0.6395759
180,1778612595970,0.029530926,-0.12080834,0.082247294,1.0671816,0.72021013,0.6395759
181,1778612595980,-0.03294773,-0.17572121,0.1615659,1.1484267,0.68661255,0.59131753
182,1778612595990,0.019036464,-0.8019721,1.8282329,2.276084,0.7507534,0.72021013
183,1778612596000,0.4685899,-0.89007676,0.6894617,3.8227947,-1.0146471,0.6762278
184,1778612596010,0.55401,-0.91375035,-0.25381953,3.5827246,-2.1600194,0.4831944
185,1778612596020,0.49982923,-1.0609169,-0.80563295,3.2064316,-2.3811526,0.29749137
186,1778612596030,0.3316738,-1.4270028,-0.2848148,2.510656,-2.3872614,-0.28344148
187,1778612596040,0.3397277,-1.8414118,1.2566508,2.6181684,-2.2773056,-0.6383542
188,1778612596050,0.27773714,-2.2582617,2.3688195,3.2992833,-1.3848315,-0.8332202
189,1778612596060,0.20134723,-2.620931,1.735247,3.9687915,0.12217305,-0.9108001
190,1778612596070,0.14765464,-2.5950606,0.58232063,3.2308662,1.0268645,-0.7666359
191,1778612596080,-0.16766733,-1.9409873,0.30067852,1.205848,0.79779,-0.1386664
192,1778612596090,-0.18841219,-1.6281059,0.42148685,1.395827,0.20525073,0.3378085
193,1778612596100,-0.08029483,-1.3069266,0.3572998,1.8509218,-0.3481932,0.68844515
194,1778612596110,0.028066583,-1.0977695,0.5315567,1.9401081,-0.6805039,0.8210029
195,1778612596120,0.23527117,-0.6457755,0.71020657,0.1704314,-0.5119051,0.21319197
196,1778612596130,0.23527117,-0.6457755,0.71020657,0.1704314,-0.5119051,0.21319197
197,1778612596140,0.018060237,-1.5666034,1.8148097,-0.5900958,1.0928379,-0.3744604
198,1778612596150,-0.012446919,-2.0122519,1.5722169,-0.65240407,1.4214834,-0.5852089
199,1778612596160,-0.16595893,-2.2467911,1.1375508,-1.0708468,1.0464121,-0.59986967
200,1778612596170,-0.34460884,-2.514766,1.0169866,-1.310306,0.589485,-0.43799037
201,1778612596180,-0.27139166,-2.387368,0.8991069,-1.128879,-0.39645153,0.19242255
202,1778612596190,-0.07175283,-2.0571587,0.9530435,-1.237613,-0.5864306,0.36346483
203,1778612596200,0.1181237,-1.7984579,0.94620997,-1.423316,-0.81245077,0.37812558
204,1778612596210,0.277005,-1.6102897,0.82052046,-1.6707164,-0.89736104,0.3231477
205,1778612596220,0.55669457,-1.4687365,0.70142055,-2.02624,-0.72509706,-0.029321533
206,1778612596230,0.6282034,-1.4648316,0.6577343,-2.225993,-0.49174652,-0.30665436
207,1778612596240,0.6640798,-1.4824038,0.6191732,-2.3732114,-0.23396139,-0.56382865
208,1778612596250,0.6343048,-1.5216969,0.60770255,-2.4452937,-0.0061086523,-0.72204274
209,1778612596260,0.33899552,-1.5983309,0.5271637,-2.0457878,0.10445796,-0.81306165
210,1778612596270,0.19231711,-1.55196,0.58964235,-1.858252,-0.18997909,-0.7648033
211,1778612596280,0.08078295,-1.4418901,0.6269831,-1.858252,-0.18997909,-0.7648033
212,1778612596290,-0.061502427,-0.92180425,0.45223808,-1.1942415,-1.0519099,-0.5564982
213,1778612596300,-0.061502427,-0.92180425,0.45223808,-0.9242391,-1.2180653,-0.51251596
214,1778612596310,-0.15107143,-0.54034275,0.24478942,-0.49235737,-1.3316863,-0.4184427
215,1778612596320,-0.17767367,-0.21843125,0.22746135,-0.55771995,-1.323745,-0.32070425
216,1778612596330,-0.1615659,-0.09811102,0.20671648,-0.6750061,-1.2767084,-0.025045475
217,1778612596340,-0.07468152,0.007565775,0.10884953,-0.68600166,-1.0097603,0.16798794
218,1778612596350,0.021965152,0.08127106,0.019036464,-0.68783426,-0.539394,0.25411993
219,1778612596360,0.055400997,0.25259924,-0.11275445,-0.66523224,0.0580322,0.27855456
220,1778612596370,0.059549972,0.36047253,-0.24015234,-0.64568454,0.8246681,0.31398472
221,1778612596380,0.059549972,0.36047253,-0.24015234,-0.66156703,0.99204516,0.3213151
222,1778612596390,0.32166746,0.38341394,-0.21647878,-0.72326446,0.1881465,0.061086524
223,1778612596400,0.30555966,0.28994003,-0.12837411,-0.69027776,-0.19853121,-0.06352998
224,1778612596410,0.27310005,0.16278619,-0.029042812,-0.58093286,-0.5222898,-0.16798794
225,1778612596420,0.23942018,0.057841565,0.022941383,-0.45753807,-0.65057147,-0.26939157
226,1778612596430,0.23942018,0.057841565,0.022941383,-0.45753807,-0.65057147,-0.26939157
227,1778612596440,0.073217176,-0.12910628,0.13520771,-0.30298916,-0.88086766,-0.5839872
228,1778612596450,-0.022209208,-0.16132185,0.15424417,-0.31581733,-0.9932669,-0.64934975
229,1778612596460,-0.07687803,-0.19500175,0.15302388,-0.3109304,-0.9975429,-0.6743952
230,1778612596470,-0.15253578,-0.2020794,0.14228538,-0.2864958,-0.98532563,-0.6646214
231,1778612596480,-0.21599068,-0.1871919,0.16254212,-0.19058995,-0.88025683,-0.60048056
232,1778612596490,-0.24064046,-0.08371163,0.25040275,0.20769419,-0.7141015,-0.45753807
233,1778612596500,-0.2037878,-0.05686534,0.28701133,0.5546656,-0.58032197,-0.39767328
234,1778612596510,-0.13203497,-0.13667206,0.43027294,0.816116,-0.5015204,-0.3652974
235,1778612596520,-0.11324256,-0.2421048,0.6155124,1.4563028,-0.11484267,-0.19730948
236,1778612596530,-0.03441207,-0.41465324,0.74437463,1.8961257,0.39095375,-0.092240654
237,1778612596540,0.18914436,-0.7365648,-0.34900185,1.9816469,1.35551,-0.08979719
238,1778612596550,0.24356914,-0.8295506,-0.45907167,1.8081611,1.541213,-0.087964594
239,1778612596560,0.3109289,-0.8417535,-0.20134723,1.6652187,1.5448782,-0.040927973
240,1778612596570,0.43832684,-0.97549677,0.49812084,1.831374,1.2534955,-0.031154128
241,1778612596580,0.6872652,-1.0877631,1.5029045,2.4086416,0.72387534,-0.076358154
242,1778612596590,0.97476465,-1.5321914,0.2294138,3.879605,-0.3115413,-0.6591236
243,1778612596600,0.92912596,-1.8162742,-0.09054524,3.5729508,0.14110987,-0.9242391
244,1778612596610,0.92912596,-1.8162742,-0.09054524,3.5729508,0.14110987,-0.9242391
245,1778612596620,0.856641,-2.481086,1.2141849,2.8160887,1.5338826,-1.4905112
246,1778612596630,0.35534734,-2.4308102,0.07028849,2.5515842,4.4416013,-1.2626585
247,1778612596640,0.27773714,-2.182604,0.27041543,1.8918496,4.696943,-0.9450085
248,1778612596650,0.30336314,-1.9507496,1.1014304,1.8387043,2.9174924,-0.58032197
249,1778612596660,0.12715383,-1.7918682,1.334261,2.1771238,1.2675453,-0.3659083
250,1778612596670,-0.5198419,-1.2725145,0.7585299,1.9572122,-0.3115413,0.034208454
251,1778612596680,-0.5361938,-1.0152781,0.6645679,1.3927728,0.016493361,0.11728613
252,1778612596690,-0.047347106,-0.7365648,0.9354714,-0.13988814,-0.42394048,-0.080634214
253,1778612596700,-0.047347106,-0.7365648,0.9354714,-0.4905248,-0.37873647,-0.034208454
254,1778612596710,0.54888475,-1.2112561,1.2417632,-0.86376345,-0.28344148,-0.12889257
255,1778612596720,0.54888475,-1.2112561,1.2417632,-0.86376345,-0.28344148,-0.12889257
256,1778612596730,0.38097337,-1.9893107,1.0997219,-1.767844,0.258396,-0.3885103
257,1778612596740,0.2757847,-2.1625912,1.0648217,-2.0683897,0.2968805,-0.2761111
258,1778612596750,0.20793676,-2.1855328,1.0101529,-2.2321017,0.23640485,-0.1685988
259,1778612596760,0.15400012,-2.0730224,1.0050278,-2.4061983,0.051923547,-0.032986723
260,1778612596770,0.012446919,-1.7154784,0.9884319,-2.5320365,-0.20769419,0.059253927
261,1778612596780,-0.061746486,-1.5326794,0.873725,-2.7818804,-0.5644395,0.1441642
262,1778612596790,-0.08542004,-1.4396937,0.7455949,-2.9162707,-0.5833763,0.115453534
263,1778612596800,-0.05222825,-1.3925906,0.5337532,-2.95109,-0.64568454,0.073303826
264,1778612596810,-0.077122085,-1.3925906,0.507395,-2.93704,-0.68111473,0.035430185
265,1778612596820,-0.0370967,-1.4484798,0.2894519,-2.6542094,-0.9211848,0.32742378
266,1778612596830,-0.0370967,-1.4484798,0.2894519,-2.6542094,-0.9211848,0.32742378
267,1778612596840,0.09005712,-1.4658079,0.33582276,-2.6542094,-0.9211848,0.32742378
268,1778612596850,0.27407628,-1.0428566,0.28408262,-1.8258762,-1.006095,0.90102625
269,1778612596860,0.2962855,-0.8402891,0.26968327,-1.5961909,-1.1869112,0.86132
270,1778612596870,0.2779812,-0.6570021,0.27651685,-1.3573426,-1.2345587,0.7696902
271,1778612596880,0.25650415,-0.36755022,0.22575295,-1.183246,-1.187522,0.7165449
272,1778612596890,0.29945824,-0.26529023,0.1871919,-0.8258898,-0.71959925,0.65240407
273,1778612596900,0.33484653,-0.18450728,0.15717287,-0.70921457,-0.47036624,0.6200282
274,1778612596910,0.35754386,-0.119343996,0.12886222,-0.5687156,-0.1563815,0.5186246
275,1778612596920,0.29921418,0.035632357,0.11617125,-0.46181414,0.045814894,0.37384954
276,1778612596930,0.21013328,0.11861181,0.108117364,-0.2938262,0.07147124,0.14966199
277,1778612596940,0.13764828,0.183287,0.09005712,-0.21746802,-0.08002335,0.099571034
278,1778612596950,0.07687803,0.24454537,0.077122085,-0.16126843,-0.22357668,0.10262536
279,1778612596960,-0.16742326,0.41855815,0.14374973,-0.0012217305,-0.44532076,0.24801129
280,1778612596970,-0.24649782,0.39488465,0.21159762,0.12767084,-0.516792,0.5729916
281,1778612596980,-0.24649782,0.39488465,0.21159762,0.12767084,-0.516792,0.5729916
282,1778612596990,-0.21550256,0.29116032,0.19646609,0.16493362,-0.5491679,0.73426
283,1778612597000,-0.31483385,-0.024893839,0.026846299,-0.09773844,0.3378085,0.8191703
284,1778612597010,-0.38585448,-0.106164895,-0.016839951,-0.09773844,0.3378085,0.8191703
285,1778612597020,-0.43979117,-0.15570852,-0.0012202862,-0.43371433,1.1007792,1.0519099
286,1778612597030,-0.43979117,-0.15570852,-0.0012202862,-0.43371433,1.1007792,1.0519099
287,1778612597040,-0.3746279,-0.28969595,-0.1969542,-0.79351395,1.4563028,1.6169603
288,1778612597050,-0.23722363,-0.30629185,-0.16083373,-0.8723156,1.3225232,1.7849482
289,1778612597060,-0.07785426,-0.3265486,-0.079318605,-0.8594874,1.1294898,1.8454239
290,1778612597070,0.16791138,-0.3612047,0.17352471,-0.49418998,0.70005155,1.681712
291,1778612597080,0.22624107,-0.38170552,0.22990192,-0.14294247,0.4813618,1.5161675
292,1778612597090,0.3397277,-0.38439015,0.30409533,0.24312437,0.30115658,1.3158038
293,1778612597100,0.42075467,-0.41196862,0.47444725,0.57543504,0.19975294,1.1172725
294,1778612597110,0.91155386,-0.9015475,2.4308102,2.4898868,-1.042747,0.31031954
295,1778612597120,1.1568314,-1.0194272,1.8719192,3.2491922,-2.5448647,-0.2773328
296,1778612597130,1.1229074,-0.9872115,0.8925173,3.2809572,-4.2907176,-1.0134255
297,1778612597140,0.58939826,-1.2132086,-0.95621634,2.1093178,-1.1820242,-2.1917844
298,1778612597150,0.49909708,-1.4553133,-0.86615914,2.1093178,-1.1820242,-2.1917844
299,1778612597160,0.49909708,-1.4553133,-0.86615914,1.5497651,1.2754866,-2.270586
300,1778612597170,0.37999713,-2.310246,0.45004156,0.49480084,2.5662448,-2.058616
301,1778612597180,-0.11665936,-3.3272324,2.2314155,0.25411993,2.2467623,-1.5858061
302,1778612597190,-0.3265486,-2.9240499,1.1102165,1.1294898,2.1777346,0.077579886
303,1778612597200,-0.32239962,-2.3829749,0.2362474,0.89980453,1.7782288,0.6969972
304,1778612597210,-0.27773714,-1.9734468,-0.107629254,0.5039638,1.5784758,0.8546005
305,1778612597220,-0.39781332,-1.5204766,-0.04148973,-0.07696902,1.3072516,0.5925393
306,1778612597230,-0.32581642,-1.6622739,0.20525214,-0.5564982,1.1123856,0.312763
307,1778612597240,-0.10494461,-2.0146925,0.447601,-1.0946705,0.79779,-0.10262536
308,1778612597250,0.02757847,-2.2414217,0.6279593,-1.4153748,0.4868596,-0.4343252
309,1778612597260,0.26236153,-2.493777,0.592571,-1.2980887,-0.11301007,-0.47891834
310,1778612597270,0.32972133,-2.3536882,0.4058672,-1.1954633,-0.11301007,-0.3885103
311,1778612597280,0.3943965,-2.1040175,0.3360668,-1.2956452,-0.0842994,-0.3848451
312,1778612597290,0.43368974,-1.7486702,0.37243137,-1.5210545,0.06291912,-0.5137377
313,1778612597300,0.44418418,-1.6573927,0.45687518,-1.5497651,0.17837265,-0.6065892
314,1778612597310,0.42197496,-1.5624546,0.5435155,-1.4721853,0.28160888,-0.6640105
315,1778612597320,0.409284,-1.4489679,0.6028214,-1.2534955,0.2706133,-0.7263188
316,1778612597330,0.366574,-1.155611,0.5588911,-0.70066243,-0.28588495,-0.9388999
317,1778612597340,0.2997023,-1.0033194,0.51618105,-0.539394,-0.55955255,-0.98715824
318,1778612597350,0.24991462,-0.86567104,0.464685,-0.40378192,-0.88025683,-0.9987647
319,1778612597360,0.18475133,-0.71874857,0.3956168,-0.3475823,-1.0965031,-0.98654735
320,1778612597370,0.04148973,-0.50568664,0.32923323,-0.33964106,-1.210124,-0.97494096
321,1778612597380,-0.18694785,-0.25430766,0.18426323,-0.36285394,-1.3817772,-0.95294976
322,1778612597390,-0.18694785,-0.25430766,0.18426323,-0.408058,-1.3341297,-0.9236283
323,1778612597400,-0.45907167,0.08053889,-0.0656514,-0.5027421,-1.1630874,-0.88208944
324,1778612597410,-0.45907167,0.08053889,-0.0656514,-0.65057147,-0.5717699,-0.82772243
325,1778612597420,-0.55669457,0.20281157,-0.08395569,-0.6872234,-0.19486602,-0.7861836
326,1778612597430,-0.61746484,0.39537275,-0.19963883,-0.788627,0.0061086523,-0.46486846
327,1778612597440,-0.417826,0.43881494,-0.07150877,-0.8417723,-0.58276546,-0.055588737
328,1778612597450,-0.15375607,0.31141704,0.059305906,-0.7715228,-0.8894198,0.10140363
329,1778612597460,0.06272271,0.19719826,0.17523311,-0.64934975,-0.96883225,0.122783914
330,1778612597470,0.19597797,0.07565775,0.2677308,-0.43554693,-1.0250319,0.07880162
331,1778612597480,0.3778006,-0.09567044,0.34656128,-0.07941248,-1.2504412,0.004276057
332,1778612597490,0.4937278,-0.18621568,0.3333822,0.15088372,-1.3286319,-0.10751228
333,1778612597500,0.53961056,-0.24625377,0.35363895,0.39706242,-1.3298537,-0.30176744
334,1778612597510,0.56548065,-0.28286234,0.38536638,0.6243043,-1.3481796,-0.5021312
335,1778612597520,0.43466598,-0.30336314,0.26919514,1.2095132,-1.3267993,-1.0341948
336,1778612597530,0.28408262,-0.23917611,-0.047347106,1.2443326,-1.1355985,-1.1728612
337,1778612597540,0.12056428,-0.18841219,-0.22892569,1.1191051,-0.9071349,-1.1899655
338,1778612597550,-0.013667206,-0.17084008,-0.2638259,0.8772025,-0.63591075,-1.1398746
339,1778612597560,-0.2806658,-0.06931226,-0.030507157,0.743423,-0.4166101,-1.0115929
340,1778612597570,-0.2806658,-0.06931226,-0.030507157,0.98532563,-0.027488936,-0.77091193
341,1778612597580,-0.3738957,-0.1147069,-0.14594623,1.4043792,0.5742133,-0.49296826
342,1778612597590,-0.52350277,-0.37633628,-0.33118567,1.151481,1.3884968,0.2180789
343,1778612597600,-0.3734076,-0.5781716,-0.1849954,0.9645562,1.6988163,0.6414085
344,1778612597610,-0.09005712,-0.8007518,0.32069123,1.0647382,1.8564194,0.8344419
345,1778612597620,0.17742962,-1.018939,1.2793481,1.7806722,1.750129,0.9114109
346,1778612597630,0.78415596,-1.7625813,1.5116906,3.2601879,-0.09285152,0.8228355
347,1778612597640,1.1138773,-2.2443504,0.63943,2.6511552,-0.95294976,0.6041457
348,1778612597650,1.4694687,-2.852053,-0.26943922,1.6401732,0.06169739,-0.027488936
349,1778612597660,1.039928,-2.9433305,-0.054668825,1.2137892,1.4391985,-0.62796944
350,1778612597670,-0.26992732,-1.6407969,0.2020794,1.1429288,0.5222898,-0.05009095
351,1778612597680,-0.26992732,-1.6407969,0.2020794,1.1429288,0.5222898,-0.05009095
352,1778612597690,-0.06369894,-1.4692247,0.6469958,1.2260065,0.4184427,0.34391713
353,1778612597700,0.7819594,-1.55196,0.9274175,0.8002335,0.6737844,0.3182608
354,1778612597710,0.9696394,-1.7469617,0.8520039,0.8002335,0.6737844,0.3182608
355,1778612597720,0.9862353,-2.0005372,0.80514485,-0.10995574,0.7672467,-0.41172317
356,1778612597730,0.60697037,-2.0488605,0.916435,-0.42332962,0.47647488,-0.59681535
357,1778612597740,-0.053692598,-1.8819253,0.8678676,-0.76174897,-0.13561209,-0.47342056
358,1778612597750,-0.04368625,-1.7965053,0.946454,-1.110553,-0.13988814,-0.12461651
359,1778612597760,0.073949344,-1.7811297,1.0977695,-1.187522,-0.06719518,-0.12583824
360,1778612597770,0.30165476,-1.9756435,1.1087521,-1.1930199,-0.2565634,-0.258396
361,1778612597780,0.3065359,-2.0874217,1.0323621,-1.2229522,-0.38606682,-0.26328292
362,1778612597790,0.24796216,-2.1123154,0.9442575,-1.2644911,-0.50885075,-0.18203785
363,1778612597800,0.14716652,-2.0327528,0.90740484,-1.2333369,-0.6261369,-0.028710667
364,1778612597810,0.047347106,-1.7987018,0.8520039,-0.9505063,-0.83199847,0.34269542
365,1778612597820,0.117635585,-1.7037637,0.6716455,-0.7538077,-0.81122905,0.5216789
366,1778612597830,0.20622836,-1.3613514,0.26577836,-0.6640105,-0.8155051,0.6927212
367,1778612597840,0.20622836,-1.3613514,0.26577836,-0.6640105,-0.8155051,0.6927212
368,1778612597850,0.24942651,-0.7292431,-0.008297946,-0.6792821,-0.72204274,0.7623598
369,1778612597860,0.24942651,-0.7292431,-0.008297946,-0.6792821,-0.72204274,0.7623598
370,1778612597870,0.33655494,-0.41587353,-0.09542638,-0.6017023,0.26267207,0.8350528
371,1778612597880,0.3738957,-0.25772443,-0.07370529,-0.62858033,0.4538729,0.8399397
372,1778612597890,0.39659303,-0.010494461,0.029530926,-0.7086037,0.7648033,0.72082096
373,1778612597900,0.36462155,0.087616555,0.08029483,-0.6988298,0.7867944,0.6450737
374,1778612597910,0.32069123,0.16473864,0.10055158,-0.6243043,0.79901177,0.5381723
375,1778612597920,0.27432033,0.23405088,0.06589546,-0.52473325,0.7837401,0.4196644
376,1778612597930,0.21940747,0.28871974,-0.017328065,-0.4801401,0.72326446,0.32070425
377,1778612597940,0.14716652,0.25308737,-0.20964517,-0.52106804,0.56321776,0.047036625
378,1778612597950,0.10323621,0.20964517,-0.26577836,-0.5687156,0.54305923,-0.042760566
379,1778612597960,-0.035632357,0.10128376,-0.27407628,-0.6310238,0.48258355,-0.100792766
380,1778612597970,-0.191829,-0.027822526,-0.17352471,-0.72082096,0.19975294,0.01160644
381,1778612597980,-0.191829,-0.027822526,-0.17352471,-0.75136423,0.073303826,0.116675265
382,1778612597990,-0.35534734,-0.13886857,0.00097622897,-0.8185594,-0.089186326,0.2968805
383,1778612598000,-0.38829508,-0.25406358,0.307024,-0.9737192,-0.24312437,0.8179486
384,1778612598010,-0.4024504,-0.31263736,0.47762007,-0.8142834,0.021991149,0.9651671
385,1778612598020,-0.38390204,-0.35022214,0.6035536,-0.8142834,0.021991149,0.9651671
386,1778612598030,-0.15424417,-0.38170552,0.5920829,-0.12522738,0.70371675,1.1765264
387,1778612598040,-0.041001618,-0.35754386,0.53131264,0.68966687,1.0488557,1.2174544
388,1778612598050,0.011714748,-0.3275248,0.4761557,1.1178834,1.069625,1.2296717
389,1778612598060,0.053204484,-0.3243521,0.47444725,1.5100589,0.979217,1.287093
390,1778612598070,0.07443746,-0.358032,0.66847277,1.9895881,0.9053023,1.382388
391,1778612598080,0.45052966,-0.5130083,1.3867333,3.5527923,0.838718,1.4630222
392,1778612598090,0.77903074,-0.4829893,0.9689073,4.120897,0.21013765,1.2052372
393,1778612598100,0.9850151,-0.3785328,0.4915313,3.9596286,-0.61819565,0.91507614
394,1778612598110,1.1929518,-0.30580372,0.11983211,3.2217033,-1.6890424,0.37690386
395,1778612598120,1.1248599,-0.4058672,-0.47664383,1.8368717,-1.6242907,-1.0146471
396,1778612598130,0.95792466,-0.60184515,-0.61819696,1.1600331,-1.1129965,-1.604743
397,1778612598140,0.76194674,-0.9059405,-0.39317623,0.7696902,-0.33964106,-1.9755383
398,1778612598150,-0.25894472,-1.9705181,1.104359,1.1148291,1.7238617,-1.9639318
399,1778612598160,-1.1590278,-3.244985,1.3930788,1.3298537,3.0769281,-0.29749137
400,1778612598170,-1.0523748,-3.388979,1.4025971,1.0054842,2.7171285,0.48075095
401,1778612598180,-0.3824377,-2.5079324,1.0860548,0.806953,0.60231316,1.1972959
402,1778612598190,-0.28164205,-1.9168257,0.6555378,1.0225884,0.15577064,1.1911873
403,1778612598200,-0.22477673,-1.3789234,0.22258021,1.0464121,-0.07513642,1.1691961
404,1778612598210,-0.22477673,-1.3789234,0.22258021,1.0464121,-0.07513642,1.1691961
405,1778612598220,-0.059549972,-0.88007045,0.3328941,0.39767328,-0.29871312,0.8949176
406,1778612598230,0.33240595,-1.0001466,0.52960426,-0.40622538,-0.30482176,0.34208453
407,1778612598240,0.57402265,-1.2127205,0.5462001,-0.6933321,-0.204029,0.01038471
408,1778612598250,0.7048373,-1.3874654,0.55620646,-0.8717047,-0.18936823,-0.28038713
409,1778612598260,0.7512082,-1.5629426,0.5769514,-1.1099422,-0.20525073,-0.675617
410,1778612598270,0.6023333,-1.9556307,0.8105141,-1.5253305,-0.092240654,-1.16492
411,1778612598280,0.46297657,-2.1323283,0.90374404,-1.668273,0.01038471,-1.2186762
412,1778612598290,0.36218095,-2.2243378,0.85175985,-1.7702875,0.022602014,-1.1410962
413,1778612598300,0.32606047,-2.2611904,0.78415596,-1.7941113,-0.07574729,-1.0439687
414,1778612598310,0.22697324,-1.9768637,0.6919023,-1.5076154,-0.36285394,-0.81061816
415,1778612598320,0.17376876,-1.803095,0.8505395,-1.3494014,-0.4569272,-0.75747293
416,1778612598330,0.16742326,-1.4987555,0.87616557,-0.86926126,-0.8790351,-0.6945538
417,1778612598340,0.17206036,-1.3752626,0.7753699,-0.7452556,-1.0433578,-0.6743952
418,1778612598350,0.1415532,-1.2398108,0.6887296,-0.6072,-1.2980887,-0.67256266
419,1778612598360,0.042465962,-1.0792211,0.5835409,-0.5766568,-1.4630222,-0.6621779
420,1778612598370,-0.24503349,-0.75047606,0.38683072,-0.6084218,-1.2669345,-0.57360244
421,1778612598380,-0.3841461,-0.5981843,0.22135992,-0.59986967,-0.91813046,-0.4642576
422,1778612598390,-0.53814626,-0.44003522,0.056133166,-0.5852089,-0.66523224,-0.33414328
423,1778612598400,-0.6543175,-0.260165,-0.06955632,-0.6010914,-0.35430184,-0.11789699
424,1778612598410,-0.71899265,0.049787678,-0.113974735,-0.68111473,-0.14966199,0.38423425
425,1778612598420,-0.70239675,0.17206036,-0.14545812,-0.73364913,-0.15393804,0.6047566
426,1778612598430,-0.6355251,0.26748675,-0.18231077,-0.8350528,-0.16126843,0.9083566
427,1778612598440,-0.4724948,0.33460248,-0.22794947,-0.9456194,-0.08552113,1.1795808
428,1778612598450,0.24137263,0.35974038,-0.29604146,-1.033584,0.015882496,1.3182472
429,1778612598460,0.43881494,0.33899552,-0.21257387,-1.4795157,-0.21991149,1.0995574
430,1778612598470,0.6347929,0.29701766,-0.0021965152,-1.5436565,-0.82772243,0.829555
431,1778612598480,0.77781045,0.25089085,0.3568117,-1.2999213,-1.5216653,0.5155703
432,1778612598490,0.77781045,0.25089085,0.3568117,-1.2999213,-1.5216653,0.5155703
433,1778612598500,1.0206474,-0.105676785,0.46200037,0.54061574,-2.9236012,-0.675617
434,1778612598510,0.85859346,-0.20329969,0.16425052,0.7690793,-2.92299,-1.1074986
435,1778612598520,0.29994637,-0.2757847,-0.082491346,0.6273586,-2.1361957,-1.3646729
436,1778612598530,-0.009518232,-0.26919514,-0.18792409,0.41599923,-1.3548992,-1.2137892
437,1778612598540,-0.2506468,-0.27480847,-0.2111095,0.24129178,-0.79779,-0.9816604
438,1778612598550,-0.35583547,-0.27432033,-0.18377511,0.040927973,-0.27977628,-0.6169739
439,1778612598560,-0.37023485,-0.18865626,-0.058085624,-0.08552113,-0.009773844,-0.36285394
440,1778612598570,-0.3746279,-0.15424417,0.014887493,-0.048258353,0.045814894,-0.15454891
441,1778612598580,-0.3414361,-0.16717921,0.054912884,0.15271631,0.06414085,-0.11728613
442,1778612598590,-0.27871338,-0.21989559,0.113974735,0.5198463,0.19975294,-0.14172074
443,1778612598600,-0.118855886,-0.38707477,0.294089,1.3701707,0.5815437,-0.118507855
444,1778612598610,0.04807928,-0.5261874,0.4876264,1.853976,0.65301496,-0.093462385
445,1778612598620,0.20988922,-0.63406074,0.7241178,2.1844542,0.6389651,-0.1001819
446,1778612598630,0.9813542,-1.2503053,1.2329772,3.2980614,0.008552114,-0.21624629
447,1778612598640,1.1995413,-1.6464102,0.47493544,2.6529877,-1.0812315,-0.73548174
448,1778612598650,1.270562,-2.0686293,-0.43100512,1.3585643,0.03604105,-1.1129965
449,1778612598660,1.0987457,-2.5386834,-0.8222289,1.3585643,0.03604105,-1.1129965
450,1778612598670,0.2203837,-2.5482018,-0.2979939,0.33169982,5.195409,-1.3274102
451,1778612598680,-0.5464442,-2.3629622,0.6887296,0.8729264,5.263826,-0.52656585
452,1778612598690,-0.076633975,-1.9556307,1.6237129,2.1337523,1.1301007,0.8588765
453,1778612598700,0.16937573,-1.5880805,1.0997219,2.3860397,0.13316862,0.806953
454,1778612598710,0.008786061,-0.89154106,0.24527754,2.1099286,-0.31581733,0.53878313
455,1778612598720,0.042465962,-0.7512082,0.40391475,1.0458013,-0.64996064,-0.08979719
456,1778612598730,0.5100796,-1.1563432,1.1446284,0.67073005,-0.72082096,-0.5510005
457,1778612598740,0.5100796,-1.1563432,1.1446284,0.61819565,-0.74097955,-0.8723156
458,1778612598750,0.46029195,-2.5098848,1.5971106,0.30970868,-1.0775663,-1.6694947
459,1778612598760,0.46029195,-2.5098848,1.5971106,0.45020768,-1.1801916,-1.582141
460,1778612598770,0.2997023,-2.7915268,1.2195541,0.45020768,-1.1801916,-1.582141
461,1778612598780,0.12032023,-2.7273397,0.7336361,0.25900686,-1.3011429,-1.0861185
462,1778612598790,0.047103047,-2.3595455,0.6272271,0.02076942,-1.255328,-0.32925636
463,1778612598800,0.56670094,-1.7179189,0.5186216,-0.45875978,-1.2302825,0.32803464
464,1778612598810,0.7917217,-1.4438426,0.4937278,-0.95905846,-1.2388347,0.25167647
465,1778612598820,0.9242448,-1.185142,0.53765815,-1.7403551,-1.1765264,-0.16371189
466,1778612598830,0.673842,-1.2966762,0.37999713,-2.5124888,-0.8179486,-0.35430184
467,1778612598840,0.48201308,-1.3899059,0.302631,-2.8643472,-0.66156703,-0.41233405
468,1778612598850,0.33240595,-1.457998,0.24283697,-3.0812044,-0.6200282,-0.4428773
469,1778612598860,0.08151512,-1.4777666,0.27310005,-3.1196887,-0.6609562,-0.4098906
470,1778612598870,-0.13203497,-1.4831358,0.27212384,-2.6688702,-0.9761627,0.089186326
471,1778612598880,-0.13203497,-1.4831358,0.27212384,-2.6688702,-0.9761627,0.089186326
472,1778612598890,-0.13911264,-1.3742863,0.30458343,-2.42147,-1.1044444,0.267559
473,1778612598900,0.0156196635,-0.68580085,0.26797485,-1.6291776,-1.35551,0.8588765
474,1778612598910,0.050763905,-0.4554108,0.2767609,-1.505172,-1.3072516,0.99021256
475,1778612598920,0.10323621,-0.28261828,0.27456442,-1.46852,-1.0207558,1.0726794
476,1778612598930,0.20525214,-0.009518232,0.29726174,-1.4648548,-0.21135938,1.1765264
477,1778612598940,0.26919514,0.073217176,0.3192269,-1.3988814,0.29138273,1.1838568
478,1778612598950,0.33118567,0.12690976,0.35485923,-1.2571607,0.7086037,1.1001683
479,1778612598960,0.3333822,0.17767367,0.36291313,-1.0940597,0.94989544,0.9993755
480,1778612598970,0.26236153,0.24503349,0.3226437,-0.50701815,1.3701707,0.72082096
481,1778612598980,0.26236153,0.24503349,0.3226437,-0.50701815,1.3701707,0.72082096
482,1778612598990,0.1867038,0.24308102,0.29067218,-0.24801129,1.4520267,0.6432411
483,1778612599000,-0.016107777,0.015375607,0.12544543,0.5742133,1.1355985,0.5864306
484,1778612599010,-0.071020655,-0.051007964,0.058085624,0.8002335,0.80756384,0.7104363
485,1778612599020,-0.071020655,-0.051007964,0.058085624,0.8002335,0.80756384,0.7104363
486,1778612599030,-0.17157225,-0.076633975,0.10592084,0.46181414,0.3921755,0.7623598
487,1778612599040,-0.35119838,-0.0776102,0.026846299,0.07513642,0.32436943,0.90102625
488,1778612599050,-0.4283205,-0.05588911,-0.099575356,-0.108123146,0.8051204,1.0598512
489,1778612599060,-0.4527262,-0.038316987,-0.25528386,-0.24556783,1.5870279,1.255328
490,1778612599070,-0.12886222,-0.07858644,-0.44735694,-0.5681047,2.3958135,1.3457361
491,1778612599080,0.040513504,-0.0873725,-0.43051702,-0.7440339,2.2278256,1.1355985
492,1778612599090,0.12495731,-0.076389916,-0.3956168,-0.8167268,1.9376645,0.9761627
493,1778612599100,0.19085276,-0.07199689,-0.34778157,-0.81245077,1.4825699,0.8393288
494,1778612599110,0.24747404,-0.23014598,-0.22965786,-0.6365216,0.47403142,0.73548174
495,1778612599120,0.24747404,-0.23014598,-0.22965786,-0.56138515,0.13622294,0.7165449
496,1778612599130,0.2638259,-0.32459614,-0.18841219,-0.48380527,-0.2284636,0.6963864
497,1778612599140,0.27261195,-0.48542988,0.007565775,-0.35796702,-0.48197266,0.6450737
498,1778612599150,0.21794313,-1.1190025,1.551716,-0.084910266,-0.6200282,0.59742624
499,1778612599160,0.38902727,-1.6522676,1.8323817,1.8729129,-0.9627236,0.41233405
500,1778612599170,0.6272271,-2.1747942,1.5334117,2.339003,-0.9969321,0.23884831
501,1778612599180,0.9967298,-3.232294,-0.11665936,1.6737708,-0.07147124,-0.5717699
502,1778612599190,0.5462001,-2.7680972,-0.36315718,1.0897835,2.6529877,-0.7611381
503,1778612599200,-0.05344854,-2.148192,-0.30238694,1.3487904,2.860682,-0.3268129
504,1778612599210,-0.3141017,-1.7955291,-0.25211114,1.3860532,1.7574593,0.21135938
505,1778612599220,-0.3141017,-1.7955291,-0.25211114,1.3860532,1.7574593,0.21135938
506,1778612599230,0.24869433,-1.7020552,0.4639528,-0.018936822,0.548557,-0.042760566
507,1778612599240,0.29384494,-1.7659982,0.5034901,-0.25961772,0.7959574,-0.2742785
508,1778612599250,0.29433304,-1.9600239,0.45248213,-0.2828306,0.91507614,-0.45204028
509,1778612599260,0.29433304,-1.9600239,0.45248213,-0.2828306,0.91507614,-0.45204028
510,1778612599270,0.20305562,-2.301704,0.25992095,-0.6407976,-0.2602286,-0.62125
511,1778612599280,0.11226633,-2.3697958,0.39195594,-1.0341948,-0.29565877,-0.6310238
512,1778612599290,-0.047103047,-2.4408164,0.8080735,-1.318858,0.037873644,-0.6261369
513,1778612599300,-0.047103047,-2.4408164,0.8080735,-1.318858,0.037873644,-0.6261369
514,1778612599310,-0.014887493,-2.3951778,0.797335,-0.86132,-0.034208454,-0.6914995
515,1778612599320,-0.070532545,-2.0117638,0.6718896,-0.5204572,-0.77579886,-0.85154617
516,1778612599330,0.03807293,-1.6471423,0.5191097,-0.43188173,-0.98532563,-0.7538077
517,1778612599340,0.08664032,-1.4684924,0.4497975,-0.3481932,-0.9071349,-0.7012733
518,1778612599350,0.11983211,-1.3225462,0.39805737,-0.25534168,-0.8539896,-0.6914995
519,1778612599360,0.11983211,-1.3225462,0.39805737,-0.25534168,-0.8539896,-0.6914995
520,1778612599370,0.13252309,-1.1802609,0.33753118,-0.19425514,-0.852157,-0.7104363
521,1778612599380,0.06638357,-0.7499879,0.1637624,0.021380283,-1.0824533,-0.86620694
522,1778612599390,0.019280521,-0.6277153,0.12568948,0.0580322,-1.2009611,-0.86742866
523,1778612599400,-0.022697324,-0.48128092,0.09689073,0.10995574,-1.3426818,-0.8350528
524,1778612599410,-0.070532545,-0.3236199,0.044662476,0.13133603,-1.391551,-0.7788532
525,1778612599420,-0.16547081,-0.08712844,-0.011714748,0.09468412,-1.3616186,-0.7110472
526,1778612599430,-0.18133454,0.00707766,-0.045882765,-0.1863139,-1.0177015,-0.44043383
527,1778612599440,-0.20940112,0.08078295,-0.08127106,-0.3567453,-0.8564331,-0.3268129
528,1778612599450,-0.17084008,0.15668476,-0.08175918,-0.6267477,-0.30665436,-0.04642576
529,1778612599460,-0.08688438,0.21965154,-0.17596528,-0.5375614,-0.09407325,-0.019547688
530,1778612599470,-0.041001618,0.24503349,-0.15424417,-0.43310347,-0.21135938,-0.028710667
531,1778612599480,0.08029483,0.21452633,0.029042812,-0.09896017,-0.5626069,-0.03848451
532,1778612599490,0.14423785,0.14765464,0.057109397,0.11362094,-0.72509706,-0.076358154
533,1778612599500,0.14423785,0.14765464,0.057109397,0.11362094,-0.72509706,-0.076358154
534,1778612599510,0.23087814,0.032215554,0.061258372,0.25350907,-0.86254174,-0.14660765
535,1778612599520,0.23673552,-0.06760386,0.099575356,0.2883284,-1.070236,-0.2724459
536,1778612599530,0.23575929,-0.12910628,0.11836776,0.25350907,-1.2712106,-0.38728857
537,1778612599540,0.20110317,-0.17084008,0.200371,0.36835176,-1.1129965,-0.462425
538,1778612599550,0.16693515,-0.18743597,0.27432033,0.63041294,-0.8338311,-0.50823987
539,1778612599560,0.082735404,-0.19646609,0.18841219,1.1734722,-0.3213151,-0.45020768
540,1778612599570,0.0741934,-0.1867038,0.014887493,1.2938126,-0.20097467,-0.36163223
541,1778612599580,0.082003236,-0.15863721,-0.14423785,1.2247849,-0.1685988,-0.3005457
542,1778612599590,0.12129646,-0.15448824,-0.18987654,1.138042,-0.12644911,-0.2864958
543,1778612599600,0.10006347,-0.10128376,-0.113974735,1.0622946,-0.10323623,-0.267559
544,1778612599610,0.0959145,-0.09567044,0.255772,1.3445144,-0.15027285,-0.116675265
545,1778612599620,0.10543273,-0.208913,0.46688148,1.3445144,-0.15027285,-0.116675265
546,1778612599630,0.10543273,-0.208913,0.46688148,1.7788396,-0.058643065,-0.19792034
547,1778612599640,0.27139166,-0.6147802,0.093717985,3.104417,0.55833083,-0.66950834
548,1778612599650,0.27139166,-0.6147802,0.093717985,3.104417,0.55833083,-0.66950834
549,1778612599660,0.47151858,-0.7990434,-0.0741934,2.733011,-0.032375857,-0.95478237
550,1778612599670,0.75145227,-1.2317569,0.7060576,2.9938505,-1.3952162,-1.2712106
551,1778612599680,0.75145227,-1.2317569,0.7060576,2.9938505,-1.3952162,-1.2712106
552,1778612599690,0.775858,-2.0793676,0.39586085,3.1386256,-1.4196508,-1.4648548
553,1778612599700,0.7141115,-2.3356278,0.14252943,2.0176878,2.3335052,-1.8038851
554,1778612599710,0.4846977,-2.183336,0.8937377,0.883922,5.5552087,-1.599856
555,1778612599720,0.50641876,-1.888515,1.0589644,0.75136423,4.718323,-1.1814134
556,1778612599730,0.6472398,-1.6166352,1.0152781,0.929126,3.241251,-0.71776664
557,1778612599740,0.62503064,-1.4587301,0.9686632,1.1991285,2.2052236,-0.38423425
558,1778612599750,0.5039782,-1.6420171,0.96768695,1.3866642,1.001819,-0.22785273
559,1778612599760,0.117147475,-2.1730857,1.5597699,1.4141531,-0.08307768,-0.61391956
560,1778612599770,0.02318544,-2.2690003,1.351345,1.2168436,0.07696902,-0.70616025
561,1778612599780,0.052472305,-2.2016404,0.96768695,0.7684685,0.312763,-0.48624873
562,1778612599790,0.6355251,-1.4462832,1.163909,-0.025045475,-0.72082096,-0.03604105
563,1778612599800,0.64821607,-1.2327331,1.0196712,-0.2510656,-0.79779,-0.09773844
564,1778612599810,0.6555378,-1.138771,0.84931916,-0.2510656,-0.79779,-0.09773844
565,1778612599820,0.60062486,-1.3591548,0.86884385,-1.8955148,0.11301007,-0.41050145
566,1778612599830,0.52789587,-1.4828918,0.8332114,-2.1319196,0.081855945,-0.43982297
567,1778612599840,0.45394647,-1.5914973,0.7909895,-2.3530529,-0.17287487,-0.4129449
568,1778612599850,0.3790209,-1.6937572,0.7070338,-2.5143213,-0.43982297,-0.31703907
569,1778612599860,0.30165476,-1.7581885,0.57280236,-2.6933048,-0.7965683,-0.053145275
570,1778612599870,0.26675457,-1.7030314,0.4583395,-2.7629435,-0.829555,0.11301007
571,1778612599880,0.22575295,-1.6312786,0.37609223,-2.8136454,-0.8142834,0.2406809
572,1778612599890,0.2186753,-1.4670281,0.32386398,-2.869845,-0.72204274,0.4392121
573,1778612599900,0.18572757,-1.1700104,0.3065359,-2.8893926,-0.54611355,0.711658
574,1778612599910,0.17742962,-0.96329397,0.26919514,-2.9071076,-0.45448375,0.82711154
575,1778612599920,0.17401282,-0.79489446,0.22990192,-2.932764,-0.36651915,0.88514376
576,1778612599930,0.15033926,-0.63015586,0.1849954,-2.9614747,-0.28038713,0.8894198
577,1778612599940,0.030019043,-0.41196862,0.19109683,-2.9700267,-0.20097467,0.8717047
578,1778612599950,-0.0056133163,-0.33484653,0.2596769,-2.8765645,0.06719518,0.8894198
579,1778612599960,0.008297946,-0.25552794,0.3184947,-2.7592783,0.22724187,0.8857546
580,1778612599970,0.024405725,-0.07907455,0.40903994,-2.107485,0.6169739,0.5839872
581,1778612599980,-0.0046370877,-0.018792408,0.4024504,-1.790446,0.539394,0.5510005
582,1778612599990,-0.010494461,0.029042812,0.38048524,-1.4416419,0.4025602,0.59803706
583,1778612600000,0.0012202862,0.05515694,0.36584184,-1.1624765,0.3042109,0.66523224
584,1778612600010,0.058573738,0.04075756,0.3738957,-0.30909783,0.13500121,0.89858276
585,1778612600020,0.13935669,0.008542004,0.34119204,0.07574729,0.0036651916,0.97066486
586,1778612600030,0.19768637,-0.0370967,0.298482,0.26389378,-0.20097467,0.9773844
587,1778612600040,0.23771177,-0.088104665,0.24112856,0.35185838,-0.6017023,0.95111716
588,1778612600050,0.27846932,-0.18475133,0.2853029,0.27183503,-1.1911873,0.7684685
589,1778612600060,0.20134723,-0.2020794,0.42783237,0.33841935,-1.1435398,0.602924
590,1778612600070,0.04881145,-0.17157225,0.5256993,0.59742624,-0.7360926,0.5045747
591,1778612600080,-0.11275445,-0.10006347,0.26626647,0.4111123,2.460565,0.7703011
592,1778612600090,-0.24064046,0.0134231495,-0.5662128,0.4111123,2.460565,0.7703011
593,1778612600100,-0.30629185,0.033435844,-0.7246059,-0.073303826,3.118467,0.9682214
594,1778612600110,-0.25772443,0.065163285,-0.83223516,-0.43249258,3.1569517,1.1166617
595,1778612600120,-0.16473864,0.05735345,-0.7856203,-0.83077675,2.751337,1.3072516
596,1778612600130,0.2042759,-0.10030753,-0.30726805,-0.7855727,1.5790867,1.4947872
597,1778612600140,0.2894519,-0.14106509,-0.19304928,-0.657291,1.2174544,1.3994923
598,1778612600150,0.2894519,-0.14106509,-0.19304928,-0.657291,1.2174544,1.3994923
599,1778612600160,0.30677995,-0.19963883,-0.056377225,-0.58459806,0.91690874,1.2815952
600,1778612600170,0.18743597,-0.7909895,1.4731296,0.19425514,-0.05497787,1.0170907
601,1778612600180,0.21769907,-1.022844,1.4570218,1.106277,-0.31887165,0.98837996
602,1778612600190,0.18743597,-1.1778203,0.9808661,1.7708983,-0.49846604,0.93462384
603,1778612600200,0.47225076,-1.7762486,0.038561042,1.8839084,0.17104226,0.6786713
604,1778612600210,0.60306543,-2.2201886,-0.059794027,1.4569136,0.78984874,0.35613444
605,1778612600220,0.8066092,-2.7573588,0.23112221,1.0567969,1.0958922,-0.058643065
606,1778612600230,0.29945824,-2.4732761,0.026358182,0.9388999,0.9425651,-0.34269542
607,1778612600240,-0.29921418,-1.7452533,-0.18011424,1.0708468,0.8436049,-0.035430185
608,1778612600250,-0.29921418,-1.7452533,-0.18011424,0.95417154,0.9615019,0.21624629
609,1778612600260,0.18841219,-1.6293261,0.7829357,0.38056904,0.72509706,0.3145956
610,1778612600270,0.053936653,-1.8397036,0.4915313,-0.02565634,0.34513888,-0.14905111
611,1778612600280,-0.09615856,-2.127203,0.3109289,-0.27550024,0.63224554,-0.32253686
612,1778612600290,-0.24649782,-2.4071367,0.3328941,-0.45142943,0.9230174,-0.33964106
613,1778612600300,-0.27920148,-2.5220876,0.54766446,-0.5149594,0.8338311,-0.24740042
614,1778612600310,0.18450728,-2.373945,0.8925173,-0.26328292,-0.5522222,-0.54061574
615,1778612600320,0.21940747,-2.1254945,0.6460195,-0.10323623,-1.0806206,-0.7715228
616,1778612600330,0.21891935,-1.9282963,0.3738957,-0.02687807,-1.2705997,-0.97494096
617,1778612600340,0.23331872,-1.8577638,0.33142975,-0.07452556,-1.2596041,-1.1099422
618,1778612600350,0.21062139,-1.8553232,0.35022214,-0.3182608,-1.5241088,-1.3133603
619,1778612600360,0.17547716,-1.8467811,0.32728076,-0.3182608,-1.5241088,-1.3133603
620,1778612600370,0.06955632,-1.7469617,0.20915705,-0.6035349,-1.9352211,-1.2522738
621,1778612600380,0.06955632,-1.7469617,0.20915705,-0.72265357,-1.9920316,-1.1539245
622,1778612600390,-0.049299564,-1.3423148,0.1381364,-1.0091494,-1.8081611,-0.8014552
623,1778612600400,-0.049299564,-1.3423148,0.1381364,-1.0714576,-1.6969837,-0.6383542
624,1778612600410,-0.014643434,-1.2029582,0.12861817,-1.1001683,-1.5693128,-0.46303585
625,1778612600420,-0.040269446,-0.6962953,0.21379416,-0.9798279,-1.4947872,-0.2883284
626,1778612600430,-0.03929322,-0.58305275,0.17718557,-0.84238315,-1.4801265,-0.2773328
627,1778612600440,-0.045394648,-0.4825012,0.11275445,-0.73914695,-1.387275,-0.26511553
628,1778612600450,-0.027822526,-0.37218732,0.043198135,-0.6072,-1.1820242,-0.25473082
629,1778612600460,0.012690976,-0.12813005,-0.026358182,-0.42271876,-0.9999864,-0.27183503
630,1778612600470,0.026114125,-0.018304294,-0.029530926,-0.38728857,-1.0946705,-0.2932153
631,1778612600480,0.045638707,0.08151512,-0.028798755,-0.38728857,-1.0946705,-0.2932153
632,1778612600490,0.082003236,0.17572121,-0.036852647,-0.35918877,-1.3267993,-0.32070425
633,1778612600500,0.07834238,0.26699865,-0.04075756,-0.18020524,-1.736079,-0.4642576
634,1778612600510,0.063943,0.27724904,-0.013667206,-0.01160644,-1.7116444,-0.47586402
635,1778612600520,0.034168016,0.24747404,0.028798755,0.14110987,-1.6303993,-0.4428773
636,1778612600530,0.16937573,-0.021721095,0.10665302,0.7049385,-1.1264355,-0.22907446
637,1778612600540,0.24161668,-0.114462845,0.07028849,0.7049385,-1.1264355,-0.22907446
638,1778612600550,0.28749946,-0.17572121,0.06760386,1.0097603,-0.68477994,-0.24923302
639,1778612600560,0.35485923,-0.21672285,0.07858644,1.1551461,-0.5345071,-0.28221974
640,1778612600570,0.41465324,-0.22526483,0.24405725,1.5057828,-0.5137377,-0.45875978
641,1778612600580,0.41514137,-0.19353738,0.20940112,1.781894,-0.54550266,-0.59620446
642,1778612600590,0.41514137,-0.19353738,0.20940112,1.9590448,-0.50518554,-0.7128797
643,1778612600600,0.14204131,-0.07492557,-0.11031388,2.112372,-0.3726278,-0.829555
644,1778612600610,0.04881145,-0.04905551,-0.1044565,2.1502457,-0.070249505,-0.89552844
645,1778612600620,-0.05759751,-0.016351834,-0.065407336,2.1368067,0.15760323,-0.86437434
646,1778612600630,-0.14814276,0.0056133163,-0.03904916,2.1746802,0.49663344,-0.77640975
647,1778612600640,-0.24405725,-0.044662476,0.107873306,2.2223277,0.84788096,-0.66645396
648,1778612600650,-0.3863426,-0.14350566,0.23527117,2.2779164,1.2932017,-0.14477506
649,1778612600660,-0.34265637,-0.3414361,0.43954712,2.198504,1.2980887,0.15760323
650,1778612600670,-0.25015867,-0.58280873,0.3990336,2.0512855,1.2492194,0.3109304
651,1778612600680,0.08908089,-0.861278,0.020744866,1.6475036,1.4721853,0.3231477
652,1778612600690,0.08908089,-0.861278,0.020744866,1.1392636,1.8716911,0.16249016
653,1778612600700,0.60721445,-1.3496367,0.9608534,3.2265902,-1.2370021,-0.46181414
654,1778612600710,0.7438865,-1.8135895,0.8268659,3.916868,-1.813659,-0.7098254
655,1778612600720,0.7734174,-2.7500372,0.29823795,3.7409387,-0.46670106,-1.4703526
656,1778612600730,0.86469483,-2.7256315,0.51788944,2.8716774,1.0115929,-1.6670512
657,1778612600740,0.58329684,-2.0661886,0.7089863,2.4123068,1.8790215,-1.5063937
658,1778612600750,0.81295466,-0.99404514,0.60843474,1.72264,2.488054,-0.06169739
659,1778612600760,0.8393129,-0.77732235,0.6782351,1.4196508,2.2137756,0.35124752
660,1778612600770,0.8070973,-0.9313224,1.0194272,0.99082345,1.858252,0.41538838
661,1778612600780,0.53912246,-1.087031,1.3064384,0.7837401,1.8038851,0.100792766
662,1778612600790,0.30043447,-1.2622641,1.2180897,0.657291,1.8741345,-0.16982053
663,1778612600800,0.06931226,-1.7149903,1.2168695,0.25411993,1.5161675,-0.64873886
664,1778612600810,0.041733786,-1.8907114,1.308391,0.19486602,1.0317514,-0.63713247
665,1778612600820,-0.027334413,-1.978328,1.3100992,0.14782938,0.3182608,-0.52473325
666,1778612600830,-0.110801995,-1.7601409,1.0938646,-0.19242255,-0.7012733,-0.12461651
667,1778612600840,0.33118567,-1.5319474,1.0867869,-0.46731192,-1.2657127,0.0580322
668,1778612600850,0.33118567,-1.5319474,1.0867869,-0.46731192,-1.2657127,0.0580322
669,1778612600860,0.8175918,-1.3454876,0.9679311,-0.68294734,-1.491733,0.009162978
670,1778612600870,0.9059405,-1.3108315,0.9257092,-1.2498302,-1.577254,-0.13316862
671,1778612600880,0.9364477,-1.343047,0.88324314,-1.9688187,-1.0903945,-0.24495697
672,1778612600890,0.84468216,-1.4052817,0.8546885,-2.3408356,-0.72204274,-0.34574974
673,1778612600900,0.84468216,-1.4052817,0.8546885,-2.896723,-0.45937067,-0.48380527
674,1778612600910,0.29091623,-1.5009521,0.5806122,-3.0909781,-0.48563787,-0.49235737
675,1778612600920,0.14057697,-1.5243815,0.5266756,-3.1563408,-0.63591075,-0.45753807
676,1778612600930,0.034900185,-1.5482991,0.35510328,-3.1813862,-0.75441855,-0.40866885
677,1778612600940,-0.079562664,-1.5607461,0.22599702,-3.1948252,-0.82527894,-0.3286455
678,1778612600950,-0.22111587,-1.5031487,0.11251039,-3.14168,-0.9993755,0.06780604
679,1778612600960,-0.17450093,-1.411627,0.12886222,-3.0360003,-0.9810496,0.27916542
680,1778612600970,-0.0873725,-1.2734908,0.21428227,-2.819754,-0.9388999,0.5742133
681,1778612600980,0.15009521,-0.5449798,0.2294138,-2.3768766,-0.929126,1.1111639
682,1778612600990,0.15009521,-0.5449798,0.2294138,-2.3768766,-0.929126,1.1111639
683,1778612601000,0.1615659,-0.38756293,0.1867038,-2.3231206,-0.73853606,1.2302825
684,1778612601010,0.17132819,-0.26187342,0.20574026,-2.271808,-0.4783075,1.2834278
685,1778612601020,0.21403822,-0.018792408,0.3607166,-1.8594738,0.54244834,1.219287
686,1778612601030,0.22355644,0.013911263,0.34168017,-1.6853772,0.548557,1.2156218
687,1778612601040,0.22355644,0.013911263,0.34168017,-1.6853772,0.548557,1.2156218
688,1778612601050,0.32630453,0.043930303,0.22013964,-1.1129965,0.5161811,1.0965031
689,1778612601060,0.33948365,0.030751213,0.191829,-0.88514376,0.49357912,0.9932669
690,1778612601070,0.32898918,-0.015375607,0.2020794,-0.88514376,0.49357912,0.9932669
691,1778612601080,0.34241232,-0.06711575,0.21306199,0.095294975,0.30176744,0.6010914
692,1778612601090,0.32898918,-0.17206036,0.2877435,0.5186246,-0.2773328,0.40866885
693,1778612601100,0.3082443,-0.18353106,0.2421048,0.57604593,-0.4728097,0.34147367
694,1778612601110,0.22306833,-0.13691612,0.13227904,0.59742624,-0.38545597,0.22418754
695,1778612601120,0.08102701,-0.0924977,0.062478654,0.5546656,0.021380283,0.15271631
696,1778612601130,-0.15277983,-0.088836834,0.0370967,0.49541172,0.4905248,0.1685988
697,1778612601140,-0.22453266,-0.06345488,0.01586372,0.45937067,1.2370021,0.2828306
698,1778612601150,-0.25040275,-0.023673553,-0.00976229,0.4447099,1.5845845,0.4269948
699,1778612601160,-0.1466784,0.017084008,-0.15668476,0.3652974,1.9559906,0.6579019
700,1778612601170,-0.1466784,0.017084008,-0.15668476,0.3652974,1.9559906,0.6579019
701,1778612601180,-0.014399378,0.006833603,-0.14985114,0.23335053,1.7110336,0.870483
702,1778612601190,0.037828874,0.0046370877,-0.12080834,0.27000242,1.568091,0.84299403
703,1778612601200,0.21330604,-0.041977845,-0.020256752,0.44898596,1.2852604,0.6414085
704,1778612601210,0.2848148,-0.13154685,0.032459613,0.5448918,0.9450085,0.48197266
705,1778612601220,0.35656762,-0.2774931,0.09298581,0.63224554,0.4868596,0.3640757
706,1778612601230,0.41562948,-0.43100512,0.20110317,0.63224554,0.4868596,0.3640757
707,1778612601240,0.41562948,-0.43100512,0.20110317,0.7104363,0.10995574,0.29871312
708,1778612601250,0.51740134,-0.9442575,0.50812715,0.97310835,-0.65240407,0.13927728
709,1778612601260,0.65041256,-1.9075515,0.83223516,1.1844677,-0.5155703,-0.025045475
710,1778612601270,0.7421781,-2.3934696,0.5515694,1.1936307,0.23762658,-0.03176499
711,1778612601280,0.7663397,-3.0590136,0.24649782,1.0073168,1.7550159,-0.039095376
712,1778612601290,0.536926,-2.9877486,0.21794313,0.8668178,2.2944098,-0.13744467
713,1778612601300,-0.10884953,-2.298043,0.23746772,0.92179567,2.411696,-0.08124508
714,1778612601310,-0.29116032,-1.8294531,0.13057062,1.0720685,1.0299188,0.16676621
715,1778612601320,-0.29116032,-1.8294531,0.13057062,1.0720685,1.0299188,0.16676621
716,1778612601330,-0.12983845,-2.1796753,0.38268176,-0.2406809,-0.50640726,-0.52778757
717,1778612601340,-0.09859913,-2.4171429,0.46785772,-0.5742133,-0.4343252,-0.462425
718,1778612601350,0.15082738,-2.550398,0.37926495,-0.81245077,-0.18875736,-0.13194689
719,1778612601360,0.21403822,-2.37907,0.38878322,-0.98349303,-0.14172074,-0.1777618
720,1778612601370,0.24332508,-2.1645436,0.4751795,-1.0897835,-0.13622294,-0.21868975
721,1778612601380,0.37267542,-2.0451996,0.6325964,-1.1264355,-0.11728613,-0.2742785
722,1778612601390,0.50568664,-1.9927274,0.8495633,-0.99204516,-0.17592919,-0.35979962
723,1778612601400,0.50568664,-1.9927274,0.8495633,-0.7495316,-0.40011674,-0.45265114
724,1778612601410,0.3973252,-1.9004737,0.6203935,-0.5045747,-0.72692966,-0.657291
725,1778612601420,0.26162934,-1.769171,0.56523657,-0.40439278,-0.87109387,-0.7031059
726,1778612601430,0.1598575,-1.6207842,0.53033644,-0.3036,-0.9584476,-0.7153232
727,1778612601440,0.08664032,-1.4601945,0.47713193,-0.13927728,-1.0329732,-0.68539083
728,1778612601450,0.14106509,-0.8942258,0.20793676,0.122783914,-1.1612549,-0.5332854
729,1778612601460,0.14106509,-0.8942258,0.20793676,0.2180789,-1.1728612,-0.46609017
730,1778612601470,0.17816179,-0.54986095,0.06638357,0.3200934,-1.0580186,-0.4813618
731,1778612601480,0.084687866,-0.23942018,-0.071020655,0.3744604,-0.8332202,-0.59498274
732,1778612601490,0.012935034,-0.10055158,-0.1261776,0.3726278,-0.6988298,-0.6230826
733,1778612601500,-0.041977845,0.0026846298,-0.15448824,0.36285394,-0.61575216,-0.6444628
734,1778612601510,-0.17791773,0.2203837,-0.1403329,0.3475823,-0.58276546,-0.6542367
735,1778612601520,-0.22282428,0.2945771,-0.102748096,0.3213151,-0.77457714,-0.56138515
736,1778612601530,-0.22575295,0.35437113,-0.023673553,0.31520647,-0.98471475,-0.45448375
737,1778612601540,-0.12422514,0.4080637,0.08517598,0.34208453,-1.201572,-0.33841935
738,1778612601550,-0.020744866,0.3414361,0.090789296,0.48747048,-1.3017539,-0.19242255
739,1778612601560,0.046858992,0.28408262,0.026114125,0.5186246,-1.2284501,-0.18997909
740,1778612601570,0.08688438,0.22624107,-0.024161667,0.42271876,-1.1319333,-0.21930063
741,1778612601580,0.14301755,0.0605262,0.107873306,0.06414085,-1.1123856,-0.2761111
742,1778612601590,0.14301755,0.0605262,0.107873306,0.06414085,-1.1123856,-0.2761111
743,1778612601600,0.13569583,-0.009274175,0.25357547,0.14110987,-1.210735,-0.29810223
744,1778612601610,0.13569583,-0.009274175,0.25357547,0.14110987,-1.210735,-0.29810223
745,1778612601620,0.051496077,-0.045394648,0.2882316,0.3707952,-0.96883225,-0.26939157
746,1778612601630,0.058817793,-0.06321083,0.29067218,0.62796944,-0.37323865,-0.10262536
747,1778612601640,0.058817793,-0.06321083,0.29067218,0.62796944,-0.37323865,-0.10262536
748,1778612601650,-0.18279888,-0.17572121,0.43173727,1.6713274,0.10140363,-0.08368854
749,1778612601660,-0.21208574,-0.24308102,-0.15229172,1.509448,0.51068336,-0.11728613
750,1778612601670,-0.2997023,-0.29994637,-0.66896087,0.88697636,0.99204516,-0.16493362
751,1778612601680,-0.26992732,-0.41562948,-0.61111933,0.092240654,1.1685852,-0.13500121
752,1778612601690,-0.065407336,-0.5444917,-0.3961049,0.092240654,1.1685852,-0.13500121
753,1778612601700,1.2373703,-1.2842293,1.394055,3.1606169,-1.4532484,-0.057421334
754,1778612601710,1.9795485,-2.0151806,1.8765563,4.21497,-2.5644124,-0.60231316
755,1778612601720,2.4034758,-3.1642022,0.68458056,4.7806315,-3.2626312,-1.9028453
756,1778612601730,2.5008545,-3.8827069,-0.114218794,3.6688566,-1.3316863,-3.1270192
757,1778612601740,-0.5559624,-2.1564898,0.4166057,1.2461652,3.9962804,-2.2687535
758,1778612601750,-0.83443177,-1.6544641,0.3018988,0.25411993,4.3267584,-0.06291912
759,1778612601760,-0.30287504,-1.5426859,0.45321432,-0.04886922,3.5246925,1.0592403
760,1778612601770,0.0993313,-1.5236495,0.7660957,0.15027285,2.6603181,1.1954633
761,1778612601780,0.27651685,-1.6437255,1.1133891,0.60903263,1.5760323,0.82344633
762,1778612601790,0.3053156,-1.9871141,1.147069,0.7244862,0.90285885,0.321926
763,1778612601800,0.3053156,-1.9871141,1.147069,0.039095376,0.6310238,-0.20525073
764,1778612601810,0.28725538,-1.944404,0.989164,-0.321926,0.10323623,-0.23518312
765,1778612601820,0.7409578,-1.8516623,1.0694588,-0.7690793,-1.210735,-0.36285394
766,1778612601830,0.8122225,-1.8528826,1.0828819,-0.86620694,-1.2394456,-0.45081854
767,1778612601840,0.8000197,-1.8077321,1.0640897,-1.0512991,-1.1600331,-0.45081854
768,1778612601850,0.7809832,-1.7506226,1.1111927,-1.3072516,-1.0451905,-0.39095375
769,1778612601860,0.7809832,-1.7506226,1.1111927,-1.3072516,-1.0451905,-0.39095375
770,1778612601870,0.81246656,-1.5914973,0.95524013,-1.6022996,-1.03786,-0.6041457
771,1778612601880,0.76121455,-1.5534244,0.8754333,-1.6664404,-1.0280862,-0.73548174
772,1778612601890,0.53765815,-1.4062579,0.53082454,-1.7849482,-0.9468411,-0.8533788
773,1778612601900,0.55913514,-1.377215,0.27310005,-1.863139,-0.8142834,-0.8246681
774,1778612601910,0.39659303,-1.2515256,0.24747404,-1.9376645,-0.67256266,-0.77763146
775,1778612601920,0.30409533,-1.1231514,0.17279254,-2.021964,-0.5644395,-0.5900958
776,1778612601930,0.21257387,-0.83223516,0.19402552,-2.1355848,-0.4392121,0.010995574
777,1778612601940,0.21623473,-0.6665203,0.21330604,-2.1587977,-0.46670106,0.18753563
778,1778612601950,0.21306199,-0.528384,0.19231711,-2.1423044,-0.44043383,0.29138273
779,1778612601960,0.12983845,-0.41074833,0.1295944,-2.0977113,-0.2657264,0.32803464
780,1778612601970,0.039781332,-0.3248402,0.082003236,-2.0653355,-0.06047566,0.36835176
781,1778612601980,-0.06833603,-0.20866893,0.073461235,-1.9248364,0.3659083,0.7067711
782,1778612601990,-0.037584815,-0.19841854,0.052472305,-1.8808541,0.5467244,0.7855727
783,1778612602000,0.0078098318,-0.18865626,0.011470691,-1.6707164,0.98715824,0.8136725
784,1778612602010,0.009274175,-0.1261776,0.021721095,-1.4923438,1.2950343,0.8582657
785,1778612602020,0.021477038,-0.048323333,0.056377225,-1.1618657,1.8044959,0.947452
786,1778612602030,0.03099527,0.011958805,0.1210524,-0.7715228,2.171015,1.0451905
787,1778612602040,0.113974735,0.041733786,0.2323425,-0.08979719,2.0103576,1.1643091
788,1778612602050,0.15936938,0.03441207,0.23795582,0.16126843,1.4544702,1.1814134
789,1778612602060,0.20403185,0.0012202862,0.17840585,0.25717425,0.9578367,1.1685852
790,1778612602070,0.19500175,-0.015375607,-0.0078098318,0.19486602,0.108123146,0.93279123
791,1778612602080,0.057109397,0.05198419,-0.0622346,-0.030543262,0.076358154,0.6927212
792,1778612602090,0.057109397,0.05198419,-0.0622346,-0.030543262,0.076358154,0.6927212
793,1778612602100,-0.1147069,0.07175283,-0.06980037,-0.226631,0.52778757,0.5882632
794,1778612602110,-0.24454537,-0.0034168016,0.003172744,-0.32436943,0.96761054,0.7415904
795,1778612602120,-0.27139166,-0.0690682,0.053204484,-0.3023783,1.2052372,0.89369583
796,1778612602130,-0.26821893,-0.107873306,0.048323333,-0.3115413,1.3213016,1.001819
797,1778612602140,-0.25162303,-0.12080834,0.093473926,-0.33658674,1.3561208,1.1392636
798,1778612602150,-0.23795582,-0.136428,0.18157859,-0.33658674,1.3561208,1.1392636
799,1778612602160,-0.19744232,-0.19890666,0.4685899,-0.08552113,0.8344419,1.3139712
800,1778612602170,-0.15107143,-0.2506468,0.4617563,0.17104226,0.6536258,1.2565498
801,1778612602180,-0.13227904,-0.30409533,0.3824377,0.3555236,0.6872234,1.1746938
802,1778612602190,-0.06955632,-0.45174995,0.43515408,0.93279123,1.1527027,1.047023
803,1778612602200,0.12422514,-0.61892915,0.5459561,1.3756685,1.4056009,0.9468411
804,1778612602210,0.3778006,-0.80416864,0.7663397,1.7806722,1.5308284,0.8197812
805,1778612602220,0.77951884,-1.0233321,1.0848345,2.4452937,1.4062119,0.52412236
806,1778612602230,1.6046765,-1.517548,0.85542065,2.6725354,-0.91629785,-0.46853364
807,1778612602240,1.9195102,-2.01152,0.40000984,1.8106046,-2.7250698,-1.2651019
808,1778612602250,1.9734468,-2.5438087,0.10470056,0.63591075,-3.0805933,-2.0616703
809,1778612602260,-0.5957437,-3.0753655,0.44320798,-0.40744713,3.590055,-0.48808134
810,1778612602270,-0.5227706,-3.068776,0.507395,-0.48563787,3.4153476,0.65668017
811,1778612602280,-0.38609856,-2.9897013,0.7604824,-0.5522222,2.5326474,1.0958922
812,1778612602290,-0.1466784,-2.6511939,0.78659654,-0.5729916,1.056186,1.1954633
813,1778612602300,0.2723679,-1.7955291,0.31995904,-0.5552765,-0.30726522,0.17959438
814,1778612602310,0.2779812,-1.6442136,0.18938842,-0.5907067,-0.10995574,-0.37384954
815,1778612602320,0.34729347,-1.6915607,0.2255089,-0.6969972,-0.002443461,-0.6102544
816,1778612602330,0.49568027,-1.8655735,0.29189247,-0.8570439,-0.14294247,-0.6585127
817,1778612602340,0.626739,-2.0825405,0.39293218,-1.0977248,-0.5131268,-0.6640105
818,1778612602350,0.46639338,-2.0688734,0.5640163,-1.3255776,-1.1679744,-0.6035349
819,1778612602360,0.46639338,-2.0688734,0.5640163,-1.3255776,-1.1679744,-0.6035349
820,1778612602370,0.40830776,-1.8924199,0.5806122,-1.1502593,-1.1484267,-0.61758476
821,1778612602380,0.29604146,-1.3296238,0.5042223,-0.79473567,-1.0409144,-0.7067711
822,1778612602390,0.255772,-1.1812371,0.46444094,-0.66950834,-1.061073,-0.67011917
823,1778612602400,0.2255089,-1.056768,0.4300289,-0.5332854,-1.1746938,-0.59803706
824,1778612602410,0.099087246,-0.77122086,0.3590082,-0.36041048,-1.1184943,-0.5717699
825,1778612602420,0.011470691,-0.64138246,0.32947728,-0.29626966,-1.0531317,-0.5626069
826,1778612602430,-0.08078295,-0.5015376,0.27041543,-0.226631,-0.97433007,-0.52839845
827,1778612602440,-0.13691612,-0.37169918,0.17084008,-0.14294247,-0.9034697,-0.4550946
828,1778612602450,-0.17572121,-0.11543907,-0.09664667,0.065973446,-0.6407976,-0.22907446
829,1778612602460,-0.10933765,-0.018304294,-0.17206036,0.21319197,-0.4605924,-0.100792766
830,1778612602470,-0.022941383,0.09054524,-0.22282428,0.34880406,-0.33658674,-0.06963864
831,1778612602480,0.058085624,0.23405088,-0.24405725,0.4428773,-0.29871312,-0.081855945
832,1778612602490,0.06272271,0.28579104,-0.20769271,0.5546656,-0.28771752,-0.106901415
833,1778612602500,0.06833603,0.31581008,-0.1483868,0.7330383,-0.40500367,-0.116675265
834,1778612602510,0.079562664,0.3360668,-0.053936653,0.8454375,-0.63591075,-0.11484267
835,1778612602520,0.079562664,0.3360668,-0.053936653,0.8454375,-0.63591075,-0.11484267
836,1778612602530,0.1901206,0.05418071,0.093473926,1.0946705,-1.4862351,-0.13927728
837,1778612602540,0.1849954,-0.06199054,0.01952458,1.065349,-1.4349225,-0.33414328
838,1778612602550,-0.020500809,-0.20696054,-0.16229807,0.99021256,-1.2070698,-0.4129449
839,1778612602560,-0.020500809,-0.20696054,-0.16229807,0.99021256,-1.2070698,-0.4129449
840,1778612602570,-0.11299851,-0.17206036,-0.13081467,0.91446525,-0.8784242,-0.27672195
841,1778612602580,-0.11299851,-0.17206036,-0.13081467,0.93584555,-0.7788532,-0.18509217
842,1778612602590,0.08005078,-0.10348027,-0.048567392,1.1093313,-0.51251596,-0.081855945
843,1778612602600,0.12520137,0.009274175,0.007565775,1.2449434,-0.34697145,-0.10262536
844,1778612602610,0.12520137,0.009274175,0.007565775,1.2449434,-0.34697145,-0.10262536
845,1778612602620,0.117635585,0.029286869,0.13569583,1.2864822,-0.5045747,-0.08246681
846,1778612602630,-0.084687866,-0.073461235,0.49641246,1.4935656,-0.44837508,-0.14172074
847,1778612602640,-0.24869433,-0.082735404,0.41196862,2.121535,0.226631,-0.16798794
848,1778612602650,-0.38439015,-0.12202863,0.22184804,2.2992969,0.6151413,-0.032986723
849,1778612602660,-0.4790844,-0.19109683,0.1666911,2.261423,0.79229224,0.21135938
850,1778612602670,-0.47835222,-0.38756293,0.208913,2.0372355,0.87598073,0.48563787
851,1778612602680,0.49079913,-0.9706156,0.72607034,0.95905846,0.4166101,0.44348818
852,1778612602690,0.49079913,-0.9706156,0.72607034,0.95905846,0.4166101,0.44348818
853,1778612602700,0.79709095,-1.2046666,1.897057,1.5155567,-0.096516706,0.2669481
854,1778612602710,1.5807588,-2.1713774,1.3232784,3.780645,-2.1728477,-0.6377433
855,1778612602720,1.6283499,-2.8313081,-1.4992436,1.3329079,1.9669861,-1.9303342
856,1778612602730,0.7241178,-2.5809054,-0.36047253,0.007941248,2.8643472,-1.8380935
857,1778612602740,0.30165476,-2.294138,2.4227564,-0.14049901,2.302351,-1.1624765
858,1778612602750,0.49201941,-2.307073,1.8855863,-0.14049901,2.302351,-1.1624765
859,1778612602760,0.53887844,-2.1125596,0.9308343,0.46975538,2.888171,0.45875978
860,1778612602770,0.5508372,-1.9705181,1.1087521,-0.23273966,2.5851817,0.462425
861,1778612602780,0.36388937,-1.9165816,1.3547617,-0.27672195,1.319469,0.26328292
862,1778612602790,0.11861181,-1.7379317,0.79440635,0.30482176,-0.53023106,-0.29871312
863,1778612602800,0.11861181,-1.7379317,0.79440635,0.30482176,-0.53023106,-0.29871312
864,1778612602810,0.39464056,-1.5868602,0.87958235,-0.2443461,-1.2932017,-0.5558874
865,1778612602820,0.6240544,-1.607117,0.80343646,-0.7629707,-1.6242907,-0.7104363
866,1778612602830,0.6743302,-1.6588572,0.8346757,-1.1911873,-1.6646078,-0.7470882
867,1778612602840,0.6667644,-1.7479379,0.83028275,-1.4966198,-1.5326608,-0.71837753
868,1778612602850,0.63381666,-1.8687464,0.68311626,-1.8918496,-1.2174544,-0.59498274
869,1778612602860,0.50690687,-1.9029144,0.75486904,-2.4233024,-1.2290609,-0.3830125
870,1778612602870,0.4002539,-1.8040712,0.63235235,-2.339003,-1.6798794,-0.2669481
871,1778612602880,0.36022848,-1.7938206,0.5210622,-2.2644775,-1.6242907,-0.24617869
872,1778612602890,0.20012695,-1.7210917,0.4378387,-2.2644775,-1.6242907,-0.24617869
873,1778612602900,0.20012695,-1.7210917,0.4378387,-2.1252003,-1.5693128,-0.19120082
874,1778612602910,0.01854835,-1.2041785,0.24796216,-1.5149459,-1.4159856,0.29565877
875,1778612602920,0.06296677,-0.9022797,0.16083373,-1.400714,-1.5015068,0.45570546
876,1778612602930,0.15326795,-0.47176263,0.10470056,-1.3481796,-1.4355333,0.5626069
877,1778612602940,0.18353106,-0.27529657,0.12056428,-1.3396275,-1.1472049,0.59803706
878,1778612602950,0.1615659,-0.13569583,0.14887492,-1.382388,-0.8949176,0.5564982
879,1778612602960,0.06199054,-0.008786061,0.15448824,-1.4813483,-0.58032197,0.54367006
880,1778612602970,-0.11153416,0.2203837,0.16986385,-1.6841555,0.09407325,0.8210029
881,1778612602980,-0.11153416,0.2203837,0.16986385,-1.6841555,0.09407325,0.8210029
882,1778612602990,-0.13032657,0.25015867,0.20549619,-1.6187929,0.25289822,0.9077458
883,1778612603000,-0.13398743,0.24747404,0.2421048,-1.400714,0.41905355,1.0354166
884,1778612603010,0.07590181,0.10640897,0.16303024,-0.35124752,0.54244834,1.205848
885,1778612603020,0.07590181,0.10640897,0.16303024,-0.005497787,0.43799037,1.1612549
886,1778612603030,0.13716017,0.032215554,0.10909359,-0.005497787,0.43799037,1.1612549
887,1778612603040,0.19500175,-0.1010397,0.0021965152,0.31948254,0.11484267,1.0684034
888,1778612603050,0.21574661,-0.18426323,-0.024161667,0.3475823,-0.06658431,0.9621128
889,1778612603060,0.20744865,-0.20793676,0.002928687,0.3481932,-0.05131268,0.91996306
890,1778612603070,0.18377511,-0.21794313,0.055645052,0.3585779,-0.02443461,0.8533788
891,1778612603080,0.039537273,-0.17523311,0.119588055,0.3744604,0.01282817,0.7910705
892,1778612603090,0.039537273,-0.17523311,0.119588055,0.3744604,0.01282817,0.7910705
893,1778612603100,-0.18572757,0.0024405725,-0.114218794,0.42210788,1.1239921,0.86376345
894,1778612603110,-0.18572757,0.0024405725,-0.114218794,0.42210788,1.1239921,0.86376345
895,1778612603120,-0.22306833,0.03294773,-0.21379416,0.1282817,1.6224581,1.1325442
896,1778612603130,-0.2443013,-0.088348724,-0.16888762,-0.14660765,1.8075503,1.4440855
897,1778612603140,-0.19207305,-0.17206036,-0.12910628,-0.25411993,1.8142698,1.6554449
898,1778612603150,0.08371163,-0.3572998,0.077122085,-0.2773328,1.455081,1.6884315
899,1778612603160,0.18450728,-0.3790209,0.1330112,-0.14782938,1.1704178,1.5265522
900,1778612603170,0.27017137,-0.37999713,0.15546446,0.100792766,0.94806284,1.3267993
901,1778612603180,0.3521746,-0.36901456,0.18645974,0.38789943,0.82772243,1.210124
902,1778612603190,0.5774395,-0.42124277,0.65919864,1.3591752,-0.023823744,0.8063421
903,1778612603200,0.77634615,-0.5442477,1.3740423,1.8558086,-0.95294976,0.5687156
904,1778612603210,0.9989263,-0.7817154,1.3737983,2.6279423,-2.525317,0.07147124
905,1778612603220,0.9962417,-1.0279691,0.7900133,3.0677652,-3.3206635,-0.5381723
906,1778612603230,0.8747012,-1.4392056,0.09493827,2.82403,-3.1569517,-1.1252137
907,1778612603240,1.0011228,-2.7466202,-0.0043930304,1.0684034,-1.8185458,-1.9004018
908,1778612603250,1.2566508,-3.7235816,0.34290043,0.15210545,-0.28710666,-1.9999728
909,1778612603260,1.1453607,-4.0130334,0.82149667,-0.0580322,1.0360274,-1.7928895
910,1778612603270,-0.061746486,-2.272173,0.4588276,1.5460999,1.89918,-0.36041048
911,1778612603280,-0.18694785,-2.2443504,-0.04881145,0.90285885,1.5925257,-0.15149458
912,1778612603290,-0.2277054,-2.3470986,-0.05735345,-0.23762658,1.7977765,-0.1881465
913,1778612603300,-0.16132185,-2.4874313,0.35363895,-1.282817,1.0763446,0.17348573
914,1778612603310,-0.16132185,-2.4874313,0.35363895,-1.282817,1.0763446,0.17348573
915,1778612603320,0.14960709,-2.4496026,0.32850105,-1.3335189,0.3659083,0.4801401
916,1778612603330,0.2853029,-2.3727245,0.26187342,-1.400714,-0.050701816,0.40194935
917,1778612603340,0.5649925,-2.0476403,0.26675457,-1.8967366,-0.7458665,-0.012217305
918,1778612603350,0.65846646,-1.8809491,0.3128814,-2.0244074,-0.752586,-0.13500121
919,1778612603360,0.767316,-1.6905845,0.36242503,-2.0360138,-0.5674938,-0.21868975
920,1778612603370,0.8395569,-1.5077857,0.4271002,-1.9144517,-0.30115658,-0.2761111
921,1778612603380,0.88788027,-1.240787,0.5103237,-1.9144517,-0.30115658,-0.2761111
922,1778612603390,0.88788027,-1.240787,0.5103237,-1.5870279,-0.3390302,-0.571159
923,1778612603400,0.8473667,-1.1192465,0.53009236,-1.5870279,-0.3390302,-0.571159
924,1778612603410,0.5042223,-0.8412653,0.5339973,-1.0134255,-1.0946705,-1.269378
925,1778612603420,0.28237423,-0.72021294,0.48176903,-0.7696902,-1.4300356,-1.4062119
926,1778612603430,-0.25357547,-0.36388937,0.16107778,-0.56016344,-1.7256943,-1.4440855
927,1778612603440,-0.38707477,-0.22331238,0.14374973,-0.5705481,-1.7079792,-1.2235631
928,1778612603450,-0.52960426,0.0021965152,0.07297312,-0.71593404,-0.8875872,-0.9297369
929,1778612603460,-0.5344854,0.09567044,0.035144243,-0.8179486,-0.453262,-0.7556403
930,1778612603470,-0.5112999,0.18523945,0.020500809,-0.89369583,-0.27305678,-0.6188065
931,1778612603480,-0.5112999,0.18523945,0.020500809,-0.89369583,-0.27305678,-0.6188065
932,1778612603490,-0.14350566,0.2518671,0.08615221,-0.89980453,-0.42210788,-0.24740042
933,1778612603500,-0.027090356,0.22062775,0.024893839,-0.6267477,-0.5161811,-0.14966199
934,1778612603510,0.028066583,0.17206036,0.02391761,-0.4184427,-0.3378085,-0.16920967
935,1778612603520,0.0319715,0.11495096,0.07468152,-0.14172074,-0.105068825,-0.16615535
936,1778612603530,0.15936938,-0.004148973,0.1952458,0.35002577,-0.20158553,-0.18020524
937,1778612603540,0.26699865,-0.117391534,0.2865232,0.5558874,-0.63591075,-0.26328292
938,1778612603550,0.336799,-0.21989559,0.38731885,0.689056,-1.0726794,-0.3848451
939,1778612603560,0.31385764,-0.3275248,0.6169767,0.9462303,-1.5247196,-0.6017023
940,1778612603570,0.06882414,-0.18255483,-0.016595893,1.9572122,-0.7067711,-1.0818423
941,1778612603580,-0.030019043,-0.034168016,-0.3436326,1.8606955,-0.20525073,-1.1355985
942,1778612603590,-0.030019043,-0.034168016,-0.3436326,1.8606955,-0.20525073,-1.1355985
943,1778612603600,-0.1564407,0.08566409,-0.54815257,1.5564847,0.13927728,-1.0604621
944,1778612603610,-0.14204131,0.13227904,-0.353883,0.75625116,0.33169982,-0.43799037
945,1778612603620,-0.106164895,0.06662763,-0.18475133,0.68844515,0.19975294,-0.2761111
946,1778612603630,-0.15204766,-0.053692598,0.040269446,0.6780604,0.04520403,-0.086132
947,1778612603640,-0.4756676,-0.33313814,0.31556603,0.7507534,0.42271876,0.29810223
948,1778612603650,-0.545712,-0.5193538,0.11202228,0.6218608,1.0751228,0.59437186
949,1778612603660,-0.39878955,-0.65065664,-0.20622836,0.13683382,1.5748106,0.82344633
950,1778612603670,-0.19988288,-0.7668279,-0.2979939,-0.44715336,1.8069394,0.89675015
951,1778612603680,0.2633378,-1.0684826,0.21965154,-0.30665436,1.8576412,1.0604621
952,1778612603690,0.545712,-1.3393861,1.1768441,0.82344633,1.3542882,1.2522738
953,1778612603700,1.6678872,-2.255577,1.2410312,3.5949419,-0.3659083,0.86926126
954,1778612603710,2.1686926,-3.022405,0.31507793,3.5949419,-0.3659083,0.86926126
955,1778612603720,1.2471325,-2.6992733,0.5554743,2.9236012,-0.68600166,-1.5283848
956,1778612603730,1.2471325,-2.6992733,0.5554743,2.9236012,-0.68600166,-1.5283848
957,1778612603740,0.111046046,-1.6603215,0.6628595,2.3744333,1.5937474,-1.069625
958,1778612603750,-0.016595893,-1.1458488,0.25333142,1.1563679,3.1282408,-0.2125811
959,1778612603760,0.21330604,-1.1460928,0.22843759,1.1563679,3.1282408,-0.2125811
960,1778612603770,0.21330604,-1.1460928,0.22843759,0.6426302,3.4122932,0.13439035
961,1778612603780,0.51349646,-1.2420074,0.5523015,0.09407325,1.9877555,0.22540927
962,1778612603790,0.5037342,-1.4179726,0.7070338,-0.0842994,0.9388999,-0.017715093
963,1778612603800,0.29213652,-1.8355545,0.9093573,-0.11056661,0.5143485,-0.27977628
964,1778612603810,0.17645338,-1.9082836,0.673598,-0.21746802,-0.71837753,-0.6267477
965,1778612603820,0.13960074,-1.858496,0.67091334,-0.35430184,-1.1716396,-0.58093286
966,1778612603830,0.13960074,-1.858496,0.67091334,-0.35430184,-1.1716396,-0.58093286
967,1778612603840,0.5227706,-1.7618494,0.85566473,-0.7244862,-1.8154916,-0.4288274
968,1778612603850,0.77195305,-1.9434278,0.92961407,-1.0048733,-1.7244726,-0.4728097
969,1778612603860,0.7145996,-2.0910823,0.82808626,-1.2357804,-1.5577064,-0.5516113
970,1778612603870,0.7145996,-2.0910823,0.82808626,-1.6059648,-1.6224581,-0.675617
971,1778612603880,0.6469958,-2.0522776,0.73290396,-1.7446312,-1.7696766,-0.7538077
972,1778612603890,0.20451997,-2.0439794,0.42465958,-1.8613064,-1.7324139,-0.75319684
973,1778612603900,0.11861181,-1.9934596,0.33997175,-2.1453588,-1.6963727,-0.18387043
974,1778612603910,0.09786696,-1.8943723,0.294089,-2.1453588,-1.6963727,-0.18387043
975,1778612603920,0.020012695,-1.6878998,0.2362474,-2.1826215,-1.568702,-0.02076942
976,1778612603930,0.12642166,-1.4089426,0.13789235,-2.1704042,-1.146594,0.38728857
977,1778612603940,0.28213018,-0.81490713,0.1867038,-2.103209,-0.752586,0.5687156
978,1778612603950,0.25943285,-0.60184515,0.22648512,-2.0482311,-0.56505036,0.6579019
979,1778612603960,0.1969542,-0.43368974,0.2511349,-2.008525,-0.42271876,0.7458665
980,1778612603970,0.13935669,-0.2933568,0.2877435,-1.9657644,-0.31398472,0.8362745
981,1778612603980,0.11983211,-0.20329969,0.2806658,-1.9034561,-0.04886922,0.915687
982,1778612603990,0.06931226,-0.049787678,0.29945824,-1.8295414,0.5858198,0.93584555
983,1778612604000,0.060770255,-0.01586372,0.30360723,-1.745242,0.75747293,0.9120218
984,1778612604010,0.053936653,0.025626011,0.30116665,-1.5894713,0.7623598,0.84299403
985,1778612604020,0.040269446,0.10884953,0.2796896,-1.1429288,0.52473325,0.6420194
986,1778612604030,0.04637088,0.09811102,0.28383857,-0.5308419,0.09285152,0.56505036
987,1778612604040,0.09225364,0.053692598,0.2443013,-0.14294247,-0.17654006,0.6053675
988,1778612604050,0.16083373,-0.03099527,0.2135501,0.42821655,-0.35063666,0.7507534
989,1778612604060,0.19890666,-0.0776102,0.23893206,0.5723807,-0.31398472,0.8081747
990,1778612604070,0.22672918,-0.12398108,0.21843125,0.7348709,-0.12095132,0.8723156
991,1778612604080,0.17572121,-0.19353738,0.029042812,0.8350528,0.25900686,0.8906415
992,1778612604090,0.05296042,-0.20940112,-0.036852647,0.72326446,1.1123856,0.79779
993,1778612604100,-0.07809832,-0.19426957,-0.055400997,0.5687156,1.4801265,0.7690793
994,1778612604110,-0.17303659,-0.16717921,-0.0622346,0.4905248,1.6438384,0.77763146
995,1778612604120,-0.19036464,-0.11373068,-0.12642166,0.4801401,1.7568485,0.820392
996,1778612604130,-0.11006982,-0.07150877,-0.25894472,0.48624873,1.7073684,0.829555
997,1778612604140,-0.183287,0.021721095,-0.46273252,0.3622431,1.2229522,0.9211848
998,1778612604150,-0.20525214,0.0102504045,-0.4127008,0.30482176,0.97249746,1.1032226
999,1778612604160,-0.19256116,-0.009030119,-0.37828872,0.28160888,0.9016371,1.2651019
1000,1778612604170,-0.16547081,-0.02391761,-0.33265,0.25473082,0.91690874,1.3591752
