id,timestamp,acc_x,acc_y,acc_z,gyro_x,gyro_y,gyro_z
0,1778612650170,0.13593988,0.17498904,0.15058333,-0.91996306,0.9615019,0.8588765
1,1778612650180,0.15180361,0.18279888,0.15619664,-0.59803706,0.48441613,0.7910705
2,1778612650190,0.17572121,0.15424417,0.12593354,-0.34208453,-0.0061086523,0.76174897
3,1778612650200,0.19109683,0.00976229,0.06687169,-0.16371189,-0.8081747,0.7318166
4,1778612650210,0.19988288,-0.06272271,0.035632357,-0.2302962,-1.1753048,0.7067711
5,1778612650220,0.2238005,-0.13740423,0.024893839,-0.38423425,-1.4605788,0.6603453
6,1778612650230,0.24478942,-0.19817449,0.031239327,-0.52656585,-1.6096299,0.6114761
7,1778612650240,0.21989559,-0.29872608,0.1718163,-0.8454375,-1.6554449,0.46914452
8,1778612650250,0.15204766,-0.3219115,0.31556603,-0.8735373,-1.5283848,0.45570546
9,1778612650260,0.022941383,-0.3145898,0.46761367,-0.7489208,-1.2198979,0.50640726
10,1778612650270,-0.10201593,-0.26919514,0.5549862,-0.4392121,-0.68844515,0.6627888
11,1778612650280,-0.2613853,-0.24552159,0.5440036,0.8179486,0.8698721,1.2767084
12,1778612650290,-0.16449459,-0.25381953,0.32069123,1.0537425,1.205848,1.310306
13,1778612650300,-0.1181237,-0.24967057,-0.041001618,1.1209377,1.5015068,1.2901474
14,1778612650310,-0.033923957,-0.30507156,-0.42636803,0.5858198,2.63344,1.2522738
15,1778612650320,-0.036608588,-0.34558508,-0.28408262,0.3933972,2.8344147,1.2290609
16,1778612650330,-0.08419975,-0.4407674,0.10348027,0.39461896,2.7415633,1.2999213
17,1778612650340,0.14350566,-1.1656175,2.596769,3.0482175,2.180789,1.9052887
18,1778612650350,0.9401085,-1.3952752,1.4374971,4.880813,1.4294246,1.5900823
19,1778612650360,1.4126034,-1.5546447,1.0501783,5.009095,-0.19303341,0.74464476
20,1778612650370,1.6532438,-1.5070535,0.42392743,4.3676863,-2.2369885,-0.09162979
21,1778612650380,0.6125837,-1.8101726,0.07199689,1.7757853,-1.3866642,-2.0916026
22,1778612650390,0.6125837,-1.8101726,0.07199689,1.7757853,-1.3866642,-2.0916026
23,1778612650400,-0.24625377,-1.8685023,0.16571487,1.5741998,0.5748242,-1.9559906
24,1778612650410,-0.75145227,-1.8860743,0.37145513,0.55833083,1.8044959,-0.52473325
25,1778612650420,-0.023429496,-1.7035197,0.5613316,0.55833083,1.8044959,-0.52473325
26,1778612650430,-0.017084008,-1.5285306,0.17157225,0.23518312,-0.6780604,-0.05375614
27,1778612650440,-0.0707766,-1.4482356,-0.0012202862,0.02443461,-0.535118,-0.108123146
28,1778612650450,-0.09615856,-1.5846636,0.25333142,-0.4783075,-0.2669481,-0.20219639
29,1778612650460,0.09054524,-2.2660716,1.1507299,-1.1911873,0.22724187,-0.15149458
30,1778612650470,0.264314,-2.6367946,1.2671453,-1.1490375,0.35185838,-0.13072516
31,1778612650480,0.3612047,-2.8017771,0.9159469,-1.1068878,0.34513888,-0.10140363
32,1778612650490,0.5281399,-2.6929276,0.46932206,-1.1814134,-0.09712757,-0.0580322
33,1778612650500,0.61795294,-1.7293897,0.5474204,-0.93401295,-0.7312057,-0.084910266
34,1778612650510,0.61795294,-1.7293897,0.5474204,-0.766025,-0.9315695,-0.22235495
35,1778612650520,0.647972,-1.5731931,0.56011134,-0.7476991,-1.0396926,-0.3659083
36,1778612650530,0.6325964,-1.4304196,0.55815893,-1.0677924,-1.35551,-0.95417154
37,1778612650540,0.6325964,-1.4304196,0.55815893,-1.0677924,-1.35551,-0.95417154
38,1778612650550,0.6325964,-1.4304196,0.55815893,-1.0677924,-1.35551,-0.95417154
39,1778612650560,0.4949481,-1.3159567,0.59135073,-0.59131753,-1.8380935,-1.146594
40,1778612650570,0.27456442,-1.1568314,0.47639978,-0.25228736,-2.0207422,-1.0952814
41,1778612650580,0.13545178,-1.0460293,0.3275248,-0.19242255,-1.9602666,-0.97066486
42,1778612650590,0.057841565,-0.9113098,0.23868799,-0.18692477,-1.8643607,-0.8582657
43,1778612650600,-0.049543623,-0.6037976,0.15839316,-0.20586158,-1.717753,-0.7287622
44,1778612650610,-0.06589546,-0.47444725,0.0993313,-0.24312437,-1.359786,-0.61269784
45,1778612650620,-0.14765464,-0.30507156,0.070532545,-0.26939157,-1.1215485,-0.5516113
46,1778612650630,-0.19378147,-0.15766099,0.029774986,-0.32253686,-0.9053023,-0.45081854
47,1778612650640,-0.21135357,-0.021721095,-0.010738519,-0.39645153,-0.6988298,-0.3323107
48,1778612650650,-0.19963883,0.0690682,-0.063943,-0.45020768,-0.54183745,-0.25045475
49,1778612650660,-0.17206036,0.23575929,-0.1581491,-0.57787853,-0.015882496,-0.034208454
50,1778612650670,-0.113974735,0.28871974,-0.13667206,-0.57543504,0.21135938,0.100792766
51,1778612650680,0.20354374,0.42856455,0.05588911,-0.35796702,0.005497787,0.013439035
52,1778612650690,0.34045988,0.34290043,0.11348662,-0.35796702,0.005497787,0.013439035
53,1778612650700,0.39024755,0.21257387,0.12593354,0.103847094,-0.33841935,-0.3659083
54,1778612650710,0.35193056,-0.020256752,-0.07809832,0.4111123,-0.4196644,-0.73914695
55,1778612650720,0.35193056,-0.020256752,-0.07809832,0.4111123,-0.4196644,-0.73914695
56,1778612650730,0.35193056,-0.020256752,-0.07809832,0.4111123,-0.4196644,-0.73914695
57,1778612650740,0.32166746,-0.16083373,0.0024405725,0.7556403,-0.50579643,-1.2394456
58,1778612650750,0.28969595,-0.17840585,0.08419975,1.0274754,-0.6560693,-1.4654657
59,1778612650760,0.18206671,-0.23331872,0.1889003,1.6206255,-0.9615019,-1.8429805
60,1778612650770,0.08175918,-0.25089085,0.16473864,1.9297233,-1.0848967,-2.0201313
61,1778612650780,-0.03465613,-0.26943922,0.12495731,2.1679606,-1.0903945,-2.1300871
62,1778612650790,0.06980037,-0.4549227,0.79513854,3.1160235,0.18142697,-2.2412646
63,1778612650800,0.30800024,-0.6062382,1.4143118,3.1160235,0.18142697,-2.2412646
64,1778612650810,0.30800024,-0.6062382,1.4143118,3.9956696,0.95539325,-2.3377812
65,1778612650820,0.6984919,-0.70996255,1.6722802,4.820338,1.4526376,-2.5265386
66,1778612650830,1.244448,-1.0948408,-1.210524,4.1789293,0.61269784,-2.7617218
67,1778612650840,1.244448,-1.0948408,-1.210524,4.1789293,0.61269784,-2.7617218
68,1778612650850,1.8829017,-1.2683655,-0.40293851,1.3860532,0.24984388,-2.996294
69,1778612650860,0.45687518,-1.1294969,1.381608,2.4361305,0.24556783,-3.1465669
70,1778612650870,-1.2632403,-1.6652026,0.08371163,1.8832976,2.4996605,-1.8026633
71,1778612650880,-0.9696394,-1.4870408,0.33631086,1.2663237,2.4080307,-1.0629056
72,1778612650890,1.0513986,-0.7004443,0.4729829,1.767844,-1.3518448,-0.36285394
73,1778612650900,1.300337,-0.6794554,1.0077124,0.7275405,-1.5045611,-0.30665436
74,1778612650910,0.97476465,-0.8327233,0.9017916,-0.17165314,-0.12339478,-0.50579643
75,1778612650920,0.94913864,-1.0601847,1.0343146,-0.49480084,0.4972443,-0.3323107
76,1778612650930,1.0938646,-1.227364,1.21931,-0.5870415,0.8717047,-0.23518312
77,1778612650940,1.3306,-1.3925906,1.4694687,-0.5296202,1.1129965,-0.14721853
78,1778612650950,1.3332847,-1.5365844,1.5299948,-0.45204028,1.0531317,-0.13194689
79,1778612650960,1.0084445,-1.6698397,1.4189488,-0.7623598,0.6243043,0.57971114
80,1778612650970,0.8571291,-1.6166352,1.4028411,-0.9663888,0.50946164,0.9450085
81,1778612650980,0.6987359,-1.4604386,1.3308442,-1.1123856,0.32253686,1.2608259
82,1778612650990,0.6289356,-1.3281596,1.2229708,-1.2180653,0.19853121,1.4636332
83,1778612651000,0.5945235,-1.1292529,1.0335824,-1.5619824,-0.022602014,1.8741345
84,1778612651010,0.55108124,-1.073852,0.9017916,-1.7067575,-0.004276057,1.999362
85,1778612651020,0.60916686,-1.0860548,0.7494998,-1.9040669,0.10995574,2.1569653
86,1778612651030,0.6653,-1.108264,0.70020026,-2.0885482,0.15332718,2.2724187
87,1778612651040,0.77195305,-1.3271832,0.42905265,-2.4514022,0.025045475,2.4825563
88,1778612651050,0.77195305,-1.3271832,0.42905265,-2.4514022,0.025045475,2.4825563
89,1778612651060,0.75267255,-1.3969837,0.37218732,-2.6352727,0.047647487,2.574186
90,1778612651070,0.5344854,-1.214917,0.24674188,-2.701246,0.39767328,2.3695462
91,1778612651080,0.40049794,-1.0633575,0.17596528,-2.6584857,0.53023106,2.2638667
92,1778612651090,0.28432667,-0.89398164,0.10689708,-2.6584857,0.53023106,2.2638667
93,1778612651100,0.1986626,-0.6211257,0.14643435,-2.5919013,0.62796944,2.112372
94,1778612651110,0.18109047,-0.4795725,0.16620298,-2.3878722,0.915687,2.1148155
95,1778612651120,0.24600971,-0.37023485,0.1615659,-2.2687535,1.138042,2.0842721
96,1778612651130,0.27602875,-0.24259292,0.18084641,-2.2180517,1.187522,1.96271
97,1778612651140,0.26797485,-0.15400012,0.18353106,-2.189341,1.1386528,1.8484782
98,1778612651150,0.26211748,-0.0046370877,0.1415532,-2.1410828,0.9437868,1.5039502
99,1778612651160,0.24674188,0.04490653,0.14130914,-2.1093178,0.88025683,1.3542882
100,1778612651170,0.22306833,0.0873725,0.16205402,-2.0317378,0.806953,1.1618657
101,1778612651180,0.20744865,0.12593354,0.18523945,-1.8704693,0.7678576,0.99204516
102,1778612651190,0.200371,0.15888128,0.20525214,-1.6982054,0.7641924,0.893085
103,1778612651200,0.26480213,0.15180361,0.25137895,-1.0445796,0.79045963,0.77213365
104,1778612651210,0.35144243,0.041245673,0.28115395,-0.64751714,0.643852,0.76174897
105,1778612651220,0.35144243,0.041245673,0.28115395,-0.37384954,0.36346483,0.7666359
106,1778612651230,0.41416514,-0.07907455,0.24552159,0.10629055,-0.73731434,0.711658
107,1778612651240,0.32386398,-0.10396838,0.2203837,0.3036,-1.4123205,0.5112942
108,1778612651250,0.21794313,-0.08956901,0.20769271,0.40194935,-1.5143349,0.4184427
109,1778612651260,-0.0959145,-0.049299564,0.13838045,0.5369505,-1.1209377,0.4428773
110,1778612651270,-0.25796852,-0.070532545,0.082247294,0.5674938,-0.5381723,0.60903263
111,1778612651280,-0.27651685,-0.14545812,0.11177822,0.5858198,-0.00061086525,0.7489208
112,1778612651290,-0.27456442,-0.1889003,-0.042221904,0.57543504,0.68294734,0.8509353
113,1778612651300,-0.20329969,-0.2604091,-0.2848148,0.087964594,1.922393,0.91751957
114,1778612651310,-0.22404456,-0.29140437,-0.16303024,-0.081855945,2.2858577,0.9615019
115,1778612651320,-0.22648512,-0.35485923,0.08419975,-0.05131268,2.6163359,1.0647382
116,1778612651330,0.35461518,-1.0609169,1.2424954,2.2046127,1.8979583,1.4721853
117,1778612651340,0.35461518,-1.0609169,1.2424954,2.2046127,1.8979583,1.4721853
118,1778612651350,0.822717,-1.5622104,0.8027043,3.3609805,-0.593761,0.6951646
119,1778612651360,0.822717,-1.5622104,0.8027043,3.3609805,-0.593761,0.6951646
120,1778612651370,0.27017137,-2.0393424,-0.41538543,2.0250182,-2.5179865,-0.37140608
121,1778612651380,0.27017137,-2.0393424,-0.41538543,2.0250182,-2.5179865,-0.37140608
122,1778612651390,-0.14301755,-2.0559382,-0.2506468,0.75991637,1.0415252,-0.49968776
123,1778612651400,-0.2613853,-1.6595892,0.7924539,-0.14049901,2.3811526,0.12461651
124,1778612651410,0.6142921,-1.5299948,1.0760484,0.56688297,-0.19486602,-0.049480084
125,1778612651420,0.71996886,-1.4865527,0.32850105,0.52106804,-0.8228355,-0.4905248
126,1778612651430,0.5845171,-1.6139506,0.13862452,0.1881465,-0.6872234,-0.8026769
127,1778612651440,0.06369894,-2.4588768,1.1133891,-0.35246924,-0.29932398,-1.1301007
128,1778612651450,-0.07150877,-2.8828042,0.5625519,-0.766025,0.48563787,-0.8356637
129,1778612651460,-0.07150877,-2.8828042,0.5625519,-0.766025,0.48563787,-0.8356637
130,1778612651470,0.46688148,-2.2067657,0.29189247,-0.34574974,-1.1850786,-0.5552765
131,1778612651480,0.511544,-1.9944358,0.33020946,-0.14905111,-1.110553,-0.5870415
132,1778612651490,0.511544,-1.9944358,0.33020946,-0.14905111,-1.110553,-0.5870415
133,1778612651500,0.6740861,-1.8055356,0.41636166,-0.3567453,-1.0183123,-0.72021013
134,1778612651510,0.6897058,-1.7027875,0.3956168,-0.6065892,-1.0238101,-0.8191703
135,1778612651520,0.626495,-1.4545813,0.35949633,-0.80878556,-1.0751228,-0.95356065
136,1778612651530,0.60892284,-1.325475,0.35974038,-0.7819075,-1.1575897,-1.1044444
137,1778612651540,0.60892284,-1.325475,0.35974038,-0.6646214,-1.3078625,-1.246776
138,1778612651550,0.38097337,-1.1165619,0.3863426,-0.552833,-1.4587462,-1.3060299
139,1778612651560,0.17132819,-0.92156017,0.3682824,-0.25350907,-1.6566665,-1.3897184
140,1778612651570,0.06321083,-0.80587703,0.36413342,-0.122783914,-1.8258762,-1.4123205
141,1778612651580,-0.03099527,-0.70996255,0.3321619,-0.05131268,-1.9602666,-1.4172074
142,1778612651590,-0.14789869,-0.6128277,0.29384494,0.008552114,-2.0683897,-1.359786
143,1778612651600,-0.2767609,-0.39024755,0.19378147,0.040317107,-1.9547688,-1.1227703
144,1778612651610,-0.33142975,-0.23087814,0.11006982,0.0067195175,-1.6975945,-0.9669997
145,1778612651620,-0.37023485,-0.11373068,0.07272906,-0.084910266,-1.3402383,-0.7861836
146,1778612651630,-0.40220633,0.00073217176,0.05344854,-0.20097467,-1.0910053,-0.6444628
147,1778612651640,-0.43637437,0.23185438,-0.01513155,-0.68600166,-0.4202753,-0.204029
148,1778612651650,-0.38194957,0.36755022,0.054424766,-0.9211848,-0.06291912,0.00061086525
149,1778612651660,-0.38194957,0.36755022,0.054424766,-0.99021256,0.22052236,0.12583824
150,1778612651670,-0.15204766,0.33094162,-0.016595893,-0.5900958,0.6908886,0.44043383
151,1778612651680,-0.15204766,0.33094162,-0.016595893,-0.5900958,0.6908886,0.44043383
152,1778612651690,0.1044565,0.11275445,-0.06345488,-0.38606682,0.5870415,0.4783075
153,1778612651700,0.264314,-0.045882765,0.03441207,-0.105068825,-0.059253927,0.45081854
154,1778612651710,0.31947094,-0.12568948,0.10884953,-0.08246681,-0.63041294,0.36346483
155,1778612651720,0.3653537,-0.20305562,0.13105874,-0.03359759,-1.0384709,0.25900686
156,1778612651730,0.37291947,-0.25699228,0.06980037,0.07819075,-1.3316863,0.06414085
157,1778612651740,0.30214286,-0.25479576,0.020012695,0.22052236,-1.246776,-0.15577064
158,1778612651750,0.15277983,-0.18060236,0.08615221,0.4007276,-1.0219775,-0.32620203
159,1778612651760,0.16547081,-0.16693515,0.14350566,0.86498517,-0.59498274,-0.5320636
160,1778612651770,0.208913,-0.18475133,0.33631086,1.2699889,-0.43004912,-0.6945538
161,1778612651780,0.588178,-0.575487,1.50925,4.1581597,-1.1191051,-1.4398094
162,1778612651790,0.63332856,-0.66896087,0.92937,4.823392,-1.4996742,-1.7153096
163,1778612651800,0.56426036,-0.7219213,-0.047103047,4.805677,-1.5711454,-1.8729129
164,1778612651810,0.53058046,-0.91448253,-1.0367552,3.155119,0.1881465,-1.4923438
165,1778612651820,0.71215904,-1.0767806,-0.91863143,2.4874432,0.657291,-1.4465289
166,1778612651830,0.8912971,-1.2210184,-0.28701133,2.0073032,0.19425514,-1.5497651
167,1778612651840,1.0921562,-1.3806318,0.4249037,2.0861049,-0.7348709,-1.7629571
168,1778612651850,0.80294836,-1.5085179,0.63235235,2.34389,-0.6407976,-1.9156734
169,1778612651860,-0.16010156,-1.7860109,0.7792748,1.7776178,2.5686884,-1.4404203
170,1778612651870,0.08956901,-1.6820425,1.0689708,1.3799446,2.8533516,-1.0751228
171,1778612651880,0.750232,-1.5085179,0.9689073,0.9804387,2.0030272,-0.729984
172,1778612651890,0.2689511,-1.52609,0.9479183,0.56077427,-0.105068825,-0.34697145
173,1778612651900,0.2689511,-1.52609,0.9479183,0.56077427,-0.105068825,-0.34697145
174,1778612651910,0.113974735,-1.6705719,1.4631232,0.31948254,-0.16920967,-0.12217305
175,1778612651920,0.26455808,-1.7821059,1.3552499,0.24678956,-0.11728613,0.01160644
176,1778612651930,1.1019185,-2.1120715,1.3672087,0.099571034,-0.7153232,0.16798794
177,1778612651940,1.1582958,-2.0905943,1.3842927,0.16065755,-1.087951,0.15515977
178,1778612651950,1.095573,-1.9617321,0.9117979,-0.14905111,-0.8668178,0.33292156
179,1778612651960,1.0748281,-1.6005274,0.6272271,-1.3848315,0.1826487,1.0329732
180,1778612651970,1.2002735,-1.466296,0.7128912,-1.8478674,0.31642818,1.1600331
181,1778612651980,1.2315128,-1.4052817,0.75657743,-2.0983222,0.16493362,0.9645562
182,1778612651990,1.1280326,-1.3935668,0.73510045,-2.2913556,0.028710667,0.7519751
183,1778612652000,0.81734776,-1.5378047,0.6020892,-2.7531698,0.10323623,0.6310238
184,1778612652010,0.6894617,-1.5751455,0.48518583,-3.037833,0.21502456,0.7189884
185,1778612652020,0.6101431,-1.6539761,0.50788313,-3.169169,0.2761111,0.8051204
186,1778612652030,0.50812715,-1.6261535,0.39415246,-3.2461379,0.17715092,0.9138544
187,1778612652040,0.379509,-1.4479916,0.2638259,-3.2210925,-0.019547688,1.0189233
188,1778612652050,0.31654227,-1.2673893,0.27529657,-3.0427198,-0.53878313,1.0922271
189,1778612652060,0.24918245,-1.0792211,0.28359452,-2.8643472,-0.8228355,1.056186
190,1778612652070,0.054668825,-0.65895456,0.21403822,-2.5540276,-0.9584476,1.0140363
191,1778612652080,-0.05662128,-0.2865232,0.17572121,-2.452013,-0.8509353,1.047023
192,1778612652090,-0.043198135,-0.16498269,0.18157859,-2.3958135,-0.4654793,1.1850786
193,1778612652100,-0.04759116,-0.07785426,0.21062139,-2.4190264,-0.16432275,1.2296717
194,1778612652110,-0.07907455,0.01513155,0.22794947,-2.456289,0.10873401,1.2767084
195,1778612652120,-0.06028214,0.1444819,0.20744865,-2.4758368,0.2565634,1.3377949
196,1778612652130,-0.02391761,0.1769415,0.21013328,-2.3988678,0.57910025,1.5027285
197,1778612652140,0.007565775,0.19548985,0.23331872,-2.2864685,0.7110472,1.5558738
198,1778612652150,0.10348027,0.19939478,0.31947094,-2.0280726,0.8900307,1.6255124
199,1778612652160,0.21672285,0.18109047,0.36413342,-1.169807,1.0635164,1.704314
200,1778612652170,0.4139211,0.11202228,0.3802412,-0.7678576,0.9309586,1.6340646
201,1778612652180,0.6106312,-0.12495731,0.4024504,-0.22418754,0.43127087,1.3683381
202,1778612652190,0.6106312,-0.12495731,0.4024504,0.30482176,-0.2284636,1.0574077
203,1778612652200,0.5293602,-0.26577836,0.23356278,0.9627236,-1.078788,0.6377433
204,1778612652210,0.23258655,-0.20769271,0.09542638,1.169807,-1.3286319,0.32803464
205,1778612652220,-0.11251039,-0.09884319,0.049299564,0.9682214,-1.3683381,0.26511553
206,1778612652230,-0.2403964,-0.08078295,-0.008542004,0.84788096,-1.1972959,0.3213151
207,1778612652240,-0.41050428,-0.0622346,-0.035876416,0.6658431,-0.68600166,0.5015204
208,1778612652250,-0.52423495,-0.05222825,-0.051740136,0.5027421,0.030543262,0.77579886
209,1778612652260,-0.61624455,-0.17669745,-0.057109397,0.25900686,1.3695599,1.3640621
210,1778612652270,-0.49812084,-0.26187342,-0.14301755,0.15760323,2.0781636,1.6346754
211,1778612652280,-0.28994003,-0.33631086,-0.16571487,0.044593163,2.575408,1.6957619
212,1778612652290,-0.15229172,-0.35363895,-0.14960709,-0.022602014,2.7812696,1.632232
213,1778612652300,-0.01952458,-0.3778006,-0.12129646,-0.07880162,2.7598891,1.4660766
214,1778612652310,0.099575356,-0.40123013,-0.12666571,-0.057421334,2.4758368,1.2266175
215,1778612652320,0.25406358,-0.37218732,0.13838045,0.73426,1.1869112,0.79351395
216,1778612652330,0.25406358,-0.37218732,0.13838045,0.73426,1.1869112,0.79351395
217,1778612652340,1.4604386,-1.2969202,1.9236592,3.7519343,-1.609019,-0.14905111
218,1778612652350,1.5241375,-1.7103533,1.3296238,3.7519343,-1.609019,-0.14905111
219,1778612652360,1.5241375,-1.7103533,1.3296238,4.8295007,-3.0787609,-0.97127575
220,1778612652370,1.3413386,-2.127203,0.86615914,5.136766,-3.6529741,-1.4556919
221,1778612652380,0.95792466,-2.6072636,0.48957884,4.8557677,-3.4483342,-1.8063285
222,1778612652390,-0.12324891,-3.0026364,0.35949633,2.8099802,0.38728857,-1.1905763
223,1778612652400,-0.5957437,-1.892908,0.2403964,0.48624873,2.9773571,-0.03970624
224,1778612652410,-0.43368974,-1.4858205,0.25943285,0.39767328,1.9077321,0.22296582
225,1778612652420,-0.09469421,-1.0587204,-0.19500175,0.6053675,0.047647487,0.26939157
226,1778612652430,0.114218794,-1.014546,0.07175283,0.38606682,-0.45753807,0.1704314
227,1778612652440,0.3743838,-1.1334019,0.4283205,0.15821409,-0.7861836,0.028710667
228,1778612652450,0.6465077,-1.3737983,0.54839665,-0.27672195,-1.1032226,-0.26267207
229,1778612652460,0.78684056,-2.2372727,0.77561396,-1.3884968,-0.7458665,-0.63591075
230,1778612652470,0.6289356,-2.7605317,0.9864794,-1.8784106,-0.21197024,-0.65301496
231,1778612652480,0.29823795,-2.9098945,1.0565238,-2.0372355,0.2932153,-0.4550946
232,1778612652490,0.04881145,-2.8278913,1.0377314,-1.8924606,0.5216789,-0.22724187
233,1778612652500,-0.05906185,-2.3614979,0.89300543,-1.5076154,0.46303585,-0.043982297
234,1778612652510,-0.032703668,-2.1848004,0.895202,-0.5503896,-0.6951646,-0.20708331
235,1778612652520,0.093473926,-2.0217702,0.8546885,-0.48197266,-0.8179486,-0.172264
236,1778612652530,0.093473926,-2.0217702,0.8546885,-0.48197266,-0.8179486,-0.172264
237,1778612652540,0.5181335,-1.4470154,0.5786598,-0.09162979,-1.0280862,-0.1826487
238,1778612652550,0.5374141,-1.240543,0.45467865,0.06352998,-1.074512,-0.28160888
239,1778612652560,0.5374141,-1.240543,0.45467865,0.06352998,-1.074512,-0.28160888
240,1778612652570,0.47225076,-0.68482465,0.013911263,0.095294975,-1.2883148,-0.46731192
241,1778612652580,0.439059,-0.54888475,-0.047103047,0.044593163,-1.2999213,-0.5357288
242,1778612652590,0.36462155,-0.43417785,-0.12764193,0.0030543262,-1.3341297,-0.59742624
243,1778612652600,0.18768002,-0.22453266,-0.20012695,-0.07696902,-1.3610078,-0.66645396
244,1778612652610,0.07443746,-0.117879644,-0.21208574,-0.1740966,-1.3072516,-0.8197812
245,1778612652620,-0.05051985,0.00024405724,-0.25699228,-0.2125811,-1.1722504,-0.87109387
246,1778612652630,-0.1969542,0.079318605,-0.31361356,-0.2828306,-0.93034774,-0.8527679
247,1778612652640,-0.3277689,0.13740423,-0.35193056,-0.36713,-0.70738196,-0.7770206
248,1778612652650,-0.507395,0.1969542,-0.08615221,-0.66767573,-0.30909783,-0.24129178
249,1778612652660,-0.507395,0.1969542,-0.08615221,-0.66767573,-0.30909783,-0.24129178
250,1778612652670,-0.36950266,0.1181237,-0.057109397,-0.59864795,-0.45814893,-0.10934488
251,1778612652680,-0.24259292,0.032703668,-0.052716363,-0.26389378,-0.59803706,0.10629055
252,1778612652690,0.17157225,-0.11836776,-0.07834238,0.09285152,-0.48624873,0.18325958
253,1778612652700,0.3275248,-0.14106509,-0.09689073,0.26450464,-0.43004912,0.14110987
254,1778612652710,0.43515408,-0.1444819,-0.11202228,0.36774087,-0.44532076,0.04153884
255,1778612652720,0.43515408,-0.1444819,-0.11202228,0.36774087,-0.44532076,0.04153884
256,1778612652730,0.6221019,-0.10836142,-0.022453265,0.71959925,-0.9254609,-0.6236934
257,1778612652740,0.66993713,-0.102259986,0.04271002,0.8875872,-1.0586295,-0.9370673
258,1778612652750,0.71020657,-0.1010397,0.16473864,1.110553,-1.2174544,-1.2663237
259,1778612652760,0.6040417,-0.07736614,0.38487828,1.7293595,-1.1685852,-1.7916678
260,1778612652770,0.40562314,-0.06272271,0.40123013,2.0427334,-0.99082345,-1.9590448
261,1778612652780,0.23575929,-0.119343996,0.579636,2.221106,-0.9211848,-1.9914207
262,1778612652790,0.11568313,-0.2403964,1.151218,2.403144,-0.6945538,-1.9834795
263,1778612652800,0.34192422,-0.37609223,1.2088156,3.3896914,0.68539083,-1.8875736
264,1778612652810,0.336799,-0.42954078,0.43954712,4.0036106,1.709201,-2.1502457
265,1778612652820,-0.39024755,-0.50593066,-0.61966133,3.3738089,1.7195857,-2.0726657
266,1778612652830,-0.47835222,-0.70020026,-0.65334123,3.3738089,1.7195857,-2.0726657
267,1778612652840,-0.20818083,-1.022844,-0.23356278,1.6212363,0.43799037,-0.42943826
268,1778612652850,0.35095432,-1.50022,0.8942258,2.1520782,0.79473567,-0.44043383
269,1778612652860,0.7746377,-1.9756435,1.7723436,2.9578094,1.3591752,-0.76052725
270,1778612652870,0.7746377,-1.9756435,1.7723436,2.9578094,1.3591752,-0.76052725
271,1778612652880,-0.39073566,-2.217016,-0.084931925,1.7580702,3.0995302,-1.2260065
272,1778612652890,-0.66847277,-1.6266416,0.23380683,0.5381723,2.7861564,0.002443461
273,1778612652900,0.36852646,-1.0687267,1.325475,1.2895365,0.27305678,0.98654735
274,1778612652910,0.63381666,-0.8515157,1.2417632,1.8570304,-0.27000242,0.8735373
275,1778612652920,0.76389915,-0.83443177,1.177088,2.0097466,-0.9059132,0.7305948
276,1778612652930,0.95792466,-1.0150341,1.0989897,1.6200147,-0.9596693,0.5705481
277,1778612652940,1.274955,-1.4553133,0.85956967,0.36896262,0.47036624,0.16737708
278,1778612652950,1.1475571,-1.5168158,0.8844635,-0.33536503,1.106277,-0.099571034
279,1778612652960,0.80514485,-1.3777032,0.9652464,-0.97249746,0.66889745,0.04337143
280,1778612652970,0.7924539,-1.457998,1.1443844,-1.2064588,0.25595254,0.09407325
281,1778612652980,0.7660957,-1.5614783,1.2561626,-1.3261884,0.15271631,-0.032375857
282,1778612652990,0.7660957,-1.5614783,1.2561626,-1.3261884,0.15271631,-0.032375857
283,1778612653000,0.57988006,-1.7301219,1.1058234,-1.6957619,-0.10751228,-0.28099802
284,1778612653010,0.5688974,-1.7816179,1.0782449,-1.8967366,-0.7825184,-0.3359759
285,1778612653020,0.54864067,-1.7293897,0.9471862,-1.9657644,-1.1863003,-0.33292156
286,1778612653030,0.5352176,-1.6527556,0.7968469,-2.0482311,-1.4636332,-0.30665436
287,1778612653040,0.54937285,-1.5553769,0.68482465,-2.176513,-1.6786577,-0.24129178
288,1778612653050,0.545712,-1.4753261,0.6660322,-2.3115141,-1.7757853,-0.14966199
289,1778612653060,0.5442477,-1.3735542,0.60721445,-2.3689353,-1.8527542,-0.037873644
290,1778612653070,0.56743306,-1.2171135,0.38780698,-2.6676486,-1.4538593,0.40866885
291,1778612653080,0.51496077,-1.0455412,0.2923806,-2.8325822,-1.1099422,0.6267477
292,1778612653090,0.51496077,-1.0455412,0.2923806,-2.9388726,-0.8546005,0.8949176
293,1778612653100,0.45077375,-0.7475473,0.25333142,-3.0592132,-0.26206118,1.1221595
294,1778612653110,0.24112856,-0.47176263,0.23575929,-3.0903673,0.13744467,1.1374311
295,1778612653120,0.02831064,-0.2848148,0.22453266,-3.0079005,0.766025,1.255328
296,1778612653130,-0.04148973,-0.22892569,0.22331238,-2.951701,1.0647382,1.3121386
297,1778612653140,-0.061502427,-0.19890666,0.2294138,-2.8808405,1.2547172,1.3396275
298,1778612653150,-0.052716363,-0.17498904,0.24869433,-2.7977629,1.3329079,1.3255776
299,1778612653160,-0.010738519,-0.107873306,0.28335047,-2.6535985,1.3628404,1.255328
300,1778612653170,0.020012695,-0.073217176,0.2889638,-2.225382,1.2449434,1.1026118
301,1778612653180,0.062478654,-0.05588911,0.26943922,-2.0207422,1.1777482,1.0781772
302,1778612653190,0.1044565,-0.047347106,0.24527754,-1.7318029,1.1129965,1.0806206
303,1778612653200,0.21623473,-0.05759751,0.2306341,-1.2034045,0.99387777,1.1239921
304,1778612653210,0.25796852,-0.06662763,0.23087814,-0.91324353,0.8216137,1.138042
305,1778612653220,0.30067852,-0.084931925,0.23331872,-0.65668017,0.54305923,1.1386528
306,1778612653230,0.30067852,-0.084931925,0.23331872,-0.65668017,0.54305923,1.1386528
307,1778612653240,0.36730617,-0.09737884,0.16180995,-0.17531833,-0.43310347,0.9987647
308,1778612653250,0.30555966,-0.12642166,0.14594623,-0.07574729,-0.8045095,0.7440339
309,1778612653260,0.21184167,-0.12910628,0.16205402,-0.03481932,-0.88270026,0.6041457
310,1778612653270,-0.11617125,-0.12764193,0.21916342,0.093462385,-0.7110472,0.6243043
311,1778612653280,-0.24991462,-0.13545178,0.24649782,0.25717425,-0.29138273,0.8362745
312,1778612653290,-0.27895743,-0.17767367,0.17938207,0.38912117,0.24251351,1.0464121
313,1778612653300,-0.29189247,-0.19573392,0.058817793,0.42455134,0.6713409,1.1520919
314,1778612653310,-0.31678632,-0.19036464,-0.14765464,0.35308012,1.2846496,1.2583824
315,1778612653320,-0.2630937,-0.1444819,-0.36901456,0.02321288,1.9761491,1.3481796
316,1778612653330,-0.17498904,-0.122760795,-0.33704305,-0.07147124,2.208278,1.2858714
317,1778612653340,0.11983211,-0.18084641,0.13886857,0.41599923,2.4959953,1.073901
318,1778612653350,0.11983211,-0.18084641,0.13886857,0.41599923,2.4959953,1.073901
319,1778612653360,0.3128814,-0.29311275,0.46956614,1.6707164,2.9358184,0.906524
320,1778612653370,0.74315435,-0.53961056,0.89861876,2.607173,2.7641652,0.6273586
321,1778612653380,1.1734272,-0.8520039,1.7825942,4.2363505,-1.7922786,-0.42210788
322,1778612653390,1.0970373,-1.9998052,0.5742667,3.598607,-6.263812,-1.4129313
323,1778612653400,0.6228341,-2.6585157,0.10543273,2.593123,-5.1618114,-1.6194037
324,1778612653410,0.6228341,-2.6585157,0.10543273,2.593123,-5.1618114,-1.6194037
325,1778612653420,-0.5715821,-2.4803538,-0.7900133,-0.09468412,3.0390546,-0.6976081
326,1778612653430,-0.23746772,-1.9675895,0.54937285,-1.4520267,3.9742892,1.0690142
327,1778612653440,0.19060871,-2.2009084,1.2085714,-0.98532563,2.398257,0.9822713
328,1778612653450,0.17084008,-2.2970667,0.3372871,-0.23884831,-0.3549127,-0.08552113
329,1778612653460,0.17084008,-2.2970667,0.3372871,-0.4886922,-0.25534168,-0.12217305
330,1778612653470,0.44223174,-2.4701035,0.56816524,-1.2565498,0.689056,0.07086037
331,1778612653480,0.61624455,-2.395422,0.75486904,-1.1979067,0.42455134,-0.087964594
332,1778612653490,0.6067263,-2.2882807,0.66993713,-1.0189233,-0.047036625,-0.32620203
333,1778612653500,0.5349735,-2.1494124,0.6540734,-0.81061816,-0.49174652,-0.5290093
334,1778612653510,0.5383903,-2.1533172,0.57524294,-0.6792821,-0.70005155,-0.6585127
335,1778612653520,0.4471129,-2.0085912,0.5010495,-0.5626069,-0.8246681,-0.8222246
336,1778612653530,0.40098605,-1.8863186,0.4932397,-0.3549127,-0.8362745,-0.93584555
337,1778612653540,0.3699908,-1.6971741,0.46712556,-0.19120082,-0.9138544,-0.947452
338,1778612653550,0.32728076,-1.5287746,0.43491003,-0.027488936,-1.0439687,-0.9627236
339,1778612653560,0.30922052,-1.1729392,0.25870067,0.08246681,-1.1527027,-0.9615019
340,1778612653570,0.30336314,-0.99819416,0.17059602,0.2657264,-1.2382239,-0.98837996
341,1778612653580,0.29311275,-0.8268659,0.107385196,0.2950479,-1.1655309,-1.0189233
342,1778612653590,0.20525214,-0.5017817,0.08664032,0.30115658,-1.1362094,-1.0531317
343,1778612653600,0.20525214,-0.5017817,0.08664032,0.29749137,-1.2021828,-1.0983357
344,1778612653610,-0.06882414,-0.15009521,0.03099527,0.18081611,-1.7055358,-1.1227703
345,1778612653620,-0.06882414,-0.15009521,0.03099527,0.18081611,-1.7055358,-1.1227703
346,1778612653630,-0.30067852,0.038316987,0.049787678,0.1160644,-1.8277088,-1.0671816
347,1778612653640,-0.5315567,0.23014598,-0.038561042,-0.017715093,-1.3304645,-0.84116143
348,1778612653650,-0.5994046,0.2967736,-0.09200958,-0.1301143,-1.0122037,-0.6914995
349,1778612653660,-0.62600684,0.3385074,-0.17596528,-0.33353242,-0.61086524,-0.45204028
350,1778612653670,-0.5020258,0.32996538,-0.13960074,-0.7257079,-0.29749137,0.028099801
351,1778612653680,-0.29652956,0.22111587,-0.1261776,-0.7696902,-0.28344148,0.18509217
352,1778612653690,-0.11519502,0.11177822,-0.12080834,-0.7470882,-0.204029,0.2846632
353,1778612653700,0.050031736,0.02318544,-0.08688438,-0.6536258,-0.18203785,0.30482176
354,1778612653710,0.26065314,-0.10372432,-0.016107777,-0.26633725,-0.6065892,0.2950479
355,1778612653720,0.26065314,-0.10372432,-0.016107777,-0.26633725,-0.6065892,0.2950479
356,1778612653730,0.379509,-0.13032657,0.0319715,0.058643065,-0.806953,0.28955013
357,1778612653740,0.51740134,-0.13179092,0.15009521,0.24190263,-0.9193522,0.18936823
358,1778612653750,0.5730464,-0.13447554,0.24259292,0.59864795,-1.1960741,-0.17654006
359,1778612653760,0.511544,-0.12983845,0.27456442,0.83260936,-1.3536774,-0.40439278
360,1778612653770,0.4097721,-0.13154685,0.2591888,1.0494665,-1.3567317,-0.539394
361,1778612653780,0.4097721,-0.13154685,0.2591888,1.0494665,-1.3567317,-0.539394
362,1778612653790,0.10689708,-0.2208718,0.33362624,1.4422529,-0.5314528,-0.6377433
363,1778612653800,0.03465613,-0.31312546,0.44491637,1.6261233,-0.21746802,-0.6621779
364,1778612653810,-0.09811102,-0.41074833,0.4842096,1.999362,0.25411993,-0.6743952
365,1778612653820,-0.21257387,-0.55815893,0.22111587,2.7140744,1.4385877,-0.453262
366,1778612653830,-0.15888128,-0.7494998,0.26577836,2.924212,2.5992317,-0.11301007
367,1778612653840,-0.15888128,-0.7494998,0.26577836,2.924212,2.5992317,-0.11301007
368,1778612653850,0.04637088,-0.94035256,0.44027928,2.7220156,2.2675319,0.027488936
369,1778612653860,0.87250465,-1.5270662,1.2378583,2.3383923,1.4489723,0.069027774
370,1778612653870,2.5784647,-2.9360087,1.4267586,2.7537806,-1.7318029,-0.7812967
371,1778612653880,2.2829115,-3.00166,0.64260274,3.8252382,-1.1429288,-2.6028967
372,1778612653890,0.3841461,-1.6290822,-0.24161668,2.9205468,1.2803736,-1.3854424
373,1778612653900,-0.47127452,-1.2639725,-0.2774931,1.9077321,3.0457742,-0.50885075
374,1778612653910,-0.76511943,-1.1787965,0.31385764,0.95233893,3.5619552,0.17715092
375,1778612653920,-0.44394013,-1.1275444,0.7902574,0.1160644,2.4104743,0.41233405
376,1778612653930,0.5437595,-1.1580516,0.91570276,-0.013439035,0.73364913,-0.004886922
377,1778612653940,0.59159476,-1.4660518,0.3824377,-0.38912117,0.46975538,-0.3268129
378,1778612653950,0.52472305,-1.7816179,0.5769514,-0.70554936,0.05375614,-0.5552765
379,1778612653960,0.46248847,-2.0303123,0.73290396,-0.70554936,0.05375614,-0.5552765
380,1778612653970,0.50690687,-2.255577,0.9855032,-1.0952814,-0.9077458,-0.6230826
381,1778612653980,0.80465674,-2.566994,0.85175985,-1.0580186,-1.1246029,-0.4361578
382,1778612653990,0.9535317,-2.5233078,0.87909424,-1.4373659,-1.6652187,0.12705997
383,1778612654000,0.9535317,-2.5233078,0.87909424,-1.4373659,-1.6652187,0.12705997
384,1778612654010,0.99160457,-1.8550792,0.7226535,-1.672549,-1.1704178,0.40133846
385,1778612654020,0.99038434,-1.6630061,0.69556314,-1.672549,-1.1704178,0.40133846
386,1778612654030,0.9203399,-1.4743499,0.67799103,-2.0201313,-0.5369505,0.4288274
387,1778612654040,0.9203399,-1.4743499,0.67799103,-2.0201313,-0.5369505,0.4288274
388,1778612654050,0.61624455,-1.2036903,0.5935472,-2.158187,-0.2284636,0.4288274
389,1778612654060,0.3392396,-0.9791577,0.4144092,-2.1789563,0.36835176,0.453262
390,1778612654070,0.26211748,-0.9061846,0.33631086,-2.144748,0.49480084,0.48808134
391,1778612654080,0.16717921,-0.67628264,0.17645338,-2.043955,0.68600166,0.5900958
392,1778612654090,0.12398108,-0.5620638,0.11324256,-1.9822577,0.6945538,0.57543504
393,1778612654100,0.061258372,-0.43149322,0.06760386,-1.9339994,0.6750061,0.5656612
394,1778612654110,0.012690976,-0.31678632,0.05344854,-1.8826867,0.6010914,0.571159
395,1778612654120,-0.016839951,-0.055400997,0.1164153,-1.754405,0.39461896,0.57543504
396,1778612654130,-0.016839951,-0.055400997,0.1164153,-1.754405,0.39461896,0.57543504
397,1778612654140,-0.032459613,0.005857374,0.16595893,-1.7079792,0.37140608,0.5137377
398,1778612654150,-0.059794027,0.04490653,0.21672285,-1.6523905,0.35124752,0.49357912
399,1778612654160,-0.084931925,0.08175918,0.28408262,-1.5302174,0.31215215,0.5204572
400,1778612654170,-0.10323621,0.14350566,0.3141017,-0.9773844,0.08857546,0.7244862
401,1778612654180,-0.08786061,0.11568313,0.29311275,-0.72387534,0.1020145,0.829555
402,1778612654190,-0.08786061,0.11568313,0.29311275,-0.72387534,0.1020145,0.829555
403,1778612654200,-0.0043930304,-0.07516963,0.208913,-0.014660766,0.22052236,1.0036516
404,1778612654210,0.027090356,-0.12007617,0.17450093,0.18203785,0.16126843,1.0091494
405,1778612654220,0.035876416,-0.13545178,0.14936304,0.28527406,0.07696902,1.0054842
406,1778612654230,-0.020500809,-0.136428,0.16351835,0.40622538,-0.30787608,1.0506883
407,1778612654240,-0.059305906,-0.12349297,0.17889395,0.42455134,-0.4447099,1.1050552
408,1778612654250,-0.111046046,-0.110801995,0.20476402,0.44043383,-0.5198463,1.1991285
409,1778612654260,-0.1581491,-0.0976229,0.18304294,0.46731192,-0.3726278,1.3023647
410,1778612654270,-0.20988922,-0.082003236,-0.5342413,-0.106901415,1.717753,1.6255124
411,1778612654280,-0.20988922,-0.082003236,-0.5342413,-0.106901415,1.717753,1.6255124
412,1778612654290,-0.071264714,-0.15107143,-0.6135599,-0.9419542,2.9981265,1.649947
413,1778612654300,0.06833603,-0.15961345,-0.27310005,-1.1905763,3.0592132,1.6310102
414,1778612654310,0.14423785,-0.17206036,-0.11324256,-0.95539325,2.2901337,1.5088371
415,1778612654320,0.17913802,-0.24283697,0.0622346,-0.535118,1.5387696,1.4123205
416,1778612654330,0.18816814,-0.3951287,0.2545517,0.0036651916,0.7684685,1.3891076
417,1778612654340,0.3265486,-0.5959878,0.58085626,0.61086524,0.089186326,1.3536774
418,1778612654350,0.58305275,-0.9366917,1.2180897,2.0060816,-1.2345587,0.88453287
419,1778612654360,0.53058046,-0.99795,0.7175283,2.5662448,-1.5570955,0.61391956
420,1778612654370,0.51544887,-1.0904478,0.272856,2.6138923,-1.4471397,0.48197266
421,1778612654380,0.8241814,-2.2182362,0.44394013,1.9425515,-0.29565877,-0.12522738
422,1778612654390,0.8241814,-2.2182362,0.44394013,1.9425515,-0.29565877,-0.12522738
423,1778612654400,0.626739,-2.6568072,0.7150877,1.6297885,-0.1881465,-0.34391713
424,1778612654410,0.12178457,-1.8109047,0.5298483,1.3353515,0.6249151,-0.12217305
425,1778612654420,0.2506468,-1.53512,0.37023485,1.3481796,1.0317514,-0.051923547
426,1778612654430,0.2506468,-1.53512,0.37023485,1.3481796,1.0317514,-0.051923547
427,1778612654440,0.3082443,-1.4870408,0.32410803,1.0219775,-0.037873644,-0.65301496
428,1778612654450,0.28725538,-1.8689904,0.5027579,1.0219775,-0.037873644,-0.65301496
429,1778612654460,0.2489384,-2.1054819,0.5264315,-0.089186326,-0.39522982,-1.0598512
430,1778612654470,0.091033354,-2.318788,0.49421594,-0.47219884,-0.30970868,-0.9627236
431,1778612654480,-0.067847915,-2.4051843,0.44906533,-0.86926126,-0.27122417,-0.72021013
432,1778612654490,-0.18475133,-2.656075,0.5112999,-1.1337659,-0.21991149,-0.48441613
433,1778612654500,-0.17401282,-2.7063508,0.60867876,-1.6530013,0.16615535,0.0036651916
434,1778612654510,-0.08005078,-2.6926837,0.7299752,-1.7104226,0.42210788,0.09040806
435,1778612654520,0.058573738,-2.6489973,0.7897693,-1.604743,0.42577308,0.047647487
436,1778612654530,0.37413976,-1.999561,0.7636551,-1.0409144,-0.13500121,-0.03848451
437,1778612654540,0.37413976,-1.999561,0.7636551,-1.0409144,-0.13500121,-0.03848451
438,1778612654550,0.55864704,-1.5761217,0.6543175,-0.37751472,-0.62796944,-0.28955013
439,1778612654560,0.55864704,-1.5761217,0.6543175,-0.37751472,-0.62796944,-0.28955013
440,1778612654570,0.62063754,-0.9862353,0.40220633,0.23518312,-1.1985176,-0.7733554
441,1778612654580,0.622346,-0.8471227,0.29945824,0.4343252,-1.3206906,-0.9443977
442,1778612654590,0.5771954,-0.70874226,0.17108414,0.4343252,-1.3206906,-0.9443977
443,1778612654600,0.34704942,-0.43515408,-0.017572122,0.7629707,-1.3206906,-1.3811663
444,1778612654610,0.21891935,-0.328257,-0.070532545,0.77763146,-1.3475688,-1.4398094
445,1778612654620,0.108117364,-0.23551524,-0.12568948,0.7635816,-1.3494014,-1.4862351
446,1778612654630,-0.045882765,-0.12910628,-0.1969542,0.71593404,-1.2425,-1.518611
447,1778612654640,-0.19451363,-0.037828874,-0.25772443,0.63346726,-1.1093313,-1.500285
448,1778612654650,-0.48494175,0.18523945,-0.3533949,0.2406809,-0.7257079,-1.2296717
449,1778612654660,-0.579636,0.25357547,-0.34387666,0.007330383,-0.58093286,-1.0482447
450,1778612654670,-0.5776835,0.37145513,0.016839951,-0.6817256,-0.7556403,-0.28771752
451,1778612654680,-0.43954712,0.3048275,0.039537273,-0.6914995,-0.8197812,-0.13744467
452,1778612654690,-0.27895743,0.17547716,-0.003172744,-0.643852,-0.7611381,-0.0067195175
453,1778612654700,-0.13911264,0.06662763,-0.056133166,-0.6078109,-0.64873886,0.050701816
454,1778612654710,-0.04637088,-0.004881145,-0.11251039,-0.59498274,-0.61575216,0.073303826
455,1778612654720,0.13960074,-0.09445015,-0.16644704,-0.5687156,-0.4569272,0.050701816
456,1778612654730,0.13960074,-0.09445015,-0.16644704,-0.5687156,-0.4569272,0.050701816
457,1778612654740,0.36950266,-0.17620933,-0.10348027,-0.462425,-0.44043383,-0.096516706
458,1778612654750,0.681896,-0.21428227,0.17718557,-0.29077184,-0.6010914,-0.2657264
459,1778612654760,0.681896,-0.21428227,0.17718557,-0.29077184,-0.6010914,-0.2657264
460,1778612654770,0.81417495,-0.22599702,0.6399181,0.7788532,-1.65911,-0.99265605
461,1778612654780,0.7614586,-0.26992732,0.80563295,1.4618006,-2.0433443,-1.2394456
462,1778612654790,0.37023485,-0.31239328,0.86884385,1.9303342,-2.1087067,-1.3335189
463,1778612654800,0.31263736,-0.3443648,1.0396838,2.7666087,-1.1936307,-1.1795808
464,1778612654810,0.3436326,-0.40000984,1.2654368,3.1538973,-0.59803706,-1.2247849
465,1778612654820,0.19646609,-0.44271985,0.13105874,3.8398988,1.1111639,-2.0024164
466,1778612654830,-0.06345488,-0.41758195,-0.8358961,3.2241468,1.8008307,-1.9773707
467,1778612654840,-0.3018988,-0.45004156,-1.2856936,2.062892,2.5393667,-1.7165314
468,1778612654850,-0.3018988,-0.45004156,-1.2856936,2.062892,2.5393667,-1.7165314
469,1778612654860,-0.05515694,-0.8820229,-0.97378844,0.6969972,2.673757,-1.0958922
470,1778612654870,0.95279956,-1.6813104,1.7938206,2.3554964,1.0403035,-1.5118915
471,1778612654880,0.71313524,-2.1840682,2.305853,3.8869355,-0.07819075,-1.8393153
472,1778612654890,0.40440285,-2.5425885,1.3244987,4.6743407,-0.8680395,-1.9700404
473,1778612654900,0.018060237,-2.361742,0.5205741,3.481321,-0.32742378,-1.6383406
474,1778612654910,-0.18743597,-1.7684387,0.8988628,0.9266826,1.2748758,-0.18509217
475,1778612654920,-0.022941383,-1.5363404,1.1375508,1.0085385,1.0751228,0.35918877
476,1778612654930,0.07224095,-1.240543,1.0084445,1.649947,-0.44348818,0.5045747
477,1778612654940,0.08908089,-1.001611,0.6147802,1.649947,-0.44348818,0.5045747
478,1778612654950,0.9247329,-0.9620737,0.69556314,0.27916542,-0.89369583,0.3268129
479,1778612654960,1.287646,-1.1958805,0.8747012,-0.10567969,-0.6914995,0.0720821
480,1778612654970,1.7228,-1.7276812,1.2132086,-0.44348818,-0.48197266,-0.6236934
481,1778612654980,1.4782547,-1.9973645,1.1407236,-0.72509706,-0.16982053,-0.75991637
482,1778612654990,1.0496902,-2.136477,1.1321816,-1.142318,0.45204028,-0.35124752
483,1778612655000,0.77781045,-2.1909018,1.1524384,-1.5308284,0.84849185,0.20952678
484,1778612655010,0.51496077,-1.8704547,1.0357789,-1.8497,0.58093286,0.5131268
485,1778612655020,0.4932397,-1.7332945,0.90520835,-1.9230038,-0.021380283,0.5332854
486,1778612655030,0.5100796,-1.6681312,0.8437059,-1.9511036,-0.5290093,0.5326745
487,1778612655040,0.5469323,-1.6271297,0.77122086,-1.9425515,-1.1716396,0.5503896
488,1778612655050,0.6633476,-1.565139,0.51544887,-1.9547688,-1.6261233,0.60048056
489,1778612655060,0.7124031,-1.4221216,0.27895743,-2.406809,-1.785559,0.9260717
490,1778612655070,0.7124031,-1.4221216,0.27895743,-2.406809,-1.785559,0.9260717
491,1778612655080,0.6020892,-1.1238836,0.17889395,-2.787378,-1.3756685,1.1160508
492,1778612655090,0.4339338,-0.77951884,0.1415532,-3.023783,-0.9016371,1.2046263
493,1778612655100,0.36950266,-0.6384538,0.15400012,-3.0518827,-0.7324274,1.1972959
494,1778612655110,0.2865232,-0.524479,0.16644704,-3.0317242,-0.41050145,1.2290609
495,1778612655120,0.12349297,-0.29652956,0.19768637,-2.9303205,0.43799037,1.3787229
496,1778612655130,0.061258372,-0.22160399,0.22477673,-2.9089403,0.8026769,1.4532484
497,1778612655140,0.027090356,-0.16107778,0.27773714,-2.9400945,0.97433007,1.4953982
498,1778612655150,-0.02318544,-0.09835507,0.33484653,-2.9901853,1.0005972,1.491733
499,1778612655160,-0.12910628,0.005857374,0.5017817,-2.9743028,0.90285885,1.5564847
500,1778612655170,-0.12032023,0.012935034,0.60892284,-2.7189612,0.77091193,1.6010778
501,1778612655180,-0.076389916,-0.00073217176,0.65944266,-2.4037547,0.65668017,1.6035212
502,1778612655190,0.13716017,-0.09493827,0.41343296,-0.84482664,0.73975784,1.46852
503,1778612655200,0.20866893,-0.13398743,0.28701133,-0.31703907,0.9236283,1.3713925
504,1778612655210,0.20866893,-0.13398743,0.28701133,-0.31703907,0.9236283,1.3713925
505,1778612655220,0.22624107,-0.15277983,0.18377511,0.10323623,0.9108001,1.2626585
506,1778612655230,0.20988922,-0.19646609,0.12642166,0.6273586,-0.312763,1.0726794
507,1778612655240,0.15790504,-0.19744232,0.11006982,0.7244862,-0.6731735,1.0207558
508,1778612655250,0.09664667,-0.16888762,0.02831064,0.766025,-0.81183994,0.99387777
509,1778612655260,0.06345488,-0.127886,-0.10494461,0.7263188,-0.7831292,0.9718866
510,1778612655270,0.03929322,-0.07516963,-0.23966423,0.5821546,-0.48563787,0.9578367
511,1778612655280,-0.054424766,0.012446919,-0.30287504,0.1863139,0.49968776,0.9828822
512,1778612655290,-0.14106509,0.040269446,-0.25601605,-0.026267206,1.1844677,1.0708468
513,1778612655300,-0.18450728,0.04344219,-0.17596528,-0.1423316,1.6462818,1.1582005
514,1778612655310,-0.12715383,-0.042221904,-0.10592084,-0.21502456,2.1325307,1.2577715
515,1778612655320,0.047103047,-0.1313028,0.013911263,-0.21563543,2.6902506,1.2687671
516,1778612655330,0.047103047,-0.1313028,0.013911263,-0.13194689,2.6890287,1.2052372
517,1778612655340,0.59232694,-0.40684342,0.4978768,0.8399397,1.4825699,0.6249151
518,1778612655350,0.59232694,-0.40684342,0.4978768,0.8399397,1.4825699,0.6249151
519,1778612655360,0.88007045,-0.66847277,1.0521308,2.8124237,-1.4501941,-0.1863139
520,1778612655370,1.2878901,-1.560258,1.4313958,3.689626,-2.8264735,-0.6188065
521,1778612655380,0.8341876,-2.2948701,-0.17376876,3.6731327,-3.0549371,-1.0231993
522,1778612655390,0.77122086,-2.5447848,-0.4893348,2.9761355,-1.758681,-0.96944314
523,1778612655400,0.6365013,-2.8449752,-0.020256752,2.0470095,0.26328292,-0.9914343
524,1778612655410,-0.119343996,-2.502075,1.0082005,1.5619824,1.9040669,-0.8790351
525,1778612655420,0.16766733,-1.649339,0.86298645,2.0867157,2.0231857,-0.33475417
526,1778612655430,0.29067218,-1.5407335,-0.045882765,1.8252654,1.4697418,-0.46670106
527,1778612655440,0.21989559,-1.4335922,-0.4368625,1.142318,1.0519099,-0.5216789
528,1778612655450,0.13789235,-1.4531169,-0.23307467,0.72143185,0.81245077,-0.55771995
529,1778612655460,0.13520771,-1.6503152,0.25699228,0.27122417,0.38362336,-0.61575216
530,1778612655470,0.07687803,-2.1462393,0.49079913,-0.14477506,-0.10445796,-0.66156703
531,1778612655480,0.07687803,-2.1462393,0.49079913,-0.74464476,-0.20708331,-0.5852089
532,1778612655490,-0.11177822,-2.1503885,0.39659303,-1.0574077,0.036651913,-0.38056904
533,1778612655500,-0.13740423,-2.3924932,0.48128092,-1.8753563,0.5888741,0.24373524
534,1778612655510,0.10323621,-2.4871874,0.63113207,-1.8820758,0.3659083,0.21868975
535,1778612655520,0.22599702,-2.3881001,0.68482465,-1.7098118,0.13927728,0.14782938
536,1778612655530,0.41465324,-1.9380586,0.59745216,-1.3897184,-0.0983493,0.1142318
537,1778612655540,0.511788,-1.7635576,0.54083085,-1.1038336,-0.5552765,0.055588737
538,1778612655550,0.60916686,-1.6324989,0.5422952,-1.0934488,-0.8374963,-0.07513642
539,1778612655560,0.6726217,-1.55196,0.5527897,-1.105666,-1.0861185,-0.2687807
540,1778612655570,0.6552937,-1.4104068,0.5320448,-1.033584,-1.3518448,-0.59498274
541,1778612655580,0.6321083,-1.3369455,0.5037342,-0.9138544,-1.4379768,-0.6945538
542,1778612655590,0.5613316,-1.2119883,0.4698102,-0.7464773,-1.4538593,-0.77091193
543,1778612655600,0.49982923,-1.0665302,0.38390204,-0.625526,-1.4758505,-0.816116
544,1778612655610,0.30629185,-0.6384538,0.3192269,-0.3921755,-1.5741998,-1.0012082
545,1778612655620,0.22135992,-0.49934113,0.33509058,-0.3200934,-1.6297885,-1.10139
546,1778612655630,0.07980672,-0.37169918,0.2979939,-0.3200934,-1.6297885,-1.10139
547,1778612655640,0.07980672,-0.37169918,0.2979939,-0.23884831,-1.5961909,-1.1588113
548,1778612655650,-0.34070393,-0.03734076,0.022209208,-0.2302962,-0.6908886,-0.9627236
549,1778612655660,-0.45736328,0.040513504,-0.018060237,-0.27855456,-0.24190263,-0.7996226
550,1778612655670,-0.58134437,0.13740423,-0.05906185,-0.30665436,0.007941248,-0.6420194
551,1778612655680,-0.58134437,0.13740423,-0.05906185,-0.30665436,0.007941248,-0.6420194
552,1778612655690,-0.5723142,0.30897647,-0.12837411,-0.30726522,-0.1001819,-0.0983493
553,1778612655700,-0.48640612,0.28408262,-0.10933765,-0.20647246,-0.40133846,0.058643065
554,1778612655710,-0.049787678,-0.0017084008,-0.06662763,0.35613444,-0.14355333,0.36774087
555,1778612655720,-0.049787678,-0.0017084008,-0.06662763,0.35613444,-0.14355333,0.36774087
556,1778612655730,0.16107778,-0.08175918,0.0026846298,0.47708577,-0.24312437,0.44776422
557,1778612655740,0.28286234,-0.12324891,0.0873725,0.4025602,-0.634689,0.38606682
558,1778612655750,0.28286234,-0.12324891,0.0873725,0.4025602,-0.634689,0.38606682
559,1778612655760,0.3956168,-0.20403185,0.614048,0.6719518,-1.9889772,-0.17592919
560,1778612655770,0.25723633,-0.16766733,0.4971446,1.1386528,-1.9034561,-0.37568212
561,1778612655780,0.07809832,-0.10006347,0.23990828,1.459968,-1.5613716,-0.42821655
562,1778612655790,-0.15058333,0.043198135,-0.020256752,1.4764613,-1.0732902,-0.23701571
563,1778612655800,-0.21477039,0.08053889,0.039781332,1.2968669,-1.0280862,-0.06841691
564,1778612655810,-0.25430766,0.08566409,0.13057062,1.1771374,-0.97005403,0.03726278
565,1778612655820,-0.32557237,0.064919226,0.3099527,1.1704178,-0.6658431,0.14477506
566,1778612655830,-0.29213652,0.024649782,0.26797485,1.3121386,-0.004886922,0.2180789
567,1778612655840,-0.12861817,-0.2562601,-0.20451997,0.6646214,1.4489723,0.18325958
568,1778612655850,-0.12861817,-0.2562601,-0.20451997,0.4538729,1.4123205,0.2742785
569,1778612655860,0.6474839,-0.6284474,0.844438,1.2076806,0.4636467,0.3885103
570,1778612655870,1.1704986,-0.7990434,1.5275543,2.5509732,-1.0158689,0.14905111
571,1778612655880,1.6083373,-1.0670183,1.2966762,3.6016614,-2.3286183,-0.21502456
572,1778612655890,1.7289016,-1.4543371,0.51593703,4.230242,-3.3652565,-0.7593055
573,1778612655900,1.952458,-2.6587596,0.050763905,2.7977629,-1.6255124,-1.432479
574,1778612655910,1.3733101,-2.9928741,1.1058234,1.8344283,1.03786,-1.8057177
575,1778612655920,0.47469133,-2.7890863,1.1805049,1.599856,3.993226,-1.7037032
576,1778612655930,-0.10543273,-2.3031683,0.6157564,1.3500122,5.6694403,-1.0506883
577,1778612655940,0.019036464,-1.5031487,0.33142975,0.83260936,3.7568212,-0.11178834
578,1778612655950,0.3128814,-1.3447554,0.52423495,1.0946705,2.0610592,-0.1001819
579,1778612655960,0.37194324,-1.2644606,0.6067263,1.2974777,0.90224797,-0.25900686
580,1778612655970,0.36266908,-1.2202863,0.6282034,1.3518448,-0.19792034,-0.57360244
581,1778612655980,0.44735694,-1.258115,0.3961049,0.61758476,-1.2455542,-0.9798279
582,1778612655990,0.5100796,-1.6188318,0.5342413,-0.6951646,-1.7562376,-0.9431759
583,1778612656000,0.55108124,-1.8155419,0.7153318,-1.0183123,-1.6884315,-0.77091193
584,1778612656010,0.85322416,-2.2397132,1.1131451,-1.1337659,-1.6853772,-0.52595496
585,1778612656020,0.72875494,-2.3173234,0.899595,-1.2791518,-1.3243558,-0.08002335
586,1778612656030,1.0169866,-2.259238,0.90081537,-1.4630222,-0.89919364,0.056199603
587,1778612656040,0.66993713,-1.7796655,0.55401,-2.4623978,-0.31887165,0.6065892
588,1778612656050,0.59110665,-1.7381756,0.5447358,-2.5332582,-0.2510656,0.6627888
589,1778612656060,0.48152497,-1.6058967,0.57329047,-2.5735753,0.07086037,0.6041457
590,1778612656070,0.43808278,-1.5275543,0.5764632,-2.4544566,0.3286455,0.5161811
591,1778612656080,0.34045988,-1.415288,0.545468,-2.2999077,0.52473325,0.46914452
592,1778612656090,0.04368625,-0.9230245,0.4300289,-1.640784,0.6102544,0.54367006
593,1778612656100,0.013179091,-0.7665838,0.35046622,-1.4422529,0.4813618,0.61575216
594,1778612656110,0.013179091,-0.7665838,0.35046622,-1.3231341,0.44776422,0.6914995
595,1778612656120,-0.011958805,-0.439059,0.1769415,-1.2889256,0.5039638,0.7165449
596,1778612656130,-0.05686534,-0.16595893,0.102259986,-1.2840388,0.7635816,0.82772243
597,1778612656140,-0.050031736,-0.06028214,0.09054524,-1.2699889,0.8686504,0.89980453
598,1778612656150,-0.027334413,0.024405725,0.07224095,-1.2357804,1.0073168,0.9755518
599,1778612656160,-0.0061014313,0.084687866,0.05296042,-1.1948525,1.10139,1.0158689
600,1778612656170,0.06687169,0.17645338,-0.024893839,-1.1655309,1.110553,1.0140363
601,1778612656180,0.07565775,0.20329969,-0.041733786,-1.1575897,0.8949176,0.9334021
602,1778612656190,0.054668825,0.2272173,0.0036608586,-1.105666,0.73426,0.8961393
603,1778612656200,0.033679903,0.23868799,0.08981306,-0.98471475,0.64751714,0.88453287
604,1778612656210,0.058817793,0.15961345,0.27602875,-0.36041048,0.48441613,0.8546005
605,1778612656220,0.08395569,0.061014313,0.3121492,0.25473082,0.3115413,0.7079928
606,1778612656230,0.12593354,-0.12593354,0.26162934,0.25473082,0.3115413,0.7079928
607,1778612656240,0.18084641,-0.21013328,0.1666911,0.49296826,0.22174409,0.657291
608,1778612656250,0.21574661,-0.22331238,0.13569583,0.6957755,0.2657264,0.62796944
609,1778612656260,0.21574661,-0.22331238,0.13569583,0.6957755,0.2657264,0.62796944
610,1778612656270,0.17840585,-0.20525214,0.16083373,0.6927212,0.48991394,0.5864306
611,1778612656280,0.017816179,-0.03929322,0.13593988,0.7788532,0.7141015,0.56382865
612,1778612656290,-0.017572122,0.027822526,0.07785426,0.820392,0.8350528,0.5748242
613,1778612656300,-0.04637088,0.0873725,-0.0021965152,0.84971356,1.0396926,0.58459806
614,1778612656310,-0.09005712,0.122760795,-0.08956901,0.83016586,1.241889,0.6072
615,1778612656320,-0.14497001,0.10518867,-0.27846932,0.77640975,1.4043792,0.63529986
616,1778612656330,-0.15277983,0.035632357,-0.35485923,0.5626069,2.103209,0.7415904
617,1778612656340,-0.09737884,-0.042221904,-0.340948,0.453262,2.4019222,0.79045963
618,1778612656350,0.041733786,-0.33094162,0.18792409,0.42577308,2.453235,0.7703011
619,1778612656360,0.041733786,-0.33094162,0.18792409,0.7470882,1.704925,0.7147123
620,1778612656370,0.26114124,-0.7690244,1.1492655,0.7470882,1.704925,0.7147123
621,1778612656380,0.26114124,-0.7690244,1.1492655,1.7379116,-0.37690386,0.5839872
622,1778612656390,0.8561529,-1.7764928,0.7924539,2.833804,-2.6218336,0.10445796
623,1778612656400,0.89715445,-2.2514281,0.61795294,2.8002062,-3.0335567,-0.9682214
624,1778612656410,0.6901939,-2.5957928,0.35046622,2.2693644,-2.3970351,-1.2803736
625,1778612656420,0.5000733,-2.859619,0.09322987,1.4056009,-0.73853606,-1.3310753
626,1778612656430,0.10396838,-2.1801634,0.20769271,0.68111473,2.5668557,-0.6389651
627,1778612656440,-0.018792408,-1.8724071,0.46590528,0.6640105,2.5485299,-0.41783184
628,1778612656450,-0.14008886,-1.8836339,0.72826684,0.5320636,1.4886786,-0.24923302
629,1778612656460,-0.18182266,-2.1755261,0.82052046,0.051923547,0.3109304,-0.031154128
630,1778612656470,-0.061502427,-2.825939,1.0880072,-0.96761054,1.1960741,0.5369505
631,1778612656480,-0.014887493,-2.8693812,0.9271735,-1.1630874,1.9339994,0.73548174
632,1778612656490,0.118855886,-2.177723,0.5422952,-1.1887437,1.8869628,0.81183994
633,1778612656500,0.34607318,-1.8135895,0.6645679,-0.8045095,-0.29626966,0.19975294
634,1778612656510,0.4097721,-1.8538588,0.6855568,-0.82833326,-0.9370673,-0.013439035
635,1778612656520,0.48665017,-1.974423,0.635281,-1.006095,-1.4117095,-0.1441642
636,1778612656530,0.50593066,-2.0517893,0.554254,-1.2400564,-1.5992452,-0.20830505
637,1778612656540,0.52374685,-2.0652125,0.53253293,-1.3451253,-1.5858061,-0.21930063
638,1778612656550,0.51740134,-1.8172504,0.5252112,-1.4074335,-1.4984524,-0.2602286
639,1778612656560,0.49397188,-1.6044323,0.5725583,-1.2351695,-1.3457361,-0.43493605
640,1778612656570,0.50593066,-1.4008886,0.5730464,-0.98654735,-1.3768903,-0.5644395
641,1778612656580,0.507395,-1.142676,0.5435155,-0.52839845,-1.568091,-0.7635816
642,1778612656590,0.46883395,-1.0077124,0.4685899,-0.30665436,-1.7574593,-0.8594874
643,1778612656600,0.31019676,-0.77097684,0.30067852,-0.14538592,-1.949271,-0.9456194
644,1778612656610,0.31019676,-0.77097684,0.30067852,-0.07880162,-2.111761,-0.9963212
645,1778612656620,0.082247294,-0.5520575,0.2506468,-0.027488936,-2.2064452,-1.0445796
646,1778612656630,-0.05686534,-0.42246306,0.22477673,-0.028099801,-2.0500638,-1.0274754
647,1778612656640,-0.30043447,-0.16278619,0.05759751,-0.18936823,-1.3732251,-0.8888089
648,1778612656650,-0.42636803,0.08053889,-0.08029483,-0.38056904,-0.82894415,-0.74464476
649,1778612656660,-0.42636803,0.08053889,-0.08029483,-0.54000485,-0.4392121,-0.6151413
650,1778612656670,-0.37975308,0.27407628,-0.1244692,-0.95905846,0.26939157,-0.29565877
651,1778612656680,-0.3141017,0.33777523,-0.108117364,-1.1276573,0.34208453,-0.2144137
652,1778612656690,-0.21086545,0.43515408,0.02391761,-1.5283848,-0.004276057,-0.09285152
653,1778612656700,-0.1637624,0.47493544,0.10592084,-1.5570955,-0.18325958,-0.051923547
654,1778612656710,-0.110557936,0.3443648,0.15790504,-1.4398094,-0.14355333,-0.018325957
655,1778612656720,-0.054912884,0.16742326,0.15570852,-1.1533136,0.044593163,-0.007941248
656,1778612656730,0.014887493,-0.011226633,0.110801995,-0.79290307,0.26267207,-0.093462385
657,1778612656740,0.04637088,-0.15961345,-0.035632357,-0.1966986,0.5375614,-0.26145032
658,1778612656750,0.09274176,-0.21330604,-0.11568313,0.02321288,0.47403142,-0.258396
659,1778612656760,0.43539813,-0.29774985,-0.16058967,0.1142318,0.25289822,-0.25717425
660,1778612656770,0.8066092,-0.24918245,0.13716017,0.30543262,-1.5265522,-0.86009824
661,1778612656780,0.7390053,-0.23502712,0.520086,0.77824235,-2.067168,-1.2315043
662,1778612656790,0.27529657,-0.18426323,0.55791485,1.5332718,-2.1991148,-1.5076154
663,1778612656800,0.107385196,-0.22916976,0.5227706,2.719572,-1.3390167,-1.7165314
664,1778612656810,0.025137896,-0.28627914,0.55523026,3.1948252,-0.8216137,-1.7782288
665,1778612656820,-0.019280521,-0.37072295,0.71167094,3.6297612,-0.46853364,-1.863139
666,1778612656830,-0.08786061,-0.5418071,1.1236396,3.962683,-0.408058,-1.9083431
667,1778612656840,-0.20012695,-0.6211257,0.7602383,4.678617,-0.5143485,-1.7941113
668,1778612656850,-0.264314,-0.7072779,-0.32459614,4.2143593,0.06414085,-1.5381587
669,1778612656860,0.127886,-0.8534682,-1.2088156,2.723848,1.8594738,-1.2370021
670,1778612656870,0.47103047,-0.98159826,-0.40049794,1.6566665,3.5240817,-1.3127494
671,1778612656880,1.9490411,-1.9073074,0.95987713,1.9089539,3.3677,-1.500285
672,1778612656890,2.0488605,-2.3902967,0.12178457,3.4831536,0.9236283,-2.9950724
673,1778612656900,0.7924539,-2.3175676,0.21184167,3.4006867,1.1606439,-2.982855
674,1778612656910,-0.18523945,-1.9790602,0.6570021,3.3970215,1.4892895,-2.2724187
675,1778612656920,-0.0605262,-1.0116173,0.6545615,1.713477,2.5033257,-0.18142697
676,1778612656930,0.43100512,-0.9359596,1.0357789,1.4367551,1.8173242,0.05681047
677,1778612656940,0.54107493,-0.7968469,0.3912238,1.4440855,0.4269948,-0.0067195175
678,1778612656950,0.5405868,-0.83882475,0.63186425,0.7165449,-1.2864822,-0.045814894
679,1778612656960,0.63943,-1.0077124,0.9776934,0.4605924,-2.1233675,-0.042760566
680,1778612656970,0.84102124,-1.189779,1.1009423,0.33108896,-2.5631905,-0.13255776
681,1778612656980,1.359887,-1.4187049,1.1373067,0.16310102,-2.5955665,-0.21197024
682,1778612656990,1.7044959,-1.5683119,1.3547617,-0.36285394,-1.7562376,-0.64568454
683,1778612657000,1.5900329,-1.6300584,1.359399,-0.5137377,-1.382388,-0.79412484
684,1778612657010,1.3201057,-1.7262169,1.3039979,-0.8313876,-0.7825184,-0.5852089
685,1778612657020,1.1783084,-1.8702106,1.2488409,-1.1624765,-0.10629055,-0.21930063
686,1778612657030,0.993313,-1.7140139,0.9791577,-1.6658295,0.6554584,0.23701571
687,1778612657040,1.0379754,-1.5944259,0.9469421,-1.9211712,0.5876524,0.39767328
688,1778612657050,0.9686632,-1.5253577,0.86201024,-2.094657,0.29626966,0.5174029
689,1778612657060,0.5108118,-1.3474401,0.45248213,-2.9535334,-0.2510656,1.024421
690,1778612657070,0.39927766,-1.2913069,0.4300289,-3.164893,-0.1881465,1.1404854
691,1778612657080,0.29140437,-1.2395668,0.37194324,-3.400076,-0.15577064,1.3274102
692,1778612657090,0.17596528,-1.1870944,0.28920785,-3.5784485,-0.12095132,1.5314392
693,1778612657100,0.09640261,-1.1334019,0.26699865,-3.6786306,-0.14905111,1.6676621
694,1778612657110,0.03172744,-1.0118613,0.22013964,-3.7372735,-0.4550946,1.9413297
695,1778612657120,-0.00048811449,-0.9454777,0.19451363,-3.7048976,-0.57604593,2.0201313
696,1778612657130,0.00073217176,-0.73607665,0.15375607,-3.62182,-0.70554936,2.143526
697,1778612657140,0.05051985,-0.63235235,0.12568948,-3.2400293,-0.54428095,2.3768766
698,1778612657150,0.058085624,-0.53350914,0.12837411,-3.101363,-0.24312437,2.4123068
699,1778612657160,0.039537273,-0.4502856,0.15033926,-2.9816332,0.19120082,2.439185
700,1778612657170,0.05832968,-0.36950266,0.2037878,-2.9217684,0.5143485,2.4318545
701,1778612657180,0.11568313,-0.23600335,0.3219115,-2.738509,0.71959925,2.2962425
702,1778612657190,0.17987019,-0.19353738,0.3526627,-2.5234842,0.7098254,2.158187
703,1778612657200,0.23136626,-0.16351835,0.40391475,-2.302962,0.6792821,2.0195205
704,1778612657210,0.31873876,-0.1432616,0.48128092,-1.91323,0.5693264,1.8252654
705,1778612657220,0.31434575,-0.15595257,0.42148685,-0.43004912,0.54733527,1.2021828
706,1778612657230,0.31434575,-0.15595257,0.42148685,-0.43004912,0.54733527,1.2021828
707,1778612657240,0.30946457,-0.15619664,0.2860351,0.4728097,0.6273586,0.84238315
708,1778612657250,0.38902727,-0.15717287,0.26529023,0.65179324,0.30543262,0.7293731
709,1778612657260,0.38902727,-0.15717287,0.26529023,0.8350528,-0.31337386,0.57360244
710,1778612657270,0.33582276,-0.1044565,0.20988922,1.0861185,-1.387275,0.36835176
711,1778612657280,0.25015867,-0.048323333,0.13667206,1.1771374,-1.7342464,0.35308012
712,1778612657290,0.1552204,0.022941383,0.05515694,1.2217305,-1.8472565,0.4129449
713,1778612657300,0.033435844,0.10323621,-0.07468152,1.1606439,-1.600467,0.5174029
714,1778612657310,-0.13740423,0.15912533,-0.21574661,1.0732902,-1.1844677,0.5766568
715,1778612657320,-0.13740423,0.15912533,-0.21574661,0.8533788,0.14844026,0.7067711
716,1778612657330,-0.17547716,0.107629254,-0.2806658,0.6780604,1.241889,0.784351
717,1778612657340,-0.28164205,-0.06760386,-0.31141704,0.32253686,3.2253685,0.94806284
718,1778612657350,-0.28164205,-0.06760386,-0.31141704,0.32253686,3.2253685,0.94806284
719,1778612657360,0.049299564,-0.37218732,-0.06662763,-0.065973446,4.219857,0.9627236
720,1778612657370,0.17328064,-0.5630401,0.22526483,-0.070249505,3.2901201,0.8509353
721,1778612657380,0.45174995,-0.8983747,0.9237567,0.41172317,1.8393153,0.73975784
722,1778612657390,1.1246158,-2.156978,1.8023627,1.3206906,0.15699236,0.5412266
723,1778612657400,0.9859913,-2.3895645,0.5940353,3.3677,-3.9358048,-0.40133846
724,1778612657410,0.82808626,-2.494265,-0.16400647,2.728735,-3.6346483,-0.766025
725,1778612657420,0.5762192,-2.5879831,-0.17328064,2.0873265,-2.5503623,-1.0097603
726,1778612657430,0.13154685,-2.344658,0.2716357,1.6071864,-0.5216789,-1.2260065
727,1778612657440,0.23136626,-1.5749013,0.36022848,1.3561208,1.496009,-0.68294734
728,1778612657450,0.23136626,-1.5749013,0.36022848,0.9456194,0.5021312,-0.58032197
729,1778612657460,0.3402158,-1.9160933,0.36852646,0.9456194,0.5021312,-0.58032197
730,1778612657470,0.35534734,-2.2553332,0.46370876,0.44837508,-0.100792766,-0.5357288
731,1778612657480,-0.1415532,-2.6180022,0.56523657,-0.66156703,0.3885103,-0.18142697
732,1778612657490,-0.24747404,-2.4522872,0.41977844,-0.86070913,1.4764613,0.204029
733,1778612657500,0.0976229,-1.7611171,0.6811638,-0.8454375,0.37812558,0.049480084
734,1778612657510,0.13520771,-1.7857668,0.6372335,-0.91629785,-0.093462385,-0.051923547
735,1778612657520,0.17084008,-1.8963249,0.5271637,-1.0635164,-0.46609017,-0.15760323
736,1778612657530,0.18475133,-2.0281157,0.41611758,-1.2021828,-0.6230826,-0.21502456
737,1778612657540,0.25308737,-2.0539858,0.3048275,-1.2944235,-0.63041294,-0.21319197
738,1778612657550,0.29311275,-1.9788162,0.32996538,-1.3903292,-0.634689,-0.18325958
739,1778612657560,0.3392396,-1.820423,0.3660859,-1.3304645,-0.77518797,-0.20525073
740,1778612657570,0.3917119,-1.6529999,0.38585448,-1.1856894,-0.9431759,-0.2602286
741,1778612657580,0.4886026,-1.4545813,0.49128726,-1.1856894,-0.9431759,-0.2602286
742,1778612657590,0.5215503,-1.325719,0.48054874,-0.7696902,-1.1429288,-0.49968776
743,1778612657600,0.5432714,-1.1814811,0.4288086,-0.16737708,-1.4929546,-0.7849618
744,1778612657610,0.53643787,-0.98794377,0.30433938,0.07269296,-1.5088371,-0.93523467
745,1778612657620,0.49299565,-0.81197846,0.18694785,0.18142697,-1.4337007,-1.0396926
746,1778612657630,0.30604777,-0.50031734,0.024405725,0.18753563,-1.0494665,-1.2040154
747,1778612657640,0.234539,-0.3738957,-0.0043930304,0.12767084,-0.88270026,-1.2260065
748,1778612657650,0.15253578,-0.23039004,-0.0012202862,0.007941248,-0.6646214,-1.2614367
749,1778612657660,-0.105676785,0.13227904,0.09005712,-0.23701571,-0.35430184,-1.2669345
750,1778612657670,-0.19256116,0.22209209,0.10348027,-0.42210788,-0.204029,-1.1392636
751,1778612657680,-0.30629185,0.31141704,0.051740136,-0.46792278,-0.20525073,-1.0005972
752,1778612657690,-0.3785328,0.37194324,-0.102748096,-0.46914452,0.26206118,-0.6597345
753,1778612657700,-0.34778157,0.38585448,-0.11983211,-0.37018433,0.6084218,-0.4813618
754,1778612657710,-0.2967736,0.38731885,-0.10860548,-0.25961772,0.70554936,-0.37201694
755,1778612657720,-0.277005,0.38683072,-0.0873725,-0.11789699,0.49602258,-0.24740042
756,1778612657730,-0.053692598,0.008786061,-0.05344854,0.1740966,-0.3036,0.034208454
757,1778612657740,0.059549972,-0.13740423,-0.034168016,0.3378085,-0.6786713,0.055588737
758,1778612657750,0.10689708,-0.19915071,-0.025870068,0.48075095,-0.95233893,0.015271631
759,1778612657760,0.15668476,-0.24186075,-0.012690976,0.5723807,-1.1044444,-0.021991149
760,1778612657770,0.31239328,-0.2489384,0.027822526,0.8533788,-1.3384057,-0.49235737
761,1778612657780,0.23258655,-0.191829,0.1010397,0.8533788,-1.3384057,-0.49235737
762,1778612657790,0.16058967,-0.1581491,0.16913168,0.95539325,-1.3206906,-0.6383542
763,1778612657800,0.111046046,-0.13520771,0.26797485,1.4471397,-1.10139,-0.8698721
764,1778612657810,0.061746486,-0.1581491,0.41977844,2.1618521,-0.7079928,-1.0201449
765,1778612657820,-0.004881145,-0.16791138,0.4463807,2.5967882,-0.3023783,-1.078788
766,1778612657830,-0.020988923,-0.20549619,0.49982923,2.9034426,-0.02321288,-1.0885619
767,1778612657840,0.16180995,-0.34631723,0.68262815,3.6462545,0.267559,-1.0781772
768,1778612657850,0.31751847,-0.4229512,0.6211257,3.897931,0.27000242,-1.1050552
769,1778612657860,0.4795725,-0.47347105,0.26114124,3.9877284,0.3659083,-1.1490375
770,1778612657870,0.5952556,-0.5017817,-0.16351835,3.5106425,0.5027421,-1.1563679
771,1778612657880,1.0201592,-0.5742667,-0.50885934,1.790446,0.56077427,-1.205848
772,1778612657890,1.0675064,-0.5784157,-0.2762728,0.9779953,0.3811799,-1.4031575
773,1778612657900,1.9531902,-1.1202227,1.2522577,1.2168436,-0.44593164,-2.1728477
774,1778612657910,1.6551963,-2.6355743,2.1384296,3.62182,-0.7831292,-3.8496728
775,1778612657920,0.76804817,-3.1434574,1.3271832,3.436117,0.14844026,-3.7885861
776,1778612657930,-0.10592084,-3.1900723,0.5847612,1.926669,2.9303205,-2.9956832
777,1778612657940,-0.38048524,-2.782985,0.77073276,0.41905355,4.82889,-1.8503108
778,1778612657950,0.50641876,-1.7769808,1.1751356,-0.03726278,4.206418,-1.1001683
779,1778612657960,0.45516676,-1.4699568,0.8876362,0.7464773,0.49968776,0.017715093
780,1778612657970,0.5025139,-1.2983845,0.4937278,0.788627,-0.915687,0.45631635
781,1778612657980,0.78415596,-1.2346857,0.78610843,0.6059783,-1.6914859,0.49968776
782,1778612657990,1.0675064,-1.227852,0.9798898,0.26145032,-2.32984,0.31948254
783,1778612658000,1.4394495,-1.4008886,0.90691674,-0.8173377,-1.4147639,0.1881465
784,1778612658010,1.599063,-1.5177921,0.9230245,-1.4605788,-0.44898596,0.24678956
785,1778612658020,1.6049205,-1.534388,0.8715284,-1.9999728,0.059864793,0.21746802
786,1778612658030,1.0880072,-1.5321914,0.7726852,-2.9999592,0.04642576,0.37751472
787,1778612658040,1.0045396,-1.5785623,0.72875494,-3.2100968,0.015882496,0.45814893
788,1778612658050,1.0045396,-1.5785623,0.72875494,-3.2100968,0.015882496,0.45814893
789,1778612658060,0.84248555,-1.6364038,0.77805454,-3.2834008,0.118507855,0.39950588
790,1778612658070,0.41807005,-1.6290822,0.51398456,-3.3786957,0.16798794,0.59986967
791,1778612658080,0.27871338,-1.5338998,0.42905265,-3.3102787,0.09285152,0.75441855
792,1778612658090,0.23942018,-1.4387175,0.42734426,-3.20521,-0.103847094,0.91446525
793,1778612658100,0.1403329,-1.2883781,0.42026657,-3.0757065,-0.29077184,1.0488557
794,1778612658110,0.1403329,-1.2883781,0.42026657,-3.0757065,-0.29077184,1.0488557
795,1778612658120,-0.03172744,-0.69165826,0.32630453,-2.557082,-0.45081854,1.5192219
796,1778612658130,-0.0690682,-0.50446635,0.25650415,-2.5051584,-0.22602014,1.717753
797,1778612658140,-0.049543623,-0.26626647,0.19622204,-2.5185974,0.5039638,1.917506
798,1778612658150,-0.052716363,-0.17425688,0.21721096,-2.538145,0.8753699,1.9327776
799,1778612658160,-0.03636453,-0.093473926,0.25333142,-2.533869,1.2406673,1.953547
800,1778612658170,0.0134231495,-0.051496077,0.31263736,-2.4733934,1.4300356,1.9498819
801,1778612658180,0.056377225,-0.031483386,0.34387666,-2.375655,1.473407,1.9083431
802,1778612658190,0.19500175,-0.019768637,0.24600971,-1.7171422,1.3487904,1.4172074
803,1778612658200,0.16864355,-0.030507157,0.19304928,-1.3713925,1.346347,1.210124
804,1778612658210,0.13740423,-0.06711575,0.16278619,-0.6951646,1.4306464,1.0317514
805,1778612658220,0.15253578,-0.07028849,0.24356914,-0.28527406,1.2938126,0.9639453
806,1778612658230,0.20525214,-0.10201593,0.30507156,0.15149458,0.9932669,0.88025683
807,1778612658240,0.26626647,-0.14423785,0.35827604,0.56138515,0.49235737,0.77763146
808,1778612658250,0.3265486,-0.19915071,0.38927132,1.1362094,-0.75808376,0.61391956
809,1778612658260,0.30385128,-0.2135501,0.34192422,1.3762794,-1.5192219,0.5216789
810,1778612658270,0.22697324,-0.18548352,0.2403964,1.486846,-1.9999728,0.4538729
811,1778612658280,0.09518232,-0.10494461,0.118855886,1.4923438,-2.3774874,0.41172317
812,1778612658290,-0.16522676,0.04344219,-0.09786696,1.2290609,-2.0066924,0.5186246
813,1778612658300,-0.2762728,0.065407336,-0.19304928,0.9560041,-1.2290609,0.643852
814,1778612658310,-0.3585201,0.07492557,-0.2889638,0.643852,0.007330383,0.8179486
815,1778612658320,-0.43491003,0.044662476,-0.41587353,0.39767328,1.1710287,0.9950995
816,1778612658330,-0.34168017,-0.013911263,-0.6037976,-0.44959682,3.7348301,1.4135422
817,1778612658340,-0.20256752,-0.06589546,-0.35144243,-0.79901177,4.2394047,1.5344934
818,1778612658350,-0.20256752,-0.06589546,-0.35144243,-0.9279043,4.2864413,1.59558
819,1778612658360,0.10494461,-0.2294138,0.13057062,-0.6774496,3.2143729,1.6688838
820,1778612658370,0.6782351,-0.56523657,1.3603752,0.9804387,0.8924741,1.496009
821,1778612658380,0.89300543,-0.64187056,1.223459,2.1410828,-0.8570439,1.1264355
822,1778612658390,0.9689073,-0.6801876,0.7873287,2.778826,-1.8839084,0.8014552
823,1778612658400,0.8263778,-0.69214636,0.31581008,3.2119296,-2.488054,0.3549127
824,1778612658410,0.8263778,-0.69214636,0.31581008,3.2119296,-2.488054,0.3549127
825,1778612658420,0.2928687,-1.0352908,0.22477673,2.652377,-1.029308,-0.37934732
826,1778612658430,0.2757847,-1.240543,0.084687866,1.9517145,-0.52412236,-0.68233645
827,1778612658440,0.05051985,-2.2951143,0.6897058,0.3659083,0.54611355,-1.0085385
828,1778612658450,-0.15229172,-2.8449752,0.89105296,-0.2828306,1.4165965,-0.8723156
829,1778612658460,-0.17596528,-3.0743892,0.6042857,-0.5137377,2.2180517,-0.3652974
830,1778612658470,-0.10055158,-2.954313,0.41977844,-0.44348818,2.2363777,0.062308256
831,1778612658480,0.11153416,-2.306585,0.6711574,-0.06536258,1.3170254,0.45570546
832,1778612658490,0.11153416,-2.306585,0.6711574,0.56016344,-0.3390302,0.3659083
833,1778612658500,0.11568313,-2.3273299,0.91521466,0.37873647,-0.30604348,0.30726522
834,1778612658510,0.11617125,-2.3392887,0.71996886,-1.205848,0.52106804,0.5546656
835,1778612658520,0.34949,-2.2858403,0.6879974,-1.8289305,0.6908886,0.60231316
836,1778612658530,0.42612398,-2.24191,0.84858704,-1.6530013,0.28893927,0.3622431
837,1778612658540,0.42612398,-2.24191,0.84858704,-1.6530013,0.28893927,0.3622431
838,1778612658550,0.40562314,-2.1672285,0.9808661,-1.0616838,-0.84482664,-0.09407325
839,1778612658560,0.520086,-2.1154883,0.844194,-0.6872234,-1.6181821,-0.4636467
840,1778612658570,0.5635282,-2.0613074,0.7941623,-0.5571091,-1.8093829,-0.6951646
841,1778612658580,0.59964865,-1.9734468,0.7580418,-0.39950588,-1.8118263,-0.8155051
842,1778612658590,0.66847277,-1.6295702,0.6245425,0.0036651916,-1.5259414,-0.8539896
843,1778612658600,0.6303999,-1.424074,0.54717636,0.22357668,-1.423316,-0.90102625
844,1778612658610,0.58232063,-1.2127205,0.42026657,0.39522982,-1.4001031,-0.99387777
845,1778612658620,0.47054234,-1.0267489,0.29482117,0.47952923,-1.3842206,-1.0677924
846,1778612658630,0.21794313,-0.69507504,0.082735404,0.52290064,-1.287093,-1.1374311
847,1778612658640,0.032703668,-0.44052333,0.0026846298,0.42332962,-1.4001031,-1.1026118
848,1778612658650,-0.3660859,-0.079562664,-0.14374973,0.26267207,-1.3603969,-0.8765916
849,1778612658660,-0.45052966,0.011470691,-0.19817449,0.16920967,-1.1410962,-0.67011917
850,1778612658670,-0.4966565,0.09396204,-0.24186075,0.09468412,-0.8949176,-0.49418998
851,1778612658680,-0.49616838,0.16180995,-0.2853029,-0.00061086525,-0.5186246,-0.26511553
852,1778612658690,-0.38658667,0.23697957,-0.22306833,-0.10262536,0.2443461,0.023823744
853,1778612658700,-0.21086545,0.26480213,-0.034168016,-0.047036625,0.4092797,0.05497787
854,1778612658710,-0.088348724,0.2630937,0.04344219,0.10262536,0.45998153,0.05131268
855,1778612658720,0.02318544,0.24283697,0.07565775,0.45265114,0.044593163,-0.02076942
856,1778612658730,0.24234885,0.10982577,0.022697324,0.675617,-1.0574077,-0.1704314
857,1778612658740,0.24234885,0.10982577,0.022697324,0.675617,-1.0574077,-0.1704314
858,1778612658750,0.32337585,0.03734076,-0.04002539,0.5467244,-2.0604484,-0.4288274
859,1778612658760,0.46834585,-0.08517598,-0.04905551,0.33353242,-2.6914723,-0.79717916
860,1778612658770,0.46834585,-0.08517598,-0.04905551,0.3182608,-2.701246,-0.9443977
861,1778612658780,0.2706595,-0.04148973,0.27944556,0.5039638,-2.4825563,-0.99082345
862,1778612658790,0.18377511,-0.021477038,0.35827604,0.80939645,-1.9779817,-0.97494096
863,1778612658800,0.12422514,-0.0043930304,0.42929673,1.2455542,-0.8790351,-0.8167268
864,1778612658810,0.0873725,0.00097622897,0.4846977,1.2895365,-0.45570546,-0.68783426
865,1778612658820,0.09054524,-0.012202863,0.5452239,1.2858714,-0.2742785,-0.589485
866,1778612658830,0.106164895,-0.07199689,0.6577343,1.4043792,-0.115453534,-0.55955255
867,1778612658840,-0.0741934,-0.3738957,1.2424954,1.994475,-0.3494149,-0.8136725
868,1778612658850,-0.0741934,-0.3738957,1.2424954,2.5809057,-0.6267477,-0.87598073
869,1778612658860,-0.46322066,-0.6472398,-0.613804,2.8209758,0.25473082,-0.6133087
870,1778612658870,-0.46322066,-0.6472398,-0.613804,2.8209758,0.25473082,-0.6133087
871,1778612658880,-0.32728076,-0.60697037,-1.4924101,0.5381723,2.698192,-0.6053675
872,1778612658890,0.34753752,-0.76072645,-0.3922,-0.2180789,2.7605,-0.61391956
873,1778612658900,1.3523211,-1.0435888,1.4140676,0.73975784,1.0885619,-1.1820242
874,1778612658910,2.4620495,-2.6453364,2.1306198,5.4495287,-4.094019,-3.6499197
875,1778612658920,1.295944,-3.1602974,0.5610876,5.7311378,-3.4067955,-3.9730675
876,1778612658930,0.71093875,-3.2518187,0.04490653,3.6285396,-0.1863139,-2.8722885
877,1778612658940,0.044418417,-2.6341097,0.5657247,1.7489072,2.4190264,-2.0659463
878,1778612658950,0.25748038,-1.582223,1.3740423,0.88270026,3.4636059,-0.18081611
879,1778612658960,0.55645055,-1.296188,0.8283303,1.1508701,1.8765781,0.080634214
880,1778612658970,0.6760386,-1.1365746,0.72533816,1.187522,0.7153232,0.14110987
881,1778612658980,0.92814976,-1.0765365,0.9091133,1.1722504,-0.56138515,0.047036625
882,1778612658990,0.925221,-1.0677505,0.9274175,0.62796944,-1.3897184,-0.52534413
883,1778612659000,0.71264714,-1.1658615,0.8820229,-0.03848451,-0.9798279,-0.6084218
884,1778612659010,0.79513854,-1.3823403,1.0123495,-0.6542367,-0.86498517,-0.48747048
885,1778612659020,0.8500514,-1.6322548,0.9669548,-0.6542367,-0.86498517,-0.48747048
886,1778612659030,0.9005712,-1.7747843,1.0206474,-1.3579534,-1.0555751,0.0
887,1778612659040,0.9005712,-1.7747843,1.0206474,-1.3579534,-1.0555751,0.0
888,1778612659050,0.9364477,-1.8694785,0.97330034,-1.572978,-0.9236283,0.19120082
889,1778612659060,0.89080894,-1.6598334,0.7604824,-2.2547035,-0.72387534,0.6762278
890,1778612659070,0.82198477,-1.5216969,0.6552937,-2.3854287,-0.64812803,0.8570439
891,1778612659080,0.60941094,-1.4594624,0.6782351,-2.4422393,-0.59437186,1.0836749
892,1778612659090,0.5098356,-1.4025971,0.6123396,-2.5369234,-0.5326745,1.2834278
893,1778612659100,0.5098356,-1.4025971,0.6123396,-2.5369234,-0.5326745,1.2834278
894,1778612659110,0.33313814,-1.1316935,0.4966565,-2.8991663,-0.1001819,1.5839735
895,1778612659120,0.23966423,-1.0391958,0.43930307,-2.9535334,0.05497787,1.6438384
896,1778612659130,0.18353106,-0.946454,0.3785328,-2.950479,0.12156218,1.7299703
897,1778612659140,0.10689708,-0.72826684,0.23966423,-2.8008173,0.026267206,1.8142698
898,1778612659150,0.06980037,-0.63943,0.17669745,-2.6371052,0.0061086523,1.8643607
899,1778612659160,0.05588911,-0.53887844,0.14374973,-2.4452937,0.032986723,1.9230038
900,1778612659170,0.059549972,-0.46151224,0.13789235,-2.2870796,0.10567969,1.9651535
901,1778612659180,0.16400647,-0.27358818,0.117879644,-1.9590448,0.6224717,1.9382755
902,1778612659190,0.22916976,-0.1867038,0.1381364,-1.881465,0.87964594,1.8930714
903,1778612659200,0.28286234,-0.038316987,0.19256116,-1.78617,1.1447614,1.817935
904,1778612659210,0.2865232,0.018792408,0.19597797,-1.6071864,1.3695599,1.6566665
905,1778612659220,0.29213652,0.097134784,0.18475133,-1.3854424,1.432479,1.4569136
906,1778612659230,0.298482,0.122272685,0.20256752,-1.196685,1.4501941,1.3219124
907,1778612659240,0.2928687,0.13886857,0.2272173,-1.0079277,1.4544702,1.2119566
908,1778612659250,0.2550398,0.16034561,0.25381953,-0.36346483,1.3585643,0.95294976
909,1778612659260,0.2506468,0.111046046,0.2550398,-0.10873401,1.2119566,0.87781334
910,1778612659270,0.26406994,0.021965152,0.23697957,0.21319197,0.91507614,0.7654142
911,1778612659280,0.27554062,-0.052716363,0.20549619,0.48991394,0.56138515,0.6420194
912,1778612659290,0.2677308,-0.1044565,0.18279888,0.6554584,0.29871312,0.54733527
913,1778612659300,0.24674188,-0.23014598,0.37926495,1.237613,-0.6805039,0.3494149
914,1778612659310,0.117147475,-0.25284332,0.45589894,1.237613,-0.6805039,0.3494149
915,1778612659320,-0.0021965152,-0.20403185,0.3236199,1.971873,-1.3939945,0.28405234
916,1778612659330,-0.0021965152,-0.20403185,0.3236199,1.971873,-1.3939945,0.28405234
917,1778612659340,-0.21452633,-0.057109397,-0.22575295,2.0555615,-0.23335053,0.37140608
918,1778612659350,-0.29945824,0.029530926,-0.5440036,1.7965547,0.99204516,0.5320636
919,1778612659360,-0.42197496,0.08005078,-0.8334555,0.77091193,3.4379497,0.9468411
920,1778612659370,-0.35827604,0.031239327,-0.6535853,0.17104226,4.396397,1.1820242
921,1778612659380,-0.23600335,-0.082735404,-0.35071027,-0.10751228,4.682893,1.2889256
922,1778612659390,-0.07297312,-0.2716357,0.17816179,-0.20158553,4.387845,1.3200798
923,1778612659400,0.32044718,-1.0172306,1.9241474,1.2253957,0.69027776,1.0922271
924,1778612659410,0.43759465,-1.4970472,2.2004201,2.1820107,-1.4587462,0.8875872
925,1778612659420,0.47493544,-1.8973011,1.3991802,3.0946434,-3.5778377,0.6065892
926,1778612659430,0.77024466,-2.247523,-0.32850105,2.656042,-3.7226129,0.28344148
927,1778612659440,0.21574661,-2.8630354,-0.3841461,0.044593163,-0.5888741,0.07452556
928,1778612659450,-0.32166746,-2.4871874,0.967443,-0.8741482,3.1062498,1.0360274
929,1778612659460,-0.32166746,-2.4871874,0.967443,-0.8741482,3.1062498,1.0360274
930,1778612659470,0.44052333,-1.9109682,0.9188756,0.24495697,1.6633861,0.84971356
931,1778612659480,0.20525214,-1.8023627,0.63454884,0.64934975,-0.18081611,0.23335053
932,1778612659490,0.10128376,-1.8780205,0.7663397,0.52778757,-0.1337795,0.089186326
933,1778612659500,0.1295944,-1.9846735,0.7055695,0.12950343,0.09101892,-0.05009095
934,1778612659510,0.25089085,-2.0410507,0.65090066,-0.7470882,0.5119051,-0.13439035
935,1778612659520,0.42246306,-2.0493488,0.7482795,-0.89919364,0.5345071,-0.25595254
936,1778612659530,0.4825012,-2.0278716,0.7551131,-0.90224797,0.3622431,-0.4196644
937,1778612659540,0.48054874,-1.9932156,0.7292431,-0.8576548,-0.015882496,-0.66523224
938,1778612659550,0.40049794,-1.9268318,0.6262509,-0.84788096,-0.61758476,-1.0158689
939,1778612659560,0.37999713,-1.9287844,0.57451075,-0.90408057,-0.8368854,-1.1258247
940,1778612659570,0.4566311,-1.9217068,0.4834774,-0.9663888,-1.028697,-1.2064588
941,1778612659580,0.4566311,-1.9217068,0.4834774,-0.9663888,-1.028697,-1.2064588
942,1778612659590,0.39634898,-1.5204766,0.49299565,-0.6462954,-1.6719382,-1.3249667
943,1778612659600,0.39634898,-1.5204766,0.49299565,-0.6462954,-1.6719382,-1.3249667
944,1778612659610,0.27017137,-1.21028,0.41684976,-0.44959682,-2.0244074,-1.350623
945,1778612659620,0.08956901,-0.9459658,0.34558508,-0.41233405,-2.0335703,-1.319469
946,1778612659630,-0.044418417,-0.78928113,0.32166746,-0.45998153,-1.7110336,-1.2571607
947,1778612659640,-0.16083373,-0.66700846,0.28676724,-0.56016344,-1.4355333,-1.1899655
948,1778612659650,-0.27944556,-0.55059314,0.24820623,-0.6560693,-1.1588113,-1.1276573
949,1778612659660,-0.3995217,-0.4195344,0.20403185,-0.78801614,-0.98715824,-1.0305296
950,1778612659670,-0.5701177,-0.18475133,0.1398448,-0.95172805,-0.8417723,-0.77579886
951,1778612659680,-0.60306543,-0.0690682,0.0959145,-0.98654735,-0.9077458,-0.6554584
952,1778612659690,-0.5947675,0.057841565,0.055400997,-1.0305296,-0.94989544,-0.46120325
953,1778612659700,-0.409284,0.25650415,-0.00707766,-1.1704178,-0.82894415,-0.13072516
954,1778612659710,-0.102259986,0.31703037,-0.018060237,-1.2528846,-0.7098254,-0.04520403
955,1778612659720,-0.102259986,0.31703037,-0.018060237,-1.3115277,-0.59620446,-0.055588737
956,1778612659730,0.12129646,0.32166746,0.18133454,-0.9981538,-0.30298916,-0.17654006
957,1778612659740,0.14057697,0.25748038,0.24405725,-0.63529986,-0.100792766,-0.10873401
958,1778612659750,0.19256116,0.12886222,0.2630937,-0.33108896,0.034208454,-0.017715093
959,1778612659760,0.19256116,0.12886222,0.2630937,-0.33108896,0.034208454,-0.017715093
960,1778612659770,0.30580372,-0.16864355,0.036608588,0.5326745,0.07696902,-0.31642818
961,1778612659780,0.31605414,-0.16498269,-0.04148973,0.6805039,0.015271631,-0.43310347
962,1778612659790,0.36218095,-0.15546446,-0.029042812,0.8020661,-0.10323623,-0.5516113
963,1778612659800,0.41294485,-0.14985114,0.0134231495,0.91874135,-0.21319197,-0.67256266
964,1778612659810,0.46639338,-0.15326795,0.122760795,1.1074986,-0.39645153,-0.86315256
965,1778612659820,0.5205741,-0.17108414,0.15741692,1.5247196,-0.7672467,-1.1838568
966,1778612659830,0.5205741,-0.17108414,0.15741692,1.5247196,-0.7672467,-1.1838568
967,1778612659840,0.545468,-0.17791773,0.18206671,1.7684549,-0.93401295,-1.3903292
968,1778612659850,0.39878955,-0.5022698,0.6784792,2.9095511,-0.57604593,-2.0005836
969,1778612659860,0.32606047,-0.7150877,0.49031103,3.5747833,-0.4972443,-2.1801782
970,1778612659870,0.32606047,-0.7150877,0.49031103,3.5747833,-0.4972443,-2.1801782
971,1778612659880,-0.07443746,-1.3803878,0.38512233,3.5937202,1.8283197,-1.9486601
972,1778612659890,-0.32069123,-1.5853959,0.45785138,3.591277,1.7159204,-1.7263051
973,1778612659900,-0.32239962,-1.7965053,0.40611124,3.4190128,0.8399397,-1.3414601
974,1778612659910,0.054668825,-1.9824771,0.13081467,2.9883528,-0.035430185,-1.0500773
975,1778612659920,0.21794313,-2.0315325,0.55864704,2.171015,0.16798794,-0.7360926
976,1778612659930,0.12813005,-1.7777131,0.34558508,2.171015,0.16798794,-0.7360926
977,1778612659940,0.18523945,-1.3076587,-0.16693515,1.6291776,1.0604621,-0.02321288
978,1778612659950,0.89861876,-0.76219076,0.16034561,1.2589933,1.0054842,0.29993483
979,1778612659960,1.5053451,-0.59672,0.5217944,0.9810496,-0.52778757,0.057421334
980,1778612659970,1.7210917,-0.5120321,0.7873287,1.0464121,-1.1997393,-0.40561453
981,1778612659980,1.8223755,-0.73729694,1.3759948,1.1844677,-1.9700404,-1.0274754
982,1778612659990,1.8223755,-0.73729694,1.3759948,1.1844677,-1.9700404,-1.0274754
983,1778612660000,1.6608096,-1.9683217,1.5204766,0.62796944,-0.7556403,-2.1453588
984,1778612660010,1.1099724,-2.1452632,1.850198,-0.093462385,1.1844677,-1.6493362
985,1778612660020,0.6487042,-2.152341,1.9163376,-0.40866885,2.3096814,-0.9602802
986,1778612660030,0.15790504,-1.2512815,0.9972179,-1.2498302,0.56077427,0.040927973
987,1778612660040,0.13325526,-1.1492655,1.0333383,-1.3304645,-0.2706133,0.18081611
988,1778612660050,0.13325526,-1.1492655,1.0333383,-1.3304645,-0.2706133,0.18081611
989,1778612660060,0.5208182,-1.2678773,1.0589644,-1.577254,-1.2608259,0.86620694
990,1778612660070,0.5208182,-1.2678773,1.0589644,-1.577254,-1.2608259,0.86620694
991,1778612660080,0.635281,-1.4250503,0.6384538,-2.723848,-0.37384954,1.9126191
992,1778612660090,0.67042524,-1.3974718,0.5879339,-3.0231721,-0.17592919,2.1368067
993,1778612660100,0.609655,-1.4374971,0.4612682,-3.3115005,-0.009162978,2.2950208
994,1778612660110,0.5891542,-1.4470154,0.37096703,-3.602883,-0.24373524,2.547308
995,1778612660120,0.53717,-1.4130914,0.3333822,-3.616933,-0.33292156,2.5466971
996,1778612660130,0.5352176,-1.4243181,0.34241232,-3.4782667,-0.24373524,2.4184155
997,1778612660140,0.33484653,-1.2493291,0.28627914,-3.0848694,0.049480084,2.0378466
998,1778612660150,0.2169669,-1.1168059,0.26504618,-2.8447995,0.19242255,1.881465
999,1778612660160,0.17962612,-0.9825745,0.26675457,-2.6047294,0.23701571,1.7788396
1000,1778612660170,0.23917611,-0.6238103,0.28505886,-2.1270328,0.3378085,1.6212363
