id,timestamp,acc_x,acc_y,acc_z,gyro_x,gyro_y,gyro_z
0,1778606051980,-0.6450433,-0.78488815,0.14594623,-0.112399206,-0.37751472,-0.3549127
1,1778606051990,-0.6977597,-0.7380291,0.0924977,-0.20647246,-0.5852089,-0.3378085
2,1778606052000,-0.6577343,-0.7653635,0.07834238,-0.72692966,-0.76174897,-0.22540927
3,1778606052010,-0.6152683,-0.79318607,0.35827604,-0.7635816,-0.65668017,-0.23090707
4,1778606052020,-0.6152683,-0.79318607,0.35827604,-0.7128797,-0.48258355,-0.23701571
5,1778606052030,-0.6282034,-0.763167,0.6067263,-0.35430184,-0.24190263,-0.22602014
6,1778606052040,-0.6343048,-0.75950617,0.6067263,-0.09162979,0.076358154,-0.226631
7,1778606052050,-0.70337296,-0.75950617,0.5959878,0.17837265,0.41050145,-0.22724187
8,1778606052060,-0.7556012,-0.7743936,0.5112999,0.44959682,0.625526,-0.18753563
9,1778606052070,-0.72485006,-0.78806084,0.30848834,0.68477994,0.52106804,0.016493361
10,1778606052080,-0.7063017,-0.7570656,0.22502078,0.6053675,0.33414328,0.1001819
11,1778606052090,-0.6233222,-0.8073414,0.0959145,0.50579643,0.3023783,0.10567969
12,1778606052100,-0.5684093,-0.81271064,0.0353883,0.33475417,0.2284636,0.06780604
13,1778606052110,-0.5730464,-0.79269797,0.04148973,-0.050701816,-0.04337143,0.012217305
14,1778606052120,-0.5859815,-0.7604824,0.0741934,-0.172264,-0.1704314,0.005497787
15,1778606052130,-0.5801241,-0.7297312,0.16010156,-0.2968805,-0.23090707,-0.021380283
16,1778606052140,-0.5867136,-0.7321718,0.2169669,-0.36957347,-0.2125811,-0.06963864
17,1778606052150,-0.614048,-0.6953191,0.30848834,-0.2919936,0.057421334,-0.21074851
18,1778606052160,-0.5515694,-0.673842,0.31678632,-0.26328292,0.21013765,-0.22174409
19,1778606052170,-0.5320448,-0.673842,0.31776255,-0.21502456,0.31215215,-0.30176744
20,1778606052180,-0.5320448,-0.673842,0.31776255,-0.21502456,0.31215215,-0.30176744
21,1778606052190,-0.52301466,-0.7070338,0.25821257,-0.07452556,0.49357912,-0.4605924
22,1778606052200,-0.5547421,-0.7238738,0.23161033,-0.059253927,0.7079928,-0.5858198
23,1778606052210,-0.5437595,-0.7304634,0.21306199,-0.0580322,0.7874053,-0.6200282
24,1778606052220,-0.4053791,-0.665056,0.18914436,0.081855945,0.32070425,-1.0231993
25,1778606052230,-0.45345837,-0.62600684,0.011226633,-0.056199603,0.41905355,-1.2516629
26,1778606052240,-0.47151858,-0.6035536,0.06199054,-0.1160644,0.42577308,-1.3249667
27,1778606052250,-0.35046622,-0.5759751,0.107385196,-0.1441642,0.38789943,-1.5326608
28,1778606052260,-0.2933568,-0.52252656,0.09176553,-0.12095132,0.3023783,-2.2492058
29,1778606052270,-0.19646609,-0.51642513,0.051252022,-0.16982053,0.3115413,-2.6151142
30,1778606052280,-0.002928687,-0.5937913,-0.110801995,-0.31887165,0.45875978,-3.0579915
31,1778606052290,-0.16058967,-0.409284,-0.21428227,-1.0867293,1.6621643,-3.875329
32,1778606052300,-0.16058967,-0.409284,-0.21428227,-1.0867293,1.6621643,-3.875329
33,1778606052310,-0.09200958,-0.23112221,-0.05686534,-1.4019357,3.0567696,-3.9950588
34,1778606052320,-0.06858008,-0.23112221,0.031239327,-1.3744467,3.5778377,-4.057367
35,1778606052330,-0.07468152,-0.24771811,0.13935669,-1.2235631,3.785532,-4.148386
36,1778606052340,-0.061502427,-0.24820623,0.25308737,-1.0476339,2.4233024,-4.2284093
37,1778606052350,-0.025137896,-0.26699865,0.27846932,-1.1337659,1.3408492,-4.260785
38,1778606052360,-0.008053889,-0.2608972,0.2877435,-1.2705997,0.30298916,-4.312709
39,1778606052370,-0.009030119,-0.25137895,0.24234885,-1.3494014,-0.398895,-4.3585234
40,1778606052380,-0.013911263,-0.23087814,0.21745501,-1.3658947,-1.6334536,-4.4611487
41,1778606052390,-0.03636453,-0.20281157,0.13667206,-1.3347405,-1.9553796,-4.477642
42,1778606052400,-0.10201593,-0.23527117,-0.07565775,-1.3225232,-2.239432,-4.478253
43,1778606052410,-0.13398743,-0.2626056,-0.20085911,-1.7116444,-2.0299053,-4.3322563
44,1778606052420,-0.10543273,-0.4334457,-0.36437747,-2.175291,-1.318858,-4.1825943
45,1778606052430,0.30019042,-1.1827015,-0.4419877,-2.175291,-1.318858,-4.1825943
46,1778606052440,0.822717,-2.5979893,-0.46297657,-2.8722885,-0.6963864,-5.5820866
47,1778606052450,1.4914337,-3.3775084,-0.30800024,-2.6639833,-0.5015204,-7.1263537
48,1778606052460,1.4914337,-3.3775084,-0.30800024,-2.6639833,-0.5015204,-7.1263537
49,1778606052470,0.94572186,-4.4232936,-0.2818861,-1.328021,-0.28405234,-8.030435
50,1778606052480,0.8156393,-3.6969793,-0.27602875,1.2461652,0.06352998,-5.9284472
51,1778606052490,0.22916976,-2.9711528,-0.1444819,2.4013114,0.5180137,-3.6071594
52,1778606052500,0.28920785,-1.7386639,-0.56523657,3.1019738,1.0360274,-0.5002986
53,1778606052510,0.67628264,-1.466296,-0.6325964,3.0714304,1.395827,1.3530666
54,1778606052520,0.8778739,-1.2766634,-0.575487,2.791654,1.717753,2.01219
55,1778606052530,0.9340071,-1.108264,-0.4249037,1.863139,2.3054054,2.1875083
56,1778606052540,0.7687803,-0.73583263,-0.07907455,1.527774,2.3151793,1.894904
57,1778606052550,0.6016011,-0.34509695,-0.050031736,1.2852604,2.1972823,1.632232
58,1778606052560,0.51447266,-0.19768637,0.22258021,-1.7403551,-1.3402383,0.5180137
59,1778606052570,0.5037342,-0.25796852,0.27212384,-2.053729,-1.5968018,0.18753563
60,1778606052580,0.46834585,-0.37706846,0.31312546,-2.212554,-1.640784,-0.10934488
61,1778606052590,0.46834585,-0.37706846,0.31312546,-2.212554,-1.640784,-0.10934488
62,1778606052600,0.46834585,-0.37706846,0.31312546,-2.212554,-1.640784,-0.10934488
63,1778606052610,0.46834585,-0.37706846,0.31312546,-2.212554,-1.640784,-0.10934488
64,1778606052620,0.36462155,-0.81246656,0.24942651,-2.0433443,-0.79229224,0.07880162
65,1778606052630,0.39878955,-0.8685997,0.23039004,-1.187522,0.56382865,0.535118
66,1778606052640,0.44662476,-0.89349353,0.20574026,-0.7593055,1.2082914,0.6273586
67,1778606052650,0.5020258,-0.8876362,0.16132185,-0.18753563,2.0561724,0.6542367
68,1778606052660,0.53765815,-0.85127175,0.117635585,0.30726522,2.6511552,0.6035349
69,1778606052670,0.6221019,-0.8576172,0.031483386,0.9053023,2.7543914,0.4129449
70,1778606052680,0.5937913,-0.9066727,-0.00976229,1.0366384,2.3017402,0.33108896
71,1778606052690,0.35583547,-1.0726316,0.02391761,1.0873401,1.423316,0.31337386
72,1778606052700,0.15912533,-1.2856936,0.054912884,1.0458013,0.5681047,0.42088616
73,1778606052710,-0.19988288,-1.6844832,0.7678041,0.9114109,-0.20708331,0.7171558
74,1778606052720,-0.153512,-2.0227466,1.108264,2.9541442,3.6230419,3.0305026
75,1778606052730,0.26651052,-1.9829651,0.34851375,3.7788124,2.5130997,4.1325035
76,1778606052740,0.41977844,-1.6346955,0.07858644,3.3903022,0.6096435,3.8252382
77,1778606052750,0.41562948,-1.1875826,-0.05832968,3.0256155,0.12034045,3.4471126
78,1778606052760,0.3048275,-0.5474204,-0.5605995,1.5876387,0.30726522,2.5546384
79,1778606052770,0.3048275,-0.5474204,-0.5605995,1.1172725,0.30482176,2.466063
80,1778606052780,0.14252943,-0.4053791,-0.4702983,0.58459806,0.04520403,2.4055874
81,1778606052790,0.15033926,-0.47591165,-0.41099238,0.19975294,-0.39828414,2.271808
82,1778606052800,0.1564407,-0.5537659,-0.40293851,-0.27305678,-1.3176364,1.9468275
83,1778606052810,0.14228538,-0.6299118,-0.39366436,-0.48502702,-1.7965547,1.7232509
84,1778606052820,0.19207305,-0.7404697,-0.41221267,-0.6914995,-2.058005,1.3756685
85,1778606052830,0.3943965,-0.9530435,-0.3841461,-0.8167268,-2.0616703,1.0030408
86,1778606052840,0.48396555,-1.0718994,-0.31751847,-0.93828905,-1.8845193,0.38240165
87,1778606052850,0.5342413,-1.185142,-0.22233616,-0.9443977,-1.2492194,-0.9211848
88,1778606052860,0.5020258,-1.2998489,-0.11861181,-0.8576548,-0.7470882,-1.6157386
89,1778606052870,0.3321619,-1.4060138,-0.09859913,-0.75686204,-0.25167647,-2.1716259
90,1778606052880,0.29872608,-1.4057697,-0.09152147,-0.61391956,0.17531833,-2.7977629
91,1778606052890,0.3192269,-1.338654,-0.07907455,-0.5027421,0.09773844,-3.0720413
92,1778606052900,0.43320164,-1.1329137,0.040513504,-0.064751714,-0.28955013,-3.5509596
93,1778606052910,0.43320164,-1.1329137,0.040513504,-0.064751714,-0.28955013,-3.5509596
94,1778606052920,0.3687705,-1.0967933,-0.03807293,0.6542367,-1.0848967,-3.9015963
95,1778606052930,0.2877435,-1.0592085,-0.08297946,0.7281514,-1.2834278,-3.8582249
96,1778606052940,0.15839316,-1.0216236,-0.12690976,0.7312057,-1.3994923,-3.695124
97,1778606052950,0.11495096,-1.0396838,-0.117879644,0.61758476,-1.3921618,-3.1655037
98,1778606052960,0.12324891,-1.044565,-0.117879644,0.61758476,-1.3921618,-3.1655037
99,1778606052970,0.1564407,-1.0470055,-0.10323621,0.37140608,-1.5564847,-2.384207
100,1778606052980,0.18841219,-0.9298581,-0.19719826,0.25961772,-1.7208074,-1.7293595
101,1778606052990,0.22258021,-0.8812907,-0.30214286,-0.43127087,-1.7482964,-0.061086524
102,1778606053000,0.32801294,-0.8393129,-0.311173,-0.8503244,-1.7336355,0.42149702
103,1778606053010,0.45321432,-0.7946504,-0.17450093,-1.3628404,-1.9333885,0.75869465
104,1778606053020,0.64235866,-0.7128912,-0.07248501,-1.8044959,-2.2296581,0.80878556
105,1778606053030,0.6577343,-0.64016217,-0.030751213,-2.0836613,-2.424524,0.75991637
106,1778606053040,0.4554108,-0.4927516,0.020256752,-2.7837129,-2.765998,0.6554584
107,1778606053050,0.4554108,-0.4927516,0.020256752,-2.7837129,-2.765998,0.6554584
108,1778606053060,0.42002252,-0.42051062,0.05418071,-2.8857274,-2.77455,0.68600166
109,1778606053070,0.3660859,-0.28505886,0.15277983,-3.1007519,-2.4819455,0.552833
110,1778606053080,0.3660859,-0.28505886,0.15277983,-3.1007519,-2.4819455,0.552833
111,1778606053090,0.12593354,-0.05832968,0.35925224,-3.1062498,-1.9822577,0.46670106
112,1778606053100,0.12593354,-0.05832968,0.35925224,-3.0127873,-1.8478674,0.4783075
113,1778606053110,0.4229512,0.23258655,2.9455268,-2.5680776,-1.5570955,0.5723807
114,1778606053120,0.58134437,0.110557936,1.8079761,1.2315043,-0.6743952,0.017715093
115,1778606053130,0.3961049,0.028798755,0.6230781,2.2828035,-0.15393804,-0.3200934
116,1778606053140,0.31239328,-0.0156196635,0.22843759,2.252871,1.1447614,-0.4392121
117,1778606053150,0.3687705,-0.09274176,-0.2238005,2.252871,1.1447614,-0.4392121
118,1778606053160,0.4131889,-0.22794947,-0.45297024,1.2040154,2.4678955,-0.2968805
119,1778606053170,0.3270367,-0.4127008,-0.35583547,1.2040154,2.4678955,-0.2968805
120,1778606053180,0.44564855,-0.53912246,-0.25259924,0.32253686,3.8820486,0.08368854
121,1778606053190,0.68409246,-0.86371857,-0.014399378,-0.0012217305,3.7329974,0.089186326
122,1778606053200,1.794797,-1.9890665,-0.14887492,-0.5149594,3.6541958,-0.04642576
123,1778606053210,1.9705181,-2.2743695,-0.10543273,-0.5271767,3.6548069,-0.28099802
124,1778606053220,2.1501443,-2.6233714,0.009518232,-0.5271767,3.6548069,-0.28099802
125,1778606053230,2.1501443,-2.6233714,0.009518232,0.16371189,3.3163874,-0.5149594
126,1778606053240,2.5401478,-3.8146148,0.25015867,2.185065,1.5833627,-0.70371675
127,1778606053250,1.530483,-3.4690297,-0.16229807,2.8399124,0.86620694,-0.68783426
128,1778606053260,1.0111293,-3.0490072,-0.3687705,2.7989845,-0.9602802,-0.30970868
129,1778606053270,0.64260274,-2.677064,-0.5098356,2.4336872,-1.568091,-0.16615535
130,1778606053280,0.2630937,-1.9624643,-0.54766446,1.9058995,-2.0561724,-0.08979719
131,1778606053290,0.041733786,-1.6107779,-0.5872018,1.350623,-2.3542747,-0.07147124
132,1778606053300,-0.21037734,-1.2544543,-0.6428468,0.2828306,-3.349374,0.24678956
133,1778606053310,-0.4886026,-0.8717725,-0.7468152,-0.36957347,-4.134947,0.7141015
134,1778606053320,-0.8607899,-0.328257,-1.0899596,-1.1441506,-4.7073274,1.3732251
135,1778606053330,-0.9113098,-0.20183535,-1.0438329,-1.758681,-4.9516735,1.9333885
136,1778606053340,-0.9000831,-0.21403822,-0.6186851,-3.1355712,-4.406171,3.86189
137,1778606053350,-0.9000831,-0.21403822,-0.6186851,-3.1355712,-4.406171,3.86189
138,1778606053360,-0.34216827,-0.319715,-0.053692598,-2.6169467,-2.9852984,4.114177
139,1778606053370,-0.2506468,-0.29823795,0.05344854,-1.5906931,-1.536326,3.3976326
140,1778606053380,-0.2506468,-0.29823795,0.05344854,-1.5906931,-1.536326,3.3976326
141,1778606053390,0.13764828,-0.20818083,0.53765815,-0.1740966,3.0250046,1.858252
142,1778606053400,0.200371,-0.35485923,0.5447358,0.2565634,5.099503,1.1661417
143,1778606053410,-0.031239327,-0.38756293,0.4898229,0.73364913,6.6883636,0.29443705
144,1778606053420,-0.031239327,-0.38756293,0.4898229,0.73364913,6.6883636,0.29443705
145,1778606053430,-0.31727442,-0.4024504,0.4795725,0.84238315,6.0939918,0.44837508
146,1778606053440,-0.3660859,-0.4937278,0.6718896,0.960891,5.6230145,0.72509706
147,1778606053450,-0.3270367,-0.59183884,0.84248555,1.3377949,5.197852,1.3353515
148,1778606053460,-0.2604091,-0.7250941,1.0775127,1.7098118,5.212513,1.7122552
149,1778606053470,-0.19646609,-0.9418169,1.326207,2.0793853,5.0152035,2.0891593
150,1778606053480,-0.10372432,-1.2734908,1.21028,1.7373008,1.169807,2.9028316
151,1778606053490,-0.10372432,-1.2734908,1.21028,1.7373008,1.169807,2.9028316
152,1778606053500,-0.20281157,-1.3938109,1.0084445,1.3158038,-0.73364913,3.133128
153,1778606053510,-0.12471326,-1.2703179,0.44320798,1.2272283,-4.0201044,3.5845573
154,1778606053520,0.065407336,-1.1773322,0.09689073,1.7806722,-4.283998,3.5833356
155,1778606053530,0.16498269,-1.1202227,-0.3585201,1.7806722,-4.283998,3.5833356
156,1778606053540,0.16278619,-1.0496902,-1.0328503,2.529593,-2.424524,2.770274
157,1778606053550,0.04612682,-0.92400074,-1.0853225,1.9743165,0.32620203,2.588847
158,1778606053560,-0.08712844,-0.81246656,-1.0694588,1.536326,1.6811012,2.7666087
159,1778606053570,-0.22258021,-0.7873287,-0.9874556,1.0989466,2.3561072,2.964529
160,1778606053580,-0.22624107,-0.895202,-0.45809543,0.50885075,2.7885997,3.1563408
161,1778606053590,-0.09811102,-1.040172,-0.13349932,0.03726278,2.869845,3.2614095
162,1778606053600,0.058085624,-1.1802609,0.08175918,-0.46609017,2.6713138,3.0396655
163,1778606053610,0.15009521,-1.3057063,0.24600971,-0.5552765,2.2321017,2.6542094
164,1778606053620,0.19915071,-1.3964956,0.33265,-0.516792,1.5155567,2.1361957
165,1778606053630,0.056377225,-1.7032754,0.2806658,-0.21013765,-0.8393288,0.43982297
166,1778606053640,-0.09567044,-1.7254847,0.21843125,0.004886922,-1.4373659,0.059864793
167,1778606053650,-0.19109683,-1.8189586,-0.012446919,0.29077184,-2.157576,-0.51251596
168,1778606053660,-0.2238005,-1.7943089,-0.07004443,0.29077184,-2.157576,-0.51251596
169,1778606053670,-0.21721096,-1.7098651,-0.10421244,0.6462954,-3.1111367,-2.2351558
170,1778606053680,-0.26675457,-1.5480552,-0.1483868,0.5815437,-3.1538973,-2.651766
171,1778606053690,-0.20354374,-1.2837411,-0.19060871,0.4373795,-3.0946434,-2.8900034
172,1778606053700,-0.093473926,-1.1663495,-0.21672285,0.4373795,-3.0946434,-2.8900034
173,1778606053710,-0.005857374,-1.0894716,-0.20256752,-0.008552114,-2.801428,-3.3237178
174,1778606053720,0.08005078,-1.0313859,-0.16571487,-0.4972443,-2.2974641,-3.8466184
175,1778606053730,0.15741692,-0.97476465,-0.076389916,-0.7690793,-2.0525072,-4.1557164
176,1778606053740,0.1313028,-0.9535317,0.035144243,-0.9841039,-1.9474384,-4.4263296
177,1778606053750,0.09200958,-0.95597225,0.057109397,-1.106277,-2.1655173,-4.5497246
178,1778606053760,0.052472305,-1.0823939,0.027090356,-1.1441506,-2.2369885,-4.4727554
179,1778606053770,0.107629254,-1.1019185,0.03734076,-1.2003502,-2.2962425,-4.1783185
180,1778606053780,0.107629254,-1.1019185,0.03734076,-1.2003502,-2.2962425,-4.1783185
181,1778606053790,0.12715383,-1.0987457,-0.048323333,-1.2852604,-2.2925773,-3.591277
182,1778606053800,0.11299851,-1.0653099,-0.077122085,-1.3377949,-2.302351,-3.2736268
183,1778606053810,0.11299851,-1.0653099,-0.077122085,-1.3377949,-2.302351,-3.2736268
184,1778606053820,0.24991462,-0.8241814,0.04515059,-1.0262536,-2.3060162,-1.3542882
185,1778606053830,0.29262465,-0.68384844,0.0156196635,-1.0280862,-2.2547035,-0.9584476
186,1778606053840,0.30336314,-0.4356422,-0.065407336,-1.1093313,-2.1282544,-0.65240407
187,1778606053850,0.3316738,-0.30092257,-0.14594623,-1.2504412,-1.9981402,-0.46792278
188,1778606053860,0.3746279,-0.2111095,-0.14692247,-1.8393153,-1.8161024,-0.21563543
189,1778606053870,0.38097337,-0.111046046,-0.14008886,-2.0237966,-1.7531832,-0.12095132
190,1778606053880,0.2596769,0.033191785,-0.12764193,-2.207667,-1.5650368,0.11728613
191,1778606053890,0.2596769,0.033191785,-0.12764193,-2.3646593,-1.2247849,0.5039638
192,1778606053900,0.18182266,0.1398448,-0.20793676,-2.5173757,-0.852157,0.8173377
193,1778606053910,0.23014598,0.14301755,-0.016595893,-2.7501154,-0.33841935,1.4801265
194,1778606053920,0.9200958,0.19817449,2.4837706,-0.5852089,-2.7256808,1.3158038
195,1778606053930,0.8681116,0.10323621,1.5841756,0.95722586,-3.8014145,1.1551461
196,1778606053940,0.81978834,-0.06272271,0.90398806,2.3805418,-4.2485676,1.0793989
197,1778606053950,0.626495,-0.37828872,-0.5523015,1.7782288,-1.6762142,1.0439687
198,1778606053960,0.647972,-0.5520575,-0.43027294,1.1979067,-0.049480084,0.816116
199,1778606053970,0.728999,-0.79587066,-0.16058967,0.1459968,2.4483478,0.16982053
200,1778606053980,0.9030118,-1.4233419,0.15204766,-0.49296826,3.8417315,-0.30543262
201,1778606053990,1.0860548,-1.8943723,-0.20500809,-1.3799446,5.721975,-1.0140363
202,1778606054000,1.0501783,-1.7672185,-0.29116032,-1.5888605,7.093367,-1.5296066
203,1778606054010,0.8393129,-1.8279889,-0.052472305,0.076358154,8.64863,-1.7629571
204,1778606054020,0.91448253,-2.2702205,0.1398448,1.269378,8.4940815,-1.4471397
205,1778606054030,1.1602482,-3.6947827,-0.038561042,2.968805,7.356039,-0.93828905
206,1778606054040,1.0828819,-4.1601996,-0.25699228,4.083023,5.8362064,-0.4978552
207,1778606054050,0.82003236,-4.030361,-0.38585448,4.396397,2.044566,-0.1142318
208,1778606054060,0.3128814,-3.5883737,-0.63503695,3.7091737,-0.4831944,0.09468412
209,1778606054070,-0.033923957,-3.0133748,-0.90374404,2.5595255,-3.1111367,0.3811799
210,1778606054080,-0.5205741,-1.965637,-0.95377576,1.6829338,-4.8380527,0.65057147
211,1778606054090,-0.68140787,-1.1219312,-1.249085,-0.5009095,-8.038986,1.5241088
212,1778606054100,-0.630888,-0.6325964,-1.2695858,-2.4043655,-7.828238,2.3976462
213,1778606054110,-0.64138246,-0.5281399,-0.9369358,-3.2039883,-6.995018,2.8576276
214,1778606054120,-0.64138246,-0.5281399,-0.9369358,-3.2039883,-6.995018,2.8576276
215,1778606054130,-0.34241232,-0.44833317,-0.44223174,-3.6541958,-5.4916787,3.440393
216,1778606054140,0.032215554,-0.45126185,-0.09176553,-2.941927,-3.1936035,2.8307495
217,1778606054150,0.10396838,-0.38927132,0.0026846298,-2.483778,-2.1728477,2.2522602
218,1778606054160,0.13032657,-0.30385128,0.07370529,-1.4294246,0.8142834,0.63529986
219,1778606054170,0.19597797,-0.22209209,0.25845662,-1.087951,2.933375,0.15332718
220,1778606054180,0.20793676,-0.35607952,0.44101146,-0.6291912,5.223509,-0.28893927
221,1778606054190,0.10323621,-0.42441553,0.47859627,-0.24801129,6.4256916,-0.5186246
222,1778606054200,-0.16449459,-0.55742675,0.52252656,0.19486602,7.139182,-0.40866885
223,1778606054210,-0.21965154,-0.6074585,0.5537659,0.3115413,7.1459017,-0.11911872
224,1778606054220,-0.14594623,-0.68091977,0.6875093,0.36285394,6.9711943,0.21991149
225,1778606054230,-0.06833603,-0.7058135,0.79587066,0.3726278,6.7372327,0.46609017
226,1778606054240,0.017328065,-0.7512082,1.099966,0.6395759,5.4202075,1.2638801
227,1778606054250,-0.007565775,-0.7541369,1.3010693,1.0995574,4.679228,1.5748106
228,1778606054260,-0.007565775,-0.7541369,1.3010693,1.0995574,4.679228,1.5748106
229,1778606054270,-0.33142975,-0.78806084,1.2329772,2.2058344,2.606562,2.3090706
230,1778606054280,-0.29994637,-0.9781815,1.0450531,3.1655037,-0.50701815,3.1606169
231,1778606054290,-0.22135992,-1.368429,0.5464442,3.2620203,-1.7287487,3.3756413
232,1778606054300,-0.107873306,-1.3686731,0.2545517,3.2473598,-2.1862867,3.4367278
233,1778606054310,-0.032703668,-1.3186413,0.07004443,3.1874948,-1.8564194,3.1606169
234,1778606054320,0.0924977,-1.2908187,-0.09200958,3.140458,-1.4984524,2.947425
235,1778606054330,0.1330112,-1.2664131,-0.23405088,3.010344,-1.0818423,2.6352727
236,1778606054340,-0.0019524579,-1.2254114,-0.26553428,2.8307495,-0.9486737,2.4440718
237,1778606054350,-0.065407336,-1.1985651,-0.34656128,2.5265386,-0.7312057,2.529593
238,1778606054360,-0.102748096,-1.1473131,-0.44564855,2.271808,-0.2919936,2.7672195
239,1778606054370,-0.15253578,-0.88958865,-0.47347105,1.6230689,0.32253686,3.2950072
240,1778606054380,-0.11348662,-0.8583493,-0.45638704,0.6640105,0.52839845,3.602883
241,1778606054390,-0.11348662,-0.8583493,-0.45638704,0.3231477,0.5149594,3.6065483
242,1778606054400,-0.099087246,-0.8463905,-0.37194324,0.3231477,0.5149594,3.6065483
243,1778606054410,0.00048811449,-1.0121055,-0.18987654,-0.4636467,0.086132,3.245527
244,1778606054420,0.021232981,-1.1165619,-0.09469421,-0.6640105,-0.1777618,2.9681942
245,1778606054430,0.059305906,-1.2371262,-0.013179091,-0.8753699,-0.79168135,1.8753563
246,1778606054440,-0.08664032,-1.3567142,0.016595893,-0.86193085,-0.8491027,1.3787229
247,1778606054450,-0.19671014,-1.3757507,-0.117391534,-0.84116143,-0.7684685,0.77518797
248,1778606054460,-0.23161033,-1.415288,-0.2677308,-0.9138544,-0.5552765,0.24007004
249,1778606054470,-0.23258655,-1.4572659,-0.3441207,-1.2547172,-0.38545597,-0.7892379
250,1778606054480,-0.10860548,-1.5292627,-0.2884757,-1.4538593,-0.5448918,-1.5106697
251,1778606054490,-0.06028214,-1.5036367,-0.19134088,-1.5460999,-0.70005155,-2.3096814
252,1778606054500,-0.088104665,-1.4160202,-0.13569583,-1.4544702,-0.8717047,-3.4880404
253,1778606054510,-0.084931925,-1.2661691,-0.003172744,-1.2266175,-1.1881329,-4.1422772
254,1778606054520,0.054912884,-1.1902672,0.06467517,-1.0751228,-1.4422529,-4.456262
255,1778606054530,0.10689708,-1.1558552,0.053692598,-0.9138544,-1.5803084,-5.131268
256,1778606054540,0.10689708,-1.1558552,0.053692598,-0.9138544,-1.5803084,-5.131268
257,1778606054550,0.059549972,-1.0723876,0.13081467,-0.8729264,-1.6438384,-5.4287596
258,1778606054560,-0.13252309,-1.04066,0.17938207,-0.90224797,-1.681712,-5.3151383
259,1778606054570,-0.17450093,-1.0311419,0.21086545,-1.0030408,-1.9462167,-4.65968
260,1778606054580,-0.21379416,-1.0311419,0.17230442,-1.1398746,-2.0164661,-4.0726385
261,1778606054590,-0.14594623,-1.0496902,0.11153416,-1.2669345,-2.0134118,-3.6053267
262,1778606054600,0.058817793,-1.11705,0.10201593,-1.396438,-1.9449949,-2.9944615
263,1778606054610,0.13740423,-1.0367552,0.12764193,-1.4410311,-1.6933185,-1.5711454
264,1778606054620,0.048567392,-0.89349353,0.14985114,-1.3695599,-1.6120734,-0.5693264
265,1778606054630,0.20281157,-0.5950116,-0.031483386,-1.3335189,-1.5314392,0.7965683
266,1778606054640,0.37584817,-0.5256993,-0.09737884,-1.4648548,-1.3585643,1.5442673
267,1778606054650,0.4612682,-0.30555966,-0.04905551,-2.2876904,-1.2174544,2.0030272
268,1778606054660,0.4612682,-0.30555966,-0.04905551,-2.2876904,-1.2174544,2.0030272
269,1778606054670,0.5442477,-0.17230442,-0.2706595,-2.8716774,-1.6358972,1.8655825
270,1778606054680,0.5442477,-0.17230442,-0.2706595,-2.8716774,-1.6358972,1.8655825
271,1778606054690,0.5447358,-0.10714114,-0.33582276,-3.6297612,-1.0647382,1.5558738
272,1778606054700,0.61160743,-0.05222825,-0.17059602,-3.6297612,-1.0647382,1.5558738
273,1778606054710,1.7635576,0.14204131,2.3927372,-0.49113566,-5.0292535,0.30970868
274,1778606054720,1.2686096,-0.027090356,0.9015475,0.88208944,-5.1300464,-1.0659598
275,1778606054730,0.8861718,-0.10543273,-0.42929673,0.24617869,-2.6988027,-1.1203269
276,1778606054740,0.41807005,-0.16864355,-0.81271064,0.015882496,-0.5332854,-1.0317514
277,1778606054750,0.35046622,-0.39268813,-0.61502427,-0.13133603,2.026851,-1.0519099
278,1778606054760,0.30897647,-0.520086,-0.4742032,-0.23823744,5.956547,-1.2137892
279,1778606054770,0.3287451,-0.69165826,-0.32947728,-0.21074851,6.998683,-1.323745
280,1778606054780,0.61722076,-1.4099188,-0.11592719,-0.065973446,8.150775,-1.5558738
281,1778606054790,0.61722076,-1.4099188,-0.11592719,0.31948254,8.835555,-1.7965547
282,1778606054800,0.9132622,-2.5623572,0.045882765,1.459968,8.396954,-1.8484782
283,1778606054810,1.0038075,-3.1407728,0.19085276,2.497828,7.412239,-1.500285
284,1778606054820,1.1158297,-4.5377564,0.0353883,3.3377676,6.083607,-1.1508701
285,1778606054830,0.9266854,-4.7037153,-0.2489384,3.897931,4.2723913,-0.77763146
286,1778606054840,0.087616555,-3.610827,-0.49519217,2.3200662,-0.64934975,0.002443461
287,1778606054850,-0.07809832,-2.9150198,-0.5598673,1.4428637,-2.1111503,0.22479841
288,1778606054860,-0.28554696,-1.7918682,-0.7299752,0.6151413,-3.3927455,0.42577308
289,1778606054870,-0.28554696,-1.7918682,-0.7299752,0.6151413,-3.3927455,0.42577308
290,1778606054880,-0.46956614,-1.0765365,-0.8866599,-1.5766432,-7.038389,1.215011
291,1778606054890,-0.7004443,-0.5142286,-0.8295506,-1.9578232,-7.620544,1.5228871
292,1778606054900,-0.71826047,-0.32947728,-0.71777236,-2.2375994,-7.9846196,1.9694295
293,1778606054910,-0.6433349,-0.18987654,-0.54253924,-2.1135938,-7.7494364,2.521041
294,1778606054920,-0.5735345,-0.114218794,-0.4283205,-1.7654005,-7.167282,2.5760188
295,1778606054930,-0.2831064,-0.10909359,-0.1210524,-0.8155051,-5.126992,2.176513
296,1778606054940,-0.2831064,-0.10909359,-0.1210524,-0.8155051,-5.126992,2.176513
297,1778606054950,-0.11861181,-0.11665936,0.08615221,-0.069027774,-1.9346102,1.3817772
298,1778606054960,-0.11861181,-0.11665936,0.08615221,-0.069027774,-1.9346102,1.3817772
299,1778606054970,-0.11861181,-0.11665936,0.08615221,-0.069027774,-1.9346102,1.3817772
300,1778606054980,-0.21672285,-0.4148973,0.44833317,1.4886786,8.029823,0.54550266
301,1778606054990,-0.281398,-0.4510178,0.4385709,1.640784,9.189857,0.9437868
302,1778606055000,-0.23258655,-0.6570021,0.5874458,1.6163495,9.533163,1.2864822
303,1778606055010,-0.10640897,-0.8232051,0.82344913,1.5332718,9.696875,1.541213
304,1778606055020,0.10348027,-1.0289453,1.2607998,1.3860532,9.697486,1.8148806
305,1778606055030,0.2135501,-1.1273005,1.633231,1.6536123,7.8319035,1.9242256
306,1778606055040,-0.029774986,-1.0143019,1.5426859,1.8894062,5.932723,1.9168952
307,1778606055050,-0.22990192,-0.8766537,1.3066825,1.9614882,2.687807,2.1184807
308,1778606055060,-0.34509695,-0.84199744,1.0794652,1.9798143,-0.67011917,2.521041
309,1778606055070,-0.23527117,-0.8717725,0.86518294,2.4049764,-4.1325035,3.164893
310,1778606055080,0.06199054,-1.0050278,0.3031191,2.8588493,-4.457484,3.2192597
311,1778606055090,0.06199054,-1.0050278,0.3031191,3.1117475,-4.180762,3.1135802
312,1778606055100,0.20134723,-1.0462735,-0.30336314,3.1917708,-3.6089919,2.833193
313,1778606055110,0.16913168,-1.053107,-0.5274077,2.6450465,-2.393981,2.1636846
314,1778606055120,0.08932495,-1.0265048,-0.66847277,2.6450465,-2.393981,2.1636846
315,1778606055130,-0.44345203,-0.79587066,-0.8139309,1.5796975,0.32742378,2.2907448
316,1778606055140,-0.44345203,-0.79587066,-0.8139309,1.5796975,0.32742378,2.2907448
317,1778606055150,-0.54888475,-0.7499879,-0.66798466,0.8368854,0.95172805,3.227201
318,1778606055160,-0.53253293,-0.75096416,-0.58134437,0.37018433,1.029308,3.6053267
319,1778606055170,-0.37682438,-0.73436826,-0.10909359,-0.26939157,1.3414601,3.8960986
320,1778606055180,-0.35510328,-0.788549,0.014643434,-0.7244862,1.0097603,3.8820486
321,1778606055190,-0.102504045,-0.99233675,0.08688438,-0.84482664,0.6780604,3.7348301
322,1778606055200,0.09493827,-1.1636649,0.12520137,-0.9615019,0.2742785,3.3151658
323,1778606055210,0.21403822,-1.3210819,0.20964517,-0.9859365,0.06536258,2.5961773
324,1778606055220,0.12886222,-1.4221216,0.21306199,-0.8014552,-0.13927728,1.0299188
325,1778606055230,-0.2255089,-1.5099822,-0.024161667,-0.7281514,-0.30176744,0.2687807
326,1778606055240,-0.32898918,-1.5563531,-0.13960074,-0.7067711,-0.54000485,-0.2443461
327,1778606055250,-0.36169282,-1.6210282,-0.19915071,-0.552833,-1.2479976,-1.7684549
328,1778606055260,-0.47737598,-1.5780742,-0.11861181,-0.552833,-1.2479976,-1.7684549
329,1778606055270,-0.47103047,-1.4353007,-0.122516744,-0.37873647,-2.3823745,-3.1312952
330,1778606055280,-0.41880223,-1.3037539,-0.11592719,-0.48747048,-2.3964243,-3.8588357
331,1778606055290,-0.41880223,-1.3037539,-0.11592719,-0.48747048,-2.3964243,-3.8588357
332,1778606055300,-0.22355644,-1.1138773,-0.08175918,-0.97127575,-2.0824397,-4.129449
333,1778606055310,-0.1483868,-1.0108851,-0.027090356,-1.6890424,-1.4110987,-4.252844
334,1778606055320,-0.15741692,-0.99038434,0.08615221,-2.0195205,-1.1844677,-4.0311
335,1778606055330,-0.12495731,-1.0269929,0.106164895,-2.2204952,-1.1551461,-3.7598755
336,1778606055340,-0.06638357,-1.0716554,0.099819414,-2.552806,-1.3249667,-3.200934
337,1778606055350,-0.03807293,-1.0765365,0.08127106,-2.6847527,-1.4984524,-2.837469
338,1778606055360,0.0134231495,-1.0980135,0.13691612,-2.6755898,-1.7391334,-2.4581218
339,1778606055370,0.16815543,-1.1199788,0.16449459,-2.5876253,-1.9431623,-2.1887302
340,1778606055380,0.32288775,-1.0055158,0.0656514,-2.0146337,-2.35794,-1.2290609
341,1778606055390,0.42246306,-0.8978866,-0.04368625,-1.9291124,-2.3090706,-1.006095
342,1778606055400,0.5215503,-0.66822875,-0.09542638,-1.9144517,-2.1685717,-0.8503244
343,1778606055410,0.5215503,-0.66822875,-0.09542638,-1.9144517,-2.1685717,-0.8503244
344,1778606055420,0.51642513,-0.3162982,-0.3385074,-2.302962,-1.205848,-0.1160644
345,1778606055430,0.43442193,-0.0302631,-0.49250755,-2.6645942,-0.32253686,0.38606682
346,1778606055440,0.46102414,0.041245673,-0.5017817,-2.9614747,0.45753807,0.7360926
347,1778606055450,0.520086,0.06028214,-0.47859627,-3.7708712,2.8435776,1.3970488
348,1778606055460,0.6733539,0.059794027,-0.20696054,-3.9938369,3.4666603,1.4721853
349,1778606055470,1.1460928,0.07590181,1.7586764,-3.0451632,1.1588113,1.1765264
350,1778606055480,2.2079859,-0.10372432,2.3136628,-1.0262536,-2.6028967,0.15760323
351,1778606055490,1.5961344,-0.32020313,1.0262607,0.6365216,-3.862501,-1.7183639
352,1778606055500,0.90081537,-0.5344854,0.26943922,0.7275405,-2.361605,-2.0433443
353,1778606055510,0.45248213,-0.60819066,0.10982577,0.6988298,-1.0268645,-2.0317378
354,1778606055520,-0.078830495,-0.88007045,-0.0065895454,0.3585779,1.6151277,-1.6249015
355,1778606055530,-0.059794027,-1.0211354,0.063943,0.3378085,2.225382,-1.6010778
356,1778606055540,-0.05198419,-1.2771516,0.21306199,0.26450464,2.8857274,-1.6126842
357,1778606055550,0.06443111,-1.4777666,-0.02757847,0.26450464,2.8857274,-1.6126842
358,1778606055560,0.12324891,-1.6505592,-0.07516963,0.57726765,4.4489317,-1.6542231
359,1778606055570,0.1901206,-2.017133,0.010982576,2.2815816,4.6523495,-1.2137892
360,1778606055580,0.43417785,-2.997023,-0.4983649,3.1221323,3.449556,-0.820392
361,1778606055590,0.55718267,-3.666228,-0.7353445,3.4953709,2.8802297,-0.6414085
362,1778606055600,0.5188657,-3.9756925,-0.8278422,3.6181548,2.2351558,-0.63285637
363,1778606055610,0.20012695,-3.8331633,-0.971836,2.6603181,0.2443461,-0.6395759
364,1778606055620,-0.23039004,-2.8764586,-0.839801,1.6053538,-1.2675453,-0.1881465
365,1778606055630,-0.20744865,-2.3131745,-0.6282034,0.6365216,-2.415972,0.33169982
366,1778606055640,-0.119588055,-1.9092598,-0.5025139,-0.39095375,-3.1422908,0.893085
367,1778606055650,-0.09322987,-1.5109584,-0.41977844,-0.71959925,-3.0836477,1.0329732
368,1778606055660,-0.13935669,-0.7507201,-0.31751847,-1.0952814,-2.7721064,1.1887437
369,1778606055670,-0.15277983,-0.5981843,-0.25211114,-1.2217305,-2.470339,1.2986995
370,1778606055680,-0.18572757,-0.45467865,-0.18304294,-1.2217305,-2.470339,1.2986995
371,1778606055690,-0.19158493,-0.35144243,-0.13374338,-1.1001683,-2.1618521,1.3921618
372,1778606055700,-0.1849954,-0.28359452,-0.10543273,-0.96577793,-1.9358319,1.4074335
373,1778606055710,-0.07736614,-0.2806658,-0.04905551,-0.8356637,-1.7085901,1.3744467
374,1778606055720,-0.0036608586,-0.33118567,-0.03465613,-0.37384954,-0.729984,0.97066486
375,1778606055730,0.03465613,-0.38829508,-0.026602242,-0.13805555,-0.116675265,0.6450737
376,1778606055740,0.022697324,-0.5525456,0.07590181,0.018936822,0.31031954,0.408058
377,1778606055750,-0.008053889,-0.6208816,0.12544543,0.20891592,0.7538077,0.14660765
378,1778606055760,-0.035632357,-0.66920495,0.1483868,0.41050145,1.133155,0.002443461
379,1778606055770,0.0056133163,-0.79513854,0.18548352,0.689056,1.8716911,0.07391469
380,1778606055780,0.09445015,-0.8678676,0.2677308,0.74097955,2.3109033,0.204029
381,1778606055790,0.33020946,-0.97500867,0.60721445,0.7635816,2.8955014,0.31948254
382,1778606055800,0.06980037,-0.95670444,0.91106576,1.5204436,6.9736376,0.6243043
383,1778606055810,-0.1444819,-0.8715284,0.84883106,1.5839735,7.228979,0.91874135
384,1778606055820,-0.29701766,-0.80392456,0.79440635,1.5839735,7.228979,0.91874135
385,1778606055830,-0.29701766,-0.80392456,0.79440635,1.486846,6.8465776,1.4459181
386,1778606055840,-0.47981656,-0.7660957,1.0040516,1.0030408,2.3414464,3.2302554
387,1778606055850,-0.06028214,-0.9220483,1.1656175,1.3414601,0.2284636,3.6529741
388,1778606055860,0.13471961,-0.993313,0.89007676,1.8014416,-1.1252137,3.7586539
389,1778606055870,0.27846932,-1.0030752,0.42783237,2.7568347,-2.9706378,3.2766812
390,1778606055880,0.3829258,-0.9791577,-0.057109397,2.7763824,-2.878397,2.7598891
391,1778606055890,0.18621568,-0.9269294,-0.53180075,2.6285532,-2.5552492,2.3915374
392,1778606055900,0.06272271,-0.8793382,-0.5554743,2.4019222,-2.057394,2.0702224
393,1778606055910,-0.044418417,-0.822717,-0.5447358,2.1056526,-1.133155,2.026851
394,1778606055920,-0.33265,-0.7524285,-0.41807005,1.9394971,-0.9211848,2.2693644
395,1778606055930,-0.29945824,-0.78610843,-0.42661208,1.7880026,-0.9602802,2.6083946
396,1778606055940,-0.31532198,-0.84150934,-0.049543623,1.4019357,-0.3200934,3.3518176
397,1778606055950,-0.027090356,-0.9601213,0.026358182,1.4019357,-0.3200934,3.3518176
398,1778606055960,0.09640261,-1.0108851,-0.005857374,0.8943067,-0.66706485,3.2449162
399,1778606055970,0.09640261,-1.0108851,-0.005857374,0.53878313,-0.66156703,2.8979447
400,1778606055980,0.18182266,-1.1646413,0.052716363,0.0036651916,-0.58032197,1.9682078
401,1778606055990,0.16083373,-1.2925272,0.16791138,-0.13561209,-0.6017023,1.3524556
402,1778606056000,-0.16254212,-1.3947871,0.19573392,-0.18203785,-0.70005155,0.7819075
403,1778606056010,-0.32996538,-1.4328601,0.08688438,-0.30726522,-1.3041973,0.11789699
404,1778606056020,-0.40098605,-1.4677603,-0.07370529,-0.30726522,-1.3041973,0.11789699
405,1778606056030,-0.41758195,-1.4704449,-0.2203837,-0.6994407,-2.357329,-0.47586402
406,1778606056040,-0.3065359,-1.4841121,-0.3116611,-0.9108001,-2.8619037,-0.9419542
407,1778606056050,-0.26968327,-1.4892373,-0.311173,-0.98837996,-3.0170634,-1.4966198
408,1778606056060,-0.26797485,-1.4435986,-0.2809099,-0.8381071,-2.521041,-2.4874432
409,1778606056070,-0.3360668,-1.2676333,-0.2774931,-0.7696902,-2.1019874,-2.7629435
410,1778606056080,-0.2882316,-1.1602482,-0.27480847,-0.80756384,-1.6890424,-2.92299
411,1778606056090,-0.052716363,-0.96768695,-0.25430766,-1.3182472,-0.4636467,-3.3438764
412,1778606056100,-0.052716363,-0.96768695,-0.25430766,-1.3182472,-0.4636467,-3.3438764
413,1778606056110,0.093473926,-0.9488945,-0.20915705,-1.5296066,-0.16187929,-3.462995
414,1778606056120,0.10543273,-0.9974619,-0.032459613,-2.1099286,0.43554693,-3.7189476
415,1778606056130,0.0776102,-1.0301657,0.035876416,-2.4984388,0.41905355,-3.6199875
416,1778606056140,0.09786696,-1.1077759,0.073217176,-2.7116308,0.34697145,-3.4300084
417,1778606056150,0.15277983,-1.1287647,0.0741934,-2.9034426,0.30848694,-3.1948252
418,1778606056160,0.1986626,-1.1631769,0.08664032,-3.0231721,0.2742785,-3.001181
419,1778606056170,0.22599702,-1.1961246,0.13545178,-3.1221323,-0.036651913,-2.35794
420,1778606056180,0.07248501,-1.0577441,0.31385764,-2.9993484,-0.28099802,-1.8985692
421,1778606056190,0.07248501,-1.0577441,0.31385764,-2.9993484,-0.28099802,-1.8985692
422,1778606056200,0.07248501,-1.0577441,0.31385764,-2.9993484,-0.28099802,-1.8985692
423,1778606056210,0.1889003,-0.7060576,0.30580372,-2.0018053,-1.7037032,1.4581354
424,1778606056220,0.23697957,-0.33045352,0.08664032,-1.9975294,-1.7061466,1.591304
425,1778606056230,0.19134088,-0.20525214,0.16180995,-2.1337523,-1.491122,1.6169603
426,1778606056240,0.19134088,-0.20525214,0.16180995,-2.2730296,-1.3603969,1.6102408
427,1778606056250,0.16278619,-0.111290105,0.18645974,-2.624888,-1.1746938,1.6077974
428,1778606056260,0.18938842,-0.042465962,0.15229172,-2.6603181,-1.0641272,1.609019
429,1778606056270,0.73680884,0.16351835,2.1389177,-0.11484267,-4.039041,1.001819
430,1778606056280,1.2268758,0.033191785,2.60824,1.4660766,-5.376836,0.25778514
431,1778606056290,0.9669548,-0.06931226,0.9798898,2.2003367,-5.2974234,-0.5448918
432,1778606056300,0.7219213,-0.11519502,-0.7153318,2.2003367,-5.2974234,-0.5448918
433,1778606056310,0.47713193,-0.084687866,-0.7678041,1.2455542,-2.4184155,-1.1557571
434,1778606056320,0.29482117,-0.1181237,-0.53643787,0.5271767,1.3634512,-0.96577793
435,1778606056330,0.45711923,-0.39708114,-0.375116,0.3811799,2.4678955,-0.8436049
436,1778606056340,0.7563334,-0.8422416,-0.21135357,0.2180789,3.7592647,-0.75502944
437,1778606056350,1.4755701,-1.9285403,-0.21257387,-0.02687807,4.850881,-0.86926126
438,1778606056360,1.6220044,-2.2892568,-0.15619664,-0.3933972,5.93761,-1.4086553
439,1778606056370,1.4924101,-2.4088452,-0.0036608586,-0.106901415,6.9388185,-2.2876904
440,1778606056380,1.2583592,-2.279739,0.006345488,0.36468655,7.1459017,-2.2327125
441,1778606056390,1.4104068,-2.5894473,0.03904916,1.668273,7.1385713,-1.7189748
442,1778606056400,1.4938743,-3.0924494,0.12886222,2.5051584,6.23388,-1.6383406
443,1778606056410,0.1432616,-3.794114,-0.18621568,3.6151006,2.4061983,-1.1942415
444,1778606056420,-0.08102701,-3.5149124,-0.6023333,3.059824,-2.3493876,-0.46853364
445,1778606056430,-0.20842488,-3.0709722,-0.8812907,2.0244074,-5.271767,-0.24617869
446,1778606056440,-0.3231318,-2.4398403,-0.8766537,1.0183123,-7.2552466,-0.11789699
447,1778606056450,-0.3231318,-2.4398403,-0.8766537,1.0183123,-7.2552466,-0.11789699
448,1778606056460,-0.5847612,-1.5380487,-0.7568215,-0.31887165,-8.509353,0.2779437
449,1778606056470,-0.6782351,-0.8510276,-0.8358961,-1.5858061,-7.235088,1.0372492
450,1778606056480,-0.822717,-0.43442193,-0.8339436,-2.0134118,-6.4165287,1.4227052
451,1778606056490,-0.7914777,-0.32996538,-0.74315435,-2.629164,-5.0610185,1.9914207
452,1778606056500,-0.53350914,-0.41416514,-0.29018408,-3.418402,-2.4764478,2.724459
453,1778606056510,-0.53350914,-0.41416514,-0.29018408,-3.4623842,-1.0910053,2.7721064
454,1778606056520,-0.23551524,-0.46102414,0.0051252022,-3.0207286,2.3273966,1.949271
455,1778606056530,-0.23551524,-0.46102414,0.0051252022,-3.0207286,2.3273966,1.949271
456,1778606056540,-0.094206095,-0.39488465,0.42905265,-2.69697,3.9101484,1.4147639
457,1778606056550,-0.34070393,-0.68360436,0.85590875,-0.80756384,7.2216487,0.05375614
458,1778606056560,-0.3973252,-0.72729063,0.9183875,-0.1441642,7.2967854,0.13500121
459,1778606056570,-0.3973252,-0.74169,0.98574716,0.93462384,6.8197,0.7641924
460,1778606056580,-0.36437747,-0.733148,1.0294335,0.93462384,6.8197,0.7641924
461,1778606056590,-0.23502712,-0.70215267,1.0118613,2.21683,6.700581,1.7061466
462,1778606056600,-0.24308102,-0.68360436,0.97427654,2.5827382,6.603453,2.026851
463,1778606056610,-0.24942651,-0.67506236,0.95524013,2.8997774,6.17768,2.9272664
464,1778606056620,-0.21525851,-0.6728658,0.93620354,2.9290988,4.0591993,3.3420436
465,1778606056630,-0.15619664,-0.6796995,0.9056965,2.764776,2.8625145,3.5882225
466,1778606056640,-0.1244692,-0.70166457,0.77561396,2.4471262,1.0684034,3.825849
467,1778606056650,-0.2072046,-0.63162017,0.5181335,2.0024164,-1.7122552,4.1441097
468,1778606056660,-0.09469421,-0.6631035,0.41587353,1.9022343,-2.5216517,4.1325035
469,1778606056670,0.15180361,-0.8102701,0.20915705,1.921782,-2.7482827,3.965737
470,1778606056680,0.183287,-0.84883106,-0.03465613,1.9828686,-2.5497515,3.7501018
471,1778606056690,0.08175918,-0.87250465,-0.1666911,1.6902641,-1.9040669,3.195436
472,1778606056700,-0.09786696,-0.85175985,-0.22062775,1.6902641,-1.9040669,3.195436
473,1778606056710,-0.5332651,-0.80685323,-0.4617563,1.2406673,-1.4899004,3.5008688
474,1778606056720,-0.58085626,-0.76926845,-0.409284,0.9138544,-1.1129965,3.8502836
475,1778606056730,-0.5725583,-0.77170897,-0.28994003,0.50640726,-0.7122689,4.443434
476,1778606056740,-0.38853914,-0.88934463,-0.260165,0.3463606,-0.5222898,4.627304
477,1778606056750,-0.3099527,-0.97208,-0.22355644,0.20586158,-0.29260445,4.652961
478,1778606056760,-0.20574026,-1.0799533,-0.14936304,-0.15577064,0.112399206,4.197866
479,1778606056770,0.0078098318,-1.2661691,-0.102992155,-0.2406809,0.1777618,3.5295794
480,1778606056780,0.20061506,-1.4897255,-0.06272271,-0.2669481,0.30604348,2.820365
481,1778606056790,-0.020256752,-1.8753358,0.23136626,-0.172264,0.48930305,1.7519615
482,1778606056800,-0.39708114,-1.9251237,0.19426957,0.30970868,0.45265114,0.3567453
483,1778606056810,-0.73388016,-1.9766197,-0.020500809,0.44104472,-0.2302962,-0.16798794
484,1778606056820,-0.92863786,-2.0444674,-0.22404456,0.321926,-1.2651019,-0.57543504
485,1778606056830,-0.5718261,-1.8267684,-0.09298581,-0.076358154,-2.93704,-1.9840903
486,1778606056840,-0.43710655,-1.5009521,-0.09640261,-0.23151793,-2.610227,-2.3469443
487,1778606056850,-0.26821893,-0.9850151,-0.13154685,-0.40194935,-2.3060162,-2.538145
488,1778606056860,-0.26821893,-0.9850151,-0.13154685,-0.6921103,-1.8472565,-2.7171285
489,1778606056870,-0.15717287,-0.74510676,-0.12178457,-1.0054842,-1.4110987,-2.8368583
490,1778606056880,-0.058573738,-0.6987359,-0.10640897,-1.5076154,-0.7153232,-3.1086931
491,1778606056890,0.10152781,-0.792942,-0.08859278,-1.7733418,-0.22418754,-3.3713653
492,1778606056900,0.13520771,-0.88983274,-0.05906185,-1.953547,0.17104226,-3.6224308
493,1778606056910,0.16034561,-1.0086887,-0.0353883,-2.147802,0.63285637,-3.98895
494,1778606056920,0.15107143,-1.1495095,0.023429496,-2.3945918,0.7483099,-4.5417833
495,1778606056930,0.14082102,-1.2571388,0.102748096,-2.4599543,0.40500367,-4.7433686
496,1778606056940,0.1330112,-1.4143118,0.079562664,-2.5314255,0.027488936,-4.9083023
497,1778606056950,0.10518867,-1.4145558,0.06638357,-2.6597073,-0.62980205,-4.9290714
498,1778606056960,0.12813005,-1.3999124,0.08712844,-2.6688702,-1.0543534,-4.787351
499,1778606056970,0.15424417,-1.3218141,0.2706595,-2.4043655,-1.7427986,-4.265672
500,1778606056980,0.1701079,-1.2556745,0.31995904,-2.1001546,-2.158187,-3.7885861
501,1778606056990,0.17059602,-1.1275444,0.2933568,-1.4825699,-2.9260445,-2.5778513
502,1778606057000,0.040269446,-0.9232686,0.26065314,-1.2034045,-3.1398473,-1.3634512
503,1778606057010,-0.08664032,-0.6718896,0.20061506,-1.0488557,-3.1270192,-0.05681047
504,1778606057020,0.12349297,-0.37096703,0.123004854,-1.0543534,-2.9003882,1.1911873
505,1778606057030,0.25772443,-0.27651685,0.14814276,-1.1349876,-2.7043004,1.5112807
506,1778606057040,0.33899552,-0.11495096,0.19500175,-1.255328,-2.489276,1.6865989
507,1778606057050,0.38219365,-0.043198135,-0.18841219,-1.3909402,-2.2748623,1.7440202
508,1778606057060,0.4932397,0.03172744,-0.35925224,-1.863139,-1.3933836,1.7446312
509,1778606057070,0.5962319,0.058573738,-0.24503349,-2.905886,0.88086766,1.4104879
510,1778606057080,1.0162543,0.123004854,1.4811834,-2.1862867,0.7819075,0.83077675
511,1778606057090,1.1829455,0.24771811,1.380876,-1.1563679,0.20158553,0.076358154
512,1778606057100,0.9344952,0.29701766,0.844194,-0.5681047,0.056199603,-0.398895
513,1778606057110,0.92180425,-0.311173,1.4631232,1.599856,0.8014552,-1.6792686
514,1778606057120,0.49226347,-0.51496077,0.64943635,2.2828035,0.61391956,-2.1398609
515,1778606057130,0.19768637,-0.60989904,-0.19475769,2.2828035,0.61391956,-2.1398609
516,1778606057140,0.05832968,-0.68653303,-0.39244407,1.740966,1.9211712,-2.2791383
517,1778606057150,0.08566409,-0.7963588,-0.4419877,1.5754215,3.0311134,-2.243097
518,1778606057160,0.2660224,-1.0799533,-0.44418418,1.5864171,4.05248,-2.234545
519,1778606057170,0.56865335,-1.5714846,-0.41758195,2.0005836,5.1966305,-2.4239132
520,1778606057180,0.90398806,-2.28462,-0.46590528,2.2602015,4.7445903,-2.5314255
521,1778606057190,0.9898962,-2.996779,-0.39488465,2.5082128,3.835012,-2.3432791
522,1778606057200,0.9405966,-4.4808908,-0.49763274,2.6163359,2.824641,-1.9578232
523,1778606057210,0.7897693,-5.072242,-0.665056,2.4697282,1.1349876,-1.2999213
524,1778606057220,0.60013676,-4.8574715,-0.7141115,1.3439035,-1.287704,-0.07086037
525,1778606057230,0.33142975,-3.9332266,-0.7336361,0.45814893,-2.3744333,0.40866885
526,1778606057240,0.200371,-2.460585,-0.4549227,-0.26816985,-3.005457,0.64934975
527,1778606057250,0.12666571,-1.9358622,-0.3499781,-0.63529986,-3.218649,0.6927212
528,1778606057260,0.030507157,-1.4904575,-0.29091623,-1.1447614,-3.2449162,0.66706485
529,1778606057270,-0.37243137,-0.49885303,-0.17084008,-1.3640621,-3.1007519,0.8735373
530,1778606057280,-0.43100512,-0.29897013,-0.21940747,-1.4703526,-3.0995302,1.1618657
531,1778606057290,-0.43100512,-0.29897013,-0.21940747,-1.4703526,-3.0995302,1.1618657
532,1778606057300,-0.46932206,-0.021965152,-0.23209843,-1.9779817,-2.4556782,2.1227567
533,1778606057310,-0.36022848,-0.033923957,-0.08590815,-2.0518963,-2.025629,2.424524
534,1778606057320,-0.16620298,-0.108117364,-0.04368625,-1.8228219,-1.1026118,2.4501805
535,1778606057330,-0.032215554,-0.16351835,-0.01952458,-1.5540411,-0.35124752,2.1025982
536,1778606057340,0.057109397,-0.18475133,0.12568948,-1.2767084,0.09407325,1.7427986
537,1778606057350,0.057109397,-0.18475133,0.12568948,-1.2767084,0.09407325,1.7427986
538,1778606057360,0.057109397,-0.18475133,0.12568948,-1.2767084,0.09407325,1.7427986
539,1778606057370,0.1432616,-0.44345203,0.30165476,0.12522738,1.7208074,0.1001819
540,1778606057380,0.16986385,-0.7643873,0.69117016,1.459968,4.522846,-0.43982297
541,1778606057390,-0.1986626,-0.8268659,0.71777236,3.2901201,8.569829,0.21868975
542,1778606057400,-0.29042813,-0.85127175,0.67750293,3.4257324,9.396329,0.84849185
543,1778606057410,-0.29042813,-0.85127175,0.67750293,3.1758883,9.502008,1.3866642
544,1778606057420,-0.30848834,-0.90740484,0.70020026,2.4697282,8.83189,2.094046
545,1778606057430,-0.30848834,-0.90740484,0.70020026,2.4697282,8.83189,2.094046
546,1778606057440,-0.38902727,-0.67506236,0.98794377,0.08002335,2.7097983,3.707952
547,1778606057450,-0.3790209,-0.53180075,0.99965847,-0.2406809,0.06047566,4.166101
548,1778606057460,0.024161667,-0.57329047,0.9135063,-0.108123146,-2.179567,4.3689084
549,1778606057470,0.29530928,-0.7133793,0.7175283,0.31215215,-3.3664784,4.269337
550,1778606057480,0.36462155,-0.8520039,0.38902727,1.8637499,-3.7391062,3.2736268
551,1778606057490,0.2438132,-0.9274175,-0.07541369,2.1587977,-3.1844406,2.9217684
552,1778606057500,0.03099527,-0.96304995,-0.5954997,2.2559254,-2.1777346,2.575408
553,1778606057510,-0.29872608,-0.88275504,-0.76926845,2.0372355,-1.2498302,2.4055874
554,1778606057520,-0.5344854,-0.76853627,-0.895446,1.0231993,-0.82894415,2.8735101
555,1778606057530,-0.60086894,-0.6677406,-0.90789294,0.07941248,-2.0653355,3.5106425
556,1778606057540,-0.469078,-0.7326599,-0.5430274,0.010995574,-2.312125,3.6010506
557,1778606057550,-0.26358184,-0.8305268,-0.26626647,0.047036625,-2.0280726,3.4660494
558,1778606057560,-0.26358184,-0.8305268,-0.26626647,0.047036625,-2.0280726,3.4660494
559,1778606057570,-0.0061014313,-1.1329137,-0.28408262,-0.036651913,-0.86315256,2.8319712
560,1778606057580,0.2975058,-1.654708,-0.200371,-0.15943582,0.18203785,2.1050417
561,1778606057590,0.17547716,-1.8836339,0.025870068,-0.11728613,1.690875,0.6224717
562,1778606057600,-0.3128814,-2.0752187,0.09152147,0.10751228,1.9529362,-0.013439035
563,1778606057610,-0.40147418,-2.1001127,-0.020988923,0.14172074,1.5540411,-0.46609017
564,1778606057620,-0.31654227,-2.0530095,-0.03441207,-0.105068825,-0.5870415,-1.3219124
565,1778606057630,-0.20647243,-1.9195102,0.05735345,-0.116675265,-1.9779817,-1.9566014
566,1778606057640,-0.06296677,-1.4138237,0.10860548,-0.040927973,-2.6352727,-2.3829854
567,1778606057650,-0.064919226,-1.2183337,0.056377225,0.018325957,-3.0127873,-2.828917
568,1778606057660,-0.10079564,-1.0306537,0.00048811449,-0.018325957,-3.042109,-3.1453452
569,1778606057670,-0.0924977,-0.85956967,-0.14521407,-0.09407325,-2.9345965,-3.3017266
570,1778606057680,-0.0924977,-0.85956967,-0.14521407,-0.4605924,-2.239432,-3.5301902
571,1778606057690,0.044174362,-0.8454143,-0.23380683,-0.71593404,-1.672549,-3.649309
572,1778606057700,0.12593354,-0.9076489,-0.2294138,-1.2730432,-0.6963864,-3.8967094
573,1778606057710,0.24259292,-1.0601847,-0.17889395,-1.9895881,0.004276057,-4.180151
574,1778606057720,0.29774985,-1.270562,-0.1330112,-2.3671029,0.17470746,-4.3059893
575,1778606057730,0.31995904,-1.3511009,-0.110801995,-2.637716,0.25778514,-4.4220533
576,1778606057740,0.31947094,-1.3860011,-0.06955632,-2.855795,0.38606682,-4.474588
577,1778606057750,0.30336314,-1.3881977,-0.0302631,-2.8344147,0.46853364,-4.3536367
578,1778606057760,0.37365165,-1.308635,0.14106509,-2.6988027,0.47342056,-4.1276164
579,1778606057770,0.18475133,-1.138527,0.23551524,-2.1361957,0.16493362,-2.5919013
580,1778606057780,-0.088348724,-0.96622264,0.32801294,-1.6963727,-0.13072516,-0.9932669
581,1778606057790,0.21525851,-0.84858704,0.33240595,-1.409877,-0.45814893,-0.055588737
582,1778606057800,0.36706212,-0.797335,0.29872608,-1.2137892,-0.7464773,0.5681047
583,1778606057810,0.35363895,-0.7158199,0.31434575,-1.2394456,-1.065349,0.68294734
584,1778606057820,0.25015867,-0.6128277,0.2438132,-1.4330899,-1.1496484,0.61819565
585,1778606057830,0.13374338,-0.36364532,0.20549619,-1.7513506,-1.0800097,0.5656612
586,1778606057840,0.053204484,-0.119588055,0.37145513,-2.2204952,-1.2064588,0.5216789
587,1778606057850,-0.018304294,-0.036120474,0.38878322,-2.3585508,-1.4196508,0.55833083
588,1778606057860,-0.056377225,0.009518232,0.33142975,-2.4355197,-1.541213,0.7696902
589,1778606057870,-0.0605262,0.033923957,0.27041543,-2.389705,-1.3335189,0.883922
590,1778606057880,0.01854835,0.084687866,0.80465674,-2.2266037,-1.0140363,0.99265605
591,1778606057890,0.01854835,0.084687866,0.80465674,-2.2266037,-1.0140363,0.99265605
592,1778606057900,0.23502712,0.16107778,1.1526824,-1.704925,-0.7715228,1.0238101
593,1778606057910,0.19841854,-0.14863087,0.41001618,1.0708468,-0.48441613,0.16798794
594,1778606057920,0.21623473,-0.34168017,0.11690342,0.6945538,0.100792766,-0.3005457
595,1778606057930,0.1683995,-0.3829258,-0.07590181,0.66950834,0.49968776,-0.4447099
596,1778606057940,0.1969542,-0.4002539,-0.26284966,0.698219,1.1704178,-0.54611355
597,1778606057950,0.545712,-0.80685323,-0.43027294,0.79717916,2.4471262,-0.7684685
598,1778606057960,0.99502134,-1.3635478,-0.41538543,1.0146471,3.9229765,-1.1337659
599,1778606057970,1.3847809,-2.1032853,-0.25699228,1.5393804,5.593082,-2.1673498
600,1778606057980,1.3701375,-2.5782208,-0.07541369,2.0421226,5.499009,-2.3744333
601,1778606057990,1.1524384,-2.9357646,-0.058817793,2.4831672,5.237559,-2.067168
602,1778606058000,1.539025,-3.670865,0.009274175,3.7568212,2.3964243,0.08735373
603,1778606058010,1.539025,-3.670865,0.009274175,3.7568212,2.3964243,0.08735373
604,1778606058020,0.59672,-2.915264,-0.41001618,3.036611,-0.57910025,-0.026267206
605,1778606058030,0.27895743,-2.4369116,-0.48518583,2.0244074,-2.179567,-0.03604105
606,1778606058040,0.16547081,-1.9688098,-0.49177536,1.2858714,-3.0274482,0.05497787
607,1778606058050,0.13154685,-1.6168793,-0.464685,-0.16310102,-3.5747833,0.23518312
608,1778606058060,0.13154685,-1.6168793,-0.464685,-0.5693264,-3.35365,0.27000242
609,1778606058070,-0.18523945,-0.50690687,-0.42636803,-2.008525,-1.1252137,0.6059783
610,1778606058080,-0.31361356,-0.2975058,-0.35705575,-2.176513,-0.61819565,0.75686204
611,1778606058090,-0.37267542,-0.234539,-0.29994637,-2.3738225,-0.24373524,1.1294898
612,1778606058100,-0.34168017,-0.21062139,-0.24308102,-2.4061983,-0.30543262,1.3029755
613,1778606058110,-0.25870067,-0.2591888,-0.21257387,-2.34389,-0.24373524,1.3347405
614,1778606058120,-0.17425688,-0.32386398,-0.11348662,-2.20278,-0.1301143,1.2626585
615,1778606058130,-0.111290105,-0.4932397,0.07443746,-1.8820758,0.09712757,1.0586295
616,1778606058140,-0.10006347,-0.60819066,0.18768002,-0.79045963,0.552833,0.43554693
617,1778606058150,-0.09518232,-0.6887296,0.2762728,-0.2828306,0.6249151,0.19914207
618,1778606058160,-0.24503349,-0.7370529,0.24576566,0.8765916,0.40194935,-0.10751228
619,1778606058170,-0.26992732,-0.77317333,0.19597797,1.3267993,0.42577308,0.1423316
620,1778606058180,-0.018060237,-1.0221118,0.9100895,1.5265522,3.1801646,0.5552765
621,1778606058190,-0.08908089,-0.9701275,0.87616557,1.9443841,6.2534275,0.93767816
622,1778606058200,-0.21184167,-0.9288819,0.79709095,2.3157902,8.891754,1.4483615
623,1778606058210,-0.2072046,-0.84565836,0.72045696,1.7672331,10.15197,2.584571
624,1778606058220,-0.22599702,-0.78464407,0.68702114,0.9297369,9.367007,3.114191
625,1778606058230,-0.34290043,-0.6982478,0.6799435,-0.029321533,7.5038686,3.5534031
626,1778606058240,-0.42685616,-0.6872652,0.82491344,-0.7623598,5.2070155,3.9547415
627,1778606058250,-0.3756041,-0.7311955,1.078489,-0.9896017,3.436117,4.2589526
628,1778606058260,0.11324256,-0.94254905,0.6635916,0.52778757,-1.8197676,4.619363
629,1778606058270,0.11324256,-0.94254905,0.6635916,0.52778757,-1.8197676,4.619363
630,1778606058280,0.12398108,-0.99917036,0.3692586,1.2638801,-3.018896,4.3285913
631,1778606058290,0.07785426,-1.0448091,0.04368625,2.0879374,-3.486208,3.408628
632,1778606058300,-0.4881145,-0.8427297,-0.43491003,2.0604484,-2.992018,3.3579264
633,1778606058310,-0.5508372,-0.81271064,-0.51569295,1.9620992,-2.5851817,3.5271358
634,1778606058320,-0.50568664,-0.8085616,-0.51569295,1.6475036,-1.6963727,3.835012
635,1778606058330,-0.43808278,-0.8468786,-0.48128092,1.4031575,-1.1172725,3.8747182
636,1778606058340,-0.14521407,-1.0123495,-0.5039782,1.1472049,-0.61086524,3.7922513
637,1778606058350,-0.029286869,-1.0718994,-0.39464056,0.7189884,0.019547688,3.5057557
638,1778606058360,0.11495096,-1.1539028,-0.20964517,0.118507855,0.58459806,2.5680776
639,1778606058370,0.28554696,-1.2786158,-0.033679903,-0.0030543262,0.675617,1.6914859
640,1778606058380,0.32801294,-1.5280424,0.14301755,0.021380283,0.7324274,0.62858033
641,1778606058390,0.06443111,-1.5534244,0.1581491,0.0580322,0.54244834,-0.36468655
642,1778606058400,-0.30458343,-1.5256019,0.09200958,0.057421334,0.15760323,-0.9083566
643,1778606058410,-0.6472398,-1.496071,-0.051252022,-0.16310102,-1.3084733,-1.4654657
644,1778606058420,-0.57402265,-1.4333482,-0.045394648,-0.28221974,-1.7886134,-1.5393804
645,1778606058430,-0.43442193,-1.330112,-0.021477038,-0.37934732,-2.2204952,-1.7244726
646,1778606058440,-0.33435842,-1.2002735,-0.024161667,-0.4251622,-2.26631,-2.2809708
647,1778606058450,-0.1666911,-0.91472656,-0.07809832,-0.535118,-1.7122552,-2.7769935
648,1778606058460,-0.1666911,-0.91472656,-0.07809832,-0.8338311,-1.0965031,-3.1441233
649,1778606058470,0.024893839,-0.8861718,-0.07004443,-1.0598512,-0.81489426,-3.435506
650,1778606058480,0.08566409,-0.9022797,-0.033679903,-1.0598512,-0.81489426,-3.435506
651,1778606058490,0.1581491,-0.96671075,0.076633975,-1.4630222,-0.5644395,-4.0317106
652,1778606058500,0.14497001,-1.0174747,0.1432616,-1.6902641,-0.5882632,-4.350582
653,1778606058510,0.1010397,-1.0853225,0.20647243,-1.9407189,-1.1374311,-4.6480737
654,1778606058520,0.054668825,-1.1238836,0.1889003,-2.048842,-1.5424347,-4.592485
655,1778606058530,0.022941383,-1.1573195,0.15326795,-2.198504,-1.9394971,-4.393954
656,1778606058540,0.13447554,-1.2161373,0.13886857,-2.2736404,-2.791654,-3.4306192
657,1778606058550,0.13447554,-1.2161373,0.13886857,-2.2736404,-2.791654,-3.4306192
658,1778606058560,0.234539,-1.2593354,0.14716652,-2.090381,-2.8747318,-3.0885346
659,1778606058570,0.234539,-1.2593354,0.14716652,-2.090381,-2.8747318,-3.0885346
660,1778606058580,0.234539,-1.2593354,0.14716652,-2.090381,-2.8747318,-3.0885346
661,1778606058590,0.02831064,-0.74169,0.14716652,-0.4905248,-2.5265386,0.16615535
662,1778606058600,0.2511349,-0.55718267,-0.123004854,-0.46792278,-2.4098635,0.73426
663,1778606058610,0.30922052,-0.45174995,-0.21647878,-0.5858198,-2.207056,0.9505063
664,1778606058620,0.3219115,-0.33997175,-0.2865232,-1.2345587,-1.3390167,1.1264355
665,1778606058630,0.33460248,-0.15033926,-0.27017137,-1.6505579,-0.8142834,1.10139
666,1778606058640,0.33094162,-0.08078295,-0.17352471,-1.9449949,-0.4196644,1.0641272
667,1778606058650,0.36144876,-0.036120474,-0.14765464,-2.2809708,0.06169739,1.0201449
668,1778606058660,0.37755656,-0.013911263,-0.15570852,-2.8154778,1.0891727,0.9407325
669,1778606058670,0.42856455,0.012446919,-0.12544543,-3.0812044,1.8093829,0.9114109
670,1778606058680,0.6635916,0.0056133163,0.62600684,-2.2278256,0.7623598,0.57910025
671,1778606058690,1.5912533,-0.15229172,1.5199885,-1.2272283,-0.43127087,-0.065973446
672,1778606058700,1.2886223,-0.2523552,1.0904478,0.17654006,-1.8044959,-1.2205088
673,1778606058710,0.989164,-0.3990336,0.844438,0.44165558,-1.7708983,-1.4165965
674,1778606058720,0.4720067,-0.792942,-0.029286869,0.548557,-0.52473325,-1.4782939
675,1778606058730,0.44320798,-1.0138137,-0.18621568,-0.081855945,1.8032742,-1.368949
676,1778606058740,0.5037342,-1.1985651,-0.27041543,-0.32253686,3.354872,-1.4648548
677,1778606058750,0.63015586,-1.3874654,-0.2294138,-0.04337143,4.8380527,-1.6194037
678,1778606058760,0.7963588,-1.8523946,-0.094206095,0.4428773,5.6828794,-1.7385225
679,1778606058770,0.9005712,-2.370528,0.10884953,2.8008173,5.9046235,-1.9663752
680,1778606058780,1.091424,-3.1627378,0.00976229,3.7665951,4.750088,-1.9633209
681,1778606058790,0.9230245,-4.583639,-0.59794027,4.6633453,3.0653217,-1.8338175
682,1778606058800,0.33899552,-4.4223175,-0.8437059,4.71588,1.1606439,-1.6218473
683,1778606058810,-0.034900185,-3.8526878,-0.9989263,3.9858956,-0.7330383,-0.97066486
684,1778606058820,-0.1969542,-2.4408164,-0.7643873,1.8374827,-3.3805282,0.30543262
685,1778606058830,-0.1564407,-1.9409873,-0.6213697,0.84299403,-4.215581,0.70432764
686,1778606058840,-0.17035197,-1.4806952,-0.56743306,0.2724459,-4.479475,0.8680395
687,1778606058850,-0.23868799,-0.8432178,-0.55962324,-1.3677273,-4.102571,1.2809844
688,1778606058860,-0.38731885,-0.4327135,-0.50666285,-1.8710803,-3.7574322,1.5216653
689,1778606058870,-0.41904628,-0.28213018,-0.46785772,-2.3005185,-3.340822,1.8319849
690,1778606058880,-0.4283205,-0.19548985,-0.42978483,-2.8900034,-2.50638,2.402533
691,1778606058890,-0.2882316,-0.17132819,-0.14008886,-2.8900034,-2.50638,2.402533
692,1778606058900,-0.1342315,-0.2037878,0.007565775,-2.9712486,-1.491733,2.6945267
693,1778606058910,0.05222825,-0.19890666,0.10201593,-2.7940977,-1.033584,2.579073
694,1778606058920,0.25015867,-0.17498904,0.19231711,-2.1160371,1.5668694,1.6352862
695,1778606058930,0.3660859,-0.22477673,0.29604146,-1.7983873,2.6639833,1.1270463
696,1778606058940,0.25430766,-0.4429639,0.4983649,-1.2498302,3.7006216,0.46303585
697,1778606058950,0.14863087,-0.5210622,0.5532778,-0.6059783,4.401284,-0.065973446
698,1778606058960,0.041733786,-0.57524294,0.588178,0.4251622,4.725043,-0.44959682
699,1778606058970,-0.09859913,-0.68384844,0.68531275,0.9914343,4.682282,-0.35369098
700,1778606058980,-0.12593354,-0.7412019,0.71167094,1.5454891,4.732984,-0.07574729
701,1778606058990,-0.16400647,-0.7812273,0.7236297,1.9156734,4.874094,0.21991149
702,1778606059000,-0.27505252,-0.8266219,0.7084982,2.402533,5.413488,1.822211
703,1778606059010,-0.33460248,-0.8437059,0.5315567,2.116648,5.2534413,2.5167649
704,1778606059020,-0.33460248,-0.8437059,0.5315567,2.116648,5.2534413,2.5167649
705,1778606059030,-0.2677308,-0.9962417,0.58964235,0.6078109,2.3426683,4.019493
706,1778606059040,-0.3372871,-1.087031,0.7934301,0.4007276,0.75319684,4.4354925
707,1778606059050,-0.21940747,-1.2820327,0.7678041,0.47158796,-0.2406809,4.714047
708,1778606059060,0.07248501,-1.3074148,0.5867136,0.79473567,-1.142318,4.81484
709,1778606059070,0.23575929,-1.2332213,0.31654227,1.7996091,-2.2779164,4.056145
710,1778606059080,0.23575929,-1.2332213,0.31654227,1.7996091,-2.2779164,4.056145
711,1778606059090,0.43198135,-1.138527,-0.17108414,2.4495697,-2.2644775,3.069598
712,1778606059100,0.119588055,-0.9608534,-0.4419877,2.6328292,-1.7146988,2.7207937
713,1778606059110,-0.012446919,-0.91057765,-0.56426036,2.5002716,-0.68600166,2.7641652
714,1778606059120,-0.10128376,-0.91204196,-0.59916055,2.1160371,-0.3463606,2.9407053
715,1778606059130,-0.16937573,-0.98452693,-0.28457075,1.7971655,-0.33169982,3.0763173
716,1778606059140,-0.08053889,-1.0689708,-0.19207305,1.3811663,-0.4111123,3.1722233
717,1778606059150,0.0024405725,-1.1487775,-0.15961345,0.50823987,-0.24251351,2.8955014
718,1778606059160,0.12032023,-1.2710502,-0.14692247,0.172264,-0.093462385,2.641992
719,1778606059170,0.117147475,-1.3308442,-0.042465962,-0.22479841,0.06780604,2.1930063
720,1778606059180,0.07907455,-1.3506129,0.06369894,-0.45142943,0.031154128,1.6737708
721,1778606059190,-0.019280521,-1.334505,0.088348724,-0.5363397,-0.52290064,0.7348709
722,1778606059200,-0.30165476,-1.3030217,-0.1889003,-0.5497787,-1.6963727,0.050701816
723,1778606059210,-0.27432033,-1.2842293,-0.25870067,-0.6554584,-2.270586,-0.38606682
724,1778606059220,-0.27432033,-1.2842293,-0.25870067,-0.6554584,-2.270586,-0.38606682
725,1778606059230,-0.23575929,-1.253478,-0.22062775,-0.63285637,-2.6340508,-1.8655825
726,1778606059240,-0.19158493,-1.1997855,-0.26284966,-0.54244834,-2.3310618,-2.447737
727,1778606059250,-0.1952458,-1.138527,-0.2660224,-0.49296826,-1.954158,-2.9938505
728,1778606059260,-0.1952458,-1.0765365,-0.26284966,-0.4343252,-1.178359,-3.5149186
729,1778606059270,-0.14082102,-1.0604287,-0.268463,-0.53023106,-0.93034774,-3.722002
730,1778606059280,0.0302631,-1.0645777,-0.29433304,-0.6750061,-0.77396625,-3.9052615
731,1778606059290,0.08175918,-1.0584763,-0.26406994,-0.93828905,-0.56321776,-4.1734314
732,1778606059300,-0.05588911,-1.1031388,0.008542004,-1.7061466,-0.04337143,-4.6108108
733,1778606059310,-0.05588911,-1.1031388,0.008542004,-1.7061466,-0.04337143,-4.6108108
734,1778606059320,-0.065407336,-1.1565872,0.08908089,-1.9498819,-0.029932396,-4.4947467
735,1778606059330,-0.0302631,-1.2432276,0.18597162,-2.5008824,-0.3213151,-3.645033
736,1778606059340,0.027822526,-1.287646,0.18768002,-2.5393667,-0.408058,-3.2204816
737,1778606059350,0.28457075,-1.325719,0.17620933,-2.4923303,-0.50701815,-2.9077187
738,1778606059360,0.40903994,-1.2903306,0.1683995,-2.1325307,-0.89552844,-2.039679
739,1778606059370,0.26821893,-1.1624447,0.21599068,-2.1325307,-0.89552844,-2.039679
740,1778606059380,0.26455808,-0.85639685,0.12764193,-1.6096299,-1.2608259,0.03176499
741,1778606059390,0.4600479,-0.7604824,0.070532545,-1.4972308,-1.4043792,0.8735373
742,1778606059400,0.5198419,-0.6469958,0.07468152,-1.5754215,-1.6988163,1.2119566
743,1778606059410,0.5000733,-0.49738866,0.12080834,-1.6762142,-1.9620992,1.1630874
744,1778606059420,0.46541715,-0.38902727,0.10982577,-1.8240436,-2.176513,1.056186
745,1778606059430,0.44564855,-0.20671648,-0.029042812,-1.967597,-2.230269,0.9621128
746,1778606059440,0.4075756,-0.041001618,-0.048323333,-2.5735753,-1.5699236,0.89858276
747,1778606059450,0.4075756,-0.041001618,-0.048323333,-2.5735753,-1.5699236,0.89858276
748,1778606059460,1.0977695,0.04612682,1.6195638,-1.2089024,-2.9034426,0.51251596
749,1778606059470,1.2737348,-0.10860548,1.0504224,1.1722504,-3.55829,-0.60231316
750,1778606059480,1.244448,-0.20574026,0.90130347,2.2724187,-2.7898216,-1.3261884
751,1778606059490,0.94279313,-0.19939478,0.64162654,3.4385605,-0.42577308,-1.9950858
752,1778606059500,0.94279313,-0.19939478,0.64162654,3.4385605,-0.42577308,-1.9950858
753,1778606059510,0.36169282,-0.45297024,-0.29262465,2.003638,0.28771752,-1.382999
754,1778606059520,0.37804466,-0.5210622,-0.41148052,0.25473082,1.7489072,-1.2095132
755,1778606059530,0.3904916,-0.5418071,-0.4837215,-0.44226643,3.118467,-1.3176364
756,1778606059540,0.5444917,-0.99160457,-0.40903994,-0.8576548,4.6450195,-1.4288138
757,1778606059550,0.66822875,-1.3823403,-0.35071027,-1.0170907,5.7054815,-1.5131133
758,1778606059560,0.66871685,-1.6056527,-0.2831064,-0.86376345,7.2356987,-1.6194037
759,1778606059570,0.5862255,-2.3651588,0.26529023,0.042760566,7.1868296,-1.4514158
760,1778606059580,0.8886124,-3.6437745,-0.31727442,2.360994,4.938235,-0.7733554
761,1778606059590,0.8886124,-3.6437745,-0.31727442,2.360994,4.938235,-0.7733554
762,1778606059600,0.3048275,-3.7823994,-0.7726852,2.452013,-0.122783914,-0.31764993
763,1778606059610,-0.12520137,-2.8066583,-1.3208379,1.4624114,-2.058616,0.01160644
764,1778606059620,-0.15668476,-2.2824233,-1.2293164,-0.548557,-3.7617083,0.44104472
765,1778606059630,-0.1952458,-1.8213992,-0.9791577,-1.3060299,-4.048815,0.6102544
766,1778606059640,-0.1952458,-1.8213992,-0.9791577,-1.3060299,-4.048815,0.6102544
767,1778606059650,-0.23258655,-1.411627,-0.67799103,-1.6652187,-4.0805798,0.73975784
768,1778606059660,-0.23258655,-0.7653635,-0.22502078,-2.0372355,-3.807523,1.0128145
769,1778606059670,-0.23039004,-0.6535853,-0.13325526,-1.9834795,-3.4214563,1.2021828
770,1778606059680,-0.22648512,-0.562796,-0.043198135,-1.8527542,-3.2693508,1.2840388
771,1778606059690,-0.20159128,-0.49641246,0.03734076,-1.6859881,-3.1600058,1.3524556
772,1778606059700,-0.15302388,-0.50788313,0.027822526,-1.3793337,-2.888171,1.318858
773,1778606059710,-0.009030119,-0.54083085,0.0051252022,-1.210124,-2.5185974,1.1600331
774,1778606059720,-0.009030119,-0.54083085,0.0051252022,-1.1081096,-2.1539109,0.98899084
775,1778606059730,-0.009030119,-0.54083085,0.0051252022,-1.1081096,-2.1539109,0.98899084
776,1778606059740,-0.009030119,-0.54083085,0.0051252022,-1.1081096,-2.1539109,0.98899084
777,1778606059750,0.08908089,-0.65065664,0.28554696,-1.2730432,2.9907963,0.40194935
778,1778606059760,0.16180995,-0.72655845,0.49958518,-0.87964594,4.1135664,0.11362094
779,1778606059770,0.16205402,-0.72338563,0.57524294,-0.66706485,4.447099,0.07391469
780,1778606059780,0.17523311,-0.7185045,0.67018116,0.12339478,5.039027,0.18081611
781,1778606059790,0.22355644,-0.7136234,0.80392456,0.49113566,5.1526484,0.27305678
782,1778606059800,0.27480847,-0.69165826,1.0557917,1.0464121,5.285817,0.42210788
783,1778606059810,0.061746486,-0.68140787,1.1717188,2.4061983,5.3609533,1.0360274
784,1778606059820,-0.19988288,-0.6501685,1.1436522,2.8496864,5.191744,1.4996742
785,1778606059830,-0.37243137,-0.60184515,0.8007518,3.004846,4.4532075,2.2180517
786,1778606059840,-0.29384494,-0.81930023,0.4795725,2.7317894,3.426954,2.8979447
787,1778606059850,-0.25381953,-1.0650659,0.67091334,2.3793201,2.4770586,3.3341024
788,1778606059860,-0.23478307,-1.2566508,0.8195442,1.9755383,0.23457226,4.1221185
789,1778606059870,0.11177822,-1.4362769,0.40903994,2.0482311,-0.07086037,4.17954
790,1778606059880,0.18841219,-1.3694052,0.16473864,2.08977,-0.29993483,3.9858956
791,1778606059890,0.298482,-1.2290722,-0.13716017,2.1917844,-1.2278391,2.8478537
792,1778606059900,0.23356278,-1.210524,-0.25308737,2.2583687,-1.3335189,2.5937338
793,1778606059910,-0.10348027,-1.0413923,-0.49592432,2.211332,-1.1954633,2.6279423
794,1778606059920,-0.2294138,-0.97208,-0.5945235,2.1087067,-1.0219775,2.8386908
795,1778606059930,-0.26114124,-0.9637821,-0.53228885,1.8435913,-0.77579886,3.2033772
796,1778606059940,-0.13740423,-0.9784255,-0.52423495,1.1795808,-0.91507614,3.4654386
797,1778606059950,0.021232981,-1.1072878,-0.32557237,0.7538077,-0.7910705,3.372587
798,1778606059960,0.15448824,-1.1734272,-0.32630453,-0.22296582,-0.1142318,2.7800477
799,1778606059970,0.28725538,-1.2515256,-0.28969595,-0.6389651,0.15393804,2.366492
800,1778606059980,0.40318257,-1.2886223,-0.14252943,-1.0494665,0.37812558,1.6933185
801,1778606059990,0.29140437,-1.2734908,0.13471961,-1.1820242,0.42149702,1.010982
802,1778606060000,0.055400997,-1.2600676,0.1871919,-1.1459832,0.38056904,0.5717699
803,1778606060010,-0.14057697,-1.2483528,0.11348662,-0.9059132,-0.19792034,-0.025045475
804,1778606060020,-0.24625377,-1.2546983,-0.06272271,-0.883922,-0.54000485,-0.13561209
805,1778606060030,-0.12886222,-1.3247427,-0.1867038,-0.852157,-1.0231993,-0.37568212
806,1778606060040,-0.01586372,-1.3323085,-0.18133454,-0.5009095,-1.6481144,-1.29198
807,1778606060050,-0.11373068,-1.1412116,-0.22135992,-0.03481932,-2.0867157,-2.6236663
808,1778606060060,-0.1147069,-1.0330943,-0.21013328,0.03604105,-2.1099286,-2.9718595
809,1778606060070,-0.047103047,-0.942305,-0.20574026,-0.08124508,-1.8723019,-3.3786957
810,1778606060080,0.0353883,-0.8912971,-0.2203837,-0.24801129,-1.5430456,-3.6425896
811,1778606060090,0.09835507,-0.84663457,-0.20329969,-0.3933972,-1.2657127,-3.844175
812,1778606060100,0.09835507,-0.84663457,-0.20329969,-0.3933972,-1.2657127,-3.844175
813,1778606060110,0.05686534,-0.75950617,0.053936653,-0.6969972,-0.7556403,-4.175264
814,1778606060120,0.015375607,-0.78610843,0.082735404,-0.9443977,-0.6780604,-4.0665298
815,1778606060130,-0.0051252022,-0.83687234,0.09493827,-1.1539245,-0.657291,-3.8704422
816,1778606060140,0.03807293,-1.0301657,0.12202863,-1.4202617,-0.62980205,-3.6047158
817,1778606060150,0.03807293,-1.0301657,0.12202863,-1.8839084,-0.70249504,-2.9712486
818,1778606060160,0.05198419,-1.0850785,0.11495096,-1.8839084,-0.70249504,-2.9712486
819,1778606060170,0.117635585,-1.1307173,0.16180995,-2.225993,-0.9401216,-1.4569136
820,1778606060180,0.10958171,-1.1129011,0.19036464,-2.0592268,-1.0067059,-0.52778757
821,1778606060190,0.29774985,-1.061405,0.13520771,-1.72264,-1.1771374,0.6395759
822,1778606060200,0.44027928,-0.98330665,0.08688438,-1.72264,-1.1771374,0.6395759
823,1778606060210,0.45004156,-0.85566473,0.0924977,-1.6627752,-1.2846496,0.6945538
824,1778606060220,0.37194324,-0.7167961,0.12813005,-1.6969837,-1.5241088,0.6591236
825,1778606060230,0.28213018,-0.45589894,0.040269446,-1.9523253,-2.1740694,0.6450737
826,1778606060240,0.30116665,-0.3687705,0.014643434,-2.0781636,-2.3194554,0.63041294
827,1778606060250,0.3961049,-0.27993366,-0.01415532,-2.1911736,-2.3341162,0.61208695
828,1778606060260,0.4510178,-0.26748675,-0.16254212,-2.2437081,-2.107485,0.57848936
829,1778606060270,0.49738866,-0.23307467,-0.38048524,-2.4471262,-0.5888741,0.4605924
830,1778606060280,0.86615914,-0.20574026,0.33704305,-2.5717428,0.9370673,0.36346483
831,1778606060290,1.6588572,-0.36291313,2.1162202,-2.1813998,1.5864171,0.16065755
832,1778606060300,1.4658079,-0.42099872,1.5568411,-0.3371976,0.09712757,-0.7611381
833,1778606060310,1.0836142,-0.47493544,1.1817253,1.781894,-2.1545217,-1.5925257
834,1778606060320,0.6382097,-0.4322254,0.61966133,1.781894,-2.1545217,-1.5925257
835,1778606060330,0.39854547,-0.8363842,0.052716363,1.3665055,-0.45998153,-1.0885619
836,1778606060340,0.4807928,-1.1019185,0.052472305,0.93951076,0.6291912,-1.0769554
837,1778606060350,0.51788944,-1.3957634,0.07614586,0.4202753,1.8490891,-1.1301007
838,1778606060360,0.5110559,-1.5731931,0.036852647,0.06291912,2.7733283,-1.1777482
839,1778606060370,0.5274077,-1.564651,-0.026602242,-0.089186326,3.930307,-1.1539245
840,1778606060380,0.5994046,-1.7184072,-0.102992155,0.6469063,5.445253,-0.5919284
841,1778606060390,0.70020026,-2.012008,-0.08175918,1.2235631,5.644395,-0.31764993
842,1778606060400,0.7839119,-2.540392,-0.00976229,2.1673498,5.1923547,-0.0036651916
843,1778606060410,0.78415596,-3.3565192,-0.18109047,2.9761355,4.097073,0.17959438
844,1778606060420,0.5786598,-3.3577394,-0.39244407,3.2974505,1.2431108,0.089186326
845,1778606060430,0.26211748,-3.034608,-0.5720702,2.7800477,-0.5723807,0.08552113
846,1778606060440,-0.102504045,-2.1804073,-0.9366917,2.0916026,-2.1111503,0.14660765
847,1778606060450,-0.27261195,-1.3730661,-0.77683425,-0.34697145,-4.9754972,0.552833
848,1778606060460,-0.27261195,-1.3730661,-0.77683425,-0.34697145,-4.9754972,0.552833
849,1778606060470,-0.3414361,-0.66822875,-0.78806084,-1.2986995,-4.1563272,0.86498517
850,1778606060480,-0.3414361,-0.66822875,-0.78806084,-1.2986995,-4.1563272,0.86498517
851,1778606060490,-0.37755656,-0.5530337,-0.7141115,-1.7672331,-3.3609805,1.0604621
852,1778606060500,-0.3773125,-0.439059,-0.4729829,-2.5485299,-1.41904,1.5448782
853,1778606060510,-0.21403822,-0.44613665,-0.24015234,-2.5363126,-1.0506883,1.5522085
854,1778606060520,-0.12398108,-0.4617563,-0.18743597,-2.3561072,-0.5045747,1.382999
855,1778606060530,-0.059305906,-0.48054874,-0.12983845,-1.5760323,0.9285152,0.52595496
856,1778606060540,-0.09054524,-0.47810817,-0.026846299,-1.2394456,1.2980887,0.1863139
857,1778606060550,-0.23795582,-0.50763905,0.15668476,-0.80573124,1.5112807,-0.10934488
858,1778606060560,-0.28335047,-0.5605995,0.20622836,-0.40133846,1.4905112,-0.18020524
859,1778606060570,-0.2506468,-0.6282034,0.22111587,0.035430185,1.251052,0.03176499
860,1778606060580,-0.17376876,-0.6897058,0.24137263,0.04337143,1.1606439,0.24801129
861,1778606060590,-0.059794027,-0.7394935,0.26675457,-0.017715093,1.0995574,0.4025602
862,1778606060600,0.27871338,-0.7614586,0.6384538,-0.19547687,1.350623,0.72021013
863,1778606060610,0.32801294,-0.758774,0.7614586,0.34147367,3.2760704,0.8576548
864,1778606060620,0.32801294,-0.758774,0.7614586,0.34147367,3.2760704,0.8576548
865,1778606060630,0.08175918,-0.716064,0.97085977,1.1679744,4.966945,1.1246029
866,1778606060640,-0.008542004,-0.76341105,0.9786696,1.7592919,5.349347,1.7299703
867,1778606060650,-0.0024405725,-0.86152214,0.97500867,1.8955148,4.883257,2.0952678
868,1778606060660,0.047103047,-1.1153417,0.8366282,1.8545868,4.21497,2.3109033
869,1778606060670,-0.018304294,-1.1797727,0.77829856,1.6615535,2.8765645,2.5051584
870,1778606060680,-0.038561042,-1.2210184,0.92229235,1.5442673,1.1624765,2.6407704
871,1778606060690,0.22258021,-1.2427394,0.6257628,2.3115141,-1.4220943,2.7824912
872,1778606060700,0.3526627,-1.2830089,0.23356278,2.9034426,-2.2540927,2.6633725
873,1778606060710,0.43491003,-1.3401184,-0.09640261,3.2583551,-2.5558603,2.417194
874,1778606060720,0.4373506,-1.3496367,-0.33631086,3.3334916,-1.4483615,2.0891593
875,1778606060730,0.3248402,-1.3118078,-0.3968371,3.14168,-0.41233405,2.1386392
876,1778606060740,-0.032459613,-1.0836142,-0.41123646,2.276084,0.9053023,2.5595255
877,1778606060750,-0.032459613,-1.0836142,-0.41123646,2.276084,0.9053023,2.5595255
878,1778606060760,0.10958171,-0.9730562,-0.19939478,1.0592403,0.9596693,2.996294
879,1778606060770,0.17108414,-0.77732235,-0.032703668,-0.58032197,-0.25534168,2.5784621
880,1778606060780,0.07028849,-0.77903074,-0.030507157,-0.88453287,-0.77091193,1.9669861
881,1778606060790,-0.1261776,-0.93010217,0.07809832,-0.88453287,-0.77091193,1.9669861
882,1778606060800,-0.23844394,-1.0431006,0.053692598,-0.74464476,-0.6414085,1.5161675
883,1778606060810,-0.36169282,-1.1663495,-0.030751213,-0.50579643,-0.6291912,1.2773192
884,1778606060820,-0.39659303,-1.2568948,-0.17645338,-0.4373795,-0.7837401,1.0940597
885,1778606060830,-0.29897013,-1.3860011,-0.3109289,-0.34513888,-0.8863655,0.72204274
886,1778606060840,-0.29897013,-1.3860011,-0.3109289,-0.34513888,-0.8863655,0.72204274
887,1778606060850,-0.22477673,-1.4860646,-0.27505252,-0.014660766,-1.2064588,-0.45570546
888,1778606060860,-0.25015867,-1.4462832,-0.24015234,0.1142318,-1.7592919,-2.02624
889,1778606060870,-0.28749946,-1.1783084,-0.13593988,0.02443461,-1.8845193,-2.4807239
890,1778606060880,-0.27334413,-1.0504224,-0.08956901,-0.15821409,-1.8961257,-2.833804
891,1778606060890,-0.2203837,-0.9274175,-0.03636453,-0.5546656,-1.7024814,-3.137404
892,1778606060900,-0.16351835,-0.844438,0.0061014313,-0.79351395,-1.5711454,-3.2760704
893,1778606060910,-0.1181237,-0.8551766,0.04612682,-1.1801916,-1.0732902,-3.5534031
894,1778606060920,-0.20744865,-0.9088692,0.062478654,-1.4819591,-0.6017023,-3.653585
895,1778606060930,-0.20744865,-0.9088692,0.062478654,-1.4819591,-0.6017023,-3.653585
896,1778606060940,-0.20744865,-0.9088692,0.062478654,-1.4819591,-0.6017023,-3.653585
897,1778606060950,-0.1210524,-1.1949043,0.016595893,-2.239432,-0.73914695,-2.8295279
898,1778606060960,-0.037584815,-1.2471325,-0.012935034,-2.357329,-0.73975784,-2.607173
899,1778606060970,0.052472305,-1.2544543,-0.029530926,-2.4404066,-0.73364913,-2.303573
900,1778606060980,0.09567044,-1.2622641,0.029286869,-2.4404066,-0.73364913,-2.303573
901,1778606060990,0.23697957,-1.2083274,0.056133166,-2.1374176,-0.77824235,-1.7201965
902,1778606061000,0.26455808,-1.108508,0.054912884,-1.486846,-1.0054842,-0.9266826
903,1778606061010,0.25552794,-0.97476465,-0.0024405725,-1.2565498,-1.0451905,-0.2864958
904,1778606061020,0.20696054,-0.61673266,-0.20085911,-1.1844677,-0.99204516,0.34208453
905,1778606061030,0.30287504,-0.536926,-0.22746135,-1.1844677,-0.99204516,0.34208453
906,1778606061040,0.47810817,-0.47786412,-0.31434575,-1.3610078,-0.93584555,1.5833627
907,1778606061050,0.6379657,-0.44320798,-0.4058672,-1.8735237,-0.60231316,1.758681
908,1778606061060,0.7739055,-0.28579104,-0.3687705,-2.3060162,-0.086132,1.6120734
909,1778606061070,0.7739055,-0.28579104,-0.3687705,-2.6254988,0.31520647,1.4758505
910,1778606061080,1.1063116,-0.22648512,-0.11031388,-3.631594,1.6420058,0.6640105
911,1778606061090,2.0661886,-0.12861817,2.6958563,-2.474615,-1.7434094,0.13744467
912,1778606061100,1.6781375,-0.20866893,1.8636211,-0.8588765,-5.9822035,-0.79534656
913,1778606061110,1.2327331,-0.32215557,0.9071608,0.23884831,-8.159938,-1.5961909
914,1778606061120,0.88958865,-0.49104318,0.2638259,0.37873647,-6.899723,-1.5748106
915,1778606061130,0.6972716,-0.70459324,0.23893206,0.70921457,-4.742147,-1.4721853
916,1778606061140,0.6218578,-1.1226633,0.23990828,1.4019357,0.4801401,-1.4984524
917,1778606061150,0.74193406,-1.2925272,-0.118855886,1.4019357,0.4801401,-1.4984524
918,1778606061160,0.74193406,-1.2925272,-0.118855886,1.0861185,3.476434,-1.7763962
919,1778606061170,0.3909797,-1.2493291,-0.21428227,-0.035430185,7.1843863,-2.4080307
920,1778606061180,0.34973404,-1.1099724,-0.33411437,-0.13133603,8.635191,-2.4422393
921,1778606061190,0.46932206,-1.6051645,-0.2716357,0.46853364,10.194119,-1.89918
922,1778606061200,0.55742675,-2.9177043,-0.028066583,2.076331,10.219775,-0.9236283
923,1778606061210,0.55742675,-2.9177043,-0.028066583,2.076331,10.219775,-0.9236283
924,1778606061220,0.40342662,-3.4302247,-0.11006982,2.737898,9.09273,-0.6078109
925,1778606061230,0.07565775,-3.448529,-1.0950848,2.4416285,-1.5937474,0.4905248
926,1778606061240,-0.3790209,-2.443257,-1.1985651,2.4416285,-1.5937474,0.4905248
927,1778606061250,-0.45370242,-1.9539223,-0.97427654,-0.42638394,-8.807455,1.2070698
928,1778606061260,-0.46590528,-1.5419537,-0.82442534,-0.66767573,-9.153205,1.3072516
929,1778606061270,-0.4729829,-0.865427,-0.78537625,-0.86742866,-8.868542,1.4092661
930,1778606061280,-0.50568664,-0.5959878,-0.84761083,-1.0616838,-7.9901175,1.5289958
931,1778606061290,-0.47688788,-0.4600479,-0.8747012,-1.2382239,-7.0835934,1.6395624
932,1778606061300,-0.45785138,-0.3785328,-0.8139309,-1.7989981,-4.275446,1.8252654
933,1778606061310,-0.41099238,-0.32239962,-0.6245425,-1.9113973,-3.3707545,1.8197676
934,1778606061320,-0.29604146,-0.27017137,-0.26870704,-1.7403551,-1.2131784,1.4929546
935,1778606061330,-0.21769907,-0.26553428,-0.16791138,-1.7403551,-1.2131784,1.4929546
936,1778606061340,-0.16986385,-0.2848148,-0.10421244,-1.3402383,0.32253686,0.8472701
937,1778606061350,-0.15546446,-0.34070393,-0.01513155,-1.1184943,0.9071349,0.43249258
938,1778606061360,-0.19671014,-0.50031734,0.12178457,-0.9334021,1.1924089,0.10751228
939,1778606061370,-0.07809832,-0.7814713,0.3321619,-0.84116143,1.4056009,-0.039095376
940,1778606061380,0.025137896,-0.8959341,0.5274077,-0.50579643,6.1098742,0.10934488
941,1778606061390,-0.03807293,-0.91057765,0.622346,-0.15271631,7.3682566,0.12583824
942,1778606061400,-0.05662128,-0.91521466,0.690682,0.17165314,8.354193,0.23579398
943,1778606061410,-0.024405725,-0.9418169,0.79587066,0.4202753,9.080512,0.60048056
944,1778606061420,0.043930303,-0.9901402,0.976229,0.43066,8.915578,0.8216137
945,1778606061430,0.09152147,-1.0862988,1.4428664,0.47647488,8.257676,1.0177015
946,1778606061440,-0.119343996,-1.0753163,1.5749013,0.58032197,7.4268994,1.1881329
947,1778606061450,-0.22111587,-1.0243083,1.6910727,0.7910705,5.765957,1.5839735
948,1778606061460,-0.29579738,-0.92961407,1.4928981,1.4025466,1.1826351,2.52043
949,1778606061470,-0.34168017,-1.0682385,0.8390688,1.7702875,-1.3200798,3.036611
950,1778606061480,-0.28676724,-1.1565872,0.6347929,2.2266037,-3.0201178,3.3518176
951,1778606061490,-0.06833603,-1.1922196,0.2767609,3.2656856,-3.7775908,3.2699616
952,1778606061500,0.1295944,-1.2053988,-0.12398108,3.608381,-3.5460727,2.9046643
953,1778606061510,0.30677995,-1.3498806,-0.8991069,3.372587,-2.4672847,2.0781636
954,1778606061520,0.1786499,-1.3286476,-0.86225426,2.4251351,-0.28160888,1.6560557
955,1778606061530,0.11299851,-1.3100992,-0.79831123,2.0561724,0.54000485,1.7605137
956,1778606061540,0.0034168016,-1.2598236,-0.75389284,1.5173893,1.4165965,2.1142046
957,1778606061550,-0.107873306,-1.1233956,-0.46712556,0.9370673,1.8411479,2.6450465
958,1778606061560,0.035144243,-1.0728757,-0.3048275,0.045814894,1.387275,3.1300735
959,1778606061570,0.15936938,-0.9930689,-0.10201593,-0.28588495,0.8258898,3.105639
960,1778606061580,0.22282428,-0.8561529,0.027090356,-0.5314528,0.30115658,2.9620855
961,1778606061590,0.22282428,-0.8561529,0.027090356,-0.5314528,0.30115658,2.9620855
962,1778606061600,0.076633975,-0.84761083,-0.045638707,-1.0341948,-0.10751228,2.5076017
963,1778606061610,-0.12398108,-0.8834872,-0.06613952,-1.5552629,-0.040317107,2.122146
964,1778606061620,-0.4510178,-1.0069802,0.018792408,-1.6536123,0.13683382,1.9950858
965,1778606061630,-0.5288721,-1.1172941,0.038561042,-1.500285,0.36285394,1.8869628
966,1778606061640,-0.4898229,-1.2495731,-0.07614586,-0.80573124,0.24251351,1.3616186
967,1778606061650,-0.30165476,-1.517548,-0.37804466,-0.2779437,-0.8527679,-0.08368854
968,1778606061660,-0.3116611,-1.4824038,-0.36022848,-0.13927728,-1.4935656,-0.73914695
969,1778606061670,-0.30165476,-1.389662,-0.35876414,-0.04337143,-3.0885346,-2.2968533
970,1778606061680,-0.30165476,-1.389662,-0.35876414,-0.04337143,-3.0885346,-2.2968533
971,1778606061690,-0.3333822,-1.0897156,-0.28554696,-0.2687807,-3.3341024,-2.8637362
972,1778606061700,-0.19573392,-0.89398164,-0.17938207,-0.55771995,-3.1978796,-3.1202996
973,1778606061710,-0.12642166,-0.8166155,-0.13740423,-0.7263188,-3.015231,-3.255301
974,1778606061720,-0.08932495,-0.7492558,-0.0976229,-0.86742866,-2.7482827,-3.3713653
975,1778606061730,-0.08127106,-0.6875093,-0.05344854,-0.9737192,-2.40742,-3.4416149
976,1778606061740,-0.07736614,-0.6389419,0.05588911,-1.0005972,-2.1649065,-3.4513886
977,1778606061750,-0.018792408,-0.70361704,0.082247294,-0.8912524,-1.4831808,-3.3420436
978,1778606061760,-0.018792408,-0.70361704,0.082247294,-0.87781334,-1.2449434,-3.291342
979,1778606061770,0.09469421,-0.8158834,0.046858992,-0.893085,-0.9877691,-3.2155948
980,1778606061780,0.19402552,-0.9056965,0.0021965152,-0.9431759,-0.7538077,-3.1215215
981,1778606061790,0.19402552,-0.9056965,0.0021965152,-1.0531317,-0.29443705,-2.882673
982,1778606061800,0.2638259,-0.9545079,-0.03636453,-1.138042,0.1282817,-2.5344799
983,1778606061810,0.18963248,-0.8844635,0.008786061,-1.1362094,0.19242255,-2.1820107
984,1778606061820,0.013179091,-0.78513217,0.022941383,-1.0781772,0.12767084,-1.41904
985,1778606061830,-0.016351834,-0.6962953,-0.0024405725,-1.0665708,-0.34697145,0.64568454
986,1778606061840,0.40659937,-0.5857374,-0.059549972,-1.2296717,-0.6957755,1.2663237
987,1778606061850,0.51618105,-0.5432714,-0.04344219,-1.4245378,-1.0757337,1.4404203
988,1778606061860,0.5432714,-0.49885303,-0.010738519,-1.7415768,-1.7104226,1.2950343
989,1778606061870,0.5432714,-0.49885303,-0.010738519,-1.7415768,-1.7104226,1.2950343
990,1778606061880,0.5405868,-0.42612398,0.05832968,-1.9559906,-2.1917844,1.0549643
991,1778606061890,0.8756774,-0.43051702,-0.6799435,-2.194228,-2.0073032,0.7965683
992,1778606061900,1.0963051,-0.44052333,-0.6877533,-3.354872,0.5357288,-0.09040806
993,1778606061910,1.5785623,-0.6587105,1.4523847,-3.613268,1.3005321,-0.43127087
994,1778606061920,1.0675064,-0.73485637,0.56718904,-2.3823745,-0.9370673,-1.35551
995,1778606061930,0.8788501,-0.80416864,0.4041588,-1.2034045,-0.3817908,-1.3420709
996,1778606061940,0.7690244,-0.9093573,0.3321619,-1.2034045,-0.3817908,-1.3420709
997,1778606061950,0.7690244,-0.9093573,0.3321619,-0.022602014,1.2534955,-1.2205088
998,1778606061960,0.5366819,-1.5512279,0.2853029,0.2968805,1.7953329,-1.3139712
999,1778606061970,0.39927766,-1.5785623,0.2186753,0.3231477,2.7910433,-1.5515977
1000,1778606061980,0.35998443,-1.4970472,0.14594623,0.3231477,2.7910433,-1.5515977
