id,timestamp,acc_x,acc_y,acc_z,gyro_x,gyro_y,gyro_z
0,1778606163980,-0.2877435,-0.82296103,0.54034275,0.13072516,0.2302962,-0.008552114
1,1778606164030,-0.25479576,-0.88104665,0.4378387,0.028099801,0.06414085,-0.16737708
2,1778606164080,-0.29774985,-0.93303084,0.41611758,0.14966199,-0.08735373,-0.06047566
3,1778606164130,-0.27724904,-0.87982637,0.4412555,-0.13561209,-0.12644911,0.042760566
4,1778606164180,-0.27602875,-0.8598137,0.44930938,0.08857546,-0.10445796,0.058643065
5,1778606164230,-0.25992095,-0.86884385,0.409284,-0.12095132,-0.15577064,0.03604105
6,1778606164280,-0.22819352,-0.83809257,0.43295756,-0.023823744,-0.27672195,0.12767084
7,1778606164330,-0.22575295,-0.78415596,0.43124917,-0.092240654,-0.062308256,-0.08979719
8,1778606164380,-0.18255483,-0.61111933,0.48152497,-0.17898351,-0.24373524,-0.4129449
9,1778606164430,-0.21647878,-0.5027579,0.3014107,-0.15149458,0.032986723,-0.07880162
10,1778606164480,-0.05198419,-0.6540734,0.234539,-0.7263188,0.6053675,-0.099571034
11,1778606164530,-0.23575929,-0.797335,0.8771418,-0.39584067,1.582141,-0.852157
12,1778606164580,-0.08932495,-1.1404796,0.6635916,-0.080634214,-0.35063666,-0.9718866
13,1778606164630,-0.032703668,-0.8949579,0.073461235,-1.0177015,-2.248595,-0.74281216
14,1778606164680,-0.10372432,-0.9230245,0.16058967,-2.0983222,0.99082345,-1.3115277
15,1778606164730,-0.52374685,-1.5741693,-0.08371163,-2.0286834,-4.0982947,-2.8356364
16,1778606164780,-0.17987019,-0.7492558,0.30604777,-2.007914,0.86132,-1.1826351
17,1778606164830,0.27554062,-1.2034464,0.2672427,-0.70188415,1.2632693,0.002443461
18,1778606164880,0.3219115,-1.1604922,0.09176553,-0.23701571,-1.4966198,-0.57787853
19,1778606164930,0.43808278,-0.9459658,-0.10006347,0.018325957,-2.5466971,-1.2211196
20,1778606164980,0.082735404,-0.5876899,-0.20940112,1.106277,-1.6194037,-0.09773844
21,1778606165030,0.4097721,-0.8390688,-0.53765815,0.8142834,1.0341948,-0.23701571
22,1778606165080,0.43930307,-1.1643971,-0.3526627,0.37323865,0.77763146,0.02443461
23,1778606165130,0.06955632,-1.2520137,-0.16815543,0.48747048,-1.4410311,-0.07696902
24,1778606165180,0.08102701,-1.0435888,-0.15888128,-0.7110472,-1.128879,0.6224717
25,1778606165230,0.5130083,-1.1370627,1.3069266,-1.6224581,0.92485,0.9486737
26,1778606165280,0.24332508,-1.240543,1.3689171,5.130657,5.8557544,1.318858
27,1778606165330,0.6325964,-2.1616151,-0.5469323,6.0726113,-5.3145275,2.1239784
28,1778606165380,0.17035197,-0.64772797,-0.61746484,0.49113566,1.0946705,2.0964894
29,1778606165430,0.067847915,-0.1637624,0.13203497,-1.3213016,0.32620203,0.7360926
30,1778606165480,0.14521407,-0.9864794,-0.41343296,-3.467882,0.40194935,-1.7800614
31,1778606165530,-0.6428468,-2.0249429,-0.1849954,-3.0518827,-1.5888605,-2.9492574
32,1778606165580,-0.052472305,-1.1441404,0.045638707,-1.0213667,-1.749518,0.5748242
33,1778606165630,0.48518583,-0.49592432,-0.23527117,-1.713477,-1.5210545,1.0855075
34,1778606165680,0.6133158,0.15277983,1.7296337,-3.1532865,-1.772731,0.18142697
35,1778606165730,0.65163285,0.12154051,-0.23819989,1.2131784,-6.1446934,-0.12767084
36,1778606165780,2.0312884,-2.894763,-0.024161667,-0.9633345,3.1343496,-1.0690142
37,1778606165830,0.6101431,-3.5937428,-0.3248402,2.5607471,13.705983,-0.6469063
38,1778606165880,-0.916435,-1.308635,-1.3452435,-1.0305296,-11.563068,1.1911873
39,1778606165930,0.022697324,-0.059549972,1.121687,0.49480084,-1.8362609,1.450805
40,1778606165980,-0.50324607,-0.26480213,0.03904916,1.8002199,11.306505,4.604091
41,1778606166030,-0.10592084,-0.14594623,1.1534146,2.4483478,3.6456437,3.8246274
42,1778606166080,-0.2421048,-0.81344277,0.17718557,1.604743,-4.3029346,3.0653217
43,1778606166130,-0.36730617,-0.4742032,-0.65919864,-2.2223277,-0.92485,2.9773571
44,1778606166180,-0.91570276,-2.4144583,0.50788313,2.3127358,1.6603317,-0.54061574
45,1778606166230,-0.26455808,-0.9459658,0.09811102,-1.3390167,-2.193617,-3.8331795
46,1778606166280,-0.5288721,-0.895446,-0.048323333,-2.52043,-4.5814896,-2.6890287
47,1778606166330,-0.06833603,-1.3977158,-0.06662763,-3.8472292,-3.5967746,-1.2675453
48,1778606166380,0.047103047,-0.06418706,0.17645338,-3.0940325,-1.2260065,0.12644911
49,1778606166430,0.32996538,0.0690682,1.445307,-2.0842721,-0.5870415,1.1246029
50,1778606166480,0.5957437,-0.37243137,-0.12935033,0.37507126,-1.1087204,0.4868596
51,1778606166530,0.9620737,-3.3836095,0.07175283,1.5552629,5.128214,-6.133698
52,1778606166580,-0.6411384,-2.6109245,-1.1485333,3.0384438,-0.2919936,-2.330451
53,1778606166630,-0.59232694,-0.40952805,-0.60062486,-1.3970488,-6.782437,1.9859229
54,1778606166680,-0.5618198,-0.30726805,0.8710403,0.2443461,2.9028316,2.0470095
55,1778606166730,-0.9237567,-0.52789587,0.77073276,3.612657,11.870334,3.9052615
56,1778606166780,-0.13691612,-0.6369894,0.6657882,2.7317894,-5.044525,5.7372465
57,1778606166830,0.17376876,-0.79709095,-0.681896,0.929126,-4.3957863,2.1972823
58,1778606166880,-0.75340474,-0.45248213,-0.5620638,-0.66828656,-1.5436565,3.4214563
59,1778606166930,-0.17303659,-2.1520967,0.34509695,1.9089539,2.289523,2.6395488
60,1778606166980,-0.26162934,-1.3506129,0.10396838,-1.4556919,-1.2547172,-3.7189476
61,1778606167030,-1.0780008,-1.1204668,-0.05735345,-2.5216517,-1.7953329,-2.5057693
62,1778606167080,-0.42197496,-1.3591548,0.021965152,-4.9944344,0.49480084,-0.68416905
63,1778606167130,-0.2403964,-0.58256465,0.4803047,-4.0585885,0.36957347,0.37323865
64,1778606167180,0.31141704,0.14008886,1.2622641,-2.0176878,-0.2321288,0.9071349
65,1778606167230,0.3265486,-0.34338856,0.21330604,1.3329079,-0.027488936,0.73914695
66,1778606167280,0.22697324,-1.4030851,0.05222825,1.8338175,4.8295007,-1.3579534
67,1778606167330,-1.7882075,-5.030508,-0.5405868,3.4471126,-1.9694295,-2.5308146
68,1778606167380,-0.8881243,-1.253478,-0.75267255,0.03604105,-1.4813483,1.5228871
69,1778606167430,-0.2169669,0.14960709,-0.15692882,-2.3047945,0.16982053,1.7250835
70,1778606167480,-0.511788,0.15570852,0.2294138,-1.395827,3.7073412,-0.47952923
71,1778606167530,-0.5759751,-0.626495,0.626739,4.9571714,1.4892895,5.2277846
72,1778606167580,0.17987019,-0.2818861,0.25381953,2.4263568,-2.919936,3.566842
73,1778606167630,-0.7004443,-0.6645679,-0.307024,-1.4715744,-0.23640485,2.6401596
74,1778606167680,-0.70996255,-0.41099238,-0.3338703,-1.3573426,-2.5008824,3.7244453
75,1778606167730,-1.8323817,-1.9771078,-0.23405088,2.5240953,-1.5326608,-2.9150488
76,1778606167780,-0.6040417,-1.0809295,-0.012690976,-2.1911736,0.17348573,-2.606562
77,1778606167830,-0.9108216,-1.1026506,0.00707766,-2.6340508,-0.6078109,-1.029308
78,1778606167880,-0.4234393,-0.8407772,0.076389916,-3.1221323,1.9504927,-1.1844677
79,1778606167930,-0.1969542,-0.21525851,0.5662128,-3.7470474,1.1117748,-1.0549643
80,1778606167980,0.1769415,0.025381953,0.82393724,0.26145032,-2.3011293,0.10629055
81,1778606168030,0.039537273,-0.4234393,0.2796896,1.4703526,2.7226264,0.43371433
82,1778606168080,-1.0533512,-1.7257288,-0.3995217,3.5979962,2.325564,0.06719518
83,1778606168130,-2.7014697,-2.9274666,-0.81319875,-0.91324353,-3.2296445,1.0873401
84,1778606168180,-0.4698102,-0.63284045,-0.2877435,-0.8717047,0.1600467,0.21319197
85,1778606168230,-0.38048524,0.21257387,0.061746486,-1.2308935,2.5711317,-1.2406673
86,1778606168280,-0.9391323,-0.008786061,0.49934113,-0.08307768,-0.47219884,-0.032375857
87,1778606168330,-0.7468152,-0.5274077,0.38121742,4.3713517,-2.053118,2.4049764
88,1778606168380,-0.15717287,-0.16888762,0.033679903,1.8625281,-1.5864171,2.5802948
89,1778606168430,-0.55523026,-0.7985553,-0.3099527,-1.5070046,2.0372355,2.6584857
90,1778606168480,-0.40611124,-0.74242216,0.0388051,-0.5870415,-1.8228219,2.0592268
91,1778606168530,-2.2182362,-1.4050376,-0.2677308,0.85154617,1.0885619,-1.2003502
92,1778606168580,-0.63186425,-0.92278045,0.16937573,-1.4929546,-0.039095376,-1.9730947
93,1778606168630,-0.6628595,-0.76926845,0.14570218,-1.8191566,-0.26939157,-0.6542367
94,1778606168680,-0.3785328,-0.6545615,0.16498269,-2.1044307,1.5381587,-1.2186762
95,1778606168730,-0.50593066,-0.57988006,0.28359452,-2.257758,0.0421497,-1.0042624
96,1778606168780,-0.2626056,-0.35168648,0.3648656,-1.210735,0.16554448,-0.25045475
97,1778606168830,-0.30067852,-0.6360132,-0.0078098318,1.0494665,1.3518448,0.03481932
98,1778606168880,-0.42807645,-1.1905112,-0.06272271,0.35918877,-0.04642576,-0.64812803
99,1778606168930,-2.0737545,-2.1765025,-0.3968371,1.7580702,0.5699373,-1.17897
100,1778606168980,-1.0950848,-0.750232,-0.48518583,-0.12767084,0.729984,0.9645562
101,1778606169030,-0.69434285,-0.1769415,-0.30019042,-0.29138273,0.9975429,0.5479461
102,1778606169080,-0.67042524,-0.3053156,-0.22868164,0.02687807,-0.22052236,-0.15027285
103,1778606169130,-1.4760582,-0.6291796,2.3675992,0.9309586,1.2950343,0.7440339
104,1778606169180,-0.42148685,-0.043930303,0.12520137,2.765998,-3.5069773,2.0506747
105,1778606169230,0.11324256,-0.65041256,-0.0707766,1.7122552,0.7678576,1.5467108
106,1778606169280,-0.73729694,-0.2877435,0.2865232,-2.5143213,2.3383923,3.1557298
107,1778606169330,-1.4736177,-1.6346955,0.37487194,1.5424347,-2.737898,-3.6548069
108,1778606169380,-1.4135796,-1.0601847,-0.13911264,-1.7208074,0.8918633,-1.1429288
109,1778606169430,-0.6621273,-0.673598,0.055400997,-2.402533,-1.4208726,-1.3726143
110,1778606169480,-0.4837215,-1.108264,-0.036120474,-2.5833492,1.1392636,-0.5174029
111,1778606169530,-0.13545178,-0.511544,0.4502856,-2.8136454,0.9578367,-0.6206391
112,1778606169580,0.3277689,0.024649782,1.3325526,-0.49541172,-3.2797356,-0.6646214
113,1778606169630,0.2489384,-0.062478654,0.8073414,1.3292428,1.4874569,0.04520403
114,1778606169680,-0.45687518,-0.7397375,-0.12764193,2.9932396,4.289496,-0.32925636
115,1778606169730,-2.5506425,-3.2076445,-1.197833,2.4862216,-1.9401081,0.5510005
116,1778606169780,-1.257383,-1.3203497,-0.37023485,-1.7892243,-1.6426166,1.1325442
117,1778606169830,-0.26504618,-0.39195594,-0.11568313,-2.470339,3.6096027,-0.74036866
118,1778606169880,-0.88055855,-0.5764632,1.5246257,1.368949,-0.7086037,-0.63529986
119,1778606169930,-0.81783587,-0.1403329,0.13862452,3.140458,-1.042747,0.571159
120,1778606169980,-0.18987654,0.06662763,0.047103047,2.7061331,-0.6469063,1.8277088
121,1778606170030,0.053692598,-0.31947094,-0.023429496,1.9120082,0.029932396,1.4110987
122,1778606170080,-0.4737151,-0.2037878,-0.4888467,-2.9755247,-1.0751228,2.107485
123,1778606170130,-1.1870944,-1.7281694,0.8232051,2.1533,-2.92299,-2.4080307
124,1778606170180,-1.2517697,-1.7330506,-0.3141017,-1.1264355,-0.32498032,0.3463606
125,1778606170230,-0.4373506,-0.9962417,-0.008786061,-2.434298,-0.8564331,-0.5839872
126,1778606170280,-0.29872608,-0.9313224,0.08615221,-2.7262917,1.4966198,-0.78984874
127,1778606170330,-0.1466784,-0.35193056,0.78537625,-2.1245892,3.5863898,-0.32803464
128,1778606170380,0.12178457,0.11226633,0.85859346,-0.26145032,-1.7489072,-0.12217305
129,1778606170430,0.13789235,0.20769271,0.30043447,1.3048081,0.94134337,0.13316862
130,1778606170480,-0.4139211,-0.15375607,-0.09835507,2.0457878,1.8044959,-0.5699373
131,1778606170530,-2.485235,-3.0241134,-0.9901402,3.2760704,-0.5516113,0.019547688
132,1778606170580,-1.6874118,-1.7176749,-0.48274526,-0.8943067,-2.1526892,0.63346726
133,1778606170630,-0.18743597,-0.31141704,-0.260165,-2.8209758,2.95109,-0.38423425
134,1778606170680,-0.6616392,-0.25015867,1.8655735,1.3304645,-1.3096951,-1.3457361
135,1778606170730,-0.98477095,-0.35437113,0.08859278,3.0616567,-2.5705209,1.5033394
136,1778606170780,-0.19817449,0.14252943,0.14911897,2.7317894,-0.5131268,2.0390682
137,1778606170830,-0.018304294,-0.78513217,0.7636551,2.2852468,0.44715336,1.3005321
138,1778606170880,-0.4463807,-0.3014107,-0.6787232,-2.7910433,-0.9468411,1.8777997
139,1778606170930,-1.6844832,-1.7974815,0.4275883,2.01219,-4.0897427,-1.5082263
140,1778606170980,-1.1995413,-1.4658079,-0.4612682,-0.9034697,0.27305678,0.13744467
141,1778606171030,-0.63406074,-1.0611609,0.08908089,-1.9614882,0.7031059,-0.6017023
142,1778606171080,-0.3265486,-0.9664667,0.12422514,-2.1374176,1.9376645,-0.7263188
143,1778606171130,-0.3248402,-0.40098605,0.41172457,-2.3469443,3.2650747,-0.72204274
144,1778606171180,-0.010738519,0.0741934,0.792942,-1.0574077,0.0036651916,-0.28099802
145,1778606171230,0.11861181,0.22672918,0.2801777,0.9761627,-0.059864793,0.24495697
146,1778606171280,-0.45711923,-0.13838045,-0.037828874,1.4172074,2.2547035,-0.41416663
147,1778606171330,-3.0133748,-3.3069756,-1.0533512,3.6157115,-1.4721853,-0.66950834
148,1778606171380,-1.8831457,-1.8726513,-0.5037342,-0.40378192,-0.089186326,1.1863003
149,1778606171430,-0.09640261,-0.24820623,-0.24747404,-2.5485299,3.6389244,-0.17715092
150,1778606171480,-0.43076107,-0.034168016,1.9666133,-0.8026769,0.516792,-1.4245378
151,1778606171530,-1.168302,-0.047103047,1.168302,1.5308284,-2.7757716,-0.8393288
152,1778606171580,-0.6570021,0.24625377,0.016595893,2.4452937,-1.1985176,2.4813347
153,1778606171630,-0.13081467,-0.49690056,0.38609856,1.3066407,-0.095294975,1.9737056
154,1778606171680,-0.3734076,-0.358032,-0.5781716,-3.781256,0.20891592,2.1496348
155,1778606171730,-1.5790504,-1.616147,0.7180164,1.4245378,-5.045136,-1.7550159
156,1778606171780,-0.97427654,-1.4360328,0.10933765,-1.5925257,0.9841039,-1.138042
157,1778606171830,-0.9303462,-1.0216236,0.07199689,-1.5748106,-0.5705481,-0.66706485
158,1778606171880,-0.5000733,-0.8676235,0.073217176,-2.5448647,2.4190264,-0.9999864
159,1778606171930,-0.24698594,-0.3743838,0.4419877,-2.2162192,2.747061,-1.0329732
160,1778606171980,-0.0034168016,0.14985114,0.97208,-0.06841691,-0.63713247,-0.3549127
161,1778606172030,0.058573738,0.17767367,0.43661842,1.7513506,0.7104363,0.5674938
162,1778606172080,-0.68214005,-0.28432667,-0.28164205,1.8295414,0.47158796,-0.45142943
163,1778606172130,-3.1751847,-3.0197203,-0.9344952,2.0512855,-0.8729264,-0.19547687
164,1778606172180,-1.671304,-1.5526923,-0.35363895,-0.22418754,0.5864306,1.0574077
165,1778606172230,-0.051007964,-0.19597797,-0.14960709,-2.402533,3.12763,-0.19547687
166,1778606172280,-0.30165476,-0.043930303,0.78488815,-0.6414085,-0.29932398,-1.0189233
167,1778606172330,-1.0638455,-0.49958518,0.417826,2.9126055,-2.7837129,0.7458665
168,1778606172380,-0.5730464,0.12129646,0.114218794,2.91566,-2.1019874,2.2742512
169,1778606172430,-0.08444381,-0.47981656,0.32459614,1.9480493,0.08857546,1.9236146
170,1778606172480,-0.66993713,-0.47932845,0.5112999,-2.5509732,-2.021353,3.3774738
171,1778606172530,-1.8975451,-1.3269392,0.35193056,1.6878207,-0.9798279,-1.5723672
172,1778606172580,-0.562796,-0.8459024,0.26992732,-1.4990633,0.59437186,-2.2162192
173,1778606172630,-0.83077085,-0.8529801,0.061014313,-1.5131133,0.47952923,-2.8386908
174,1778606172680,-0.9862353,-1.1048472,-0.06272271,-2.320677,2.987742,-0.9089675
175,1778606172730,-0.5442477,-0.47762007,0.25211114,-2.9535334,0.9627236,-1.1899655
176,1778606172780,0.23649146,0.14423785,1.1905112,-1.0873401,-0.6047566,-0.29077184
177,1778606172830,0.15595257,0.12861817,0.42246306,1.2357804,0.21380283,0.3371976
178,1778606172880,-0.6062382,-0.18548352,-0.09298581,2.3952026,0.6236934,-0.09407325
179,1778606172930,-2.5267248,-2.5655298,-0.8258897,2.5442538,-1.3054191,-0.72326446
180,1778606172980,-1.8084643,-1.5026605,-0.23575929,-0.9505063,-0.17287487,1.070236
181,1778606173030,-0.14399378,-0.0370967,-0.34631723,-0.93279123,0.9242391,0.036651913
182,1778606173080,-0.35119838,0.05296042,0.38609856,-1.1050552,1.677436,-0.74220127
183,1778606173130,-1.4062579,-0.63332856,1.2817887,2.5277603,-3.0647109,0.32375857
184,1778606173180,-0.43027294,0.06321083,0.11251039,3.2406402,-2.547308,2.388483
185,1778606173230,-0.06858008,-0.43198135,0.0776102,1.5723672,-0.766025,1.8570304
186,1778606173280,-0.7228975,-0.38707477,-0.99965847,-1.8020525,1.2956452,2.6193902
187,1778606173330,-0.68214005,-0.5025139,0.65993077,0.25534168,-3.2662964,2.2351558
188,1778606173380,-2.3178117,-1.368429,-0.25845662,0.95722586,1.0305296,-2.5357015
189,1778606173430,-0.6045298,-0.7980672,0.07834238,-1.9443841,0.10445796,-2.2901337
190,1778606173480,-1.3564702,-0.9791577,0.12520137,-1.3420709,1.6615535,-1.4269812
191,1778606173530,-0.5198419,-0.79489446,0.281398,-2.2174408,2.6542094,-1.1038336
192,1778606173580,-0.17254847,-0.10958171,0.37682438,-2.4507914,1.196685,-0.7128797
193,1778606173630,0.17669745,0.027334413,0.8090498,1.1068878,0.63041294,0.28405234
194,1778606173680,0.18938842,-0.30507156,0.6062382,2.0616703,1.4465289,0.45998153
195,1778606173730,-1.6471423,-1.6727684,-0.38170552,3.0708196,-0.86254174,-1.0616838
196,1778606173780,-3.3799489,-2.6358182,-0.7604824,-0.17348573,-0.41905355,0.9969321
197,1778606173830,-0.6672525,-0.4327135,-0.25137895,-0.7678576,0.5131268,0.48991394
198,1778606173880,-0.110557936,0.29823795,-0.17596528,-0.71837753,2.2595906,-0.66828656
199,1778606173930,-0.7141115,-0.28115395,0.05051985,-0.3286455,-0.03176499,-0.45020768
