id,timestamp,acc_x,acc_y,acc_z,gyro_x,gyro_y,gyro_z
0,1778612636170,0.9359596,-1.428223,0.76463133,-0.18570304,-0.7312057,-0.86437434
1,1778612636180,0.93888825,-1.2410312,0.67555046,0.15454891,-1.0042624,-1.1905763
2,1778612636190,0.93888825,-1.2410312,0.67555046,0.15454891,-1.0042624,-1.1905763
3,1778612636200,0.89715445,-1.0780008,0.5952556,0.35979962,-1.205848,-1.3768903
4,1778612636210,0.42807645,-0.63625723,0.34387666,0.96761054,-1.5381587,-1.9010127
5,1778612636220,0.25479576,-0.5422952,0.24161668,1.0897835,-1.6786577,-2.0292943
6,1778612636230,0.08786061,-0.45345837,0.15033926,1.0897835,-1.6786577,-2.0292943
7,1778612636240,-0.09469421,-0.35925224,0.13471961,1.0916162,-2.248595,-2.1355848
8,1778612636250,-0.6616392,-0.03904916,-0.1986626,0.689056,-2.5870142,-1.8350391
9,1778612636260,-0.76926845,0.052716363,-0.38975942,0.40744713,-2.3640485,-1.6316211
10,1778612636270,-0.76926845,0.052716363,-0.38975942,0.40744713,-2.3640485,-1.6316211
11,1778612636280,-0.92814976,0.21501444,-0.41904628,-0.83016586,-0.8875872,-0.58459806
12,1778612636290,-0.8578612,0.20866893,-0.23600335,-1.0213667,-0.48808134,-0.2779437
13,1778612636300,-0.7873287,0.21794313,-0.04807928,-0.9773844,-0.36896262,-0.025045475
14,1778612636310,-0.34338856,0.11177822,0.09054524,-0.5320636,-0.38362336,0.41905355
15,1778612636320,-0.34338856,0.11177822,0.09054524,-0.3115413,-0.30115658,0.5448918
16,1778612636330,0.050031736,-0.008053889,0.051007964,-0.18387043,-0.2968805,0.57360244
17,1778612636340,0.15155955,-0.06028214,0.04637088,-0.13622294,-0.28344148,0.54000485
18,1778612636350,0.24942651,-0.1261776,0.082247294,-0.048258353,-0.23151793,0.35613444
19,1778612636360,0.29555333,-0.1330112,0.12520137,0.023823744,-0.2565634,0.2510656
20,1778612636370,0.33655494,-0.13032657,0.20403185,0.18509217,-0.38362336,0.09407325
21,1778612636380,0.39659303,-0.13032657,0.3275248,0.4147775,-0.6713409,-0.07086037
22,1778612636390,0.56987363,-0.17425688,0.6221019,1.2082914,-1.5131133,-0.4746423
23,1778612636400,0.43466598,-0.20281157,0.30946457,2.103209,-1.6444492,-0.8735373
24,1778612636410,0.43466598,-0.20281157,0.30946457,2.103209,-1.6444492,-0.8735373
25,1778612636420,0.24454537,-0.21672285,0.2831064,2.2339342,-1.5766432,-0.8472701
26,1778612636430,-0.12349297,-0.42270714,0.464685,2.3530529,-1.6059648,-0.73853606
27,1778612636440,-0.31605414,-0.5361938,0.1632743,2.3530529,-1.6059648,-0.73853606
28,1778612636450,-0.49299565,-0.66822875,-0.3585201,1.5650368,1.0592403,-0.38240165
29,1778612636460,-0.34900185,-0.91423845,-0.119343996,0.27550024,3.1612277,0.27366763
30,1778612636470,0.016839951,-1.1690342,0.4685899,0.5662721,3.6004398,0.58276546
31,1778612636480,0.4698102,-1.4318839,1.0196712,1.3151928,3.3982434,0.72082096
32,1778612636490,0.9349833,-1.8043152,1.07434,2.7030787,2.5076017,0.689056
33,1778612636500,1.9951681,-2.7261195,0.71264714,4.065308,-0.3475823,-0.3555236
34,1778612636510,2.0361695,-2.9923859,0.9081371,3.685961,-1.7916678,-1.1154399
35,1778612636520,1.0272369,-2.6038468,0.7582859,2.5418103,-2.8002062,-1.6187929
36,1778612636530,-0.5039782,-0.9962417,0.15497635,-1.0274754,3.1716123,0.93767816
37,1778612636540,-0.5039782,-0.9962417,0.15497635,-1.0274754,3.1716123,0.93767816
38,1778612636550,-0.07809832,-0.85175985,0.5352176,-1.4385877,2.415972,1.3164146
39,1778612636560,0.26284966,-0.71874857,0.6745742,-1.2638801,1.3255776,1.1838568
40,1778612636570,1.1653733,-1.2339534,0.93205464,-0.73426,-0.065973446,0.72509706
41,1778612636580,1.4782547,-1.8165181,1.24518,0.049480084,-2.3267858,-1.0506883
42,1778612636590,1.4782547,-1.8165181,1.24518,0.049480084,-2.3267858,-1.0506883
43,1778612636600,1.7257288,-2.56675,1.159272,-0.007941248,-2.3231206,-1.7122552
44,1778612636610,1.496803,-3.19715,0.7365648,-0.6010914,-1.7941113,-1.9272798
45,1778612636620,0.92912596,-3.3035588,0.80465674,-1.1184943,-1.1979067,-1.3909402
46,1778612636630,0.9855032,-2.4491146,1.0804414,-1.1362094,-0.032375857,-0.50885075
47,1778612636640,0.74364245,-1.944404,0.95426387,-0.9987647,-0.023823744,-0.61086524
48,1778612636650,0.5623079,-1.5675796,0.78708464,-0.99387777,-0.12767084,-0.61941737
49,1778612636660,0.60013676,-1.4260265,0.5749989,-1.627345,-0.3359759,-0.18387043
50,1778612636670,0.6711574,-1.4733735,0.520086,-1.6927075,-0.35002577,0.010995574
51,1778612636680,0.66944903,-1.500464,0.42587993,-1.6444492,-0.29443705,0.16676621
52,1778612636690,0.63918597,-1.3122959,0.33191785,-1.5827519,-0.24740042,0.22540927
53,1778612636700,0.5103237,-1.104359,0.26577836,-1.5234979,-0.042760566,0.23945917
54,1778612636710,0.36340126,-0.90789294,0.25089085,-1.5668694,0.1441642,0.28955013
55,1778612636720,0.25137895,-0.7380291,0.20329969,-1.6560557,0.37507126,0.36346483
56,1778612636730,0.053936653,-0.5125202,0.1403329,-1.7892243,0.5375614,0.44043383
57,1778612636740,-0.05906185,-0.4139211,0.10372432,-1.7983873,0.44165558,0.45448375
58,1778612636750,-0.13789235,-0.32972133,0.082491346,-1.7654005,0.2742785,0.47525316
59,1778612636760,-0.23600335,-0.15082738,0.102504045,-1.5540411,-0.20341812,0.5332854
60,1778612636770,-0.19988288,-0.10006347,0.15692882,-1.5540411,-0.20341812,0.5332854
61,1778612636780,-0.16644704,-0.052472305,0.20159128,-1.3365731,-0.27977628,0.5326745
62,1778612636790,-0.16644704,-0.052472305,0.20159128,-1.3365731,-0.27977628,0.5326745
63,1778612636800,-0.13545178,0.00097622897,0.24259292,-1.1814134,-0.16126843,0.5045747
64,1778612636810,-0.13764828,0.114462845,0.27212384,-0.68661255,0.18692477,0.5045747
65,1778612636820,-0.14472595,0.136428,0.26992732,-0.4905248,0.24801129,0.5815437
66,1778612636830,-0.12422514,0.14130914,0.2037878,-0.29565877,0.30115658,0.70738196
67,1778612636840,-0.073949344,0.102748096,0.15766099,-0.04153884,0.38789943,0.96761054
68,1778612636850,-0.013179091,0.041733786,0.111046046,0.040317107,0.45020768,1.061073
69,1778612636860,0.07028849,-0.079318605,0.09835507,0.07819075,0.49541172,1.1074986
70,1778612636870,0.07028849,-0.079318605,0.09835507,0.11728613,0.5564982,1.1441506
71,1778612636880,0.007565775,-0.10470056,0.08175918,0.10262536,0.48380527,1.2162327
72,1778612636890,-0.17547716,-0.13349932,0.0026846298,-0.08124508,0.57910025,1.4880677
73,1778612636900,-0.22843759,-0.15277983,-0.07175283,-0.08124508,0.57910025,1.4880677
74,1778612636910,-0.22526483,-0.18792409,-0.35022214,-0.5858198,1.9517145,1.8918496
75,1778612636920,-0.24649782,-0.20403185,-0.42051062,-0.89736104,2.4330764,1.9694295
76,1778612636930,-0.24649782,-0.20403185,-0.42051062,-0.89736104,2.4330764,1.9694295
77,1778612636940,-0.1632743,-0.25089085,-0.25821257,-1.0836749,2.6151142,2.0329595
78,1778612636950,0.06858008,-0.38829508,0.043930303,-0.9034697,2.3829854,1.9816469
79,1778612636960,0.17889395,-0.49543622,0.24308102,-0.602924,1.8637499,1.8527542
80,1778612636970,0.24942651,-0.61746484,0.439059,-0.20647246,1.1129965,1.7037032
81,1778612636980,0.3265486,-0.8078295,0.6462636,0.15454891,0.45448375,1.6285667
82,1778612636990,0.74242216,-1.3672087,1.1258361,0.72692966,-0.40866885,1.5375478
83,1778612637000,1.0780008,-1.769171,1.0931324,2.0470095,-1.8570304,1.0793989
84,1778612637010,1.4680043,-2.2265344,0.86298645,2.3182335,-2.0054705,0.6774496
85,1778612637020,1.7423246,-2.60824,0.33240595,2.179567,-1.7281377,-0.11056661
86,1778612637030,0.23966423,-1.9871141,-0.058817793,1.1435398,-0.035430185,-0.93218035
87,1778612637040,-0.43637437,-1.4892373,0.19304928,0.75808376,0.5198463,-0.4801401
88,1778612637050,-0.47103047,-1.3484163,0.3431445,0.548557,0.7855727,-0.05681047
89,1778612637060,0.30848834,-1.4870408,0.5872018,0.45204028,0.8063421,-0.01160644
90,1778612637070,0.4527262,-1.6827747,0.44149956,0.27366763,-0.092240654,-0.9669997
91,1778612637080,0.41050428,-2.3785818,0.23600335,-0.07452556,-0.70432764,-1.4379768
92,1778612637090,0.41050428,-2.3785818,0.23600335,-0.07452556,-0.70432764,-1.4379768
93,1778612637100,0.0622346,-3.172256,0.60867876,-0.43127087,-0.77091193,-0.82650065
94,1778612637110,-0.11299851,-2.7734666,0.27993366,-0.9101892,-0.38240165,-0.09896017
95,1778612637120,-0.11299851,-2.7734666,0.27993366,-0.9101892,-0.38240165,-0.09896017
96,1778612637130,0.006345488,-2.0234787,0.14716652,-1.0995574,-0.1777618,-0.02687807
97,1778612637140,0.25796852,-1.7742962,0.30677995,-1.0506883,-0.31703907,-0.12583824
98,1778612637150,0.42197496,-1.7550157,0.2962855,-1.0928379,-0.60231316,-0.19242255
99,1778612637160,0.5198419,-1.7703912,0.35437113,-1.1459832,-0.77213365,-0.28527406
100,1778612637170,0.55742675,-1.7198714,0.38316986,-1.1398746,-1.0525209,-0.41416663
101,1778612637180,0.5693855,-1.5890567,0.35290676,-1.0433578,-1.2351695,-0.54367006
102,1778612637190,0.473227,-1.3686731,0.40391475,-0.6432411,-1.3952162,-0.7367035
103,1778612637200,0.43027294,-1.1953924,0.409284,-0.32559118,-1.4972308,-0.8191703
104,1778612637210,0.26821893,-0.80685323,0.34680536,-0.076358154,-1.5778649,-0.86498517
105,1778612637220,0.22746135,-0.690438,0.21379416,0.57848936,-1.7269161,-1.0262536
106,1778612637230,0.11275445,-0.5422952,0.09859913,0.5497787,-1.645671,-1.1343768
107,1778612637240,0.0014643435,-0.4097721,0.044418417,0.42149702,-1.5076154,-1.1979067
108,1778612637250,-0.21403822,-0.1295944,-0.1147069,0.12767084,-0.9810496,-1.0995574
109,1778612637260,-0.21403822,-0.1295944,-0.1147069,0.12767084,-0.9810496,-1.0995574
110,1778612637270,-0.31605414,0.078830495,-0.22209209,-0.15027285,-0.11728613,-0.7825184
111,1778612637280,-0.31605414,0.078830495,-0.22209209,-0.15027285,-0.11728613,-0.7825184
112,1778612637290,-0.37413976,0.2633378,-0.14863087,-0.35918877,0.13316862,-0.5717699
113,1778612637300,-0.33875147,0.28237423,-0.13667206,-0.44593164,-0.02321288,-0.31215215
114,1778612637310,-0.28725538,0.29384494,-0.11690342,-0.4196644,-0.23151793,-0.19792034
115,1778612637320,-0.24674188,0.30726805,-0.079562664,-0.3494149,-0.50579643,-0.10751228
116,1778612637330,-0.09127741,0.08444381,-0.061746486,-0.07452556,-0.73792523,-0.02443461
117,1778612637340,-0.030019043,-0.011714748,-0.046614934,0.1160644,-0.61636305,-0.029932396
118,1778612637350,0.041733786,-0.08151512,-0.029042812,0.30543262,-0.48197266,-0.07269296
119,1778612637360,0.21672285,-0.22184804,-0.10421244,0.43799037,-0.4373795,-0.12217305
120,1778612637370,0.21672285,-0.22184804,-0.10421244,0.5876524,-0.62125,-0.25961772
121,1778612637380,0.40440285,-0.2403964,-0.107385196,0.5510005,-1.1166617,-0.49846604
122,1778612637390,0.40440285,-0.2403964,-0.107385196,0.59131753,-1.3267993,-0.72021013
123,1778612637400,0.44467232,-0.22209209,-0.07297312,0.59131753,-1.3267993,-0.72021013
124,1778612637410,0.40635532,-0.18182266,0.07785426,0.75136423,-1.5357152,-0.9456194
125,1778612637420,0.49519217,-0.26797485,0.7656076,1.5613716,-1.6914859,-1.3927728
126,1778612637430,0.40293851,-0.54717636,1.398448,3.1655037,-1.17897,-1.7599027
127,1778612637440,0.42099872,-0.7494998,1.8279889,5.7922244,0.044593163,-1.9016235
128,1778612637450,0.5047104,-0.9767171,1.5341438,6.767165,0.5821546,-1.9285016
129,1778612637460,0.4510178,-1.0008788,0.14106509,6.6541553,0.7293731,-1.9578232
130,1778612637470,0.37121108,-0.8642067,-1.1653733,4.8441615,0.46914452,-1.8191566
131,1778612637480,0.56694496,-0.9171671,-1.5934497,1.1160508,2.0500638,-1.4807373
132,1778612637490,1.2498171,-1.1990532,-0.28286234,0.51251596,2.5784621,-1.7073684
133,1778612637500,2.181872,-1.6781375,1.8572757,1.8594738,2.6810875,-2.6762006
134,1778612637510,1.8372629,-2.1350129,1.9710064,3.5118642,2.7953193,-3.3939674
135,1778612637520,0.52789587,-2.5286772,0.27895743,4.695721,3.3793066,-3.522249
136,1778612637530,-0.13667206,-1.7142582,0.58378494,1.4379768,2.144137,-1.1093313
137,1778612637540,-0.13667206,-1.7142582,0.58378494,1.4379768,2.144137,-1.1093313
138,1778612637550,-0.3214234,-1.4672722,0.59842837,1.0329732,1.6994271,-0.08674286
139,1778612637560,-0.4588276,-1.1802609,0.45174995,0.95722586,1.5375478,0.36041048
140,1778612637570,-0.40220633,-0.06833603,0.81734776,0.6927212,-0.7244862,0.35796702
141,1778612637580,-0.17059602,-0.10836142,0.7787867,0.5363397,-0.84421575,0.32375857
142,1778612637590,-0.17059602,-0.10836142,0.7787867,0.5363397,-0.84421575,0.32375857
143,1778612637600,0.45345837,-0.94206095,1.0023432,-0.4025602,-0.7171558,0.09468412
144,1778612637610,0.8161274,-1.2024701,1.1917315,-0.535118,-0.49663344,-0.021991149
145,1778612637620,1.151218,-1.4482356,1.2532339,-0.73364913,-0.32498032,-0.25473082
146,1778612637630,1.4577539,-1.9641727,1.334505,-1.396438,-0.36774087,-0.657291
147,1778612637640,1.1678139,-2.038366,1.3108315,-1.690875,-0.10262536,-0.5222898
148,1778612637650,0.84809893,-1.9641727,1.1358424,-1.9236146,0.45937067,0.0720821
149,1778612637660,0.4751795,-1.560258,1.1197346,-2.4220808,-0.12034045,1.0512991
150,1778612637670,0.4751795,-1.560258,1.1197346,-2.4220808,-0.12034045,1.0512991
151,1778612637680,0.4002539,-1.46654,1.125348,-2.4049764,-0.408058,1.1001683
152,1778612637690,0.3922,-1.432128,1.0174747,-2.384207,-0.593761,1.0958922
153,1778612637700,0.55864704,-1.4911898,0.5981843,-2.484389,-0.548557,0.8717047
154,1778612637710,0.5864696,-1.5387809,0.5103237,-2.489276,-0.6224717,0.82772243
155,1778612637720,0.5605995,-1.52609,0.42368335,-2.466063,-0.7495316,0.84421575
156,1778612637730,0.53643787,-1.4865527,0.35754386,-2.3860397,-0.84604836,0.95417154
157,1778612637740,0.48445365,-1.3916144,0.29652956,-2.2907448,-0.98349303,1.1508701
158,1778612637750,0.5217944,-1.0064921,0.27432033,-2.2088888,-1.1142182,1.323745
159,1778612637760,0.44833317,-0.7985553,0.2294138,-1.9963076,-1.0506883,1.3402383
160,1778612637770,0.34216827,-0.575487,0.19329333,-1.8845193,-0.8454375,1.3341297
161,1778612637780,0.22868164,-0.27212384,0.13252309,-1.7733418,-0.39706242,1.3744467
162,1778612637790,0.21647878,-0.18768002,0.12861817,-1.7910569,-0.108123146,1.3878858
163,1778612637800,0.18645974,-0.11568313,0.15155955,-1.8301523,0.047036625,1.3665055
164,1778612637810,0.03294773,0.05832968,0.20232345,-1.9749273,0.16982053,1.3353515
165,1778612637820,0.03294773,0.05832968,0.20232345,-1.9749273,0.16982053,1.3353515
166,1778612637830,0.010006348,0.12886222,0.18109047,-1.9737056,0.15027285,1.3487904
167,1778612637840,0.009518232,0.14765464,0.19353738,-1.921782,0.16676621,1.3481796
168,1778612637850,0.048567392,0.15546446,0.29140437,-1.6749926,0.13622294,1.3255776
169,1778612637860,0.08639627,0.14814276,0.35510328,-1.4288138,0.028099801,1.2925909
170,1778612637870,0.13618395,0.11031388,0.41562948,-1.1911873,-0.103847094,1.2479976
171,1778612637880,0.17718557,0.03636453,0.447601,-0.8399397,-0.3903429,1.1484267
172,1778612637890,0.183287,-0.047347106,0.4368625,-0.47891834,-0.75625116,1.0341948
173,1778612637900,0.11665936,-0.21940747,0.14911897,0.029932396,-1.0030408,0.8735373
174,1778612637910,-0.011470691,-0.24967057,-0.03636453,0.093462385,-0.83016586,0.82527894
175,1778612637920,-0.24552159,-0.24869433,-0.04271002,0.05131268,-0.43860126,0.9095783
176,1778612637930,-0.32386398,-0.2677308,-0.04148973,0.047036625,-0.14172074,1.0091494
177,1778612637940,-0.23893206,-0.32166746,-0.24088451,-0.087964594,0.6010914,1.0842859
178,1778612637950,-0.18133454,-0.2945771,-0.27090356,-0.14172074,0.8918633,1.0592403
179,1778612637960,-0.10933765,-0.2506468,-0.23795582,-0.124005646,1.255328,1.0781772
180,1778612637970,0.114462845,-0.2626056,-0.10396838,0.18875736,1.6444492,1.1282681
181,1778612637980,0.2884757,-0.34924594,0.06955632,0.6273586,1.2657127,1.1038336
182,1778612637990,0.42929673,-0.45223808,0.32532832,0.90102625,0.9224065,1.0867293
183,1778612638000,1.3957634,-0.97085977,2.621907,2.7433958,-0.38789943,0.5119051
184,1778612638010,1.3957634,-0.97085977,2.621907,2.7433958,-0.38789943,0.5119051
185,1778612638020,1.1221752,-1.1309613,0.7316837,4.742147,-3.4385605,-1.1221595
186,1778612638030,0.83833665,-1.1946602,-0.18865626,4.1758747,-4.0732493,-1.4465289
187,1778612638040,0.4139211,-1.5648952,-0.9654905,2.0366247,-1.840537,-1.5131133
188,1778612638050,0.19060871,-1.6998588,-0.81832397,0.8216137,0.21868975,-1.3451253
189,1778612638060,0.19060871,-1.6998588,-0.81832397,0.092240654,1.9614882,-1.0305296
190,1778612638070,-0.022453265,-2.489384,0.36632994,-0.09285152,3.1050282,-0.6236934
191,1778612638080,-0.33582276,-2.7014697,1.0413923,0.093462385,2.172237,0.112399206
192,1778612638090,-0.39708114,-2.4442334,0.55108124,-0.017715093,0.766025,0.2938262
193,1778612638100,-0.3738957,-2.2221413,0.22697324,-0.12217305,0.12583824,0.27122417
194,1778612638110,-0.3682824,-2.1179287,-0.0319715,-0.30787608,0.061086524,0.31764993
195,1778612638120,-0.29506522,-2.131352,-0.11006982,-0.7287622,0.23273966,0.5186246
196,1778612638130,0.2865232,-2.4366674,0.20329969,-2.0696115,-0.089186326,0.7134906
197,1778612638140,0.2865232,-2.4366674,0.20329969,-2.0696115,-0.089186326,0.7134906
198,1778612638150,0.37316352,-2.3890765,0.2550398,-2.193617,-0.16065755,0.70005155
199,1778612638160,0.71313524,-1.9541665,0.39244407,-1.7165314,-0.5491679,0.33658674
200,1778612638170,0.7653635,-1.8018748,0.4131889,-1.5625933,-0.63224554,0.14477506
201,1778612638180,0.7919658,-1.6691074,0.4385709,-1.3567317,-0.7281514,-0.10262536
202,1778612638190,0.8158834,-1.4033291,0.4271002,-0.93462384,-0.9425651,-0.52656585
203,1778612638200,0.78610843,-1.2627522,0.42563587,-0.65118235,-1.0641272,-0.7690793
204,1778612638210,0.71899265,-1.1309613,0.40659937,-0.34025195,-1.2345587,-0.9981538
205,1778612638220,0.48787045,-0.8607899,0.33582276,-0.116675265,-1.3762794,-1.1478158
206,1778612638230,0.34290043,-0.7541369,0.30067852,0.3549127,-1.6853772,-1.4373659
207,1778612638240,0.18133454,-0.6457755,0.23917611,0.48930305,-1.7293595,-1.4819591
208,1778612638250,0.032703668,-0.5462001,0.14765464,0.5021312,-1.704925,-1.4672983
209,1778612638260,-0.09542638,-0.45077375,0.06467517,0.38912117,-1.5491543,-1.3946054
210,1778612638270,-0.3328941,-0.2203837,-0.10055158,-0.050701816,-0.89369583,-1.1905763
211,1778612638280,-0.47859627,0.017816179,-0.14008886,-0.6236934,0.002443461,-0.8564331
212,1778612638290,-0.47859627,0.017816179,-0.14008886,-0.6236934,0.002443461,-0.8564331
213,1778612638300,-0.48738232,0.110557936,-0.14472595,-0.7360926,0.22724187,-0.6963864
214,1778612638310,-0.30336314,0.27358818,-0.054424766,-0.6908886,0.22907446,-0.1600467
215,1778612638320,-0.20574026,0.2962855,0.030751213,-0.6035349,-0.16187929,-0.043982297
216,1778612638330,-0.008053889,0.1598575,0.30946457,-0.28038713,-1.0250319,0.08857546
217,1778612638340,-0.008053889,0.1598575,0.30946457,-0.28038713,-1.0250319,0.08857546
218,1778612638350,0.127886,-0.03807293,0.3397277,0.004276057,-1.2938126,0.018936822
219,1778612638360,0.18621568,-0.11202228,0.30922052,0.13255776,-1.2156218,-0.087964594
220,1778612638370,0.24649782,-0.17157225,0.26553428,0.24129178,-1.0751228,-0.17287487
221,1778612638380,0.36510965,-0.15741692,0.16717921,0.766025,-0.5571091,-0.4972443
222,1778612638390,0.3704789,-0.13618395,0.008053889,1.0115929,-0.35185838,-0.62858033
223,1778612638400,0.34460884,-0.10079564,-0.20818083,1.2547172,-0.073303826,-0.7861836
224,1778612638410,0.35925224,-0.102992155,-0.31190515,1.4245378,0.28527406,-1.0103711
225,1778612638420,0.48152497,-0.17254847,-0.0690682,1.568702,0.24312437,-1.1630874
226,1778612638430,0.3526627,-1.0428566,0.18841219,4.5185704,-0.9101892,-2.552806
227,1778612638440,0.01854835,-1.0526189,-0.5972081,3.8081338,0.10323623,-2.4306328
228,1778612638450,-0.234539,-0.9789136,-1.1665937,2.3640485,1.672549,-2.0335703
229,1778612638460,-0.13667206,-1.1048472,-0.6374775,1.4446963,2.828917,-1.6511687
230,1778612638470,0.64992446,-1.6935132,0.5623079,2.955977,1.6236799,-1.6920967
231,1778612638480,0.64992446,-1.6935132,0.5623079,2.955977,1.6236799,-1.6920967
232,1778612638490,0.937912,-1.7245085,0.7902574,3.3084462,0.46792278,-1.5760323
233,1778612638500,0.6123396,-1.3493925,0.7314396,2.5014932,0.093462385,-1.4636332
234,1778612638510,0.6123396,-1.3493925,0.7314396,2.5014932,0.093462385,-1.4636332
235,1778612638520,0.12813005,-1.1280326,0.53961056,1.4031575,1.5515977,-0.89552844
236,1778612638530,0.008542004,-1.1795286,0.49250755,1.069625,0.5161811,-0.57360244
237,1778612638540,0.18304294,-1.1465809,0.39976576,0.9615019,-0.54244834,-0.43066
238,1778612638550,0.42734426,-1.0972813,0.5142286,0.79473567,-1.2644911,-0.3903429
239,1778612638560,0.7399816,-1.0592085,0.6252747,0.61819565,-1.5222762,-0.46731192
240,1778612638570,1.1104605,-1.0843463,0.77634615,0.30604348,-1.4453071,-0.6426302
241,1778612638580,1.5216969,-1.3213259,1.1707426,-0.2968805,-0.50762904,-1.0299188
242,1778612638590,1.4004005,-1.4187049,1.2363939,-0.50823987,0.051923547,-1.028697
243,1778612638600,1.172695,-1.5929617,1.2271198,-0.83016586,0.93645644,-0.7452556
244,1778612638610,0.5781716,-1.867282,1.0365112,-1.3994923,1.2119566,-0.15577064
245,1778612638620,0.56816524,-1.8143216,0.9288819,-1.4740179,0.6554584,0.105068825
246,1778612638630,0.53009236,-1.726705,0.77146494,-1.4740179,0.6554584,0.105068825
247,1778612638640,0.53009236,-1.726705,0.77146494,-1.8319849,-0.267559,0.6646214
248,1778612638650,0.5972081,-1.6034561,0.7192367,-1.8319849,-0.267559,0.6646214
249,1778612638660,0.7055695,-1.2659249,0.60989904,-2.4013114,-1.0005972,1.2559389
250,1778612638670,0.7055695,-1.2659249,0.60989904,-2.4013114,-1.0005972,1.2559389
251,1778612638680,0.6640798,-1.2268758,0.605262,-2.7262917,-0.6969972,1.5662584
252,1778612638690,0.6640798,-1.2268758,0.605262,-2.7262917,-0.6969972,1.5662584
253,1778612638700,0.36803833,-1.2071072,0.4253918,-2.9608638,0.30176744,1.7397442
254,1778612638710,0.24234885,-1.163909,0.3619369,-2.9486465,0.52656585,1.7507398
255,1778612638720,0.021721095,-0.993313,0.2550398,-2.9089403,0.6939429,1.8167132
256,1778612638730,-0.036852647,-0.8891005,0.22062775,-2.7568347,0.7812967,1.9816469
257,1778612638740,-0.084931925,-0.7497439,0.17987019,-2.6303856,0.8527679,2.0983222
258,1778612638750,-0.060770255,-0.60941094,0.11299851,-2.5350907,0.99387777,2.1954496
259,1778612638760,0.05418071,-0.25601605,0.12202863,-2.521041,1.219287,2.1856759
260,1778612638770,0.05418071,-0.25601605,0.12202863,-2.629164,1.5558738,2.0042489
261,1778612638780,0.078830495,-0.14911897,0.15668476,-2.705522,1.5155567,1.8613064
262,1778612638790,0.08664032,-0.020988923,0.25748038,-2.737287,1.0922271,1.6077974
263,1778612638800,0.08371163,0.06955632,0.4170938,-2.3732114,0.42821655,1.3762794
264,1778612638810,0.11519502,0.102992155,0.45858356,-1.9504927,0.02443461,1.2699889
265,1778612638820,0.15766099,0.11836776,0.47591165,-1.3988814,-0.31520647,1.1600331
266,1778612638830,0.1986626,0.118855886,0.45858356,-0.93279123,-0.51251596,1.0622946
267,1778612638840,0.24283697,0.0012202862,0.3829258,-0.33658674,-0.7855727,0.93279123
268,1778612638850,0.31190515,-0.08664032,0.35949633,0.5723807,-1.4844025,0.66950834
269,1778612638860,0.3436326,-0.14692247,0.33265,0.78801614,-1.7831156,0.552833
270,1778612638870,0.20110317,-0.15766099,0.23673552,1.0354166,-2.5552492,0.35796702
271,1778612638880,-0.10933765,-0.13471961,0.09615856,0.93828905,-2.723848,0.4813618
272,1778612638890,-0.23527117,-0.12837411,0.11006982,0.93828905,-2.723848,0.4813618
273,1778612638900,-0.3521746,-0.13032657,0.09152147,0.8197812,-2.3634377,0.6976081
274,1778612638910,-0.3521746,-0.13032657,0.09152147,0.75625116,-1.7898352,0.91446525
275,1778612638920,-0.3065359,-0.17303659,-0.5361938,0.004276057,2.1826215,1.7672331
276,1778612638930,-0.3065359,-0.17303659,-0.5361938,0.004276057,2.1826215,1.7672331
277,1778612638940,0.08175918,-0.30922052,-0.2806658,-1.1435398,4.241237,1.6584991
278,1778612638950,0.17596528,-0.37804466,0.07541369,-0.9443977,3.9193115,1.5436565
279,1778612638960,0.2591888,-0.5098356,0.39415246,-0.2950479,3.0115657,1.4526376
280,1778612638970,0.40611124,-0.72631437,0.68214005,0.63285637,1.6444492,1.4422529
281,1778612638980,0.78757274,-1.3181533,0.9952655,2.3823745,-0.91751957,1.2095132
282,1778612638990,0.8278422,-1.5309712,0.8773858,3.1874948,-1.8979583,0.8417723
283,1778612639000,0.7739055,-1.7242645,0.7150877,3.4373388,-2.4379632,0.49663344
284,1778612639010,0.71728426,-1.9588034,0.41465324,3.2223141,-2.9022207,-0.06047566
285,1778612639020,0.44735694,-2.0227466,0.11861181,2.5466971,-2.497828,-0.5448918
286,1778612639030,-0.05027579,-2.01152,0.073461235,1.8332067,-1.106277,-0.65118235
287,1778612639040,-0.08371163,-1.9090158,0.22916976,1.178359,1.3005321,-0.31520647
288,1778612639050,0.23649146,-1.7313421,0.5701177,1.1722504,1.255328,-0.29565877
289,1778612639060,0.41245672,-1.7101091,0.38268176,1.6340646,-1.0219775,-1.0842859
290,1778612639070,0.34119204,-1.866794,0.32337585,1.4141531,-1.047023,-1.2229522
291,1778612639080,0.2677308,-2.0574026,0.3338703,0.9083566,-0.8436049,-1.2724323
292,1778612639090,0.1513155,-2.2062776,0.3648656,0.3475823,-0.52656585,-1.1630874
293,1778612639100,0.08127106,-2.2104263,0.3219115,-0.4111123,-0.05375614,-0.6450737
294,1778612639110,0.1581491,-2.2709527,0.27651685,-0.79473567,0.077579886,-0.3005457
295,1778612639120,0.21037734,-2.2524045,0.27383223,-1.1679744,0.124005646,-0.10873401
296,1778612639130,0.2979939,-2.2377608,0.39756927,-1.382388,0.043982297,-0.05131268
297,1778612639140,0.27041543,-2.126227,0.4407674,-1.5760323,-0.23640485,-0.14966199
298,1778612639150,0.2626056,-2.0178654,0.42783237,-1.5418239,-0.2828306,-0.1826487
299,1778612639160,0.272856,-1.7967494,0.35559142,-1.4874569,-0.28038713,-0.21930063
300,1778612639170,0.3682824,-1.6508032,0.3236199,-1.3762794,-0.52473325,-0.48624873
301,1778612639180,0.37194324,-1.5526923,0.3402158,-1.3762794,-0.52473325,-0.48624873
302,1778612639190,0.37194324,-1.5526923,0.3402158,-1.2162327,-0.7519751,-0.57848936
303,1778612639200,0.3807293,-1.4723973,0.35705575,-0.9804387,-0.9786061,-0.64751714
304,1778612639210,0.3943965,-1.3225462,0.33631086,-0.79045963,-1.1527027,-0.6945538
305,1778612639220,0.3568117,-0.8588374,0.26626647,-0.2443461,-1.2009611,-0.82772243
306,1778612639230,0.3162982,-0.7167961,0.1952458,-0.17592919,-1.0488557,-0.83077675
307,1778612639240,0.17450093,-0.439059,0.12349297,-0.18387043,-0.806953,-0.84788096
308,1778612639250,0.07492557,-0.2882316,0.088104665,-0.26633725,-0.31887165,-0.88147855
309,1778612639260,-0.017816179,-0.15790504,0.050031736,-0.34330627,-0.015271631,-0.87598073
310,1778612639270,-0.08859278,-0.05759751,0.012690976,-0.41416663,0.23396139,-0.86620694
311,1778612639280,-0.19207305,0.03807293,0.00024405724,-0.51923543,0.5338962,-0.84849185
312,1778612639290,-0.39366436,0.174745,-0.01415532,-0.68966687,0.8979719,-0.73731434
313,1778612639300,-0.42563587,0.20964517,-0.026602242,-0.6933321,0.9315695,-0.66889745
314,1778612639310,-0.413677,0.22672918,-0.05662128,-0.6462954,0.816116,-0.6096435
315,1778612639320,-0.4368625,0.14252943,0.033435844,-0.27122417,-0.56138515,-0.3200934
316,1778612639330,-0.28920785,0.058573738,0.00707766,0.057421334,-0.6835582,-0.09468412
317,1778612639340,-0.1244692,-0.012202863,-0.052716363,0.057421334,-0.6835582,-0.09468412
318,1778612639350,0.12715383,-0.08175918,-0.18987654,0.5131268,-0.21502456,0.07941248
319,1778612639360,0.22013964,-0.10665302,-0.24015234,0.6053675,0.4642576,0.012217305
320,1778612639370,0.3180066,-0.12739788,-0.22843759,0.5522222,0.6102544,-0.06963864
321,1778612639380,0.44271985,-0.1415532,-0.12520137,0.45265114,0.44532076,-0.24251351
322,1778612639390,0.6970275,-0.19280522,0.33020946,0.47586402,-0.23579398,-0.5119051
323,1778612639400,1.0289453,-0.26577836,0.9652464,0.8258898,-1.3084733,-0.86376345
324,1778612639410,0.99209267,-0.24503349,0.47664383,2.2992969,-3.4800992,-2.0476203
325,1778612639420,0.7829357,-0.19256116,0.18475133,2.6542094,-3.236975,-2.2815816
326,1778612639430,0.3995217,-0.19597797,0.49690056,3.3414328,-1.7140878,-2.3341162
327,1778612639440,0.32850105,-0.47273886,1.0987457,4.125784,-0.893085,-2.6041186
328,1778612639450,0.22111587,-0.58305275,0.34656128,4.0989056,0.23457226,-2.7232373
329,1778612639460,0.051252022,-0.63503695,-0.7285109,3.1166344,1.8417587,-2.5906794
330,1778612639470,0.20232345,-0.81417495,-0.52350277,3.1166344,1.8417587,-2.5906794
331,1778612639480,0.45370242,-1.0767806,0.011714748,0.90224797,2.2675319,-1.9144517
332,1778612639490,0.5710939,-1.3620834,0.6296677,1.3249667,1.8185458,-1.8967366
333,1778612639500,0.47054234,-2.17455,1.300093,3.114191,-0.03604105,-1.8417587
334,1778612639510,0.47054234,-2.17455,1.300093,3.114191,-0.03604105,-1.8417587
335,1778612639520,0.25748038,-2.0715578,0.3648656,2.7629435,-0.36774087,-1.9016235
336,1778612639530,0.13960074,-1.7891837,0.8546885,2.13925,0.19792034,-1.7037032
337,1778612639540,-0.017084008,-1.2783719,0.72094506,2.0134118,0.31520647,-1.1795808
338,1778612639550,-0.022209208,-1.1146095,0.44003522,1.7605137,-0.017104227,-0.7476991
339,1778612639560,0.16132185,-1.00576,0.41904628,1.5338826,-0.77518797,-0.376293
340,1778612639570,0.39073566,-0.90789294,0.34558508,1.3970488,-1.3622295,-0.18081611
341,1778612639580,0.7136234,-0.7909895,0.2762728,1.0995574,-1.7922786,-0.03726278
342,1778612639590,1.6263975,-0.7050814,0.6770148,-0.21074851,-1.128879,-0.4111123
343,1778612639600,1.5914973,-0.8561529,0.78464407,-0.5693264,-0.17959438,-0.4654793
344,1778612639610,1.2522577,-1.410895,1.121443,-1.0305296,1.3432927,-0.33292156
345,1778612639620,0.97403246,-1.5358523,1.1089962,-1.1716396,1.8771889,-0.23884831
346,1778612639630,0.797335,-1.6605655,1.1963686,-1.2290609,1.9572122,-0.11301007
347,1778612639640,0.70337296,-1.8074881,1.292283,-1.1826351,1.6646078,0.0061086523
348,1778612639650,0.59745216,-1.9453802,1.1275444,-1.0800097,1.1301007,0.22357668
349,1778612639660,0.5405868,-1.9077955,1.0311419,-1.0983357,0.38912117,0.7281514
350,1778612639670,0.6130718,-1.730854,0.85322416,-1.1508701,-0.07513642,1.0500773
351,1778612639680,0.6130718,-1.730854,0.85322416,-1.2284501,-0.48624873,1.3261884
352,1778612639690,0.6894617,-1.270562,0.48909074,-1.6621643,-0.97005403,1.8594738
353,1778612639700,0.70923036,-1.1968567,0.5039782,-1.7996091,-0.89858276,1.9529362
354,1778612639710,0.70923036,-1.1968567,0.5039782,-1.7996091,-0.89858276,1.9529362
355,1778612639720,0.66700846,-0.99160457,0.33875147,-2.1496348,-0.5363397,2.0702224
356,1778612639730,0.47737598,-0.82027644,0.2306341,-2.2858577,-0.2443461,2.0726657
357,1778612639740,0.38219365,-0.76219076,0.20647243,-2.4446826,0.23701571,2.0518963
358,1778612639750,0.26162934,-0.70142055,0.1701079,-2.4953845,0.46914452,2.0476203
359,1778612639760,0.26162934,-0.70142055,0.1701079,-2.4953845,0.46914452,2.0476203
360,1778612639770,0.03465613,-0.54961693,0.111290105,-2.5876253,1.1618657,2.1533
361,1778612639780,0.043930303,-0.49348375,0.110801995,-2.6126707,1.3982705,2.1838431
362,1778612639790,0.06955632,-0.34216827,0.17157225,-2.6633725,1.7024814,2.1704042
363,1778612639800,0.06955632,-0.34216827,0.17157225,-2.7415633,1.89918,2.1190915
364,1778612639810,0.018060237,-0.16571487,0.27554062,-2.9547553,1.8545868,1.9633209
365,1778612639820,0.013667206,-0.06833603,0.3746279,-3.0091221,1.3481796,1.7281377
366,1778612639830,-0.0043930304,0.008053889,0.46785772,-2.6676486,1.0054842,1.5033394
367,1778612639840,0.011714748,0.043198135,0.4544346,-2.3182335,0.9101892,1.4391985
368,1778612639850,0.102992155,0.07004443,0.38097337,-2.3182335,0.9101892,1.4391985
369,1778612639860,0.19548985,0.07468152,0.28335047,-1.7030923,0.6994407,1.2840388
370,1778612639870,0.13886857,-0.032215554,0.28261828,-0.9841039,0.06658431,1.2180653
371,1778612639880,0.18816814,-0.11226633,0.3619369,-0.6206391,-0.2706133,1.2718215
372,1778612639890,0.2591888,-0.18865626,0.4549227,-0.05131268,-0.7128797,1.287093
373,1778612639900,0.29872608,-0.25015867,0.57988006,0.539394,-1.2596041,1.169807
374,1778612639910,0.21525851,-0.26870704,0.55620646,0.95417154,-1.7342464,1.0384709
375,1778612639920,-0.08981306,-0.16132185,0.12422514,1.5943583,-2.0011945,0.9083566
376,1778612639930,-0.19085276,-0.1313028,-0.23917611,1.5613716,-1.4837917,0.9828822
377,1778612639940,-0.26577836,-0.102259986,-0.6128277,1.2296717,-0.25045475,1.1710287
378,1778612639950,0.0026846298,-0.23795582,-0.5554743,-0.35796702,2.869234,1.473407
379,1778612639960,0.0026846298,-0.23795582,-0.5554743,-0.35796702,2.869234,1.473407
380,1778612639970,0.30800024,-0.30092257,-0.0873725,-0.81061816,2.634662,1.1563679
381,1778612639980,0.6540734,-0.49421594,0.899595,0.26206118,0.6230826,0.79473567
382,1778612639990,0.9098454,-0.76463133,1.2817887,1.4972308,-0.8594874,0.49296826
383,1778612640000,1.0160104,-1.0164984,1.0687267,2.4312437,-1.8460348,0.21624629
384,1778612640010,0.916435,-1.2817887,0.50837123,3.1563408,-2.4697282,-0.16737708
385,1778612640020,0.50495446,-1.7437891,-0.36852646,2.8142562,-1.8887954,-0.462425
386,1778612640030,0.54156303,-2.1806517,-0.21623473,1.9749273,-1.0183123,-0.48747048
387,1778612640040,0.5549862,-2.6372826,0.23893206,1.2864822,-0.02443461,-0.63407815
388,1778612640050,0.27432033,-2.869137,0.5749989,0.9755518,1.0372492,-0.7959574
389,1778612640060,-0.25845662,-1.7872313,0.38561043,1.042747,1.7061466,-0.7806858
390,1778612640070,-0.107629254,-1.4562895,0.19036464,1.4526376,1.1496484,-0.63407815
391,1778612640080,-0.04905551,-1.3716017,0.08395569,1.4251486,0.47891834,-0.7257079
392,1778612640090,-0.09835507,-1.7791773,0.31263736,1.078788,-0.13805555,-0.75441855
393,1778612640100,-0.09835507,-1.7791773,0.31263736,0.45081854,-0.4605924,-0.65484756
394,1778612640110,-0.14472595,-2.2814472,0.503002,-0.6310238,0.7031059,-0.1600467
395,1778612640120,-0.08664032,-2.2521603,0.28579104,-0.66523224,0.93645644,-0.07819075
396,1778612640130,-0.04807928,-2.1437988,0.18572757,-0.68539083,0.79534656,-0.06352998
397,1778612640140,-0.021232981,-1.9988288,0.23136626,-0.72265357,0.3903429,-0.10751228
398,1778612640150,0.0019524579,-1.9326893,0.19158493,-1.0122037,-0.40744713,-0.23151793
399,1778612640160,0.04637088,-1.884366,0.117635585,-1.260215,-0.40133846,-0.18081611
400,1778612640170,0.18914436,-1.8411678,0.041977845,-1.7996091,-0.18142697,-0.080634214
401,1778612640180,0.2716357,-1.765022,0.04612682,-2.0665572,-0.18081611,-0.059864793
402,1778612640190,0.32166746,-1.7791773,0.119343996,-2.2553146,-0.20647246,-0.12034045
403,1778612640200,0.35046622,-1.7557478,0.19817449,-2.312125,-0.31764993,-0.18142697
404,1778612640210,0.4080637,-1.649339,0.43198135,-2.0146337,-0.58459806,-0.41416663
405,1778612640220,0.44662476,-1.5248697,0.55059314,-1.6016886,-0.67011917,-0.5687156
406,1778612640230,0.49812084,-1.3135161,0.5227706,-1.2315043,-0.6976081,-0.6976081
407,1778612640240,0.51520485,-1.1714748,0.4385709,-0.3494149,-0.82894415,-0.98899084
408,1778612640250,0.49519217,-0.8705522,0.36974674,0.084910266,-0.8136725,-1.2082914
409,1778612640260,0.4002539,-0.7175283,0.34924594,0.21746802,-0.8020661,-1.359786
410,1778612640270,0.2774931,-0.56474847,0.3031191,0.25900686,-0.7788532,-1.4709635
411,1778612640280,-0.025381953,-0.26406994,0.15790504,0.15088372,-0.5858198,-1.6487253
412,1778612640290,-0.1701079,-0.11324256,0.111046046,0.06169739,-0.5363397,-1.677436
413,1778612640300,-0.27724904,0.010982576,0.07199689,0.01282817,-0.5174029,-1.6578883
414,1778612640310,-0.36096066,0.11251039,0.03294773,-0.032986723,-0.5015204,-1.5882497
415,1778612640320,-0.36096066,0.11251039,0.03294773,-0.032986723,-0.5015204,-1.5882497
416,1778612640330,-0.50495446,0.26992732,-0.24625377,-0.17104226,-0.28527406,-1.2333369
417,1778612640340,-0.48957884,0.29262465,-0.255772,-0.23701571,-0.11789699,-1.0323622
418,1778612640350,-0.44345203,0.30019042,-0.16351835,-0.24740042,-0.065973446,-0.86926126
419,1778612640360,-0.44345203,0.30019042,-0.16351835,-0.24740042,-0.065973446,-0.86926126
420,1778612640370,-0.44345203,0.30019042,-0.16351835,-0.24740042,-0.065973446,-0.86926126
421,1778612640380,-0.44345203,0.30019042,-0.16351835,-0.24740042,-0.065973446,-0.86926126
422,1778612640390,-0.44345203,0.30019042,-0.16351835,-0.24740042,-0.065973446,-0.86926126
423,1778612640400,-0.44345203,0.30019042,-0.16351835,-0.24740042,-0.065973446,-0.86926126
424,1778612640410,-0.44345203,0.30019042,-0.16351835,-0.24740042,-0.065973446,-0.86926126
425,1778612640420,-0.44345203,0.30019042,-0.16351835,-0.24740042,-0.065973446,-0.86926126
426,1778612640430,-0.44345203,0.30019042,-0.16351835,-0.24740042,-0.065973446,-0.86926126
427,1778612640440,-0.44345203,0.30019042,-0.16351835,-0.24740042,-0.065973446,-0.86926126
428,1778612640450,-0.44345203,0.30019042,-0.16351835,-0.24740042,-0.065973446,-0.86926126
429,1778612640460,0.46078008,-0.30580372,0.13081467,0.9462303,-0.7104363,-0.25045475
430,1778612640470,0.05735345,-0.39854547,0.9203399,3.7140608,-0.9034697,-1.2522738
431,1778612640480,0.05735345,-0.39854547,0.9203399,3.7140608,-0.9034697,-1.2522738
432,1778612640490,0.08322352,-0.6445552,0.37633628,3.8148534,-0.37140608,-1.3200798
433,1778612640500,-0.17230442,-0.72021294,-0.3121492,3.145956,0.3231477,-1.2486086
434,1778612640510,-0.45077375,-0.7665838,-1.2012497,1.7721201,1.3787229,-0.8900307
435,1778612640520,0.09786696,-1.0374874,-0.11690342,0.2938262,2.5784621,-0.30604348
436,1778612640530,0.78366786,-1.3403623,1.1856301,1.102001,2.207056,-0.46731192
437,1778612640540,0.78366786,-1.3403623,1.1856301,1.102001,2.207056,-0.46731192
438,1778612640550,1.8392154,-2.1669843,1.3552499,4.0365977,-1.2174544,-2.1539109
439,1778612640560,0.23771177,-1.9612441,0.34290043,2.8851166,-1.0677924,-1.6493362
440,1778612640570,-0.07370529,-1.6898522,0.52301466,1.9144517,-0.66339964,-1.1087204
441,1778612640580,-0.07004443,-1.2825208,1.0223558,1.1362094,0.3371976,-0.40011674
442,1778612640590,0.33997175,-1.1734272,0.87982637,1.106277,0.9682214,0.4092797
443,1778612640600,0.51691324,-1.0865428,0.7695125,1.070236,0.3023783,0.48258355
444,1778612640610,0.6633476,-1.1517061,0.63503695,0.37507126,-0.82772243,0.34147367
445,1778612640620,0.6633476,-1.1517061,0.63503695,0.37507126,-0.82772243,0.34147367
446,1778612640630,0.76121455,-1.210524,0.84150934,-0.6658431,-0.5222898,0.321926
447,1778612640640,0.91472656,-1.2988727,0.9135063,-0.88208944,-0.43127087,0.2938262
448,1778612640650,1.0697029,-1.6251773,1.0831261,-1.2822062,-0.3622431,0.09773844
449,1778612640660,1.0116173,-1.8265244,1.1575636,-1.4117095,-0.398895,0.13439035
450,1778612640670,0.93327487,-1.9885784,1.0628693,-1.6536123,-0.2864958,0.35185838
451,1778612640680,0.8788501,-2.08132,0.9789136,-1.9205604,-0.04520403,0.61269784
452,1778612640690,0.8922733,-2.0608194,0.9376679,-2.0610592,0.035430185,0.78801614
453,1778612640700,0.7995315,-1.8824136,0.9198518,-2.07572,-0.3182608,0.9272934
454,1778612640710,0.7734174,-1.7513548,0.9056965,-2.021353,-0.59498274,0.9596693
455,1778612640720,0.6587105,-1.7127937,0.8881243,-1.9138408,-0.9272934,0.93401295
456,1778612640730,0.5281399,-1.343047,0.49201941,-1.8362609,-1.0115929,0.960891
457,1778612640740,0.5620638,-1.2754432,0.3863426,-1.8270979,-0.7171558,0.9443977
458,1778612640750,0.4825012,-1.1019185,0.27139166,-1.840537,-0.59131753,0.9602802
459,1778612640760,0.43491003,-0.81149036,0.17352471,-1.8093829,-0.4361578,0.8881981
460,1778612640770,0.33313814,-0.64821607,0.111290105,-1.7873917,-0.3042109,0.8790351
461,1778612640780,0.23795582,-0.50446635,0.05906185,-1.7782288,-0.16615535,0.9089675
462,1778612640790,0.18963248,-0.34241232,-0.0024405725,-1.7794504,0.09407325,0.98899084
463,1778612640800,0.21232979,-0.12983845,-0.020012695,-1.8038851,0.44226643,1.0665708
464,1778612640810,0.24649782,-0.052472305,-0.0043930304,-1.8338175,1.0806206,1.0763446
465,1778612640820,0.23405088,-0.011958805,0.014399378,-1.8393153,1.4349225,0.9828822
466,1778612640830,0.17572121,0.044418417,0.025137896,-1.8356501,1.7513506,0.8894198
467,1778612640840,-0.060038086,0.17401282,0.10689708,-1.2809844,2.1740694,0.7666359
468,1778612640850,-0.07590181,0.0012202862,0.1986626,-0.31703907,1.1136073,0.82650065
469,1778612640860,-0.040513504,-0.07541369,0.1461903,0.04642576,0.5900958,0.79412484
470,1778612640870,-0.006345488,-0.13227904,0.07541369,0.3231477,0.16798794,0.72265357
471,1778612640880,0.020500809,-0.18816814,-0.076633975,0.3231477,0.16798794,0.72265357
472,1778612640890,0.021232981,-0.19793043,-0.11495096,0.5015204,-0.37384954,0.5815437
473,1778612640900,0.021232981,-0.19793043,-0.11495096,0.5015204,-0.37384954,0.5815437
474,1778612640910,0.021477038,-0.19963883,-0.037828874,0.39828414,-0.47769663,0.6249151
475,1778612640920,0.011226633,-0.20988922,0.04905551,0.36957347,-0.50946164,0.6835582
476,1778612640930,-0.004881145,-0.24308102,0.26797485,0.4288274,-0.5656612,0.8026769
477,1778612640940,-0.014643434,-0.2723679,0.39537275,0.59620446,-0.5644395,0.8698721
478,1778612640950,-0.017572122,-0.30433938,0.5227706,0.8002335,-0.516792,0.91690874
479,1778612640960,-0.07858644,-0.4424758,1.1607363,2.0164661,-0.10629055,1.1282681
480,1778612640970,0.08786061,-0.58988637,1.2112561,2.9907963,0.27488935,1.2113458
481,1778612640980,0.3790209,-0.64772797,0.6982478,3.49476,0.5564982,1.1246029
482,1778612640990,0.91057765,-0.6365013,-0.4075756,3.450167,0.9462303,0.83199847
483,1778612641000,1.0423685,-0.7873287,-0.17206036,2.0097466,1.010982,-0.025045475
484,1778612641010,1.2522577,-1.0182068,0.17498904,2.1019874,0.28038713,-0.30909783
485,1778612641020,1.4867967,-1.3630598,0.64821607,2.461787,-0.5497787,-0.66645396
486,1778612641030,1.2388345,-1.7025435,1.4133356,3.2919528,-1.8741345,-1.3457361
487,1778612641040,0.63918597,-1.897789,1.3869773,4.0549235,-2.8160887,-1.7928895
488,1778612641050,-0.24503349,-1.974179,0.3990336,2.9071076,-1.491733,-1.6920967
489,1778612641060,-0.44271985,-1.679358,0.055645052,1.2425,0.46914452,-1.2999213
490,1778612641070,-0.36632994,-1.2637285,0.18743597,-0.31948254,2.0231857,-0.37690386
491,1778612641080,-0.1244692,-1.326207,0.51398456,-0.36285394,1.2412782,-0.1142318
492,1778612641090,0.18060236,-1.5622104,1.11705,0.007941248,-0.40622538,-0.12095132
493,1778612641100,0.3746279,-2.4798658,1.078489,0.35918877,-1.314582,-0.15210545
494,1778612641110,0.3746279,-2.4798658,1.078489,0.10934488,-0.5204572,-0.13255776
495,1778612641120,0.24161668,-2.4837706,0.8978866,-0.44959682,0.07941248,0.042760566
496,1778612641130,0.13081467,-2.0159128,0.81490713,-0.90285885,0.42088616,0.6872234
497,1778612641140,0.34558508,-1.7286574,0.75364876,-1.0629056,-0.38606682,0.88514376
498,1778612641150,0.44101146,-1.670816,0.6621273,-1.3518448,-0.6059783,0.947452
499,1778612641160,0.55718267,-1.6295702,0.60770255,-1.6652187,-0.6200282,0.95233893
500,1778612641170,0.61770886,-1.620052,0.626495,-1.8942931,-0.5216789,0.9645562
501,1778612641180,0.6994681,-1.6346955,0.6496804,-2.230269,-0.24923302,0.88697636
502,1778612641190,0.74339837,-1.63738,0.6850687,-2.2742512,-0.13133603,0.79290307
503,1778612641200,0.75999427,-1.6678872,0.69409883,-2.2351558,0.045814894,0.6078109
504,1778612641210,0.7038611,-1.6288381,0.6970275,-2.1062634,0.12461651,0.3848451
505,1778612641220,0.5537659,-1.2874019,0.6633476,-1.6780468,-0.051923547,0.040317107
506,1778612641230,0.5086153,-1.0780008,0.5850052,-0.9450085,-0.8173377,-0.3390302
507,1778612641240,0.4729829,-0.91545874,0.47859627,-0.66339964,-1.0965031,-0.48380527
508,1778612641250,0.4729829,-0.91545874,0.47859627,-0.66339964,-1.0965031,-0.48380527
509,1778612641260,0.2294138,-0.5320448,0.061502427,-0.07819075,-1.5473217,-0.8228355
510,1778612641270,0.094206095,-0.41929033,-0.08444381,0.077579886,-1.8051068,-0.9810496
511,1778612641280,0.01854835,-0.33582276,-0.18621568,0.03848451,-1.9242256,-0.99204516
512,1778612641290,-0.1637624,-0.111290105,-0.27261195,-0.16187929,-1.785559,-0.9737192
513,1778612641300,-0.24259292,-0.0061014313,-0.25699228,-0.30115658,-1.5491543,-0.8912524
514,1778612641310,-0.277005,0.08566409,-0.17157225,-0.40194935,-1.2730432,-0.7806858
515,1778612641320,-0.32166746,0.15961345,-0.09567044,-0.43004912,-1.0635164,-0.68477994
516,1778612641330,-0.3807293,0.2796896,-0.023673553,-0.39706242,-0.47403142,-0.34330627
517,1778612641340,-0.36730617,0.30507156,-0.011226633,-0.38606682,-0.27977628,-0.21013765
518,1778612641350,-0.36632994,0.3243521,-0.114218794,-0.4202753,-0.08002335,-0.06047566
519,1778612641360,-0.2967736,0.32386398,-0.18548352,-0.5345071,0.073303826,0.05375614
520,1778612641370,-0.06833603,0.07004443,-0.29506522,-0.7470882,0.44593164,0.12583824
521,1778612641380,0.033191785,-0.047347106,-0.3316738,-0.79473567,0.44837508,0.122783914
522,1778612641390,0.033191785,-0.047347106,-0.3316738,-0.79473567,0.44837508,0.122783914
523,1778612641400,0.3104408,-0.17376876,-0.06272271,-0.7067711,-0.49418998,-0.06780604
524,1778612641410,0.42978483,-0.20256752,0.1483868,-0.5674938,-0.9254609,-0.15332718
525,1778612641420,0.57280236,-0.27407628,0.4949481,-0.5674938,-0.9254609,-0.15332718
526,1778612641430,0.71264714,-0.38048524,0.9652464,0.47342056,-2.6762006,-0.6072
527,1778612641440,0.53350914,-0.53717,1.4638554,2.3109033,-3.3964107,-1.1808025
528,1778612641450,0.5645044,-0.6133158,1.3357253,3.3530393,-2.8081474,-1.4465289
529,1778612641460,0.70264083,-0.6653,1.1331578,3.9468002,-2.1331415,-1.6517797
530,1778612641470,0.7812273,-0.7050814,1.03163,4.5393395,-1.5968018,-2.0164661
531,1778612641480,0.15229172,-0.32386398,-1.201982,3.8398988,-0.22540927,-2.3701572
532,1778612641490,0.15229172,-0.32386398,-1.201982,3.8398988,-0.22540927,-2.3701572
533,1778612641500,0.12642166,-0.19256116,-1.7833264,0.6047566,2.543643,-1.9388863
534,1778612641510,1.8343343,-0.7421781,1.194172,-0.28588495,3.105639,-2.7501154
535,1778612641520,1.4711771,-1.0731196,2.1203694,1.3341297,1.3982705,-3.4855971
536,1778612641530,0.6411384,-1.7047399,1.5072975,2.5662448,1.2614367,-3.3799174
537,1778612641540,0.42636803,-2.4269052,0.44540447,3.0390546,2.484389,-2.8979447
538,1778612641550,0.60086894,-2.9218535,0.93278676,1.0177015,2.4373524,-2.5027149
539,1778612641560,0.34070393,-2.7400305,1.6337193,0.93034774,0.69027776,-2.2473733
540,1778612641570,-0.12593354,-2.4269052,1.4599504,1.4257594,-0.8552113,-1.3775011
541,1778612641580,-0.24723,-2.1359892,0.9584128,1.6865989,-0.5839872,-0.4550946
542,1778612641590,0.82491344,-1.0496902,0.85493255,0.5039638,-0.64751714,-0.02443461
543,1778612641600,0.82491344,-1.0496902,0.85493255,0.5039638,-0.64751714,-0.02443461
544,1778612641610,1.1192465,-0.7399816,0.70264083,-0.07086037,-1.2388347,-0.45814893
545,1778612641620,1.1192465,-0.7399816,0.70264083,-0.07086037,-1.2388347,-0.45814893
546,1778612641630,1.249085,-0.8871481,0.87982637,-1.0152581,-0.8784242,-0.33475417
547,1778612641640,1.2625082,-1.0794652,1.0174747,-1.5454891,-0.07147124,-0.172264
548,1778612641650,1.0164984,-1.415532,1.0099089,-2.284636,1.187522,0.11789699
549,1778612641660,0.8232051,-1.6659348,0.87348086,-2.6132815,0.9877691,0.5369505
550,1778612641670,0.73339206,-1.7503786,0.7336361,-2.7116308,0.7086037,0.86498517
551,1778612641680,0.6025773,-1.8223755,0.69434285,-2.7293458,0.45142943,1.0861185
552,1778612641690,0.47835222,-1.8162742,0.614048,-2.7091873,0.061086524,1.3665055
553,1778612641700,0.29018408,-1.6715481,0.5405868,-2.5912905,-0.5112942,1.8008307
554,1778612641710,0.24356914,-1.534388,0.5181335,-2.5192082,-0.7470882,2.0335703
555,1778612641720,0.20525214,-1.3540297,0.46590528,-2.483778,-0.9584476,2.2131648
556,1778612641730,0.15546446,-1.1646413,0.32850105,-2.4355197,-0.9761627,2.271197
557,1778612641740,0.097134784,-0.65334123,0.12520137,-2.7488935,-0.80756384,2.538145
558,1778612641750,0.12739788,-0.54107493,0.12422514,-2.7415633,-0.5729916,2.593123
559,1778612641760,0.21013328,-0.44808912,0.102504045,-2.6511552,-0.118507855,2.6145031
560,1778612641770,0.21013328,-0.44808912,0.102504045,-2.6511552,-0.118507855,2.6145031
561,1778612641780,0.4339338,-0.23990828,0.17523311,-2.375655,0.8332202,2.4184155
562,1778612641790,0.48494175,-0.18401916,0.1867038,-2.0347922,1.5607607,1.9822577
563,1778612641800,0.507395,-0.12422514,0.18353106,-1.9388863,1.704314,1.7690657
564,1778612641810,0.4837215,-0.01586372,0.12813005,-1.7098118,1.8252654,1.1612549
565,1778612641820,0.42417148,0.032459613,0.11202228,-1.5784758,1.7562376,0.8735373
566,1778612641830,0.3414361,0.055400997,0.12056428,-1.2040154,1.4648548,0.62125
567,1778612641840,0.2660224,0.049543623,0.15375607,-1.2040154,1.4648548,0.62125
568,1778612641850,0.2208718,-0.04807928,0.27602875,-0.13927728,0.4831944,0.6151413
569,1778612641860,0.2208718,-0.04807928,0.27602875,-0.13927728,0.4831944,0.6151413
570,1778612641870,0.19646609,-0.0976229,0.20574026,0.26389378,-0.01038471,0.5546656
571,1778612641880,0.14008886,-0.14374973,0.17303659,0.7825184,-0.7293731,0.46486846
572,1778612641890,0.10396838,-0.16595893,0.2545517,1.1429288,-1.3341297,0.43310347
573,1778612641900,0.05051985,-0.19744232,0.3968371,1.3005321,-1.5497651,0.42271876
574,1778612641910,0.05051985,-0.19744232,0.3968371,1.3005321,-1.5497651,0.42271876
575,1778612641920,-0.12129646,-0.21306199,0.58110034,2.0097466,-1.858252,0.45081854
576,1778612641930,-0.2975058,-0.12715383,-0.17035197,2.2174408,-0.5907067,0.634689
577,1778612641940,-0.35290676,-0.16913168,-0.41148052,1.858252,0.829555,0.8185594
578,1778612641950,-0.36462155,-0.19768637,-0.5347294,1.4746287,1.9199494,0.9621128
579,1778612641960,-0.4166057,-0.17962612,-0.56548065,0.90408057,3.1038063,1.1844677
580,1778612641970,-0.051007964,-0.28213018,-0.29384494,0.11911872,4.1129556,1.5540411
581,1778612641980,0.19280522,-0.3372871,-0.03734076,0.036651913,4.044539,1.5234979
582,1778612641990,1.4753261,-0.94352525,2.0559382,3.0274482,0.9254609,0.5522222
583,1778612642000,1.4753261,-0.94352525,2.0559382,3.0274482,0.9254609,0.5522222
584,1778612642010,1.888271,-1.4726415,0.9498709,5.753129,-3.1874948,-1.2925909
585,1778612642020,1.6171232,-1.6830187,0.54790854,5.888741,-4.097073,-1.8875736
586,1778612642030,0.17230442,-1.8719192,0.71118283,4.3450847,-4.102571,-2.7409523
587,1778612642040,-0.69898,-1.8379952,0.30165476,3.2565227,-1.808772,-2.4990497
588,1778612642050,-0.69898,-1.8379952,0.30165476,3.2565227,-1.808772,-2.4990497
589,1778612642060,-1.6359158,-1.5902771,-0.5749989,-0.784351,5.1972413,-0.47708577
590,1778612642070,-0.6472398,-1.5504957,0.5022698,-2.5143213,3.876551,0.743423
591,1778612642080,0.044418417,-1.5568411,1.4196811,-1.7922786,1.5503759,0.91507614
592,1778612642090,0.80416864,-1.8907114,1.4784988,0.39522982,-1.128879,0.40378192
593,1778612642100,0.3807293,-2.191146,0.8005078,-0.043982297,-1.641395,-0.01038471
594,1778612642110,0.35949633,-2.2702205,0.7246059,-0.73914695,-1.0616838,0.06169739
595,1778612642120,0.44369608,-2.2794945,0.852492,-0.73914695,-1.0616838,0.06169739
596,1778612642130,0.55913514,-2.2643633,0.9808661,-1.7531832,0.752586,0.4978552
597,1778612642140,0.67579454,-2.067409,0.8600578,-1.9761491,0.86926126,0.52290064
598,1778612642150,0.579636,-1.9209745,0.78684056,-2.0610592,0.52290064,0.344528
599,1778612642160,0.579636,-1.9209745,0.78684056,-2.0610592,0.52290064,0.344528
600,1778612642170,0.41758195,-1.7040077,0.78513217,-1.9315559,-0.06780604,0.004886922
601,1778612642180,0.41636166,-1.6176114,0.71142685,-1.5790867,-0.79717916,-0.29016098
602,1778612642190,0.42124277,-1.5831994,0.64431113,-1.4624114,-1.0567969,-0.36651915
603,1778612642200,0.46419686,-1.5734371,0.5339973,-1.3445144,-1.3121386,-0.42760566
604,1778612642210,0.5437595,-1.5429299,0.4898229,-0.9828822,-1.4453071,-0.6401868
605,1778612642220,0.52911615,-1.3081468,0.46151224,-0.9828822,-1.4453071,-0.6401868
606,1778612642230,0.447601,-1.1446284,0.43979117,-0.8051204,-1.3787229,-0.7079928
607,1778612642240,0.37584817,-0.97598493,0.35168648,-0.6792821,-1.3206906,-0.7086037
608,1778612642250,0.1718163,-0.53253293,0.1432616,-0.4642576,-0.874759,-0.6951646
609,1778612642260,0.1718163,-0.53253293,0.1432616,-0.4642576,-0.874759,-0.6951646
610,1778612642270,0.0051252022,-0.29506522,0.079562664,-0.462425,-0.9083566,-0.7122689
611,1778612642280,0.0051252022,-0.29506522,0.079562664,-0.462425,-0.9083566,-0.7122689
612,1778612642290,-0.23356278,-0.0707766,0.006833603,-0.5552765,-1.1368202,-0.63285637
613,1778612642300,-0.43588626,0.09542638,0.016839951,-0.59803706,-1.509448,-0.36957347
614,1778612642310,-0.48665017,0.16034561,0.007565775,-0.57604593,-1.5491543,-0.22785273
615,1778612642320,-0.50812715,0.20622836,-0.032703668,-0.5149594,-1.3616186,-0.05131268
616,1778612642330,-0.4144092,0.24576566,-0.18060236,-0.50579643,-0.6658431,0.1966986
617,1778612642340,-0.31581008,0.25796852,-0.19207305,-0.55833083,-0.32498032,0.26939157
618,1778612642350,-0.19036464,0.26797485,-0.1901206,-0.61941737,-0.118507855,0.29871312
619,1778612642360,0.043930303,0.15448824,-0.1295944,-0.6273586,0.040927973,0.2602286
620,1778612642370,0.26065314,-0.011470691,-0.04783522,-0.46914452,0.31520647,0.015271631
621,1778612642380,0.3145898,-0.079318605,0.07687803,-0.12705997,0.2602286,-0.018936822
622,1778612642390,0.3145898,-0.079318605,0.07687803,-0.12705997,0.2602286,-0.018936822
623,1778612642400,0.5703618,-0.11153416,0.32606047,0.79290307,-0.49968776,0.030543262
624,1778612642410,0.6789673,-0.15155955,0.35412705,1.1294898,-1.1166617,-0.24801129
625,1778612642420,0.6789673,-0.15155955,0.35412705,1.1294898,-1.1166617,-0.24801129
626,1778612642430,0.34924594,-0.12935033,0.20696054,1.5491543,-2.039679,-0.7257079
627,1778612642440,0.23649146,-0.122760795,0.24234885,1.8576412,-1.9352211,-0.8875872
628,1778612642450,0.051496077,-0.15766099,0.3699908,1.958434,-1.5766432,-0.8961393
629,1778612642460,-0.079318605,-0.22135992,0.37999713,1.9798143,-1.2498302,-0.86376345
630,1778612642470,-0.17547716,-0.28749946,0.26406994,1.840537,-0.6273586,-0.78984874
631,1778612642480,-0.38585448,-0.4368625,-0.22965786,1.2339478,1.2675453,-0.50335294
632,1778612642490,-0.37755656,-0.5298483,-0.379509,0.8142834,2.4104743,-0.28038713
633,1778612642500,-0.2928687,-0.6152683,-0.29164842,0.5149594,2.9413161,-0.081855945
634,1778612642510,-0.06272271,-0.73632073,-0.08053889,0.4801401,2.8429668,0.054367006
635,1778612642520,1.7603849,-1.4736177,1.8750918,2.1062634,0.21502456,-0.11484267
636,1778612642530,1.7603849,-1.4736177,1.8750918,4.9932127,-3.5472944,-1.6249015
637,1778612642540,2.3866358,-2.9047694,0.4966565,4.682282,-4.397619,-2.7733283
638,1778612642550,-0.1666911,-2.2101824,-0.17962612,0.90285885,1.8472565,-2.162463
639,1778612642560,-0.7241178,-1.7828381,0.5137405,-0.4025602,4.84294,-1.138042
640,1778612642570,-0.23893206,-1.6227367,1.1473131,-0.3811799,4.465425,-0.44226643
641,1778612642580,0.1637624,-1.6151708,1.3523211,0.34147367,2.6841419,-0.29993483
642,1778612642590,0.6455314,-1.8384832,0.7812273,1.4245378,-0.6988298,-0.6762278
643,1778612642600,0.8847075,-1.9788162,1.0579882,1.3457361,-1.1227703,-0.8912524
644,1778612642610,1.0365112,-2.093523,0.9669548,0.9682214,-1.2137892,-1.1099422
645,1778612642620,0.8920292,-2.0212822,0.72070104,0.2968805,-0.7507534,-1.1068878
646,1778612642630,0.74486274,-1.8065119,0.9601213,-0.5674938,-0.26389378,-0.743423
647,1778612642640,0.74486274,-1.8065119,0.9601213,-0.75441855,-0.3921755,-0.6102544
648,1778612642650,0.66139513,-1.7298778,0.86982006,-0.9505063,-0.35430184,-0.5522222
649,1778612642660,0.59013045,-1.705228,0.7643873,-1.178359,-0.19853121,-0.5002986
650,1778612642670,0.76463133,-1.7550157,0.75389284,-1.9181169,0.25534168,-0.06963864
651,1778612642680,0.8507836,-1.679846,0.6672525,-1.9847012,-0.03604105,0.07086037
652,1778612642690,0.8092938,-1.586128,0.545468,-2.0726657,-0.24190263,0.30298916
653,1778612642700,0.65163285,-1.3737983,0.39708114,-2.126422,-0.54305923,0.57971114
654,1778612642710,0.55815893,-1.2473766,0.4087959,-2.2058344,-0.38606682,0.7330383
655,1778612642720,0.45004156,-1.070191,0.38390204,-2.2608123,-0.22235495,0.82711154
656,1778612642730,0.32581642,-0.77829856,0.3180066,-2.3671029,0.2003638,0.9633345
657,1778612642740,0.26821893,-0.6277153,0.268463,-2.4324653,0.4654793,0.9786061
658,1778612642750,0.20915705,-0.5379022,0.22282428,-2.466063,0.6646214,0.9761627
659,1778612642760,0.106164895,-0.4373506,0.20476402,-2.4721715,0.9101892,0.960891
660,1778612642770,0.004148973,-0.2975058,0.23258655,-2.4196372,1.0317514,0.929126
661,1778612642780,-0.035144243,-0.23893206,0.2706595,-2.207667,1.0274754,0.84604836
662,1778612642790,-0.041245673,-0.17254847,0.30238694,-2.0415115,0.88270026,0.79901177
663,1778612642800,-0.07516963,-0.006345488,0.35144243,-1.9126191,0.7819075,0.7360926
664,1778612642810,-0.07541369,0.03904916,0.31190515,-1.2425,0.59864795,0.7287622
665,1778612642820,-0.067359805,0.06760386,0.27602875,-1.0592403,0.5992588,0.77640975
666,1778612642830,-0.04344219,0.088104665,0.23844394,-0.8026769,0.6750061,0.8533788
667,1778612642840,-0.010738519,0.09542638,0.19426957,-0.53878313,0.84299403,0.9236283
668,1778612642850,0.07224095,0.022941383,0.15936938,-0.10262536,1.1600331,0.9450085
669,1778612642860,0.09152147,-0.021232981,0.16986385,0.12522738,1.2394456,0.9095783
670,1778612642870,0.09176553,-0.059305906,0.17157225,0.2828306,1.2296717,0.8857546
671,1778612642880,0.07980672,-0.12739788,0.20574026,0.46120325,1.1270463,0.870483
672,1778612642890,0.08712844,-0.14350566,0.23844394,0.7770206,0.63591075,0.8527679
673,1778612642900,0.061502427,-0.12983845,0.29067218,0.8979719,0.40194935,0.84238315
674,1778612642910,0.009030119,-0.10543273,0.29116032,1.0494665,0.13805555,0.84971356
675,1778612642920,-0.14423785,-0.04783522,0.05662128,1.1215485,0.058643065,0.8912524
676,1778612642930,-0.1901206,-0.0302631,-0.09786696,0.94806284,0.7611381,1.0433578
677,1778612642940,-0.23819989,0.0,-0.36340126,0.44959682,2.2186625,1.2205088
678,1778612642950,-0.13862452,-0.0043930304,-0.44320798,0.44959682,2.2186625,1.2205088
679,1778612642960,-0.009274175,-0.05222825,-0.42514774,-0.43310347,3.2852333,1.2608259
680,1778612642970,-0.009274175,-0.05222825,-0.42514774,-0.43310347,3.2852333,1.2608259
681,1778612642980,0.10152781,-0.12154051,-0.29189247,-0.5870415,2.9364293,1.1129965
682,1778612642990,0.3077562,-0.34802565,0.24771811,-0.1704314,1.2644911,1.0372492
683,1778612643000,0.5474204,-0.8293065,1.0638455,1.2791518,-1.3298537,0.956615
684,1778612643010,0.36632994,-1.2151611,1.0211354,2.1875083,-2.3903158,0.93034774
685,1778612643020,0.14594623,-1.5731931,0.49616838,2.3866506,-2.5228734,0.9950995
686,1778612643030,0.27139166,-2.0647242,0.012935034,1.8545868,-1.7928895,1.1227703
687,1778612643040,0.5859815,-2.5621128,-0.051007964,0.84971356,-0.45937067,1.0183123
688,1778612643050,0.12056428,-3.3379707,1.4828918,0.2406809,1.8521434,0.7440339
689,1778612643060,-0.28627914,-2.706595,1.151218,0.7147123,2.670703,0.9120218
690,1778612643070,-0.2796896,-1.9534342,0.3482697,0.71837753,2.0494528,1.0848967
691,1778612643080,0.183287,-1.1612244,0.336799,0.45448375,0.032375857,0.99265605
692,1778612643090,0.41074833,-1.0677505,0.5806122,0.7098254,-0.6010914,0.6377433
693,1778612643100,0.5623079,-1.1097283,0.6677406,0.89919364,-0.9486737,0.30787608
694,1778612643110,0.5623079,-1.1097283,0.6677406,0.9272934,-1.2968669,-0.10934488
695,1778612643120,0.6782351,-1.5021724,0.5508372,0.6065892,-1.3683381,-0.4288274
696,1778612643130,0.579636,-1.8597162,0.70093244,-0.34513888,-0.38240165,-0.79351395
697,1778612643140,0.16254212,-2.4581444,0.8022162,-1.1294898,0.8686504,-0.66706485
698,1778612643150,-0.18621568,-2.5301414,0.6469958,-1.46852,0.8723156,-0.1386664
699,1778612643160,-0.18621568,-2.5301414,0.6469958,-1.46852,0.8723156,-0.1386664
700,1778612643170,-0.12935033,-2.1484358,0.67018116,-1.0885619,0.07696902,-0.19547687
701,1778612643180,-0.062478654,-1.9597796,0.6199054,-0.9456194,-0.37384954,-0.31337386
702,1778612643190,0.1849954,-1.7557478,0.4790844,-1.0848967,-0.8356637,-0.35369098
703,1778612643200,0.1849954,-1.7557478,0.4790844,-1.0848967,-0.8356637,-0.35369098
704,1778612643210,0.35168648,-1.6608096,0.37609223,-1.3353515,-1.0482447,-0.36774087
705,1778612643220,0.383658,-1.5927176,0.34509695,-1.4037683,-1.1239921,-0.39522982
706,1778612643230,0.35071027,-1.3323085,0.3590082,-1.5234979,-1.1026118,-0.5491679
707,1778612643240,0.35071027,-1.3323085,0.3590082,-1.5234979,-1.1026118,-0.5491679
708,1778612643250,0.2975058,-1.2437156,0.3704789,-1.4697418,-0.92485,-0.6206391
709,1778612643260,0.08395569,-0.9027678,0.39830142,-0.96761054,-0.5039638,-0.8240572
710,1778612643270,0.026114125,-0.7822035,0.4002539,-0.7367035,-0.6059783,-0.90041536
711,1778612643280,-0.045882765,-0.66896087,0.38853914,-0.5119051,-0.9236283,-0.9810496
712,1778612643290,-0.11251039,-0.49543622,0.2865232,-0.11728613,-1.613906,-1.0213667
713,1778612643300,-0.12642166,-0.38927132,0.20915705,0.07147124,-1.7275269,-0.9993755
714,1778612643310,-0.14204131,-0.2809099,0.15180361,0.17348573,-1.7098118,-0.96761054
715,1778612643320,-0.16449459,-0.14765464,0.093717985,0.24801129,-1.6798794,-0.9016371
716,1778612643330,-0.17816179,0.07224095,-0.019768637,0.13561209,-1.6108516,-0.77763146
717,1778612643340,-0.22526483,0.21208574,-0.07224095,-0.058643065,-1.4495832,-0.68661255
718,1778612643350,-0.22526483,0.21208574,-0.07224095,-0.058643065,-1.4495832,-0.68661255
719,1778612643360,-0.12398108,0.12520137,0.051496077,0.22540927,-0.6963864,-0.3304781
720,1778612643370,-0.12398108,0.12520137,0.051496077,0.22540927,-0.6963864,-0.3304781
721,1778612643380,0.041001618,-0.06882414,0.038316987,0.63713247,-0.51923543,-0.2180789
722,1778612643390,0.13740423,-0.18401916,0.024649782,0.7165449,-0.49418998,-0.22296582
723,1778612643400,0.17328064,-0.18450728,0.048323333,0.76052725,-0.5888741,-0.25167647
724,1778612643410,0.2042759,-0.15180361,0.093473926,0.7556403,-0.75441855,-0.29260445
725,1778612643420,0.33875147,-0.07492557,0.16986385,0.87109387,-0.9950995,-0.47525316
726,1778612643430,0.4217309,-0.026846299,0.25821257,1.056186,-1.074512,-0.70738196
727,1778612643440,0.4183141,0.020500809,0.336799,1.2687671,-1.119716,-0.89736104
728,1778612643450,0.36632994,0.04148973,0.38951537,1.6163495,-1.1252137,-1.105666
729,1778612643460,0.3184947,-0.0388051,0.48054874,2.2455406,-0.94134337,-1.2321151
730,1778612643470,0.3141017,-0.18060236,0.5252112,2.5143213,-0.79901177,-1.2315043
731,1778612643480,0.2689511,-0.30800024,0.52350277,2.666427,-0.643852,-1.1869112
732,1778612643490,0.35656762,-0.44784504,0.3231318,2.6230555,-0.57543504,-1.0952814
733,1778612643500,-0.2186753,-0.8324793,-0.8539563,1.2577715,1.6316211,-0.62980205
734,1778612643510,-0.3141017,-0.9191196,-0.6155124,0.9456194,2.240043,-0.4373795
735,1778612643520,-0.17547716,-1.0733638,-0.073461235,0.9950995,2.1007655,-0.28955013
736,1778612643530,0.77634615,-1.4316398,1.074096,2.366492,-0.30482176,-0.22785273
737,1778612643540,1.2883781,-1.6056527,0.7470592,3.2626312,-1.7238617,-0.62980205
738,1778612643550,1.1346222,-1.7079126,0.39195594,3.4330628,-2.271197,-1.2064588
739,1778612643560,0.88031447,-1.7823502,0.06321083,3.101363,-2.0280726,-1.4312572
740,1778612643570,0.6984919,-1.74745,0.27993366,2.4941628,-1.1026118,-1.5027285
741,1778612643580,0.6816519,-1.5190123,0.6040417,1.7745636,0.9560041,-1.2394456
742,1778612643590,0.6894617,-1.3511009,0.60306543,1.7745636,0.9560041,-1.2394456
743,1778612643600,0.6894617,-1.3511009,0.60306543,1.4856243,0.68966687,-1.1551461
744,1778612643610,0.6975156,-1.4414021,0.8754333,0.73548174,0.6957755,-0.9309586
745,1778612643620,0.6467517,-1.5561091,1.2158931,0.6872234,0.42394048,-0.95539325
746,1778612643630,0.8768977,-1.7249967,1.3166889,0.65118235,-0.014660766,-1.0122037
747,1778612643640,0.7285109,-1.990287,1.2895985,0.32253686,0.059864793,-0.8155051
748,1778612643650,0.53131264,-1.9753993,0.95792466,0.32253686,0.059864793,-0.8155051
749,1778612643660,0.42636803,-1.8523946,0.810026,0.1020145,0.21013765,-0.6169739
750,1778612643670,0.48054874,-1.6478745,0.77292925,-0.46792278,-0.027488936,-0.09712757
751,1778612643680,0.6450433,-1.2888663,0.65797836,-1.1520919,-0.4654793,0.3622431
752,1778612643690,0.7822035,-1.2656809,0.65041256,-1.6035212,-0.49113566,0.59864795
753,1778612643700,0.9850151,-1.2537221,0.7575537,-1.9914207,-0.43799037,0.70921457
754,1778612643710,1.0321181,-1.2908187,0.87299275,-2.4697282,-0.24129178,0.79168135
755,1778612643720,0.8937377,-1.3552499,0.80246025,-2.4697282,-0.24129178,0.79168135
756,1778612643730,0.54790854,-1.5187683,0.5469323,-3.250414,0.45753807,1.2315043
757,1778612643740,0.54790854,-1.5187683,0.5469323,-3.3298264,0.41050145,1.2528846
758,1778612643750,0.3031191,-1.5526923,0.4971446,-3.3066137,0.2932153,1.2840388
759,1778612643760,0.1803583,-1.4889933,0.4612682,-3.0268373,0.2443461,1.2742649
760,1778612643770,0.11836776,-1.3691611,0.42392743,-2.7824912,0.24801129,1.2815952
761,1778612643780,0.10030753,-1.2263877,0.41196862,-2.5870142,0.22235495,1.2620476
762,1778612643790,0.0302631,-0.8061211,0.29774985,-2.1325307,0.11301007,1.3432927
763,1778612643800,0.07590181,-0.63943,0.24112856,-2.026851,0.1020145,1.4471397
764,1778612643810,0.15204766,-0.47591165,0.18572757,-1.9572122,0.17654006,1.568702
765,1778612643820,0.23136626,-0.34778157,0.14692247,-1.9651535,0.35613444,1.6432275
766,1778612643830,0.2506468,-0.1432616,0.19988288,-2.0451767,0.62796944,1.6303993
767,1778612643840,0.21428227,-0.054668825,0.22160399,-2.1856759,0.9975429,1.5308284
768,1778612643850,0.17987019,0.08664032,0.2877435,-2.1923954,1.1172725,1.4929546
769,1778612643860,0.19036464,0.1444819,0.33704305,-1.9822577,1.0659598,1.387275
770,1778612643870,0.17596528,0.2328306,0.37194324,-1.4874569,0.634689,1.1863003
771,1778612643880,0.14130914,0.25381953,0.34045988,-1.4874569,0.634689,1.1863003
772,1778612643890,0.14130914,0.25381953,0.34045988,-1.1233811,0.38362336,1.0684034
773,1778612643900,0.053204484,0.05832968,0.2272173,-0.09712757,0.23579398,0.64812803
774,1778612643910,0.012446919,-0.04075756,0.19719826,0.24373524,0.30970868,0.52595496
775,1778612643920,-0.0021965152,-0.1261776,0.15936938,0.5290093,0.37751472,0.46609017
776,1778612643930,0.00707766,-0.19744232,0.12837411,0.6963864,0.39706242,0.45448375
777,1778612643940,0.007565775,-0.25284332,0.08542004,0.8381071,0.30298916,0.47952923
778,1778612643950,-0.073217176,-0.22013964,0.05198419,0.75808376,-0.111177474,0.6426302
779,1778612643960,-0.1415532,-0.19134088,0.065407336,0.61758476,-0.2321288,0.7641924
780,1778612643970,-0.22404456,-0.1701079,0.08053889,0.45020768,-0.16676621,0.9309586
781,1778612643980,-0.3824377,-0.17962612,0.09542638,0.36957347,0.35735616,1.3860532
782,1778612643990,-0.29384494,-0.2111095,-0.06638357,0.2657264,1.5882497,1.7788396
783,1778612644000,-0.06931226,-0.27822527,-0.23258655,0.106901415,2.1142046,1.7916678
784,1778612644010,0.35412705,-0.3482697,-0.4417436,-0.1563815,2.6444356,1.6236799
785,1778612644020,0.35412705,-0.3482697,-0.4417436,-0.5021312,2.5949554,1.1569787
786,1778612644030,0.447601,-0.35241866,-0.32923323,-0.29993483,2.0384574,1.0213667
787,1778612644040,0.7080101,-0.6960513,1.048714,0.4801401,0.7263188,0.9297369
788,1778612644050,0.96402615,-1.070191,1.5063213,1.4245378,-0.8313876,0.74036866
789,1778612644060,0.95597225,-1.6185876,0.067847915,2.388483,-3.245527,-0.16126843
790,1778612644070,0.9440134,-1.8960809,-0.464685,1.9254472,-2.9400945,-0.42577308
791,1778612644080,0.13545178,-2.5896914,0.80441266,1.056186,-1.9645426,-0.77213365
792,1778612644090,0.13545178,-2.5896914,0.80441266,0.23701571,0.9443977,-1.210124
793,1778612644100,-0.3692586,-2.1943188,0.46200037,0.4868596,2.0879374,-0.99021256
794,1778612644110,-0.3692586,-2.1943188,0.46200037,0.55771995,2.5558603,-0.58459806
795,1778612644120,-0.1867038,-2.2838876,0.25211114,0.398895,1.8777997,-0.33414328
796,1778612644130,-0.16254212,-2.732709,0.24600971,-0.5180137,0.59498274,-0.061086524
797,1778612644140,-0.1513155,-2.6014063,0.37755656,-0.7098254,0.9779953,0.039095376
798,1778612644150,-0.024405725,-2.3119543,0.39878955,-0.9450085,1.2400564,0.057421334
799,1778612644160,0.15253578,-2.0356815,0.4275883,-1.1459832,0.6377433,-0.09040806
800,1778612644170,0.15253578,-2.0356815,0.4275883,-1.1459832,0.6377433,-0.09040806
801,1778612644180,0.2421048,-2.102065,0.49812084,-1.1123856,0.034208454,-0.3830125
802,1778612644190,0.18011424,-2.131108,0.55523026,-1.0268645,-0.2724459,-0.5326745
803,1778612644200,0.022941383,-1.8480015,0.47273886,-0.9260717,-0.43066,-0.5925393
804,1778612644210,0.04368625,-1.654708,0.37828872,-0.58459806,-0.45081854,-0.602924
805,1778612644220,0.0776102,-1.5116906,0.34387666,-0.47952923,-0.47219884,-0.6102544
806,1778612644230,0.14374973,-1.3467078,0.31385764,-0.36468655,-0.6230826,-0.63529986
807,1778612644240,0.24649782,-1.0172306,0.2511349,-0.18692477,-0.88025683,-0.7110472
808,1778612644250,0.25479576,-0.6723777,0.2596769,0.028710667,-1.074512,-0.8686504
809,1778612644260,0.25479576,-0.6723777,0.2596769,0.028710667,-1.074512,-0.8686504
810,1778612644270,0.13227904,-0.29579738,0.16400647,0.31887165,-1.1233811,-1.16492
811,1778612644280,0.06467517,-0.18865626,0.10689708,0.3585779,-1.0042624,-1.3090842
812,1778612644290,-0.023429496,-0.09518232,0.015375607,0.36835176,-0.88270026,-1.4086553
813,1778612644300,-0.023429496,-0.09518232,0.015375607,0.36835176,-0.88270026,-1.4086553
814,1778612644310,-0.13227904,0.004148973,-0.08053889,0.3408628,-0.64934975,-1.4929546
815,1778612644320,-0.39586085,0.17132819,-0.22697324,0.30604348,-0.27488935,-1.4483615
816,1778612644330,-0.41465324,0.18304294,-0.23722363,0.33292156,0.1001819,-1.1215485
817,1778612644340,-0.40220633,0.19841854,-0.20134723,0.35124752,0.15821409,-0.94806284
818,1778612644350,-0.26821893,0.1637624,-0.040269446,0.4605924,-0.09101892,-0.3640757
819,1778612644360,-0.10201593,0.097134784,0.008053889,0.4605924,-0.09101892,-0.3640757
820,1778612644370,0.026114125,0.03636453,0.035876416,0.5888741,-0.3231477,0.07269296
821,1778612644380,0.14008886,-0.0302631,0.061502427,0.61453044,-0.51251596,0.21685717
822,1778612644390,0.35949633,-0.17132819,0.063943,0.61086524,-0.8979719,0.13500121
823,1778612644400,0.4424758,-0.23893206,0.051496077,0.6218608,-1.0360274,-0.089186326
824,1778612644410,0.37609223,-0.24600971,0.061014313,0.788627,-1.0451905,-0.5222898
825,1778612644420,0.19597797,-0.22819352,0.15009521,0.788627,-1.0451905,-0.5222898
826,1778612644430,0.15888128,-0.2255089,0.19036464,1.6267341,-0.4361578,-0.93034774
827,1778612644440,0.13105874,-0.23185438,0.20940112,1.8826867,-0.28588495,-0.9914343
828,1778612644450,0.08566409,-0.22868164,0.19939478,2.1905627,-0.14049901,-1.0128145
829,1778612644460,0.05662128,-0.23185438,0.3487578,2.6450465,-0.09040806,-0.86742866
830,1778612644470,0.08542004,-0.25381953,0.528384,2.9681942,-0.17348573,-0.77091193
831,1778612644480,0.14179726,-0.29189247,0.7941623,3.4092388,-0.26816985,-0.7538077
832,1778612644490,0.234539,-0.34778157,1.0030752,3.8081338,-0.34025195,-0.83077675
833,1778612644500,0.25308737,-0.42734426,0.95670444,4.2485676,-0.5540548,-1.0207558
834,1778612644510,0.1849954,-0.44418418,-0.8678676,3.273016,-0.28221974,-1.1551461
835,1778612644520,0.06613952,-0.40952805,-1.3137602,1.7757853,0.7684685,-0.99387777
836,1778612644530,0.1432616,-0.4886026,-0.9972179,0.6291912,1.3347405,-0.75502944
837,1778612644540,1.1617125,-1.057012,0.5730464,0.6933321,1.3988814,-1.1362094
838,1778612644550,2.0408068,-2.5813935,2.1423345,3.659083,-0.5864306,-3.254079
839,1778612644560,2.0408068,-2.5813935,2.1423345,3.659083,-0.5864306,-3.254079
840,1778612644570,0.58939826,-3.4375465,0.5625519,3.690237,0.21624629,-3.5656204
841,1778612644580,0.58939826,-3.4375465,0.5625519,3.690237,0.21624629,-3.5656204
842,1778612644590,0.024405725,-2.110363,0.925221,1.7195857,1.7391334,-1.790446
843,1778612644600,0.44857723,-1.0963051,0.82125264,1.6206255,1.1319333,-0.09101892
844,1778612644610,0.48323336,-0.6286915,0.9447456,1.351234,-0.29932398,-0.10751228
845,1778612644620,0.5784157,-0.5132524,1.044321,1.0280862,-0.92057395,-0.30909783
846,1778612644630,0.68384844,-0.49641246,1.1309613,0.63346726,-1.0005972,-0.49968776
847,1778612644640,0.67140144,-0.6452874,1.1827015,0.25411993,-0.68844515,-0.57726765
848,1778612644650,0.73485637,-0.91106576,1.274711,-0.3042109,0.014660766,-0.6395759
849,1778612644660,0.822717,-1.3794116,1.2012497,-1.087951,0.95539325,-0.602924
850,1778612644670,0.75047606,-1.5663594,1.1207108,-1.396438,0.81061816,-0.40866885
851,1778612644680,0.7004443,-1.6691074,1.0963051,-1.6059648,0.3585779,-0.13072516
852,1778612644690,0.7058135,-1.5402453,1.0618931,-1.8576412,-0.82711154,0.57543504
853,1778612644700,0.7494998,-1.4636112,0.93986446,-1.9767599,-1.205848,0.7556403
854,1778612644710,0.7597502,-1.415044,0.8139309,-1.9767599,-1.205848,0.7556403
855,1778612644720,0.7402256,-1.3323085,0.5210622,-2.5540276,-1.2596041,1.0763446
856,1778612644730,0.7687803,-1.3752626,0.528384,-2.7641652,-1.1203269,1.1667526
857,1778612644740,0.80563295,-1.3396302,0.40562314,-2.9889636,-0.8900307,1.2925909
858,1778612644750,0.77366143,-1.3435352,0.39415246,-3.1490104,-0.5216789,1.3884968
859,1778612644760,0.59037447,-1.2205303,0.30970863,-3.2882876,0.005497787,1.4807373
860,1778612644770,0.46932206,-1.1141213,0.28213018,-3.3102787,0.15760323,1.5070046
861,1778612644780,0.3648656,-0.98062205,0.25674823,-3.314555,0.19792034,1.5027285
862,1778612644790,0.26821893,-0.83491987,0.22453266,-3.3017266,0.22418754,1.4636332
863,1778612644800,0.016107777,-0.5625519,0.20696054,-3.1312952,0.6401868,1.4941764
864,1778612644810,-0.06687169,-0.43588626,0.18792409,-3.0653217,0.838718,1.5448782
865,1778612644820,-0.0924977,-0.33240595,0.16058967,-3.037833,0.9963212,1.5876387
866,1778612644830,-0.10421244,-0.19207305,0.26748675,-3.082426,0.9993755,1.5711454
867,1778612644840,-0.0656514,-0.15277983,0.3443648,-3.0451632,0.8894198,1.5216653
868,1778612644850,-0.0656514,-0.15277983,0.3443648,-3.0451632,0.8894198,1.5216653
869,1778612644860,0.045638707,-0.05418071,0.46810177,-2.9248228,0.75869465,1.4514158
870,1778612644870,0.045638707,-0.05418071,0.46810177,-2.6615398,0.49418998,1.3335189
871,1778612644880,0.07004443,-0.011226633,0.49006698,-2.2773056,0.21868975,1.2388347
872,1778612644890,0.15692882,-0.005857374,0.35949633,-0.8888089,-0.08002335,1.1716396
873,1778612644900,0.18475133,-0.05198419,0.29579738,-0.4447099,-0.10262536,1.1575897
874,1778612644910,0.18475133,-0.05198419,0.29579738,-0.4447099,-0.10262536,1.1575897
875,1778612644920,0.29384494,-0.21403822,0.2591888,0.24984388,-0.7263188,0.8943067
876,1778612644930,0.24942651,-0.21916342,0.28286234,0.3286455,-1.0439687,0.7849618
877,1778612644940,0.13227904,-0.17913802,0.30360723,0.41416663,-1.4446963,0.6835582
878,1778612644950,-0.13789235,-0.07150877,0.23868799,0.4990769,-1.6878207,0.6621779
879,1778612644960,-0.30165476,-0.04368625,0.30360723,0.6078109,-1.5607607,0.90285885
880,1778612644970,-0.38780698,-0.058573738,0.11226633,0.8765916,-0.42149702,1.4404203
881,1778612644980,-0.38780698,-0.058573738,0.11226633,0.8765916,-0.42149702,1.4404203
882,1778612644990,-0.20671648,-0.12373702,-0.5422952,0.37507126,1.6505579,1.7556267
883,1778612645000,-0.06199054,-0.21403822,-0.70020026,-0.1966986,2.8344147,1.7708983
884,1778612645010,0.08029483,-0.3116611,-0.63186425,-0.5815437,3.504534,1.7281377
885,1778612645020,0.21477039,-0.39878955,-0.48616204,-0.92179567,3.9510765,1.6132951
886,1778612645030,0.2677308,-0.60013676,0.5266756,-0.25778514,2.2950208,1.3060299
887,1778612645040,0.45297024,-0.85322416,1.3364575,0.99387777,1.0519099,1.3267993
888,1778612645050,0.45297024,-0.85322416,1.3364575,0.99387777,1.0519099,1.3267993
889,1778612645060,1.0157663,-1.3852689,1.2071072,3.7091737,-1.3475688,0.44715336
890,1778612645070,1.0609169,-1.9151171,0.27334413,3.616933,-3.285844,-0.8185594
891,1778612645080,0.989164,-2.118661,-0.29921418,2.946203,-3.0860913,-1.1936307
892,1778612645090,0.70068836,-2.2453265,-0.50763905,1.953547,-1.7263051,-1.4630222
893,1778612645100,-0.40196228,-2.007615,0.036852647,1.010982,2.117259,-0.82344633
894,1778612645110,-0.27358818,-1.850198,0.71118283,0.9615019,2.71102,0.17898351
895,1778612645120,-0.27358818,-1.850198,0.71118283,0.9615019,2.71102,0.17898351
896,1778612645130,-0.2272173,-1.9663693,-0.025137896,0.14966199,0.28893927,-0.18081611
897,1778612645140,-0.2272173,-1.9663693,-0.025137896,0.14966199,0.28893927,-0.18081611
898,1778612645150,-0.2677308,-2.1169527,0.15033926,-0.64934975,0.4447099,0.13683382
899,1778612645160,-0.06467517,-2.1533172,0.3265486,-1.0152581,0.21991149,0.22602014
900,1778612645170,0.22233616,-2.1765025,0.41587353,-1.387275,0.08307768,0.20708331
901,1778612645180,0.31605414,-2.2228734,0.46785772,-1.5216653,0.15577064,0.15882497
902,1778612645190,0.31605414,-2.2228734,0.46785772,-1.5216653,0.15577064,0.15882497
903,1778612645200,0.40659937,-2.285108,0.66896087,-1.4905112,-0.0061086523,-0.06658431
904,1778612645210,0.3031191,-2.1030414,0.6213697,-1.3610078,-0.25350907,-0.22113322
905,1778612645220,0.27187976,-1.9634405,0.55864704,-1.0164797,-0.8008443,-0.53878313
906,1778612645230,0.25357547,-1.8458049,0.51788944,-0.8924741,-0.89552844,-0.6273586
907,1778612645240,0.25894472,-1.7454975,0.5122762,-0.73914695,-0.97494096,-0.7189884
908,1778612645250,0.26529023,-1.6102897,0.51593703,-0.58459806,-1.0262536,-0.82650065
909,1778612645260,0.19744232,-1.326207,0.5222825,-0.45753807,-1.0775663,-0.9230174
910,1778612645270,0.031239327,-0.97085977,0.3738957,0.02076942,-1.4337007,-1.282817
911,1778612645280,0.031239327,-0.97085977,0.3738957,0.02076942,-1.4337007,-1.282817
912,1778612645290,-0.111290105,-0.6643238,0.17035197,0.32436943,-1.4679092,-1.3353515
913,1778612645300,-0.23966423,-0.37682438,0.05222825,0.48930305,-1.3897184,-1.2046263
914,1778612645310,-0.2962855,-0.24161668,-0.022941383,0.48563787,-1.2864822,-1.028697
915,1778612645320,-0.31947094,0.0017084008,-0.111290105,0.3659083,-0.9388999,-0.6096435
916,1778612645330,-0.27822527,0.08615221,-0.17254847,0.3659083,-0.9388999,-0.6096435
917,1778612645340,-0.21599068,0.1432616,-0.23917611,0.093462385,-0.44715336,-0.24251351
918,1778612645350,-0.09054524,0.18645974,-0.2135501,-0.04337143,-0.2510656,-0.15515977
919,1778612645360,-0.048323333,0.19207305,-0.1300825,-0.28160888,0.15882497,-0.029321533
920,1778612645370,-0.013911263,0.18597162,-0.01952458,-0.26511553,0.26511553,-0.0030543262
921,1778612645380,0.008786061,0.14814276,0.10372432,-0.1459968,0.30909783,0.03176499
922,1778612645390,0.047347106,0.11690342,0.18231077,0.044593163,0.11362094,0.05681047
923,1778612645400,0.23795582,-0.013179091,0.1849954,0.258396,-0.30298916,0.019547688
924,1778612645410,0.3372871,-0.09030118,0.16278619,0.539394,-1.128879,-0.17654006
925,1778612645420,0.42587993,-0.16620298,0.14497001,0.6768387,-1.5418239,-0.34697145
926,1778612645430,0.47981656,-0.22404456,0.13398743,0.7910705,-1.7489072,-0.49357912
927,1778612645440,0.46492904,-0.2613853,0.14814276,0.9761627,-1.8368717,-0.68233645
928,1778612645450,0.4249037,-0.2638259,0.14814276,1.1997393,-1.7201965,-0.82894415
929,1778612645460,0.14570218,-0.25137895,0.28432667,1.8979583,-1.070236,-1.0128145
930,1778612645470,0.043930303,-0.24796216,0.31239328,2.4581218,-0.4184427,-1.010982
931,1778612645480,0.043930303,-0.24796216,0.31239328,2.4581218,-0.4184427,-1.010982
932,1778612645490,0.079562664,-0.2169669,0.31581008,2.9859092,0.24740042,-1.029308
933,1778612645500,0.13203497,-0.22258021,0.3104408,3.155119,0.31764993,-1.0708468
934,1778612645510,0.2545517,-0.24454537,0.10372432,3.3829718,-0.2125811,-1.1673635
935,1778612645520,0.27529657,-0.2323425,-0.09396204,3.3298264,-0.6065892,-1.1551461
936,1778612645530,0.32581642,-0.260165,-0.33631086,3.1471777,-1.2034045,-1.1074986
937,1778612645540,0.41148052,-0.31068486,-0.76121455,2.7311785,-1.89918,-1.1459832
938,1778612645550,0.41221267,-0.37633628,-1.0589644,2.2314909,-2.2901337,-1.237613
939,1778612645560,0.4803047,-0.6460195,-0.19988288,1.5778649,-1.9303342,-1.6798794
940,1778612645570,0.7814713,-1.0299215,1.2046666,2.1380284,-1.1777482,-2.144748
941,1778612645580,1.0467615,-1.5797825,2.586763,2.9681942,-0.7287622,-2.6316075
942,1778612645590,1.3359693,-2.4923124,0.49641246,1.8594738,2.212554,-3.010344
943,1778612645600,1.3269392,-2.357837,0.5708499,1.169807,3.4581082,-2.7812696
944,1778612645610,1.3269392,-2.357837,0.5708499,1.169807,3.4581082,-2.7812696
945,1778612645620,-0.022453265,-1.6627622,1.4101628,1.5473217,1.3610078,-1.4019357
946,1778612645630,-0.1986626,-1.2154051,0.65675807,1.350623,0.05009095,-0.33536503
947,1778612645640,0.153512,-0.86103404,0.9103335,1.1111639,-0.09407325,-0.19547687
948,1778612645650,0.153512,-0.86103404,0.9103335,1.1111639,-0.09407325,-0.19547687
949,1778612645660,1.057012,-0.8007518,0.7563334,0.68844515,-1.5008959,-0.2950479
950,1778612645670,1.2400548,-0.9869675,0.87079626,0.3371976,-1.5387696,-0.3036
951,1778612645680,1.3213259,-1.1622007,1.0853225,-0.09407325,-1.2131784,-0.37201694
952,1778612645690,1.0660421,-1.2832531,1.1343781,-0.5149594,-0.4007276,-0.3268129
953,1778612645700,0.61819696,-1.4179726,1.006004,-1.3023647,1.1227703,0.04520403
954,1778612645710,0.8683557,-1.4238299,1.0550594,-1.5460999,1.2394456,0.24251351
955,1778612645720,0.94279313,-1.4545813,1.0594525,-1.609019,0.25534168,0.39400807
956,1778612645730,0.94279313,-1.4545813,1.0594525,-1.609019,0.25534168,0.39400807
957,1778612645740,0.8161274,-1.5663594,0.79318607,-1.9065105,-0.36468655,0.7819075
958,1778612645750,0.78684056,-1.5575734,0.6965394,-2.126422,-0.30970868,0.947452
959,1778612645760,0.81295466,-1.4650756,0.57329047,-2.4086416,-0.0842994,1.0830641
960,1778612645770,0.75267255,-1.2700739,0.5188657,-2.5919013,-0.096516706,1.1533136
961,1778612645780,0.66188323,-1.2295604,0.48006064,-2.8686233,-0.43493605,1.3084733
962,1778612645790,0.5759751,-1.1863623,0.44149956,-2.933375,-0.49846604,1.4068227
963,1778612645800,0.5759751,-1.1863623,0.44149956,-2.933375,-0.49846604,1.4068227
964,1778612645810,0.41172457,-1.0828819,0.3900035,-3.0133982,-0.37140608,1.627345
965,1778612645820,0.23405088,-0.946454,0.32337585,-2.9755247,-0.20158553,1.6310102
966,1778612645830,0.11690342,-0.86323047,0.2806658,-2.864958,0.16554448,1.6511687
967,1778612645840,0.0019524579,-0.6772589,0.24918245,-2.7885997,0.39828414,1.7171422
968,1778612645850,-0.04612682,-0.59110665,0.25089085,-2.607173,0.9615019,1.9364429
969,1778612645860,-0.045394648,-0.40562314,0.22428861,-2.5369234,1.4153748,2.1343632
970,1778612645870,-0.00707766,-0.16620298,0.26699865,-2.770274,1.4654657,2.0494528
971,1778612645880,0.005857374,-0.10201593,0.3192269,-2.7910433,1.3115277,1.9596558
972,1778612645890,0.025626011,-0.05418071,0.379509,-2.6957483,1.0891727,1.8613064
973,1778612645900,0.1342315,0.06809197,0.4229512,-1.8106046,0.1563815,1.5613716
974,1778612645910,0.19475769,0.07736614,0.37121108,-1.3744467,-0.18509217,1.4294246
975,1778612645920,0.19475769,0.07736614,0.37121108,-1.0512991,-0.34880406,1.3206906
976,1778612645930,0.2975058,-0.0319715,0.26943922,-0.68966687,-0.5375614,1.151481
977,1778612645940,0.30165476,-0.0319715,0.26943922,-0.35430184,-0.743423,0.96944314
978,1778612645950,0.23600335,-0.17254847,0.44394013,0.25411993,-1.2571607,0.729984
979,1778612645960,0.15326795,-0.20061506,0.51569295,0.64873886,-1.5534303,0.625526
980,1778612645970,0.07468152,-0.1969542,0.50812715,1.033584,-1.8020525,0.5656612
981,1778612645980,-0.027090356,-0.14863087,0.3900035,1.2699889,-1.853976,0.5497787
982,1778612645990,-0.17596528,-0.0370967,-0.014399378,1.459968,-1.6224581,0.5882632
983,1778612646000,-0.2604091,0.008053889,-0.23014598,1.3426818,-0.2724459,0.8185594
984,1778612646010,-0.17718557,-0.026114125,-0.5047104,0.5729916,2.1062634,1.1685852
985,1778612646020,-0.07248501,-0.08859278,-0.4429639,0.26939157,2.7885997,1.2217305
986,1778612646030,0.12373702,-0.17913802,-0.23942018,0.040927973,3.258966,1.1716396
987,1778612646040,0.2818861,-0.268463,-0.041733786,0.10995574,3.2064316,1.006095
988,1778612646050,0.7648754,-0.592571,0.48152497,1.3292428,0.42271876,0.4831944
989,1778612646060,0.7648754,-0.592571,0.48152497,2.0641136,-0.8240572,0.28771752
990,1778612646070,1.0506665,-1.198077,0.6147802,2.547919,-1.6377298,0.008552114
991,1778612646080,0.852492,-1.4462832,0.34509695,2.8118126,-2.2406538,-0.36102137
992,1778612646090,0.46712556,-2.0793676,-0.15058333,1.96271,-1.4795157,-0.53878313
993,1778612646100,0.39537275,-2.5169625,0.05051985,1.2993103,-0.2602286,-0.5742133
994,1778612646110,0.39537275,-2.5169625,0.05051985,1.2993103,-0.2602286,-0.5742133
995,1778612646120,-0.174745,-2.5264807,0.42051062,0.6774496,2.204002,-0.4392121
996,1778612646130,-0.22355644,-1.6593453,0.52374685,0.86559606,3.0329459,-0.15882497
997,1778612646140,-0.019280521,-1.526334,0.5354616,1.3982705,1.4385877,0.0012217305
998,1778612646150,0.07516963,-1.5512279,0.55791485,1.3952162,0.27488935,-0.19303341
999,1778612646160,0.012935034,-1.6432374,0.6062382,1.2211196,-0.6035349,-0.29932398
1000,1778612646170,0.09298581,-1.8697226,0.532777,0.8881981,-0.63163465,-0.18875736
