id,timestamp,acc_x,acc_y,acc_z,gyro_x,gyro_y,gyro_z
0,1778612622170,-0.43051702,-2.2646072,0.43710655,-1.2082914,1.1795808,-1.5351044
1,1778612622180,-0.6233222,-2.6846297,0.6487042,-1.3408492,1.3744467,-1.3390167
2,1778612622190,-0.75657743,-2.972129,0.6867771,-1.3353515,1.591304,-0.89552844
3,1778612622200,-0.59842837,-2.6856058,0.34216827,-1.219287,0.906524,-0.28955013
4,1778612622210,-0.4234393,-2.3568609,0.45760733,-1.0250319,0.1704314,-0.37995818
5,1778612622220,-0.37926495,-2.058867,0.54864067,-0.7648033,-0.29626966,-0.711658
6,1778612622230,-0.33435842,-1.8653295,0.56426036,-0.64751714,-0.42271876,-0.91996306
7,1778612622240,-0.23502712,-1.7369554,0.5706058,-0.6249151,-0.4447099,-0.929126
8,1778612622250,0.08566409,-1.5810028,0.562796,-0.34391713,-0.571159,-0.79901177
9,1778612622260,0.19500175,-1.4753261,0.50446635,-0.14294247,-0.71837753,-0.8002335
10,1778612622270,0.34460884,-0.9642702,0.10494461,0.12767084,-0.87781334,-0.8338311
11,1778612622280,0.34460884,-0.9642702,0.10494461,0.44898596,-0.93034774,-0.90469146
12,1778612622290,0.34704942,-0.77170897,0.043198135,0.70371675,-0.9230174,-1.1643091
13,1778612622300,0.23990828,-0.49860895,0.03465613,0.78801614,-0.95478237,-1.2986995
14,1778612622310,-0.014887493,-0.24600971,0.0065895454,0.9859365,-1.1594223,-1.5033394
15,1778612622320,-0.16522676,-0.118855886,-0.09493827,0.9450085,-1.2999213,-1.4941764
16,1778612622330,-0.31654227,-0.020012695,-0.18279888,0.84421575,-1.464244,-1.4483615
17,1778612622340,-0.61111933,0.32508424,-0.532777,0.59620446,-1.6297885,-1.3078625
18,1778612622350,-0.6042857,0.38268176,-0.5361938,-0.08674286,-1.5241088,-0.8332202
19,1778612622360,-0.6042857,0.38268176,-0.5361938,-0.5216789,-1.2241739,-0.54733527
20,1778612622370,-0.40269446,0.3392396,-0.25650415,-0.84116143,-0.9822713,-0.31887165
21,1778612622380,-0.20281157,0.15400012,-0.019036464,-0.9260717,-0.86742866,-0.21868975
22,1778612622390,-0.20281157,0.15400012,-0.019036464,-0.6560693,-0.7281514,-0.014660766
23,1778612622400,-0.02391761,-0.0039049159,-0.012690976,-0.39584067,-0.9071349,0.2144137
24,1778612622410,0.073461235,-0.061502427,-0.032215554,-0.34025195,-0.93034774,0.2706133
25,1778612622420,0.23039004,-0.10689708,0.016107777,-0.28099802,-0.86742866,0.21319197
26,1778612622430,0.6367454,-0.15912533,0.51618105,0.15943582,-0.9761627,-0.1386664
27,1778612622440,0.83833665,-0.22258021,0.72631437,0.81489426,-1.4770721,-0.6389651
28,1778612622450,0.89056486,-0.24698594,0.55840296,1.3243558,-1.7898352,-1.0842859
29,1778612622460,0.89056486,-0.24698594,0.55840296,1.3243558,-1.7898352,-1.0842859
30,1778612622470,0.545712,-0.26406994,0.30604777,2.3139575,-1.4886786,-2.1557434
31,1778612622480,0.5725583,-0.2762728,0.47786412,2.461787,-1.2345587,-2.288912
32,1778612622490,0.609655,-0.27773714,0.65895456,2.6438248,-0.8949176,-2.4037547
33,1778612622500,0.5779276,-0.2443013,0.7392494,3.2064316,0.065973446,-2.4911084
34,1778612622510,0.37194324,-0.20134723,0.21184167,3.368311,0.7067711,-2.420248
35,1778612622520,0.15912533,-0.16278619,-0.733148,2.8136454,1.2858714,-2.230269
36,1778612622530,-0.009030119,-0.41733786,-0.51666915,0.88208944,1.4446963,-1.7849482
37,1778612622540,-0.009030119,-0.41733786,-0.51666915,0.88208944,1.4446963,-1.7849482
38,1778612622550,-0.14936304,-0.56523657,-0.13447554,1.065349,1.006095,-1.6792686
39,1778612622560,-0.59110665,-1.1075318,0.47835222,2.140472,0.98654735,-1.1038336
40,1778612622570,0.46614933,-1.9199983,2.4949973,3.6242635,0.3005457,-0.5742133
41,1778612622580,1.8411678,-2.5045154,2.6799927,3.6242635,0.3005457,-0.5742133
42,1778612622590,2.6341097,-3.3035588,1.1448725,4.171599,-3.068987,-2.543032
43,1778612622600,1.3835605,-3.1959298,0.5339973,3.2565227,-1.6933185,-3.450167
44,1778612622610,-1.0011228,-1.5871042,0.90374404,2.547919,0.8949176,-2.624277
45,1778612622620,-0.13179092,-1.3069266,0.52399087,1.8393153,3.449556,0.73548174
46,1778612622630,0.7829357,-1.0084445,0.55010504,1.3994923,3.4330628,0.9437868
47,1778612622640,1.1028948,-0.605262,0.579636,1.3933836,2.4410176,0.40439278
48,1778612622650,1.4667841,-0.2894519,0.55645055,1.5393804,-0.0067195175,-0.46486846
49,1778612622660,1.2852055,-0.39073566,0.6152683,1.2363913,-1.1716396,-0.9297369
50,1778612622670,0.9813542,-0.6367454,0.75950617,0.689056,-1.4526376,-1.1258247
51,1778612622680,0.8944698,-1.0545714,0.9447456,0.25717425,-1.0751228,-1.1301007
52,1778612622690,0.72094506,-1.2168695,0.91521466,-0.9492846,1.2492194,-0.75502944
53,1778612622700,0.66798466,-1.3247427,0.9410847,-1.2589933,1.5406022,-0.602924
54,1778612622710,0.8278422,-1.5256019,1.0494461,-1.2400564,-0.106901415,-0.55771995
55,1778612622720,0.9679311,-1.5922295,1.0636015,-1.2858714,-1.7470746,-0.36713
56,1778612622730,1.0548154,-1.5409775,1.022844,-1.4941764,-1.6652187,-0.27183503
57,1778612622740,1.0548154,-1.5409775,1.022844,-1.7531832,-1.3420709,-0.20341812
58,1778612622750,0.9867234,-1.355738,0.7660957,-2.1142046,-0.8313876,-0.021991149
59,1778612622760,0.8715284,-1.2651927,0.6733539,-2.6603181,-0.22602014,0.31398472
60,1778612622770,0.7814713,-1.2568948,0.66896087,-2.7776043,-0.21746802,0.38545597
61,1778612622780,0.64235866,-1.2549424,0.5864696,-2.9272664,-0.07819075,0.49418998
62,1778612622790,0.55913514,-1.292283,0.47932845,-3.0775392,0.08735373,0.70188415
63,1778612622800,0.30677995,-1.3186413,0.5459561,-3.1856623,0.30970868,0.84971356
64,1778612622810,0.21599068,-1.3188853,0.51691324,-3.2522466,0.4746423,1.3451253
65,1778612622820,0.11348662,-1.3022895,0.4756676,-3.2333097,0.37140608,1.5106697
66,1778612622830,-0.13203497,-1.1949043,0.34900185,-3.0769281,-0.07513642,1.9315559
67,1778612622840,-0.22599702,-1.1072878,0.27334413,-2.9975157,-0.22540927,2.172237
68,1778612622850,-0.26651052,-0.76804817,0.0993313,-2.9749138,-0.3005457,2.5955665
69,1778612622860,-0.16083373,-0.536926,0.13276714,-2.9840767,0.19730948,3.0072896
70,1778612622870,-0.10836142,-0.47884035,0.21013328,-2.9718595,0.6621779,3.177721
71,1778612622880,-0.031239327,-0.40489095,0.33362624,-2.9718595,0.6621779,3.177721
72,1778612622890,0.02757847,-0.32606047,0.4148973,-2.9761355,0.9621128,3.2430835
73,1778612622900,0.13105874,-0.24991462,0.5010495,-2.9321532,0.89919364,3.167947
74,1778612622910,0.28359452,-0.13838045,0.56816524,-2.606562,0.4147775,2.8087585
75,1778612622920,0.33191785,-0.06199054,0.5935472,-2.2632558,0.025045475,2.506991
76,1778612622930,0.37926495,0.00097622897,0.575487,-1.8081611,-0.4269948,2.1820107
77,1778612622940,0.4378387,0.05686534,0.43295756,-1.3005321,-0.77396625,1.8295414
78,1778612622950,0.5022698,0.08322352,0.17840585,-0.49357912,-0.7696902,1.2003502
79,1778612622960,0.35193056,-0.014887493,0.19915071,-0.06780604,-0.5363397,0.91874135
80,1778612622970,0.35193056,-0.014887493,0.19915071,0.24617869,-0.37812558,0.79168135
81,1778612622980,0.31727442,-0.07248501,0.2806658,0.6291912,-0.3585779,0.67256266
82,1778612622990,0.17376876,-0.13081467,0.34704942,1.3054191,-1.8038851,0.43799037
83,1778612623000,0.06345488,-0.127886,0.22404456,1.3750577,-2.2156084,0.4343252
84,1778612623010,-0.084931925,-0.079318605,-0.14863087,1.3261884,-2.144137,0.48197266
85,1778612623020,-0.1483868,-0.026114125,-0.3333822,1.3261884,-2.144137,0.48197266
86,1778612623030,-0.26577836,0.067359805,-0.49738866,0.54367006,0.52290064,0.9822713
87,1778612623040,-0.36510965,0.08175918,-0.49519217,0.23640485,1.4086553,1.2473868
88,1778612623050,-0.25089085,0.038316987,-0.2962855,-0.07696902,2.3194554,1.5454891
89,1778612623060,-0.051740136,-0.0741934,-0.16278619,-0.27488935,2.9174924,1.6224581
90,1778612623070,0.12568948,-0.21989559,0.04807928,-0.17165314,2.5815165,1.3365731
91,1778612623080,0.22135992,-0.37804466,0.23819989,0.12034045,1.6487253,0.99204516
92,1778612623090,0.2945771,-0.73436826,0.44320798,1.0415252,-0.21624629,0.5534439
93,1778612623100,0.31898284,-1.0179628,0.50617474,1.5888605,-0.8582657,0.453262
94,1778612623110,0.31483385,-1.4948506,0.5867136,2.0732768,-1.2052372,0.4111123
95,1778612623120,0.5217944,-2.9233177,-0.007565775,2.039679,-1.2266175,0.37873647
96,1778612623130,0.15107143,-3.0975745,0.6796995,0.58032197,-0.312763,-0.03970624
97,1778612623140,-0.2523552,-2.7102559,0.79269797,1.0409144,0.2950479,0.115453534
98,1778612623150,-0.20110317,-2.0466642,0.13374338,1.3548992,0.95172805,0.29260445
99,1778612623160,0.0061014313,-1.6822866,-0.10933765,1.3109168,0.9639453,0.30298916
100,1778612623170,0.20232345,-1.5138872,-0.087616555,1.3109168,0.9639453,0.30298916
101,1778612623180,0.42563587,-1.4699568,0.029774986,0.35124752,0.20525073,-0.15454891
102,1778612623190,0.4458926,-1.5707525,0.090789296,-0.1826487,0.04520403,-0.46670106
103,1778612623200,0.43173727,-1.6964419,0.21403822,-0.5674938,0.13439035,-0.6817256
104,1778612623210,0.35022214,-2.0188415,0.46297657,-0.7489208,0.25778514,-0.7910705
105,1778612623220,0.2294138,-2.1564898,0.4729829,-0.79534656,0.22907446,-0.7733554
106,1778612623230,-0.14399378,-2.3502712,0.46370876,-1.0323622,0.32559118,-0.54305923
107,1778612623240,-0.14399378,-2.3502712,0.46370876,-1.0323622,0.32559118,-0.54305923
108,1778612623250,-0.036120474,-2.332699,0.45248213,-1.2541064,0.7556403,-0.29565877
109,1778612623260,-0.036120474,-2.332699,0.45248213,-0.91874135,0.37140608,-0.46914452
110,1778612623270,0.22160399,-1.876312,0.49909708,-0.61208695,-0.20647246,-0.59498274
111,1778612623280,0.29262465,-1.7298778,0.5037342,-0.16737708,-0.784351,-0.7464773
112,1778612623290,0.3287451,-1.5883245,0.49763274,0.052534413,-0.97249746,-0.86315256
113,1778612623300,0.3995217,-1.4440868,0.41880223,0.25045475,-1.0842859,-0.96577793
114,1778612623310,0.3995217,-1.4440868,0.41880223,0.25045475,-1.0842859,-0.96577793
115,1778612623320,0.5359497,-1.0814177,0.12544543,0.49968776,-0.9963212,-1.1551461
116,1778612623330,0.4966565,-0.9274175,0.08371163,0.6383542,-0.8173377,-1.3854424
117,1778612623340,0.41196862,-0.73461235,0.084931925,0.7324274,-0.7324274,-1.5234979
118,1778612623350,0.17840585,-0.41880223,0.056133166,0.86193085,-0.6627888,-1.6487253
119,1778612623360,-0.35510328,-0.027334413,-0.255772,0.9224065,-0.75319684,-1.8216002
120,1778612623370,-0.6382097,0.18304294,-0.42148685,0.09712757,-0.5870415,-1.1930199
121,1778612623380,-0.6433349,0.22599702,-0.39415246,-0.13622294,-0.37812558,-0.9963212
122,1778612623390,-0.6428468,0.26162934,-0.30043447,-0.40378192,-0.13561209,-0.73792523
123,1778612623400,-0.4036707,0.2882316,0.022209208,-0.7171558,-0.46486846,-0.07391469
124,1778612623410,-0.4036707,0.2882316,0.022209208,-0.7171558,-0.46486846,-0.07391469
125,1778612623420,-0.19353738,0.20012695,0.011470691,-0.6444628,-0.6976081,0.009162978
126,1778612623430,0.19939478,-0.017328065,0.07224095,-0.43066,-0.5546656,-0.09712757
127,1778612623440,0.5098356,-0.15058333,0.24332508,0.17715092,-0.64812803,-0.6536258
128,1778612623450,0.5098356,-0.15058333,0.24332508,0.17715092,-0.64812803,-0.6536258
129,1778612623460,0.58842206,-0.26162934,0.17328064,0.83077675,-0.8020661,-1.3426818
130,1778612623470,0.60721445,-0.26919514,0.21940747,1.2040154,-0.77946407,-1.7061466
131,1778612623480,0.60819066,-0.27310005,0.4275883,1.8637499,-0.8961393,-2.3377812
132,1778612623490,0.53961056,-0.2877435,0.605262,2.3683245,-0.9370673,-2.6597073
133,1778612623500,0.44101146,-0.3243521,0.88421935,2.819143,-0.8894198,-2.8368583
134,1778612623510,0.36144876,-0.39659303,1.2310247,3.568064,-0.6560693,-2.9663615
135,1778612623520,0.4583395,-0.47469133,1.4035733,4.346917,-0.24617869,-3.0641
136,1778612623530,0.50568664,-0.43954712,-0.029530926,4.188703,0.8717047,-3.2583551
137,1778612623540,0.3568117,-0.43198135,-0.63186425,2.9865203,1.5699236,-3.1172454
138,1778612623550,0.027090356,-0.7145996,-0.665056,1.0775663,1.9572122,-2.4966063
139,1778612623560,-0.107385196,-1.19344,0.6962953,1.2321151,2.0097466,-1.5192219
140,1778612623570,-0.017084008,-1.5119346,1.4897255,1.2321151,2.0097466,-1.5192219
141,1778612623580,0.4583395,-1.7742962,1.517304,2.9150488,1.2052372,-1.5900823
142,1778612623590,0.792942,-1.8187146,1.0028312,3.535077,0.053145275,-1.8124372
143,1778612623600,0.93303084,-1.744277,0.5213063,2.9455922,-0.6383542,-2.0146337
144,1778612623610,0.78586435,-1.5897889,0.7670719,2.2321017,-1.2858714,-1.9645426
145,1778612623620,0.24454537,-1.1180263,1.0240642,2.1679606,-1.8270979,-1.4520267
146,1778612623630,0.5320448,-0.78415596,0.6079466,1.9706513,-0.8717047,-0.21746802
147,1778612623640,0.9686632,-0.41343296,0.34729347,1.310306,0.10567969,-0.20952678
148,1778612623650,1.2300485,-0.17889395,0.26162934,0.86742866,0.65240407,-0.47647488
149,1778612623660,1.3535415,-0.07590181,0.5764632,0.5742133,0.86559606,-0.8924741
150,1778612623670,1.5490314,-0.39464056,0.74413055,0.44959682,0.38423425,-1.5430456
151,1778612623680,1.415532,-0.6823841,0.8319912,0.25045475,0.18325958,-1.6890424
152,1778612623690,1.2183337,-0.9628058,0.84102124,-0.021380283,0.20891592,-1.7085901
153,1778612623700,0.89715445,-1.2007617,0.98818773,-0.36163223,0.5155703,-1.5118915
154,1778612623710,0.5266756,-1.4023529,1.1275444,-0.7244862,0.50640726,-0.71776664
155,1778612623720,0.7438865,-1.2283401,1.0504224,-0.7244862,0.50640726,-0.71776664
156,1778612623730,0.7438865,-1.2283401,1.0504224,-0.90469146,0.1863139,0.06414085
157,1778612623740,1.0860548,-1.0345587,1.1319375,-0.70738196,-0.72326446,0.2565634
158,1778612623750,1.0394398,-1.121199,1.1963686,-0.70554936,-0.7825184,0.29565877
159,1778612623760,1.0084445,-1.1973449,1.142676,-0.8686504,-0.33964106,0.61636305
160,1778612623770,0.9874556,-1.2700739,1.0382195,-1.0684034,0.19730948,0.7715228
161,1778612623780,0.84150934,-1.3181533,0.9401085,-1.5167783,0.8436049,1.2034045
162,1778612623790,0.6816519,-1.2905748,0.7792748,-1.8038851,1.001819,1.3933836
163,1778612623800,0.54766446,-1.2178457,0.65895456,-2.0360138,1.0488557,1.5570955
164,1778612623810,0.4385709,-1.1224194,0.59061855,-2.4874432,0.79534656,2.0384574
165,1778612623820,0.39146784,-1.0821499,0.54034275,-2.5668557,0.5320636,2.2192733
166,1778612623830,0.3743838,-1.0736078,0.4463807,-2.692694,0.27488935,2.5179865
167,1778612623840,0.41001618,-1.0516427,0.3687705,-2.7947085,-0.05375614,2.8093693
168,1778612623850,0.47688788,-1.0706791,0.25089085,-2.8637362,-0.26328292,3.0127873
169,1778612623860,0.5000733,-1.0594525,0.2042759,-3.0030136,-0.5693264,3.3499851
170,1778612623870,0.4327135,-0.937912,0.14057697,-3.036611,-0.4978552,3.3438764
171,1778612623880,0.4327135,-0.937912,0.14057697,-3.036611,-0.4978552,3.3438764
172,1778612623890,0.3790209,-0.86152214,0.110557936,-3.0579915,-0.37751472,3.277292
173,1778612623900,0.3109289,-0.76389915,0.11836776,-3.0653217,-0.099571034,3.1752775
174,1778612623910,0.26211748,-0.58305275,0.14350566,-3.0549371,0.23945917,3.091589
175,1778612623920,0.31385764,-0.473227,0.16864355,-3.046385,1.2742649,2.7495046
176,1778612623930,0.20915705,-0.22526483,0.27212384,-3.1294627,1.3365731,2.1673498
177,1778612623940,0.12910628,-0.12837411,0.31654227,-3.0897565,1.1142182,1.8759671
178,1778612623950,0.08322352,-0.056133166,0.35144243,-2.819754,0.40866885,1.4416419
179,1778612623960,0.099087246,0.10152781,0.34631723,-2.1563544,-0.59315014,1.0103711
180,1778612623970,0.099087246,0.10152781,0.34631723,-2.1563544,-0.59315014,1.0103711
181,1778612623980,0.0924977,0.0959145,0.30946457,-1.8674151,-0.8857546,0.90224797
182,1778612623990,0.11202228,0.0690682,0.307024,-0.87964594,-0.960891,0.84604836
183,1778612624000,0.056133166,0.021232981,0.21135357,0.013439035,-0.56505036,0.99387777
184,1778612624010,0.064919226,-0.039537273,0.20451997,0.31948254,-0.63285637,1.0800097
185,1778612624020,0.079318605,-0.09640261,0.21599068,0.44715336,-0.8943067,1.1111639
186,1778612624030,0.09664667,-0.1398448,0.22233616,0.50762904,-1.4672983,1.1362094
187,1778612624040,0.09200958,-0.18450728,0.25015867,0.52778757,-2.5864034,1.1917981
188,1778612624050,-0.105676785,-0.10884953,0.18084641,0.52778757,-2.5864034,1.1917981
189,1778612624060,-0.19963883,-0.065163285,0.076389916,0.5326745,-2.1105394,1.3377949
190,1778612624070,-0.23307467,-0.048567392,-0.1044565,0.48075095,-1.0732902,1.5393804
191,1778612624080,-0.14594623,-0.12495731,-0.54717636,-0.01160644,1.5448782,1.858252
192,1778612624090,0.2072046,-0.25528386,-0.5723142,-0.8185594,3.413515,1.7647897
193,1778612624100,0.34973404,-0.31507793,-0.33094162,-1.0726794,3.7329974,1.5619824
194,1778612624110,0.49250755,-0.45809543,0.34338856,-0.6835582,2.9883528,1.2559389
195,1778612624120,0.5835409,-0.6367454,0.8061211,0.070249505,1.8325957,1.1710287
196,1778612624130,0.71728426,-0.89617825,1.0033194,1.0671816,0.4728097,1.0054842
197,1778612624140,0.7394935,-1.2454242,0.9864794,1.9651535,-0.72021013,0.698219
198,1778612624150,0.71142685,-1.8865626,0.39756927,2.4550674,-1.9669861,0.040927973
199,1778612624160,0.68384844,-2.2943823,0.03465613,2.0690005,-1.713477,-0.36957347
200,1778612624170,0.6711574,-2.609704,-0.23380683,1.6487253,-1.0537425,-0.6579019
201,1778612624180,0.41001618,-2.7273397,-0.44540447,1.0372492,0.16798794,-0.9651671
202,1778612624190,-0.5588911,-2.2982872,0.3487578,0.625526,1.1429288,-0.9193522
203,1778612624200,-0.4881145,-2.2785184,1.2083274,1.1960741,1.028697,0.03481932
204,1778612624210,0.23722363,-2.2904773,1.4182167,1.9242256,0.2003638,-0.095294975
205,1778612624220,0.56523657,-1.8306733,-0.094206095,1.9187278,-0.6963864,-0.6731735
206,1778612624230,0.56523657,-1.8306733,-0.094206095,1.3665055,-0.7874053,-1.0219775
207,1778612624240,0.22428861,-1.9876022,0.22868164,-0.6200282,0.9419542,-1.1172725
208,1778612624250,0.1901206,-2.2223854,0.57280236,-0.76052725,0.7012733,-1.1936307
209,1778612624260,0.07858644,-2.358081,0.6291796,-0.7788532,0.27916542,-1.2070698
210,1778612624270,-0.009274175,-2.3758974,0.34290043,-0.7672467,-0.004276057,-1.142318
211,1778612624280,-0.0053692595,-2.3236692,0.24356914,-0.77274454,-0.3652974,-1.074512
212,1778612624290,-0.025870068,-2.2538686,0.22672918,-0.7538077,-0.43127087,-1.0873401
213,1778612624300,0.009030119,-1.9636846,0.12739788,-0.7666359,-0.6072,-0.88025683
214,1778612624310,0.15229172,-1.7369554,0.18109047,-0.90102625,-0.52595496,-0.68844515
215,1778612624320,0.27383223,-1.5597699,0.2889638,-0.97066486,-0.48380527,-0.63529986
216,1778612624330,0.3392396,-1.3711137,0.375116,-0.93462384,-0.45142943,-0.66950834
217,1778612624340,0.21745501,-0.8495633,0.33069757,-0.35979962,-0.64751714,-0.9309586
218,1778612624350,0.21745501,-0.8495633,0.33069757,-0.35979962,-0.64751714,-0.9309586
219,1778612624360,0.11617125,-0.72118914,0.2421048,-0.20586158,-0.7263188,-0.9761627
220,1778612624370,-0.026602242,-0.40342662,0.0034168016,-0.03970624,-0.13500121,-0.88453287
221,1778612624380,-0.06931226,-0.26162934,-0.041977845,-0.06291912,0.29443705,-0.8594874
222,1778612624390,-0.11690342,-0.15790504,-0.050031736,-0.095294975,0.58276546,-0.8338311
223,1778612624400,-0.17889395,-0.05832968,-0.038561042,-0.13927728,0.8472701,-0.77274454
224,1778612624410,-0.21501444,0.05662128,-0.044174362,-0.18387043,0.9633345,-0.6927212
225,1778612624420,-0.21843125,0.1969542,-0.053936653,-0.22785273,0.89736104,-0.5479461
226,1778612624430,-0.20866893,0.2767609,-0.042954076,-0.22907446,0.7086037,-0.49663344
227,1778612624440,-0.20866893,0.2767609,-0.042954076,-0.22785273,0.49846604,-0.46853364
228,1778612624450,-0.12056428,0.19841854,0.14570218,0.047647487,-0.54183745,-0.25534168
229,1778612624460,-0.12056428,0.19841854,0.14570218,0.047647487,-0.54183745,-0.25534168
230,1778612624470,0.020744866,-0.05027579,0.057109397,0.2565634,-0.60048056,-0.19425514
231,1778612624480,0.020744866,-0.05027579,0.057109397,0.43066,-0.49235737,-0.19730948
232,1778612624490,0.13911264,-0.13520771,0.047347106,0.6646214,-0.3494149,-0.2779437
233,1778612624500,0.2506468,-0.15302388,0.07541369,0.9804387,-0.62858033,-0.49480084
234,1778612624510,0.3133695,-0.15888128,0.1244692,1.1148291,-0.8081747,-0.61636305
235,1778612624520,0.46370876,-0.18426323,0.27920148,1.3054191,-1.1404854,-0.8197812
236,1778612624530,0.48640612,-0.18938842,0.34119204,1.7507398,-1.777007,-1.3054191
237,1778612624540,0.48225713,-0.2111095,0.39073566,2.1245892,-1.8839084,-1.6071864
238,1778612624550,0.40513504,-0.22233616,0.38829508,2.5442538,-1.7922786,-1.840537
239,1778612624560,0.26699865,-0.21159762,0.35632357,2.950479,-1.5833627,-1.9730947
240,1778612624570,0.23258655,-0.2277054,0.24088451,3.513697,-1.0958922,-2.0103576
241,1778612624580,0.2562601,-0.29530928,0.01586372,3.6242635,-0.7110472,-2.0335703
242,1778612624590,0.21794313,-0.40196228,-0.28408262,3.500258,-0.4428773,-2.0653355
243,1778612624600,0.10201593,-0.47444725,-0.49226347,3.0329459,-0.017104227,-2.0732768
244,1778612624610,-0.15155955,-0.67481834,-0.5137405,1.9779817,0.172264,-1.831374
245,1778612624620,0.19353738,-1.0255286,0.28579104,1.709201,0.34147367,-1.7208074
246,1778612624630,0.19353738,-1.0255286,0.28579104,1.709201,0.34147367,-1.7208074
247,1778612624640,1.2866699,-1.6217605,1.6615417,2.1282544,0.60048056,-1.8997909
248,1778612624650,2.1162202,-2.2365406,1.3025336,3.3163874,-0.12522738,-3.5729508
249,1778612624660,1.5392691,-2.1664963,0.7975791,3.3163874,-0.12522738,-3.5729508
250,1778612624670,-0.58939826,-1.8275007,0.9437694,2.1343632,1.6798794,-2.6175575
251,1778612624680,-0.47884035,-1.7418365,1.0513986,1.6053538,1.061073,-0.36713
252,1778612624690,-0.47884035,-1.7418365,1.0513986,1.6053538,1.061073,-0.36713
253,1778612624700,0.043930303,-0.76511943,0.78806084,1.568702,-0.4098906,-0.12583824
254,1778612624710,0.7912336,-0.42002252,0.67481834,1.1704178,-1.0763446,-0.11056661
255,1778612624720,1.2969202,-0.4742032,0.8859278,1.0604621,-1.4941764,-0.3371976
256,1778612624730,1.5229172,-0.61502427,0.916435,1.006095,-1.5796975,-0.56688297
257,1778612624740,1.2415192,-1.0728757,1.0963051,-0.058643065,0.7171558,-0.6401868
258,1778612624750,0.9789136,-1.2171135,0.9647583,-0.43493605,1.3274102,-0.28344148
259,1778612624760,0.9789136,-1.2171135,0.9647583,-0.43493605,1.3274102,-0.28344148
260,1778612624770,0.79709095,-1.2639725,0.9349833,-0.8509353,1.6505579,0.021380283
261,1778612624780,0.8886124,-1.1055794,1.0657979,-1.0433578,0.8680395,0.19303341
262,1778612624790,0.8319912,-1.2844733,1.2100358,-1.2027937,-0.07452556,0.24801129
263,1778612624800,0.8175918,-1.3642801,1.1573195,-1.3396275,-0.06169739,0.27855456
264,1778612624810,0.8175918,-1.3642801,1.1573195,-1.3396275,-0.06169739,0.27855456
265,1778612624820,0.8066092,-1.4660518,0.92180425,-1.7971655,0.15332718,0.45998153
266,1778612624830,0.8019721,-1.496071,0.7421781,-2.1294763,-0.02687807,0.7153232
267,1778612624840,0.76292294,-1.4899695,0.6782351,-2.2883012,-0.16920967,0.9596693
268,1778612624850,0.7136234,-1.4489679,0.5357057,-2.4514022,-0.12522738,1.2082914
269,1778612624860,0.59916055,-1.3193735,0.45638704,-2.666427,-0.044593163,1.5534303
270,1778612624870,0.46541715,-1.2532339,0.47273886,-2.7629435,-0.06047566,1.6798794
271,1778612624880,0.39927766,-1.1836777,0.4915313,-2.8472428,-0.17898351,1.8161024
272,1778612624890,0.23819989,-1.1563432,0.4554108,-2.933375,-0.3145956,2.0470095
273,1778612624900,0.12544543,-1.0550594,0.38780698,-3.0396655,-0.39950588,2.3493876
274,1778612624910,0.042954076,-0.9684192,0.294089,-3.0396655,-0.39950588,2.3493876
275,1778612624920,-0.012935034,-0.8771418,0.1615659,-3.2846224,-0.26939157,2.9064968
276,1778612624930,-0.033923957,-0.6535853,0.10421244,-3.4532213,0.9059132,3.2650747
277,1778612624940,0.0605262,-0.56548065,0.12129646,-3.4898732,1.4288138,3.317609
278,1778612624950,0.0605262,-0.56548065,0.12129646,-3.4898732,1.4288138,3.317609
279,1778612624960,0.16693515,-0.4834774,0.15692882,-3.5552356,1.717753,3.250414
280,1778612624970,0.34924594,-0.26162934,0.33655494,-3.739717,1.8423696,2.552806
281,1778612624980,0.3577879,-0.16547081,0.4288086,-3.6034942,1.5491543,2.1233675
282,1778612624990,0.3607166,-0.061502427,0.49446,-3.255301,1.110553,1.7391334
283,1778612625000,0.3607166,-0.061502427,0.49446,-3.255301,1.110553,1.7391334
284,1778612625010,0.44735694,0.084687866,0.31703037,-2.4581218,0.05497787,1.2608259
285,1778612625020,0.44735694,0.084687866,0.31703037,-2.4581218,0.05497787,1.2608259
286,1778612625030,0.2936009,0.122760795,0.44003522,-1.0983357,-1.2638801,0.8539896
287,1778612625040,0.25528386,0.07248501,0.50324607,-0.40683624,-1.3939945,0.8063421
288,1778612625050,0.1342315,-0.08712844,0.5361938,0.5357288,-2.0525072,0.57360244
289,1778612625060,-0.031239327,-0.07980672,0.44613665,0.88697636,-2.4330764,0.46975538
290,1778612625070,-0.16693515,-0.02318544,0.26553428,1.0726794,-2.515543,0.48991394
291,1778612625080,-0.34045988,0.0036608586,-0.5847612,0.5681047,0.1441642,1.1209377
292,1778612625090,-0.34045988,0.0036608586,-0.5847612,0.5681047,0.1441642,1.1209377
293,1778612625100,-0.09200958,-0.119343996,-0.74461865,-0.46670106,2.2534819,1.2253957
294,1778612625110,0.0019524579,-0.15033926,-0.58842206,-0.86437434,2.9168816,1.2247849
295,1778612625120,0.27529657,-0.23405088,-0.1181237,-0.8765916,2.9174924,1.287093
296,1778612625130,0.46492904,-0.30922052,0.1769415,-0.56382865,2.4373524,1.2174544
297,1778612625140,0.46492904,-0.30922052,0.1769415,-0.56382865,2.4373524,1.2174544
298,1778612625150,0.856641,-0.5354616,1.0279691,0.64751714,0.9193522,0.7984009
299,1778612625160,0.7924539,-0.67018116,0.87323684,1.4556919,-0.18020524,0.36896262
300,1778612625170,0.35022214,-0.9437694,0.3360668,1.7788396,-1.4318681,-0.06169739
301,1778612625180,0.16351835,-1.1160738,0.04075756,1.6132951,-1.3353515,-0.07391469
302,1778612625190,0.06711575,-1.309123,-0.20793676,1.2932017,-0.7556403,0.015882496
303,1778612625200,0.13081467,-1.8582519,-0.26748675,0.84116143,0.8393288,0.3707952
304,1778612625210,0.16010156,-2.2311714,-0.15936938,0.6078109,1.5467108,0.5681047
305,1778612625220,0.031239327,-2.6360621,0.528384,0.5656612,2.0329595,0.7360926
306,1778612625230,0.10079564,-2.2404454,0.24552159,0.9651671,1.2822062,0.35430184
307,1778612625240,0.10079564,-2.2404454,0.24552159,0.9651671,1.2822062,0.35430184
308,1778612625250,0.29994637,-2.0600872,0.05051985,0.86254174,0.06658431,-0.24556783
309,1778612625260,0.31483385,-1.97784,-0.36388937,0.31398472,-0.08979719,-0.43982297
310,1778612625270,0.18206671,-2.0354373,-0.38658667,-0.7556403,0.014049901,-0.6114761
311,1778612625280,0.14911897,-2.17455,-0.07541369,-0.9950995,-0.15577064,-0.64996064
312,1778612625290,0.06613952,-2.285352,0.3499781,-0.98899084,-0.12156218,-0.7049385
313,1778612625300,0.027090356,-2.352468,0.6164886,-0.8918633,-0.018936822,-0.73853606
314,1778612625310,-0.08664032,-2.4500906,0.55742675,-0.7348709,0.29993483,-0.8008443
315,1778612625320,-0.09127741,-2.413238,0.47176263,-0.7128797,0.32436943,-0.74097955
316,1778612625330,0.022453265,-2.2843757,0.45077375,-0.57787853,0.17715092,-0.70616025
317,1778612625340,0.17645338,-1.8194468,0.22843759,-0.27550024,-0.23151793,-0.7892379
318,1778612625350,0.17645338,-1.8194468,0.22843759,0.1966986,-0.9279043,-0.91324353
319,1778612625360,0.22160399,-1.6644703,0.2255089,0.25778514,-1.1722504,-0.9230174
320,1778612625370,0.2711476,-1.4565337,0.24308102,0.31337386,-1.3249667,-0.9468411
321,1778612625380,0.2997023,-1.2544543,0.24356914,0.38423425,-1.359786,-0.9841039
322,1778612625390,0.2591888,-0.835408,0.24674188,0.72082096,-1.3029755,-1.1716396
323,1778612625400,0.19256116,-0.6501685,0.19573392,0.87598073,-1.2699889,-1.241889
324,1778612625410,0.061502427,-0.33435842,-0.009030119,1.2113458,-0.9560041,-1.3170254
325,1778612625420,-0.070532545,-0.09518232,-0.23600335,1.2516629,-0.40378192,-1.3561208
326,1778612625430,-0.070532545,-0.09518232,-0.23600335,1.2516629,-0.40378192,-1.3561208
327,1778612625440,-0.28286234,0.08395569,-0.29067218,1.0549643,-0.11789699,-1.3072516
328,1778612625450,-0.36706212,0.15888128,-0.29018408,0.88147855,-0.10323623,-1.2076806
329,1778612625460,-0.39976576,0.23478307,-0.22819352,0.5161811,-0.40561453,-0.9138544
330,1778612625470,-0.36852646,0.2596769,-0.19036464,0.40378192,-0.57360244,-0.7831292
331,1778612625480,-0.30092257,0.26406994,-0.16132185,0.32620203,-0.70432764,-0.6065892
332,1778612625490,-0.19841854,0.2272173,-0.15180361,0.30665436,-0.68416905,-0.45814893
333,1778612625500,0.0024405725,0.136428,-0.14277348,0.3036,-0.5369505,-0.32253686
334,1778612625510,0.09176553,0.08322352,-0.122272685,0.2932153,-0.4868596,-0.32375857
335,1778612625520,0.18353106,0.02757847,-0.091033354,0.2883284,-0.4801401,-0.3585779
336,1778612625530,0.28969595,-0.021477038,-0.061258372,0.29138273,-0.48441613,-0.44837508
337,1778612625540,0.3943965,-0.088836834,0.17303659,0.40744713,-0.4978552,-0.77091193
338,1778612625550,0.4170938,-0.14399378,0.2711476,0.50335294,-0.593761,-0.87781334
339,1778612625560,0.30946457,-0.16620298,0.41465324,1.1459832,-1.0256428,-1.4208726
340,1778612625570,0.2757847,-0.20134723,0.5554743,1.5210545,-1.0225884,-1.6542231
341,1778612625580,0.2757847,-0.20134723,0.5554743,1.5210545,-1.0225884,-1.6542231
342,1778612625590,0.13545178,-0.37804466,1.1692783,2.643214,-0.8014552,-2.0409007
343,1778612625600,0.25406358,-0.5532778,1.5568411,3.6645806,-0.56321776,-2.2198844
344,1778612625610,0.6199054,-0.8070973,0.9130182,5.347514,-0.61758476,-2.9449813
345,1778612625620,0.50568664,-0.76389915,-0.29872608,5.032308,-0.9993755,-3.285844
346,1778612625630,0.111046046,-0.65846646,-1.1731832,3.8008037,-1.1887437,-3.145956
347,1778612625640,-0.2933568,-0.60086894,-1.3918585,2.2907448,-0.86070913,-2.4581218
348,1778612625650,-0.04271002,-0.72631437,-0.33118567,0.7464773,0.8197812,-1.0219775
349,1778612625660,0.60648227,-0.9696394,1.2427394,1.3487904,1.790446,-1.1716396
350,1778612625670,0.86371857,-1.2124764,2.3073173,2.3903158,2.1636846,-1.7647897
351,1778612625680,1.5375606,-1.8716751,0.48396555,3.169169,-0.061086524,-2.8533516
352,1778612625690,0.86249834,-1.9136529,0.5706058,1.8533652,-0.26328292,-3.128852
353,1778612625700,0.011226633,-1.7965053,1.1363305,1.5045611,-0.56321776,-2.0958786
354,1778612625710,-0.21843125,-1.7577002,1.3989362,1.6371188,-0.8313876,-1.0512991
355,1778612625720,0.55693865,-0.9298581,0.60038084,1.6584991,-0.7452556,-0.47219884
356,1778612625730,1.0262607,-0.6230781,0.42978483,0.84665924,0.4642576,-0.5882632
357,1778612625740,1.0262607,-0.6230781,0.42978483,0.84665924,0.4642576,-0.5882632
358,1778612625750,1.6810663,-0.6518769,0.7895252,0.6102544,-0.2968805,-1.133155
359,1778612625760,1.1324255,-0.899595,0.94254905,0.34208453,-1.3854424,-1.3628404
360,1778612625770,1.1324255,-0.899595,0.94254905,0.34208453,-1.3854424,-1.3628404
361,1778612625780,0.70190865,-1.1480453,1.0548154,-0.4709771,0.30665436,-0.8081747
362,1778612625790,0.613804,-1.2681215,1.0116173,-0.77579886,1.0586295,-0.35369098
363,1778612625800,0.810026,-1.2764194,1.0343146,-0.9963212,0.70371675,0.36041048
364,1778612625810,0.9518233,-1.2666571,1.1334019,-0.9059132,0.1020145,0.49663344
365,1778612625820,0.9518233,-1.2666571,1.1334019,-0.85154617,-0.53878313,0.63713247
366,1778612625830,0.75218445,-1.4470154,0.8502955,-1.7024814,0.9425651,1.4636332
367,1778612625840,0.73729694,-1.381608,0.67018116,-1.8674151,1.1123856,1.5796975
368,1778612625850,0.6716455,-1.3447554,0.5847612,-2.198504,0.9950995,1.7513506
369,1778612625860,0.6128277,-1.2708061,0.4837215,-2.3732114,0.59864795,1.953547
370,1778612625870,0.6128277,-1.2708061,0.4837215,-2.3732114,0.59864795,1.953547
371,1778612625880,0.5593792,-1.2637285,0.48787045,-2.430022,0.3286455,2.07572
372,1778612625890,0.5012936,-1.1258361,0.32898918,-2.5240953,-0.1386664,2.3322835
373,1778612625900,0.4881145,-1.0077124,0.2438132,-2.56991,-0.36713,2.42147
374,1778612625910,0.36291313,-0.7497439,0.18792409,-2.6542094,-0.5870415,2.485
375,1778612625920,0.2042759,-0.48689422,0.12983845,-2.6933048,-0.35002577,2.6352727
376,1778612625930,0.16449459,-0.39537275,0.08712844,-2.7122416,-0.11301007,2.7128525
377,1778612625940,0.17596528,-0.32972133,0.059305906,-2.769663,0.28405234,2.7940977
378,1778612625950,0.19109683,-0.21428227,0.08932495,-2.8533516,0.6951646,2.7953193
379,1778612625960,0.16254212,-0.1403329,0.13911264,-2.8533516,0.6951646,2.7953193
380,1778612625970,0.16254212,-0.1403329,0.13911264,-3.0140092,1.2021828,2.6438248
381,1778612625980,0.1210524,-0.043198135,0.23039004,-3.0702088,1.4074335,2.3457224
382,1778612625990,0.122760795,-0.0134231495,0.29018408,-3.0292807,1.3652838,2.2101104
383,1778612626000,0.1718163,0.007565775,0.41172457,-2.6371052,0.99082345,1.8478674
384,1778612626010,0.27139166,-0.010982576,0.44833317,-2.3780985,0.8032878,1.7024814
385,1778612626020,0.51666915,-0.054668825,0.29189247,-1.6627752,0.09896017,1.169807
386,1778612626030,0.51666915,-0.054668825,0.29189247,-1.6627752,0.09896017,1.169807
387,1778612626040,0.31361356,-0.22062775,0.12910628,-0.9334021,-0.9126327,0.8753699
388,1778612626050,0.28335047,-0.23893206,0.1444819,-0.7189884,-0.9779953,0.86498517
389,1778612626060,0.21769907,-0.23356278,0.18133454,-0.7189884,-0.9779953,0.86498517
390,1778612626070,0.21769907,-0.23356278,0.18133454,-0.42577308,-1.0146471,0.7984009
391,1778612626080,-0.16937573,-0.026602242,0.21891935,0.25900686,-1.5919148,0.59803706
392,1778612626090,-0.16937573,-0.026602242,0.21891935,0.25900686,-1.5919148,0.59803706
393,1778612626100,-0.41196862,0.04881145,0.22697324,0.68844515,-1.541213,0.91996306
394,1778612626110,-0.31385764,0.03929322,-0.06711575,0.95356065,-0.21074851,1.219287
395,1778612626120,-0.20232345,-0.01952458,-0.23551524,0.86193085,0.9034697,1.2504412
396,1778612626130,-0.071020655,-0.10543273,-0.3104408,0.7134906,1.7171422,1.2479976
397,1778612626140,0.11031388,-0.25796852,-0.18938842,0.54244834,2.6035078,1.1991285
398,1778612626150,0.52472305,-0.5645044,0.42734426,0.8576548,2.485,0.9315695
399,1778612626160,0.6816519,-0.7246059,0.5012936,1.3921618,1.7348573,0.6957755
400,1778612626170,0.66017485,-0.8407772,0.21501444,1.7507398,0.44348818,0.5522222
401,1778612626180,0.5769514,-1.2671453,0.13545178,1.8368717,-0.6249151,0.57971114
402,1778612626190,0.5771954,-1.645434,0.174745,2.0720549,-1.2767084,0.5748242
403,1778612626200,0.40562314,-2.285108,0.37804466,2.0378466,-1.1600331,0.50885075
404,1778612626210,0.17523311,-3.2405922,0.15229172,1.4996742,0.18081611,0.4166101
405,1778612626220,-0.37218732,-2.1538053,-0.00048811449,0.593761,2.0109684,0.002443461
406,1778612626230,-0.34949,-1.5024164,0.22404456,0.6420194,1.9339994,0.08979719
407,1778612626240,-0.0012202862,-1.2505494,0.18206671,0.9089675,1.1068878,0.03726278
408,1778612626250,0.25723633,-1.1805049,-0.0065895454,0.8979719,0.2706133,-0.21319197
409,1778612626260,0.44369608,-1.445551,0.016595893,0.009162978,-0.43676865,-0.6658431
410,1778612626270,0.3790209,-1.7674625,0.22062775,-0.6914995,-0.34147367,-0.88331115
411,1778612626280,0.23697957,-2.0954754,0.43881494,-1.0891727,-0.16493362,-0.94134337
412,1778612626290,0.119343996,-2.4427688,0.59964865,-1.3713925,0.119729586,-0.91813046
413,1778612626300,-0.14643435,-2.7798119,0.56474847,-1.3377949,0.75747293,-0.602924
414,1778612626310,-0.10177187,-2.732953,0.4424758,-1.2211196,0.88331115,-0.3304781
415,1778612626320,-0.10177187,-2.732953,0.4424758,-1.2211196,0.88331115,-0.3304781
416,1778612626330,0.13032657,-2.349295,0.5503491,-0.8374963,0.20708331,-0.3549127
417,1778612626340,0.29945824,-2.0090792,0.417826,-0.37201694,-0.49846604,-0.45570546
418,1778612626350,0.44223174,-1.7750283,0.36510965,-0.27366763,-0.6395759,-0.52473325
419,1778612626360,0.45760733,-1.4265146,0.23697957,0.07574729,-1.1032226,-0.79901177
420,1778612626370,0.42612398,-1.2498171,0.174745,0.49480084,-1.3329079,-1.1496484
421,1778612626380,0.42612398,-1.2498171,0.174745,0.49480084,-1.3329079,-1.1496484
422,1778612626390,0.21843125,-0.8256457,0.05759751,0.82894415,-1.1600331,-1.5204436
423,1778612626400,0.12471326,-0.65382934,-0.003172744,0.91324353,-1.0891727,-1.5992452
424,1778612626410,-0.08102701,-0.35559142,-0.102259986,1.0329732,-0.79473567,-1.7263051
425,1778612626420,-0.21013328,-0.20256752,-0.13447554,1.028697,-0.6835582,-1.6859881
426,1778612626430,-0.32972133,-0.07614586,-0.15180361,0.96761054,-0.63591075,-1.6108516
427,1778612626440,-0.41221267,0.031239327,-0.1718163,0.8313876,-0.6188065,-1.4471397
428,1778612626450,-0.4634647,0.1147069,-0.2203837,0.65057147,-0.711658,-1.2516629
429,1778612626460,-0.473227,0.294089,-0.07150877,0.03359759,-0.6450737,-0.68539083
430,1778612626470,-0.473227,0.294089,-0.07150877,-0.069027774,-0.65484756,-0.5222898
431,1778612626480,-0.20232345,0.25357547,0.094206095,0.049480084,-0.7641924,-0.115453534
432,1778612626490,0.004881145,0.15717287,0.062478654,0.20525073,-0.7257079,-0.07147124
433,1778612626500,0.13935669,0.05515694,0.012690976,0.43310347,-0.6078109,-0.10995574
434,1778612626510,0.23844394,-0.01513155,-0.05515694,0.64751714,-0.4783075,-0.20647246
435,1778612626520,0.4417436,-0.12837411,-0.09176553,0.9126327,-0.3304781,-0.50823987
436,1778612626530,0.57329047,-0.1552204,-0.10494461,1.033584,-0.48624873,-0.7849618
437,1778612626540,0.72607034,-0.2020794,-0.07834238,1.1081096,-0.7837401,-1.1618657
438,1778612626550,0.70190865,-0.18694785,0.4385709,1.3408492,-1.704314,-1.8686367
439,1778612626560,0.6040417,-0.19719826,0.9459658,1.8154916,-2.5546384,-2.1618521
440,1778612626570,0.469078,-0.25552794,1.2378583,2.3994787,-3.0469959,-2.3328943
441,1778612626580,0.3526627,-0.3521746,0.5274077,3.4709363,-2.5460863,-2.6132815
442,1778612626590,0.2979939,-0.30067852,-0.34851375,2.6297748,-0.3213151,-2.8325822
443,1778612626600,0.12861817,-0.27480847,-0.234539,2.1038198,0.44715336,-2.8472428
444,1778612626610,0.03636453,-0.3018988,0.05222825,2.0683897,0.784351,-2.7324002
445,1778612626620,0.15302388,-0.375116,0.26992732,2.3542747,0.9492846,-2.6499333
446,1778612626630,0.02831064,-0.6108753,-0.3521746,2.3726006,1.2779301,-2.3628268
447,1778612626640,0.18743597,-0.7292431,0.027090356,1.9773707,1.2596041,-2.2101104
448,1778612626650,0.6784792,-0.8717725,0.7653635,1.7214183,0.86437434,-2.2467623
449,1778612626660,1.3081468,-1.2161373,1.2681215,2.207056,0.27122417,-2.9425378
450,1778612626670,1.3579346,-1.4770344,1.1702545,2.4984388,0.16554448,-3.3841934
451,1778612626680,0.79318607,-1.7274371,1.0860548,2.42147,0.115453534,-3.287066
452,1778612626690,0.110557936,-1.8848541,1.1665937,2.0054705,-0.016493361,-2.4000895
453,1778612626700,-0.11568313,-1.9644167,1.0853225,1.6609426,-0.06352998,-1.599856
454,1778612626710,0.3441207,-0.8759214,0.38194957,0.93034774,0.22602014,-0.38362336
455,1778612626720,0.71874857,-0.46078008,0.22868164,0.5338962,0.12583824,-0.3481932
456,1778612626730,1.5734371,-0.27920148,0.78586435,0.19303341,-1.2272283,-0.8368854
457,1778612626740,1.6149268,-0.4378387,1.0223558,0.1826487,-1.7482964,-1.0684034
458,1778612626750,1.5024164,-0.70068836,1.0523748,0.027488936,-1.2620476,-1.1539245
459,1778612626760,1.5024164,-0.70068836,1.0523748,0.027488936,-1.2620476,-1.1539245
460,1778612626770,0.9476743,-1.6573927,1.5082738,-0.4801401,1.5534303,-0.45753807
461,1778612626780,0.6369894,-1.837019,1.3193735,-0.46853364,1.0360274,0.14538592
462,1778612626790,0.8756774,-1.7118175,1.2974083,-0.40439278,0.2302962,0.54000485
463,1778612626800,1.0904478,-1.4702009,1.3025336,-0.28588495,-0.7458665,0.76174897
464,1778612626810,1.0801975,-1.329868,1.2454242,-0.35979962,-1.0934488,0.91874135
465,1778612626820,1.1663495,-1.2354177,1.1453607,-0.6994407,-0.24190263,1.1795808
466,1778612626830,1.1514622,-1.193928,1.0150341,-0.97066486,0.40133846,1.2632693
467,1778612626840,0.8668914,-1.0594525,0.61160743,-1.246776,0.7489208,1.3292428
468,1778612626850,0.8668914,-1.0594525,0.61160743,-1.958434,1.1026118,1.5210545
469,1778612626860,0.70996255,-1.0279691,0.6474839,-1.958434,1.1026118,1.5210545
470,1778612626870,0.5449798,-1.0265048,0.51788944,-2.5247061,0.9578367,1.9920316
471,1778612626880,0.37926495,-1.1131451,0.30507156,-2.6725354,0.8020661,2.257758
472,1778612626890,0.37926495,-1.1131451,0.30507156,-2.6725354,0.8020661,2.257758
473,1778612626900,0.3214234,-1.1446284,0.23209843,-2.9315424,0.42943826,2.7574458
474,1778612626910,0.18938842,-1.1519502,0.14008886,-3.0714304,-0.14110987,3.1752775
475,1778612626920,0.062478654,-0.9608534,0.093473926,-3.0469959,-0.86009824,3.4275649
476,1778612626930,-0.025137896,-0.8581053,0.10030753,-3.0133982,-1.0763446,3.4739907
477,1778612626940,-0.12032023,-0.737541,0.08639627,-2.992018,-1.2669345,3.5369098
478,1778612626950,-0.15888128,-0.6125837,0.056377225,-3.0243938,-1.1527027,3.6596937
479,1778612626960,-0.1403329,-0.49519217,0.09274176,-3.1007519,-0.68783426,3.8044686
480,1778612626970,0.020744866,-0.36755022,0.20598431,-3.34632,0.09407325,3.8246274
481,1778612626980,0.108117364,-0.29116032,0.27895743,-3.503312,0.40683624,3.6957347
482,1778612626990,0.19304928,-0.22209209,0.3077562,-3.5650096,0.56199604,3.5515707
483,1778612627000,0.31483385,-0.19890666,0.302631,-3.581503,0.7067711,3.2742376
484,1778612627010,0.6560259,-0.24112856,0.46151224,-2.8735101,0.8552113,2.117259
485,1778612627020,0.73388016,-0.26211748,0.4720067,-2.3212879,0.61086524,1.7708983
486,1778612627030,0.77146494,-0.28920785,0.45199403,-1.7220291,0.029321533,1.5387696
487,1778612627040,0.77146494,-0.28920785,0.45199403,-1.7220291,0.029321533,1.5387696
488,1778612627050,0.72045696,-0.23527117,0.2757847,-0.6646214,-1.1148291,1.2449434
489,1778612627060,0.3951287,-0.05051985,0.17572121,0.2602286,-1.645671,0.906524
490,1778612627070,0.09200958,0.073461235,0.23551524,0.6646214,-1.9376645,0.729984
491,1778612627080,-0.08151512,0.1010397,0.33655494,1.2742649,-2.6358836,0.47586402
492,1778612627090,-0.23258655,0.10665302,0.22111587,1.6340646,-2.8851166,0.45081854
493,1778612627100,-0.37975308,0.088104665,-0.12422514,1.7660115,-2.5650232,0.50640726
494,1778612627110,-0.48152497,0.009274175,-0.47884035,1.3738359,-0.41538838,0.84665924
495,1778612627120,-0.38268176,-0.008542004,-0.63918597,0.9462303,1.0793989,1.0439687
496,1778612627130,-0.20134723,-0.09640261,-0.63308454,0.47403142,2.44285,1.1771374
497,1778612627140,-0.05735345,-0.21208574,-0.51788944,0.17837265,3.2516358,1.2113458
498,1778612627150,0.6347929,-0.71996886,0.8991069,0.6096435,3.2834008,0.90469146
499,1778612627160,0.90642864,-0.9288819,0.79782313,1.3457361,1.7024814,0.548557
500,1778612627170,0.86249834,-1.0265048,0.45711923,1.8478674,0.19364429,0.26939157
501,1778612627180,0.7936742,-1.1519502,0.31678632,2.1154263,-0.6224717,0.1826487
502,1778612627190,0.44271985,-1.2559186,0.18597162,2.666427,-1.4220943,-0.24984388
503,1778612627200,0.22965786,-1.2913069,0.07858644,2.5894578,-1.1899655,-0.42332962
504,1778612627210,0.12373702,-1.3484163,-0.061746486,2.3377812,-0.9260717,-0.48502702
505,1778612627220,0.18816814,-1.700591,-0.12739788,1.1319333,-0.09040806,-0.6151413
506,1778612627230,0.2562601,-1.9756435,-0.0039049159,0.6945538,0.17592919,-0.6951646
507,1778612627240,0.31190515,-2.3180556,0.2443013,0.28527406,0.47036624,-0.79229224
508,1778612627250,0.29213652,-2.779324,0.77732235,0.18875736,0.5149594,-0.79779
509,1778612627260,0.12373702,-3.222288,0.9686632,0.39095375,0.3481932,-0.6951646
510,1778612627270,-0.051740136,-2.5984776,0.24967057,0.7837401,0.31642818,-0.2919936
511,1778612627280,-0.117147475,-1.9839413,-0.027334413,0.50762904,0.44776422,-0.20280726
512,1778612627290,0.20256752,-1.8228635,0.37072295,-0.6420194,0.065973446,-0.22540927
513,1778612627300,0.24576566,-2.032997,0.37706846,-0.6420194,0.065973446,-0.22540927
514,1778612627310,0.24576566,-2.032997,0.37706846,-1.0354166,0.22785273,-0.22907446
515,1778612627320,0.20988922,-2.152341,0.34582913,-1.3891076,0.5143485,-0.18081611
516,1778612627330,0.17328064,-2.0142045,0.073461235,-1.6707164,0.81000733,-0.069027774
517,1778612627340,0.19329333,-1.8111488,0.07565775,-1.7244726,0.49357912,-0.2773328
518,1778612627350,0.18816814,-1.7518429,0.13374338,-1.6951511,0.1740966,-0.38789943
519,1778612627360,0.22062775,-1.7206036,0.18792409,-1.645671,-0.37018433,-0.52656585
520,1778612627370,0.2779812,-1.7003468,0.23405088,-1.5589281,-0.9297369,-0.64934975
521,1778612627380,0.31751847,-1.5966225,0.26699865,-1.4019357,-1.2895365,-0.70249504
522,1778612627390,0.44930938,-1.291795,0.4510178,-1.0091494,-1.350623,-0.7825184
523,1778612627400,0.3521746,-0.76170266,0.4583395,-0.3109304,-1.3219124,-0.9859365
524,1778612627410,0.3521746,-0.76170266,0.4583395,-0.3109304,-1.3219124,-0.9859365
525,1778612627420,0.17596528,-0.45345837,0.3219115,-0.10567969,-0.96944314,-1.0732902
526,1778612627430,0.17596528,-0.45345837,0.3219115,-0.10567969,-0.96944314,-1.0732902
527,1778612627440,0.06882414,-0.3275248,0.28164205,-0.03604105,-0.7086037,-1.1233811
528,1778612627450,-0.12544543,-0.10543273,0.14008886,0.029932396,-0.34880406,-1.2027937
529,1778612627460,-0.3053156,0.09811102,-0.04075756,-0.06414085,0.09590584,-1.1612549
530,1778612627470,-0.3577879,0.16034561,-0.071264714,-0.10629055,0.31337386,-1.0922271
531,1778612627480,-0.38146147,0.1986626,-0.084931925,-0.116675265,0.43188173,-1.0372492
532,1778612627490,-0.37975308,0.2518671,-0.07858644,-0.04642576,0.54733527,-0.8906415
533,1778612627500,-0.36730617,0.2677308,-0.04368625,0.025045475,0.5045747,-0.8313876
534,1778612627510,-0.36340126,0.27505252,0.017816179,0.1563815,0.35124752,-0.7244862
535,1778612627520,-0.3533949,0.25699228,0.08419975,0.31948254,0.12461651,-0.54183745
536,1778612627530,-0.10128376,0.102992155,0.08029483,0.6383542,-0.09162979,-0.17165314
537,1778612627540,-0.005857374,0.012935034,0.019036464,0.7257079,-0.13500121,-0.07269296
538,1778612627550,0.08981306,-0.046858992,-0.03636453,0.7367035,-0.1001819,-0.06719518
539,1778612627560,0.18523945,-0.11251039,-0.049543623,0.729984,-0.04520403,-0.13072516
540,1778612627570,0.30336314,-0.15936938,0.02831064,0.7690793,-0.012217305,-0.30726522
541,1778612627580,0.71996886,-0.2438132,0.49226347,1.7195857,-0.82650065,-1.3310753
542,1778612627590,0.8402891,-0.27407628,0.48738232,2.2852468,-1.2803736,-1.9101756
543,1778612627600,0.77781045,-0.31263736,0.2967736,3.196047,-1.527774,-2.8228083
544,1778612627610,0.677747,-0.32996538,0.077122085,3.4953709,-1.2913691,-3.1129694
545,1778612627620,0.55523026,-0.37023485,-0.0019524579,3.5259142,-1.0348058,-3.1764994
546,1778612627630,0.42954078,-0.58842206,0.24967057,3.3512068,-1.0488557,-3.0592132
547,1778612627640,0.032703668,-0.73436826,-0.13154685,3.1838295,-0.29993483,-2.8704557
548,1778612627650,-0.2613853,-0.8639627,-0.6047739,2.8179214,1.0366384,-2.624888
549,1778612627660,-0.25259924,-1.0045396,-0.31019676,2.302962,2.9003882,-2.3243423
550,1778612627670,0.716308,-1.4902135,2.0993805,3.3017266,1.7928895,-2.3286183
551,1778612627680,0.9620737,-1.645678,1.7215798,3.9907827,-0.6963864,-2.5051584
552,1778612627690,0.61209553,-1.6715481,0.7409578,3.2443054,-1.9761491,-2.3133466
553,1778612627700,0.08932495,-1.6544641,0.018060237,1.0916162,1.6762142,-0.8863655
554,1778612627710,-0.12764193,-1.637136,1.0765365,1.0146471,0.729984,0.0720821
555,1778612627720,0.14960709,-1.0247964,0.4322254,0.86070913,-0.13988814,0.26816985
556,1778612627730,0.14960709,-1.0247964,0.4322254,0.86070913,-0.13988814,0.26816985
557,1778612627740,1.2424954,-0.77317333,1.4806952,0.82772243,-1.3011429,0.3830125
558,1778612627750,1.2424954,-0.77317333,1.4806952,1.1032226,-2.121535,0.15210545
559,1778612627760,1.4348125,-1.3591548,1.2556745,1.2302825,-1.9113973,-1.3396275
560,1778612627770,0.95938903,-1.705228,1.381608,0.6921103,-0.6988298,-1.1472049
561,1778612627780,0.64992446,-1.704984,0.9183875,-0.17654006,1.3353515,-0.07269296
562,1778612627790,0.71118283,-1.479475,0.605262,-0.51007247,1.4019357,0.19914207
563,1778612627800,0.8341876,-1.2859375,0.69458693,-0.7703011,1.0384709,0.36163223
564,1778612627810,0.8507836,-1.1973449,0.775858,-0.8081747,0.29749137,0.49357912
565,1778612627820,0.9027678,-1.3027775,0.67579454,-0.8912524,-0.29443705,0.5815437
566,1778612627830,0.8561529,-1.3408505,0.7470592,-1.2253957,-0.30909783,0.711658
567,1778612627840,0.8236932,-1.3569584,0.7934301,-1.4654657,-0.06658431,0.8179486
568,1778612627850,0.6628595,-1.3559821,0.60892284,-2.2656991,0.6921103,1.3005321
569,1778612627860,0.6628595,-1.3559821,0.60892284,-2.2656991,0.6921103,1.3005321
570,1778612627870,0.50812715,-1.4055257,0.5105677,-2.5735753,0.4746423,1.6426166
571,1778612627880,0.46883395,-1.4428664,0.49397188,-2.7165177,0.3231477,1.8545868
572,1778612627890,0.37999713,-1.5046129,0.51740134,-2.756224,0.05131268,2.0952678
573,1778612627900,0.30433938,-1.5400012,0.48201308,-2.6682594,-0.03176499,2.1526892
574,1778612627910,0.23258655,-1.5309712,0.41172457,-2.593123,-0.07391469,2.2015584
575,1778612627920,0.19304928,-1.4589742,0.37194324,-2.5448647,-0.11056661,2.2223277
576,1778612627930,0.153512,-1.343047,0.34631723,-2.447737,-0.24129178,2.2033908
577,1778612627940,0.09542638,-1.1858741,0.31995904,-2.3231206,-0.34330627,2.1777346
578,1778612627950,0.0102504045,-0.7812273,0.27261195,-2.0690005,-0.15699236,2.3176227
579,1778612627960,0.10665302,-0.63406074,0.24478942,-1.9468275,0.15149458,2.4733934
580,1778612627970,0.23942018,-0.38707477,0.22575295,-1.8692477,0.539394,2.4917192
581,1778612627980,0.20866893,-0.24649782,0.19841854,-1.8942931,0.6072,2.4312437
582,1778612627990,0.15790504,-0.107385196,0.15058333,-1.9333885,0.698219,2.4019222
583,1778612628000,0.1513155,-0.0078098318,0.0976229,-1.9840903,0.7996226,2.3945918
584,1778612628010,0.16205402,0.15033926,0.08029483,-2.2119431,0.83016586,2.2809708
585,1778612628020,0.20671648,0.18694785,0.11299851,-2.2773056,0.6805039,2.2064452
586,1778612628030,0.34924594,0.21989559,0.19231711,-2.2883012,0.38728857,2.0506747
587,1778612628040,0.4876264,0.27090356,0.22135992,-2.0048597,-0.204029,1.6102408
588,1778612628050,0.41123646,0.17620933,0.264314,-1.287704,-0.8167268,0.93034774
589,1778612628060,0.27822527,0.040269446,0.28749946,-0.9309586,-0.87598073,0.77763146
590,1778612628070,0.18938842,-0.09859913,0.2562601,-0.48624873,-0.86132,0.70371675
591,1778612628080,0.12349297,-0.25406358,0.26529023,0.16432275,-0.93951076,0.64568454
592,1778612628090,0.076633975,-0.25137895,0.30507156,0.39461896,-0.9431759,0.6407976
593,1778612628100,0.006345488,-0.21721096,0.32508424,0.68844515,-0.9285152,0.634689
594,1778612628110,-0.0873725,-0.15400012,0.19426957,0.89552844,-0.7415904,0.67011917
595,1778612628120,0.020500809,-0.017572122,-0.34851375,0.9120218,-0.42577308,0.7049385
596,1778612628130,0.10079564,0.014887493,-0.37365165,0.204029,1.5674802,0.6383542
597,1778612628140,0.10079564,0.014887493,-0.37365165,0.204029,1.5674802,0.6383542
598,1778612628150,0.5735345,-0.13398743,0.3082443,0.23151793,1.8283197,0.008552114
599,1778612628160,0.6028214,-0.22355644,0.4888467,0.6261369,1.1655309,-0.18936823
600,1778612628170,0.6028214,-0.22355644,0.4888467,0.6261369,1.1655309,-0.18936823
601,1778612628180,0.49812084,-0.6975156,0.30067852,1.6310102,-0.91446525,-0.50762904
602,1778612628190,0.28871974,-0.96451426,0.3572998,1.9120082,-2.035403,-0.64751714
603,1778612628200,-0.01952458,-1.3454876,0.302631,1.8234328,-1.7397442,-0.5540548
604,1778612628210,-0.21989559,-1.6949776,-0.04148973,1.4624114,-0.92485,-0.30665436
605,1778612628220,-0.24161668,-2.3444138,-0.099819414,0.8155051,0.6817256,0.21074851
606,1778612628230,-0.22184804,-3.2447412,0.13203497,-0.2180789,3.9058723,1.0629056
607,1778612628240,-0.23844394,-3.18934,0.22648512,-0.5180137,4.850881,1.35551
608,1778612628250,-0.3270367,-2.6114125,0.15448824,-0.43493605,4.3682976,1.46852
609,1778612628260,-0.18401916,-1.9771078,-0.07541369,-0.11911872,2.588847,1.3750577
610,1778612628270,0.016595893,-1.6805782,-0.18597162,0.12705997,0.8038987,1.1270463
611,1778612628280,0.61746484,-1.778201,0.21403822,0.3304781,-1.4043792,0.06536258
612,1778612628290,0.61746484,-1.778201,0.21403822,0.29810223,-1.2406673,-0.28771752
613,1778612628300,0.8583493,-2.0093234,0.27334413,0.036651913,-0.84421575,-0.8228355
614,1778612628310,0.14692247,-2.5015867,0.4842096,-0.84116143,0.03604105,-1.3799446
615,1778612628320,0.14692247,-2.5015867,0.4842096,-0.84116143,0.03604105,-1.3799446
616,1778612628330,-0.417826,-2.3707721,0.1164153,-0.70066243,-0.6047566,-0.7690793
617,1778612628340,-0.41026023,-1.956363,0.35632357,-0.70249504,-0.82344633,-0.7593055
618,1778612628350,-0.3082443,-1.7381756,0.4588276,-0.6273586,-0.93279123,-0.6310238
619,1778612628360,0.024893839,-1.4023529,0.35827604,-0.3323107,-1.0262536,-0.42577308
620,1778612628370,0.15570852,-1.228096,0.21428227,-0.19058995,-1.0372492,-0.3866777
621,1778612628380,0.32801294,-0.8788501,0.017084008,-0.11484267,-0.97310835,-0.37384954
622,1778612628390,0.32801294,-0.8788501,0.017084008,-0.089186326,-0.8717047,-0.4007276
623,1778612628400,0.3653537,-0.5198419,-0.09835507,-0.06780604,-0.51923543,-0.63346726
624,1778612628410,0.3316738,-0.35754386,-0.11690342,-0.053145275,-0.30176744,-0.77274454
625,1778612628420,0.26187342,-0.22990192,-0.07468152,-0.013439035,-0.15943582,-0.87781334
626,1778612628430,0.0056133163,0.10958171,0.025626011,0.16920967,-0.05131268,-1.0769554
627,1778612628440,0.0056133163,0.10958171,0.025626011,0.16920967,-0.05131268,-1.0769554
628,1778612628450,-0.13789235,0.23161033,0.07809832,0.23762658,-0.9089675,-1.205848
629,1778612628460,-0.19475769,0.2633378,0.1010397,0.23762658,-0.9089675,-1.205848
630,1778612628470,-0.25357547,0.28798756,0.10152781,0.31520647,-1.5393804,-1.1472049
631,1778612628480,-0.2997023,0.29140437,0.099575356,0.4129449,-1.5980235,-1.0140363
632,1778612628490,-0.25333142,0.15253578,0.018792408,0.6976081,-1.0580186,-0.6053675
633,1778612628500,-0.16107778,0.008297946,-0.08395569,0.8136725,-0.5497787,-0.43004912
634,1778612628510,-0.02391761,-0.1986626,-0.18841219,0.8332202,0.30482176,-0.30848694
635,1778612628520,0.019280521,-0.2362474,-0.18816814,0.80573124,0.6805039,-0.2724459
636,1778612628530,0.10055158,-0.2489384,-0.14911897,0.79412484,0.9053023,-0.26206118
637,1778612628540,0.20061506,-0.23771177,-0.05662128,0.8051204,0.91690874,-0.29016098
638,1778612628550,0.43491003,-0.18816814,0.34631723,1.0641272,0.15027285,-0.56016344
639,1778612628560,0.57451075,-0.14130914,0.62014943,1.3158038,-0.44776422,-0.7415904
640,1778612628570,0.6142921,-0.14277348,0.7165521,2.1954496,-2.0182989,-1.41904
641,1778612628580,0.5725583,-0.18572757,0.73388016,2.1954496,-2.0182989,-1.41904
642,1778612628590,0.47591165,-0.19744232,0.6628595,3.5124753,-2.3719897,-2.4593434
643,1778612628600,0.47591165,-0.19744232,0.6628595,3.5124753,-2.3719897,-2.4593434
644,1778612628610,0.24649782,-0.17206036,0.44442827,3.6248744,-2.080607,-2.5466971
645,1778612628620,0.021232981,-0.117879644,-0.97500867,1.8875736,-0.37018433,-1.8503108
646,1778612628630,-0.036120474,-0.21843125,-0.96671075,1.2718215,1.2070698,-1.7183639
647,1778612628640,-0.40269446,-0.3829258,-0.8859278,0.8173377,3.1215215,-1.5613716
648,1778612628650,-0.46736962,-0.53985465,-0.694831,0.67011917,4.510018,-1.4135422
649,1778612628660,-0.22965786,-0.7314396,-0.14106509,0.94806284,4.756197,-1.400714
650,1778612628670,0.72631437,-1.4345685,1.7555038,2.9205468,2.2999077,-1.6310102
651,1778612628680,1.6051645,-1.9068193,2.4854789,4.733595,-0.24740042,-2.0176878
652,1778612628690,0.70337296,-2.5543032,0.81319875,2.081218,-1.7623463,-2.9626966
653,1778612628700,0.70337296,-2.5543032,0.81319875,2.081218,-1.7623463,-2.9626966
654,1778612628710,-0.37072295,-2.1442869,1.3874654,1.4330899,0.97005403,-2.3011293
655,1778612628720,-0.78708464,-1.2795922,0.85956967,1.105666,3.7256672,-1.1001683
656,1778612628730,-0.35071027,-0.98525906,0.5513253,0.59498274,1.8698585,0.16920967
657,1778612628740,0.71142685,-0.68604493,1.1805049,1.2651019,-1.2461652,0.35430184
658,1778612628750,1.4318839,-0.7236297,1.2649487,1.7379116,-1.9547688,0.018325957
659,1778612628760,1.6698397,-0.8166155,1.2725145,1.8032742,-2.2046127,-0.25961772
660,1778612628770,1.5692881,-1.3791674,1.0196712,0.55833083,-1.2241739,-0.2565634
661,1778612628780,1.4907017,-1.568556,1.2410312,-0.069027774,-0.03359759,-0.07696902
662,1778612628790,1.2334653,-1.4255384,1.129985,-0.5571091,1.1624765,-0.10323623
663,1778612628800,0.8434618,-1.1717188,0.8329674,-0.9596693,1.7104226,-0.15210545
664,1778612628810,0.60989904,-0.9886759,0.9576807,-1.4337007,1.2748758,-0.1740966
665,1778612628820,0.5701177,-1.0465174,1.0067362,-1.500285,0.79534656,-0.17287487
666,1778612628830,0.53058046,-1.1492655,1.0179628,-1.6572775,0.44043383,-0.065973446
667,1778612628840,0.5086153,-1.2422514,1.0089327,-1.8283197,0.28955013,0.069027774
668,1778612628850,0.4949481,-1.334505,0.9589009,-2.0891593,0.15332718,0.28588495
669,1778612628860,0.47469133,-1.4567777,0.70410514,-2.8038714,-0.30787608,0.8026769
670,1778612628870,0.47469133,-1.4567777,0.70410514,-2.8038714,-0.30787608,0.8026769
671,1778612628880,0.45223808,-1.4636112,0.65163285,-2.9724703,-0.62125,1.0042624
672,1778612628890,0.40733153,-1.4309076,0.54839665,-3.164893,-0.8136725,1.6022996
673,1778612628900,0.36510965,-1.4067459,0.5298483,-3.164893,-0.8136725,1.6022996
674,1778612628910,0.36510965,-1.4067459,0.5298483,-3.1471777,-0.72387534,1.704925
675,1778612628920,0.12715383,-1.3125398,0.4888467,-2.8393016,-0.04337143,1.9950858
676,1778612628930,0.07150877,-1.1917315,0.4588276,-2.7159069,0.16371189,2.0922134
677,1778612628940,0.02391761,-1.048714,0.4053791,-2.5546384,0.38056904,2.1728477
678,1778612628950,-0.031239327,-0.8468786,0.32923323,-2.425746,0.60903263,2.288912
679,1778612628960,-0.024893839,-0.54937285,0.18597162,-2.329229,1.0958922,2.5088236
680,1778612628970,0.020988923,-0.45394647,0.12520137,-2.3536637,1.3994923,2.5760188
681,1778612628980,0.08590815,-0.36340126,0.024161667,-2.4153612,1.5968018,2.574797
682,1778612628990,0.17523311,-0.17523311,-0.0741934,-2.787989,1.8716911,2.3499987
683,1778612629000,0.17523311,-0.17523311,-0.0741934,-2.787989,1.8716911,2.3499987
684,1778612629010,0.29042813,-0.10006347,0.022209208,-2.9810224,1.3927728,1.9162843
685,1778612629020,0.29042813,-0.10006347,0.022209208,-2.9810224,1.3927728,1.9162843
686,1778612629030,0.4834774,-0.05198419,0.22648512,-2.8258626,0.7690793,1.6163495
687,1778612629040,0.41733786,-0.07370529,0.469078,-1.4110987,-1.2492194,0.80878556
688,1778612629050,0.36315718,-0.099819414,0.50715095,-0.8417723,-1.4978416,0.6994407
689,1778612629060,0.32288775,-0.1398448,0.49934113,-0.0983493,-1.6236799,0.5748242
690,1778612629070,0.24478942,-0.21965154,0.37682438,0.77213365,-1.709201,0.34697145
691,1778612629080,0.20769271,-0.23161033,0.31995904,0.97433007,-1.9181169,0.2125811
692,1778612629090,0.1615659,-0.2042759,0.28408262,1.0390818,-2.1771238,0.11789699
693,1778612629100,0.111290105,-0.15888128,0.27846932,1.0384709,-2.3964243,0.06291912
694,1778612629110,-0.041245673,-0.099087246,0.3619369,1.0543534,-2.6499333,0.034208454
695,1778612629120,-0.13960074,-0.06467517,0.3922,1.146594,-2.5894578,0.09590584
696,1778612629130,-0.24600971,-0.021721095,0.30214286,1.2400564,-2.2828035,0.19547687
697,1778612629140,-0.5447358,0.0707766,-0.36291313,1.2657127,1.1618657,1.1991285
698,1778612629150,-0.4253918,-0.022697324,-0.63308454,0.86559606,2.461787,1.5894713
699,1778612629160,-0.19451363,-0.1381364,-0.77170897,0.24251351,3.38175,1.7916678
700,1778612629170,0.063943,-0.24723,-0.66896087,-0.40194935,3.7006216,1.7324139
701,1778612629180,0.31190515,-0.35193056,-0.04271002,-0.7153232,3.649309,1.5833627
702,1778612629190,0.4249037,-0.38097337,0.38146147,-0.28221974,2.2925773,1.2089024
703,1778612629200,0.58939826,-0.48201308,0.6545615,0.31642818,1.3665055,1.0629056
704,1778612629210,0.8300387,-0.68482465,0.9034999,1.2748758,0.054367006,0.7470882
705,1778612629220,1.0884954,-1.1055794,1.325719,2.3426683,-1.5326608,0.20097467
706,1778612629230,1.0118613,-1.9153614,0.29164842,2.9590313,-4.600426,-1.1215485
707,1778612629240,0.7243619,-2.306341,-0.3487578,1.9566014,-4.537507,-1.5100589
708,1778612629250,0.61819696,-2.9670038,-0.596964,0.8912524,-3.2925637,-1.4978416
709,1778612629260,0.00976229,-4.468444,1.8811932,-0.17959438,2.6597073,-0.55771995
710,1778612629270,-0.21672285,-2.0910823,0.14130914,1.3005321,4.4898596,0.18448131
711,1778612629280,-0.0873725,-1.5268221,-0.4651731,1.1282681,3.3304374,0.03848451
712,1778612629290,0.108117364,-1.7171869,-0.63918597,0.5589417,0.015271631,-0.44593164
713,1778612629300,0.108117364,-1.7171869,-0.63918597,0.5589417,0.015271631,-0.44593164
714,1778612629310,0.1986626,-2.4352033,-0.3109289,-0.3390302,-1.2064588,-0.6224717
715,1778612629320,0.27846932,-3.1800659,0.56865335,-2.0244074,-1.3219124,-0.5222898
716,1778612629330,0.40781966,-2.1254945,0.55523026,-1.395827,0.054367006,-0.43982297
717,1778612629340,0.41001618,-1.8265244,0.32410803,-1.0024298,0.03970624,-0.63713247
718,1778612629350,0.43124917,-1.7125497,0.30580372,-0.93462384,-0.18509217,-0.7672467
719,1778612629360,0.43295756,-1.6605655,0.39854547,-0.9101892,-0.5296202,-0.9560041
720,1778612629370,0.36681804,-1.5421977,0.307024,-0.86742866,-0.6291912,-1.146594
721,1778612629380,0.24356914,-1.4821596,0.32947728,-0.8356637,-0.3848451,-1.1630874
722,1778612629390,0.19548985,-1.3781912,0.2848148,-0.7305948,-0.33108896,-1.0720685
723,1778612629400,0.111290105,-1.227852,0.2936009,-0.65179324,-0.31642818,-1.0500773
724,1778612629410,0.04271002,-1.0091767,0.21135357,-0.50579643,-0.45937067,-1.0042624
725,1778612629420,-0.17547716,-0.3682824,0.09786696,-0.25045475,-0.4129449,-0.84971356
726,1778612629430,-0.20476402,-0.2111095,0.06711575,-0.22296582,-0.42577308,-0.7715228
727,1778612629440,-0.19329333,0.045638707,0.034168016,-0.23273966,-0.5015204,-0.6230826
728,1778612629450,-0.15961345,0.13398743,0.024405725,-0.24556783,-0.516792,-0.5729916
729,1778612629460,-0.10640897,0.1969542,0.04905551,-0.23579398,-0.48624873,-0.57360244
730,1778612629470,-0.08371163,0.23087814,0.070532545,-0.20708331,-0.4361578,-0.59559363
731,1778612629480,-0.06199054,0.28335047,0.10640897,-0.04153884,-0.36896262,-0.6646214
732,1778612629490,-0.05686534,0.2979939,0.107629254,0.051923547,-0.41416663,-0.68233645
733,1778612629500,-0.053936653,0.31239328,0.097134784,0.20708331,-0.47769663,-0.679893
734,1778612629510,-0.079318605,0.29140437,0.079318605,0.37568212,-0.5143485,-0.6267477
735,1778612629520,0.009518232,0.00707766,-0.047347106,0.5693264,-0.5510005,-0.4202753
736,1778612629530,0.059794027,-0.10079564,-0.09493827,0.535118,-0.5656612,-0.40378192
737,1778612629540,0.08981306,-0.17742962,-0.111046046,0.46303585,-0.57910025,-0.41416663
738,1778612629550,0.1466784,-0.1513155,0.04637088,0.4709771,-0.6805039,-0.5009095
739,1778612629560,0.1466784,-0.1513155,0.04637088,0.4709771,-0.6805039,-0.5009095
740,1778612629570,0.15619664,-0.08029483,0.20964517,0.7812967,-0.7623598,-0.6939429
741,1778612629580,0.15619664,-0.08029483,0.20964517,0.7812967,-0.7623598,-0.6939429
742,1778612629590,0.13740423,-0.059549972,0.24454537,1.0647382,-0.7495316,-0.81245077
743,1778612629600,0.0302631,-0.08639627,0.16107778,1.8533652,-0.34697145,-0.99387777
744,1778612629610,0.0302631,-0.08639627,0.16107778,1.8533652,-0.34697145,-0.99387777
745,1778612629620,0.052472305,-0.18060236,0.3917119,2.1740694,-0.47525316,-1.056186
746,1778612629630,0.33875147,-0.4339338,1.4030851,3.3151658,-1.6530013,-1.2986995
747,1778612629640,0.50812715,-0.613804,1.6149268,4.169766,-2.2284365,-1.5118915
748,1778612629650,0.4139211,-0.7321718,0.3082443,4.8166723,-2.3139575,-1.7513506
749,1778612629660,0.3533949,-0.7582859,-1.099966,3.965737,-1.0684034,-1.6890424
750,1778612629670,0.6970275,-0.8851956,-1.07434,1.0360274,0.8949176,-1.4245378
751,1778612629680,2.1413581,-1.7877192,0.6706693,0.60231316,0.52778757,-1.7867808
752,1778612629690,2.311222,-2.387368,0.69507504,2.2363777,-0.7684685,-3.7006216
753,1778612629700,1.3908823,-2.9496758,1.8538588,4.5631633,1.201572,-4.246735
754,1778612629710,0.9523114,-2.6541226,1.8238398,5.1893,1.7293595,-3.7794232
755,1778612629720,0.3128814,-2.0351934,1.1168059,4.7213774,1.7574593,-3.213762
756,1778612629730,-0.33265,-1.5297508,0.6347929,2.8955014,1.3469579,-2.3286183
757,1778612629740,-0.73339206,-1.3996683,0.5034901,1.4178182,1.5375478,-1.5986344
758,1778612629750,-0.46736962,-1.0467615,0.91497064,0.30176744,2.392759,-0.17898351
759,1778612629760,-0.093473926,-0.7473033,0.588178,0.31581733,1.4587462,0.014049901
760,1778612629770,0.27139166,-0.45589894,0.43368974,0.15332718,-0.030543262,0.025045475
761,1778612629780,0.27139166,-0.45589894,0.43368974,0.15332718,-0.030543262,0.025045475
762,1778612629790,1.1443844,-0.74291027,0.72338563,-0.26389378,-2.7904325,-0.1160644
763,1778612629800,1.5634308,-1.0001466,1.0267489,-0.3885103,-2.3585508,-0.33475417
764,1778612629810,1.7228,-1.7784452,1.488017,-1.169807,-0.7641924,-0.39278635
765,1778612629820,1.7228,-1.7784452,1.488017,-1.8649716,0.8051204,0.4343252
766,1778612629830,1.3498806,-1.7059602,1.4055257,-1.881465,0.9285152,0.49174652
767,1778612629840,0.8942258,-1.6212723,1.0182068,-2.084883,0.96761054,0.6621779
768,1778612629850,0.8942258,-1.6212723,1.0182068,-2.084883,0.96761054,0.6621779
769,1778612629860,0.43466598,-1.4819156,0.7980672,-3.0805933,0.4813618,1.3695599
770,1778612629870,0.3414361,-1.4086984,0.7050814,-3.2210925,0.36957347,1.5790867
771,1778612629880,0.3807293,-1.3676969,0.65138876,-3.2259793,0.30604348,1.7366899
772,1778612629890,0.29726174,-1.2856936,0.45589894,-3.1856623,0.2406809,2.035403
773,1778612629900,0.25089085,-1.2222387,0.379509,-3.150843,0.11789699,2.2736404
774,1778612629910,0.2489384,-1.0970373,0.29311275,-3.0989194,-0.03604105,2.4104743
775,1778612629920,0.20574026,-0.9523114,0.20085911,-3.0231721,-0.2761111,2.5137105
776,1778612629930,0.1300825,-0.71142685,0.11495096,-2.9113839,-0.376293,2.6279423
777,1778612629940,0.16473864,-0.62259,0.07492557,-2.6328292,0.30787608,2.92299
778,1778612629950,0.20281157,-0.5525456,0.05906185,-2.5411994,0.9297369,2.9852984
779,1778612629960,0.2677308,-0.49177536,0.051252022,-2.5350907,1.4636332,2.9040534
780,1778612629970,0.45297024,-0.32117933,0.1718163,-2.6090055,2.0708332,2.2375994
781,1778612629980,0.4876264,-0.24747404,0.1969542,-2.624277,1.954158,1.9327776
782,1778612629990,0.4588276,-0.15619664,0.26651052,-2.624277,1.954158,1.9327776
783,1778612630000,0.30433938,-0.030019043,0.36779428,-2.610227,1.5613716,1.5045611
784,1778612630010,0.23136626,-0.03929322,0.3773125,-1.9339994,0.004886922,0.8222246
785,1778612630020,0.20110317,-0.064919226,0.39317623,-1.4300356,-0.22602014,0.8081747
786,1778612630030,0.18231077,-0.08444381,0.4515059,-0.7996226,-0.26939157,0.82894415
787,1778612630040,0.25406358,-0.14057697,0.45394647,-0.27977628,-0.28771752,0.8222246
788,1778612630050,0.31190515,-0.15595257,0.37023485,0.83260936,-0.6817256,0.52778757
789,1778612630060,0.30116665,-0.13057062,0.311173,1.0812315,-0.9602802,0.3652974
790,1778612630070,0.23307467,-0.082247294,0.25381953,1.0812315,-0.9602802,0.3652974
791,1778612630080,-0.011226633,0.002928687,-0.060770255,1.4831808,-1.8820758,0.17287487
792,1778612630090,-0.11299851,0.040513504,-0.20769271,1.346347,-1.8325957,0.23579398
793,1778612630100,-0.22575295,0.07492557,-0.319715,1.105666,-1.3921618,0.3567453
794,1778612630110,-0.37682438,0.09005712,-0.3607166,0.8051204,-0.59620446,0.5864306
795,1778612630120,-0.49446,0.048567392,-0.38097337,0.59437186,0.1459968,0.8179486
796,1778612630130,-0.49446,0.048567392,-0.38097337,0.01282817,2.1704042,1.396438
797,1778612630140,-0.47225076,-0.011470691,-0.34607318,-0.2125811,2.7721064,1.5894713
798,1778612630150,-0.2403964,-0.20012695,-0.03807293,-0.42943826,3.3518176,1.7617353
799,1778612630160,0.122272685,-0.38341394,0.32630453,0.012217305,3.441004,1.7079792
800,1778612630170,0.38683072,-0.49201941,0.5027579,0.4990769,2.7440066,1.4349225
801,1778612630180,1.1312053,-0.77781045,1.3962514,1.0543534,1.9859229,1.10139
802,1778612630190,1.4755701,-0.92814976,1.4628792,3.4104607,-1.1820242,-0.40744713
803,1778612630200,1.4245622,-1.0479817,0.878362,4.145942,-2.9071076,-1.3182472
804,1778612630210,1.1912434,-1.1436522,0.42563587,4.211305,-3.8154643,-1.7617353
805,1778612630220,0.9886759,-1.398204,0.14130914,3.7873645,-4.4403796,-2.0604484
806,1778612630230,0.40830776,-2.340753,0.51788944,2.3658812,-3.2711835,-1.990199
807,1778612630240,0.41196862,-3.7794704,1.1373067,1.4856243,2.6120598,-0.8210029
808,1778612630250,0.41196862,-3.7794704,1.1373067,1.4856243,2.6120598,-0.8210029
809,1778612630260,0.10543273,-1.7784452,-0.06638357,0.5699373,2.597399,-0.43249258
810,1778612630270,0.0370967,-1.509006,-0.46785772,0.2773328,1.6071864,-0.22724187
811,1778612630280,-0.006833603,-1.5280424,-0.3316738,-0.0061086523,1.4086553,-0.24129178
812,1778612630290,-0.15912533,-1.7408603,0.25699228,-0.5155703,1.1624765,-0.29077184
813,1778612630300,-0.234539,-2.238249,0.95694846,-1.1160508,0.5815437,-0.19486602
814,1778612630310,-0.082491346,-2.1921222,0.6257628,-1.758681,0.33292156,0.044593163
815,1778612630320,0.039781332,-2.0654564,0.25845662,-1.881465,0.5119051,0.14782938
816,1778612630330,0.15741692,-1.9668574,0.11665936,-1.881465,0.5119051,0.14782938
817,1778612630340,0.48054874,-1.9497733,0.29140437,-2.1801782,-0.03176499,0.12034045
818,1778612630350,0.55767083,-1.8638653,0.40318257,-2.2492058,-0.4447099,0.0012217305
819,1778612630360,0.64260274,-1.7384197,0.46444094,-2.208278,-0.61208695,-0.115453534
820,1778612630370,0.6894617,-1.3379217,0.58891016,-2.0274618,-0.59986967,-0.24617869
821,1778612630380,0.6894617,-1.3379217,0.58891016,-1.7519615,-0.51007247,-0.42638394
822,1778612630390,0.5464442,-1.0926442,0.60697037,-1.255328,-0.8368854,-0.7134906
823,1778612630400,0.5464442,-1.0926442,0.60697037,-1.0024298,-1.2241739,-0.84482664
824,1778612630410,0.45394647,-0.98159826,0.6145361,-0.816116,-1.5222762,-0.9236283
825,1778612630420,0.23722363,-0.76463133,0.541319,-0.38973203,-1.8753563,-1.0641272
826,1778612630430,-0.041001618,-0.5025139,0.38341394,-0.17165314,-1.5809193,-1.1301007
827,1778612630440,-0.16473864,-0.36730617,0.30751213,-0.09040806,-1.169807,-1.1246029
828,1778612630450,-0.32923323,-0.12032023,0.12983845,0.032375857,-0.39950588,-1.0317514
829,1778612630460,-0.37926495,-0.026846299,0.061014313,0.07269296,-0.06963864,-0.95172805
830,1778612630470,-0.43613032,0.076389916,-0.007565775,0.09040806,0.09407325,-0.8417723
831,1778612630480,-0.4729829,0.16425052,-0.062478654,0.07880162,0.14049901,-0.72387534
832,1778612630490,-0.4097721,0.2716357,-0.10689708,0.051923547,0.18692477,-0.36896262
833,1778612630500,-0.24332508,0.30238694,-0.06296677,0.08246681,0.19547687,-0.27977628
834,1778612630510,-0.24332508,0.30238694,-0.06296677,0.172264,0.16187929,-0.2003638
835,1778612630520,-0.17035197,0.31434575,-0.044662476,0.2950479,0.03726278,-0.14782938
836,1778612630530,0.00073217176,0.23722363,0.028554698,0.4550946,-0.5180137,-0.06414085
837,1778612630540,0.10372432,0.1261776,0.061746486,0.50762904,-0.9138544,-0.057421334
838,1778612630550,0.20842488,-0.017328065,0.10128376,0.5448918,-1.2699889,-0.13561209
839,1778612630560,0.27602875,-0.13862452,0.09176553,0.5833763,-1.4196508,-0.25228736
840,1778612630570,0.117879644,-0.21550256,0.06882414,0.9059132,-0.93401295,-0.57360244
841,1778612630580,0.13935669,-0.19475769,0.0924977,0.9059132,-0.93401295,-0.57360244
842,1778612630590,0.1718163,-0.15033926,0.12324891,1.2993103,-0.77946407,-0.7153232
843,1778612630600,0.16766733,-0.16571487,0.23185438,1.7104226,-1.0115929,-0.88697636
844,1778612630610,0.2306341,-0.23014598,0.3943965,2.053118,-1.1673635,-1.006095
845,1778612630620,0.34168017,-0.3431445,0.6228341,2.5216517,-1.3060299,-1.1887437
846,1778612630630,0.33948365,-0.49958518,0.76292294,2.9486465,-1.4312572,-1.3652838
847,1778612630640,0.36706212,-0.5405868,0.04075756,3.4190128,-1.6566665,-1.6236799
848,1778612630650,0.43515408,-0.55742675,-0.763167,2.8166997,-1.2229522,-1.6102408
849,1778612630660,0.55571836,-0.5620638,-1.0538392,1.6890424,0.2602286,-1.6859881
850,1778612630670,0.71728426,-0.66188323,-0.44369608,1.0965031,1.6957619,-1.8967366
851,1778612630680,1.7784452,-1.4123594,1.5507398,1.3274102,2.0409007,-2.1789563
852,1778612630690,1.4758141,-2.6570513,1.3921026,4.402506,-0.7287622,-4.4489317
853,1778612630700,0.575487,-3.0582814,1.0448091,4.183205,0.039095376,-4.3750167
854,1778612630710,0.08615221,-3.044614,0.6965394,3.2473598,2.607173,-3.5576792
855,1778612630720,-0.18133454,-1.9756435,1.1133891,1.3836098,4.373184,-1.6658295
856,1778612630730,-0.37536004,-1.4309076,0.7394935,0.8173377,3.8331795,-0.32925636
857,1778612630740,-0.011714748,-0.8766537,0.74632704,0.29016098,3.3224962,0.6743952
858,1778612630750,-0.011714748,-0.8766537,0.74632704,0.34391713,0.6310238,0.9615019
859,1778612630760,0.822717,-0.6384538,1.244692,0.7367035,-1.1239921,0.571159
860,1778612630770,0.8886124,-0.77122086,1.0240642,0.6951646,-1.7941113,0.31581733
861,1778612630780,1.0279691,-1.0423685,1.0867869,0.27305678,-1.9187278,0.07941248
862,1778612630790,1.4577539,-1.5043689,1.1534146,-0.7458665,-0.7690793,-0.4196644
863,1778612630800,1.3291358,-1.5412215,0.98477095,-1.1924089,-0.22113322,-0.44898596
864,1778612630810,1.2141849,-1.5295068,1.0062481,-1.7324139,0.23396139,-0.21380283
865,1778612630820,1.0369992,-1.462635,1.1636649,-2.4000895,-0.45753807,0.19425514
866,1778612630830,0.7250941,-1.3486603,0.76292294,-2.7574458,-0.52839845,0.2846632
867,1778612630840,0.5276518,-1.2886223,0.53887844,-3.009733,-0.44837508,0.43249258
868,1778612630850,0.43442193,-1.2717823,0.40708748,-3.2754595,-0.2180789,0.77640975
869,1778612630860,0.3533949,-1.2466444,0.35412705,-3.3707545,-0.15821409,1.0042624
870,1778612630870,0.25333142,-1.2044226,0.29774985,-3.3945782,-0.1826487,1.2308935
871,1778612630880,0.0622346,-0.8886124,0.16449459,-3.335935,-0.38423425,1.6646078
872,1778612630890,0.020012695,-0.7404697,0.1637624,-3.2711835,-0.48502702,1.8808541
873,1778612630900,-0.06711575,-0.44735694,0.12568948,-3.0469959,-0.37568212,2.112372
874,1778612630910,-0.06711575,-0.44735694,0.12568948,-3.0469959,-0.37568212,2.112372
875,1778612630920,0.0,-0.2443013,0.12715383,-2.8802297,0.13439035,2.3420575
876,1778612630930,0.031239327,-0.18475133,0.14789869,-2.8631253,0.70188415,2.3774874
877,1778612630940,0.031239327,-0.18475133,0.14789869,-2.8631253,0.70188415,2.3774874
878,1778612630950,0.08102701,-0.047347106,0.35656762,-2.7684412,0.7849618,2.0011945
879,1778612630960,0.073949344,-0.019280521,0.42514774,-2.5350907,0.6200282,1.7965547
880,1778612630970,0.064919226,0.0061014313,0.4373506,-2.2840252,0.48930305,1.6603317
881,1778612630980,0.13935669,-0.063943,0.32581642,-1.395827,0.5320636,1.3756685
882,1778612630990,0.16986385,-0.13057062,0.2550398,-1.0580186,0.70188415,1.2986995
883,1778612631000,0.18987654,-0.19963883,0.21232979,-0.634689,0.96761054,1.2186762
884,1778612631010,0.21184167,-0.23331872,0.19304928,-0.26083946,1.0903945,1.1600331
885,1778612631020,0.22355644,-0.25674823,0.20159128,-0.017715093,0.97433007,1.1215485
886,1778612631030,0.24698594,-0.2403964,0.20232345,0.23762658,0.5045747,1.056186
887,1778612631040,0.20354374,-0.2208718,0.20598431,0.47708577,-1.0348058,0.9016371
888,1778612631050,0.11836776,-0.20818083,0.22868164,0.5204572,-1.613906,0.8857546
889,1778612631060,0.030507157,-0.17084008,0.24259292,0.5870415,-2.221106,0.91690874
890,1778612631070,-0.1637624,-0.07785426,0.27261195,0.8399397,-2.2608123,1.1551461
891,1778612631080,-0.2591888,-0.06687169,0.21477039,0.9462303,-1.6939293,1.3603969
892,1778612631090,-0.3734076,-0.102992155,0.07297312,0.9486737,-0.9963212,1.5803084
893,1778612631100,-0.22355644,-0.32239962,-0.4085518,0.9486737,-0.9963212,1.5803084
894,1778612631110,-0.22355644,-0.32239962,-0.4085518,0.5290093,1.8197676,2.1416936
895,1778612631120,0.2489384,-0.49299565,-0.64772797,-0.45875978,3.6749654,1.9150625
896,1778612631130,0.34290043,-0.50495446,-0.5452239,-0.8765916,3.9956696,1.5448782
897,1778612631140,0.52789587,-0.48616204,0.09664667,-0.5656612,2.9449813,0.9236283
898,1778612631150,0.72631437,-0.6823841,0.9034999,0.44593164,1.5088371,0.7415904
899,1778612631160,1.2637285,-1.3030217,1.9897987,2.4446826,-0.5027421,0.32620203
900,1778612631170,1.4267586,-1.8170061,1.5360963,3.8453968,-1.9456058,-0.21685717
901,1778612631180,0.86567104,-2.8115394,-0.528628,3.3029485,-4.5619416,-1.6615535
902,1778612631190,0.86567104,-2.8115394,-0.528628,3.3029485,-4.5619416,-1.6615535
903,1778612631200,0.27212384,-2.3902967,-0.82027644,2.2033908,-1.9260582,-1.7489072
904,1778612631210,-0.3577879,-1.3310882,0.3738957,1.6432275,4.393343,-0.05131268
905,1778612631220,0.036120474,-1.2537221,0.5935472,1.8564194,3.5961637,0.096516706
906,1778612631230,0.30092257,-1.2205303,0.29506522,1.6358972,1.9382755,-0.10751228
907,1778612631240,0.30092257,-1.2205303,0.29506522,1.6358972,1.9382755,-0.10751228
908,1778612631250,0.30336314,-1.3379217,-0.016351834,1.0812315,1.0409144,-0.26267207
909,1778612631260,-0.114462845,-2.156246,0.6545615,-0.99204516,1.0598512,-0.48930305
910,1778612631270,-0.19963883,-2.494021,0.9586569,-1.7446312,1.6206255,-0.3359759
911,1778612631280,-0.19573392,-2.4430132,0.8815348,-1.3726143,1.53205,-0.21746802
912,1778612631290,-0.09176553,-1.9029144,0.36266908,-0.6536258,0.4251622,-0.3640757
913,1778612631300,-0.0043930304,-1.820911,0.3265486,-0.5546656,0.12156218,-0.59559363
914,1778612631310,0.016839951,-1.8458049,0.39073566,-0.72143185,0.12095132,-0.68416905
915,1778612631320,0.08053889,-1.9546545,0.36510965,-0.9957104,0.15088372,-0.6273586
916,1778612631330,0.13911264,-1.8748478,0.26797485,-1.7482964,0.03848451,-0.46792278
917,1778612631340,0.19841854,-1.820911,0.24552159,-1.7531832,-0.24190263,-0.4202753
918,1778612631350,0.27871338,-1.6588572,0.307024,-1.5479325,-0.46853364,-0.4251622
919,1778612631360,0.45248213,-1.4741058,0.5051985,-1.065349,-0.8454375,-0.5742133
920,1778612631370,0.49055508,-1.3835605,0.58378494,-0.74036866,-0.9987647,-0.7476991
921,1778612631380,0.52960426,-1.2498171,0.5632841,-0.4092797,-1.0806206,-0.86437434
922,1778612631390,0.49934113,-1.1153417,0.5000733,-0.19120082,-1.069625,-0.9309586
923,1778612631400,0.4419877,-0.81783587,0.35241866,0.29993483,-0.89736104,-1.1539245
924,1778612631410,0.35022214,-0.68580085,0.26699865,0.4465425,-0.82650065,-1.2724323
925,1778612631420,0.20110317,-0.5383903,0.17303659,0.5876524,-0.7086037,-1.4135422
926,1778612631430,0.032703668,-0.41001618,0.082735404,0.6609562,-0.57726765,-1.4892895
927,1778612631440,-0.30019042,-0.1786499,-0.13569583,0.5180137,-0.25595254,-1.4489723
928,1778612631450,-0.39586085,-0.10421244,-0.17523311,0.321926,-0.16371189,-1.3652838
929,1778612631460,-0.48738232,-0.016839951,-0.19304928,0.16798794,-0.1441642,-1.2938126
930,1778612631470,-0.5623079,0.09322987,-0.17791773,0.01160644,-0.12522738,-1.1429288
931,1778612631480,-0.53717,0.21794313,-0.055645052,-0.04153884,-0.07391469,-0.7654142
932,1778612631490,-0.5047104,0.25308737,0.033923957,0.005497787,-0.17287487,-0.62980205
933,1778612631500,-0.46200037,0.28725538,0.13862452,0.11362094,-0.48197266,-0.4654793
934,1778612631510,-0.11251039,0.14252943,0.14057697,0.5045747,-1.1551461,-0.048258353
935,1778612631520,-0.11251039,0.14252943,0.14057697,0.5045747,-1.1551461,-0.048258353
936,1778612631530,-0.010494461,0.046858992,0.13032657,0.5589417,-1.069625,0.007941248
937,1778612631540,0.16937573,-0.13471961,0.014887493,0.5907067,-0.79473567,0.028710667
938,1778612631550,0.21721096,-0.13886857,0.043930303,0.6792821,-0.6444628,-0.01160644
939,1778612631560,0.31605414,-0.14423785,0.10152781,0.8002335,-0.7287622,-0.09040806
940,1778612631570,0.31605414,-0.14423785,0.10152781,0.8002335,-0.7287622,-0.09040806
941,1778612631580,0.36266908,-0.14179726,0.22258021,1.3891076,-1.2363913,-0.5235115
942,1778612631590,0.10348027,-0.13227904,0.25870067,2.0066924,-1.4844025,-0.59864795
943,1778612631600,0.014399378,-0.15497635,0.409284,2.3432791,-1.359786,-0.5510005
944,1778612631610,-0.07028849,-0.19280522,0.5776835,2.5851817,-1.2333369,-0.5381723
945,1778612631620,-0.051740136,-0.2865232,0.55718267,2.8209758,-1.0622946,-0.5235115
946,1778612631630,-0.18572757,-0.39342028,-0.5100796,1.6475036,-0.784351,-0.5296202
947,1778612631640,-0.18572757,-0.39342028,-0.5100796,1.6475036,-0.784351,-0.5296202
948,1778612631650,-0.21062139,-0.3990336,-0.70264083,0.8393288,-0.26450464,-0.33292156
949,1778612631660,0.234539,-0.5608435,0.1696198,0.52595496,0.32925636,-0.12889257
950,1778612631670,0.9391323,-0.77732235,1.1973449,1.8203784,0.09407325,-0.2742785
951,1778612631680,2.2289748,-1.7840585,0.5332651,4.207029,-1.8820758,-1.8325957
952,1778612631690,2.3388004,-2.923806,0.5649925,2.8228083,0.7031059,-2.9633074
953,1778612631700,1.4828918,-2.5328262,1.4694687,2.434298,1.7269161,-2.8533516
954,1778612631710,0.41172457,-1.9849175,1.2512815,2.1386392,2.6542094,-2.144748
955,1778612631720,-0.39805737,-1.7628256,0.43442193,1.3750577,3.2045991,-0.8790351
956,1778612631730,-0.29482117,-1.5719727,0.7580418,0.06169739,2.6022859,0.6963864
957,1778612631740,0.1010397,-1.4655638,1.3037539,0.17470746,1.641395,0.766025
958,1778612631750,0.34558508,-1.4545813,1.3491484,0.38912117,0.4251622,0.55833083
959,1778612631760,0.4322254,-1.5107143,1.0926442,0.37568212,-0.23823744,0.36285394
960,1778612631770,0.45687518,-1.6490947,0.9610975,0.21319197,-0.8570439,0.18936823
961,1778612631780,0.5232587,-2.0876658,1.001611,-0.15088372,-1.323745,0.07696902
962,1778612631790,0.4751795,-2.0344613,0.95719254,-0.43188173,-1.2498302,0.19303341
963,1778612631800,0.45223808,-1.812125,0.7946504,-0.9272934,-1.061073,0.5155703
964,1778612631810,0.55840296,-1.6178555,0.7797629,-1.3665055,-0.86376345,0.7495316
965,1778612631820,0.97696114,-1.3528093,0.90325594,-2.176513,-0.7623598,0.40683624
966,1778612631830,0.9449896,-1.3925906,0.75291663,-2.3952026,-0.68111473,0.27672195
967,1778612631840,0.77951884,-1.5565971,0.536926,-2.7910433,-0.5027421,0.24923302
968,1778612631850,0.77951884,-1.5565971,0.536926,-2.7910433,-0.5027421,0.24923302
969,1778612631860,0.82003236,-1.6512914,0.6262509,-3.340822,0.1160644,0.6218608
970,1778612631870,0.73485637,-1.6180996,0.6252747,-3.1923819,0.25961772,0.59620446
971,1778612631880,0.3482697,-1.4504322,0.5435155,-2.7220156,0.6096435,0.6010914
972,1778612631890,0.22477673,-1.3576905,0.50544256,-2.4764478,0.68539083,0.6603453
973,1778612631900,0.10006347,-1.2188219,0.45394647,-2.2748623,0.65057147,0.75686204
974,1778612631910,0.073949344,-1.0421244,0.38780698,-2.1453588,0.53878313,0.80878556
975,1778612631920,-0.050031736,-0.66066295,0.21965154,-1.9602666,0.23762658,0.99082345
976,1778612631930,-0.073461235,-0.5315567,0.1901206,-1.9242256,0.24190263,1.1184943
977,1778612631940,0.012690976,-0.32239962,0.12495731,-1.8680259,0.33475417,1.2644911
978,1778612631950,0.012690976,-0.32239962,0.12495731,-1.8368717,0.5363397,1.3219124
979,1778612631960,0.10884953,-0.041001618,0.15253578,-1.8295414,1.0708468,1.1472049
980,1778612631970,0.12642166,0.0319715,0.22331238,-1.7385225,1.0231993,1.1068878
981,1778612631980,0.12642166,0.0319715,0.22331238,-1.7385225,1.0231993,1.1068878
982,1778612631990,0.16425052,0.16254212,0.27602875,-1.1111639,0.6426302,0.9798279
983,1778612632000,0.2169669,0.23161033,0.17962612,-0.3933972,0.44409904,0.8570439
984,1778612632010,0.21013328,0.2294138,0.14204131,-0.014660766,0.5180137,0.7788532
985,1778612632020,0.16034561,0.18255483,0.10030753,0.28771752,0.6114761,0.7415904
986,1778612632030,0.16473864,0.021477038,0.029530926,0.44776422,0.59498274,0.6963864
987,1778612632040,0.07443746,-0.011470691,-0.020988923,0.6640105,0.2968805,0.44898596
988,1778612632050,-0.034900185,-0.029286869,-0.07370529,0.6536258,0.06963864,0.40133846
989,1778612632060,-0.13105874,-0.039537273,-0.09396204,0.5876524,-0.16493362,0.39645153
990,1778612632070,-0.4024504,-0.091033354,-0.057841565,0.3304781,0.26206118,0.7367035
991,1778612632080,-0.4024504,-0.091033354,-0.057841565,0.3304781,0.26206118,0.7367035
992,1778612632090,-0.44418418,-0.15936938,-0.06467517,0.103847094,1.0488557,1.2363913
993,1778612632100,-0.28627914,-0.24015234,-0.04490653,-0.12583824,1.5839735,1.5118915
994,1778612632110,-0.22502078,-0.24967057,0.00707766,-0.19058995,1.6963727,1.5607607
995,1778612632120,-0.18084641,-0.25601605,0.0707766,-0.18570304,1.713477,1.59558
996,1778612632130,-0.10640897,-0.27407628,0.21501444,-0.081855945,1.6481144,1.6377298
997,1778612632140,-0.07980672,-0.30458343,0.42685616,0.18387043,1.4153748,1.6621643
998,1778612632150,0.119343996,-0.39366436,0.54034275,0.8961393,0.54183745,1.6352862
999,1778612632160,0.2767609,-0.47542354,0.32581642,1.0684034,0.13805555,1.4520267
1000,1778612632170,0.46590528,-0.6269831,0.20476402,1.0574077,-0.035430185,1.1588113
