id,timestamp,acc_x,acc_y,acc_z,gyro_x,gyro_y,gyro_z
0,1778612566170,0.79709095,-2.3519797,0.07199689,-1.926669,2.7904325,7.531358
1,1778612566180,0.79709095,-2.3519797,0.07199689,-1.926669,2.7904325,7.531358
2,1778612566190,1.1951483,-1.9636846,0.68604493,-3.3927455,3.92542,7.309003
3,1778612566200,1.381608,-1.8018748,0.9696394,-4.065308,4.365243,7.2387533
4,1778612566210,1.8179823,-1.4772785,1.445795,-4.9510627,4.8850894,7.1092496
5,1778612566220,1.9915072,-1.3503687,1.5731931,-5.2852063,5.0439143,6.9284334
6,1778612566230,2.0388544,-1.2224828,1.6588572,-5.5826974,5.1605897,6.727459
7,1778612566240,2.0398304,-1.1590278,1.7081566,-5.8038306,5.185635,6.57291
8,1778612566250,2.0495927,-1.0474937,1.9322013,-6.0903263,5.10439,6.3481116
9,1778612566260,1.9414753,-1.0247964,2.0408068,-6.546643,4.742147,5.674938
10,1778612566270,1.9414753,-1.0247964,2.0408068,-6.546643,4.742147,5.674938
11,1778612566280,1.6681312,-1.027481,2.2365406,-6.3536096,4.359134,5.6505036
12,1778612566290,1.5277983,-1.0565238,2.3253775,-5.8087177,3.803247,6.0048056
13,1778612566300,1.5077857,-1.0555476,2.3236692,-5.4104333,3.4031303,6.29741
14,1778612566310,1.5378047,-1.0409042,2.3009717,-5.1111097,3.0842586,6.531371
15,1778612566320,1.8196908,-0.94669807,2.2860842,-4.7262645,2.7073548,6.794043
16,1778612566330,1.8196908,-0.94669807,2.2860842,-4.7262645,2.7073548,6.794043
17,1778612566340,2.0659447,-0.73729694,2.1640556,-3.6609154,2.2418754,6.6737027
18,1778612566350,2.0534978,-0.6557818,2.0139604,-3.4507778,2.171015,6.367659
19,1778612566360,2.0146925,-0.6721336,1.7515988,-3.6047158,2.1178699,5.792835
20,1778612566370,1.9961443,-0.70312893,1.7003468,-3.6047158,2.1178699,5.792835
21,1778612566380,1.9961443,-0.70312893,1.7003468,-4.2827764,2.7262917,5.2418346
22,1778612566390,1.8992535,-0.63406074,1.7098651,-4.6431866,3.0549371,5.0604076
23,1778612566400,1.8992535,-0.63406074,1.7098651,-5.6144624,3.8411207,4.566218
24,1778612566410,1.8775325,-0.55962324,1.7938206,-6.1410284,3.8368447,4.0610323
25,1778612566420,1.7196274,-0.28627914,2.2694883,-5.9773164,3.4794884,3.8692205
26,1778612566430,1.5492754,-0.008542004,2.553571,-4.918076,2.7867672,3.8368447
27,1778612566440,1.4633673,0.10982577,2.5120814,-4.205807,2.5827382,3.9816196
28,1778612566450,1.5553769,0.17425688,2.3851714,-3.616933,2.4550674,4.1367793
29,1778612566460,1.7747843,0.17132819,2.2145755,-3.314555,2.4581218,4.180151
30,1778612566470,2.0637481,0.1632743,2.0473962,-3.131906,2.579684,4.1300597
31,1778612566480,2.7724903,0.09640261,1.688876,-3.1874948,2.797152,3.9321396
32,1778612566490,2.8693812,0.09054524,1.509006,-3.866777,3.317609,3.218649
33,1778612566500,2.7673652,0.117635585,1.4572659,-4.4929137,3.5326338,2.8728993
34,1778612566510,2.4178753,0.17572121,1.8731394,-5.222898,3.2534683,2.7159069
35,1778612566520,2.579929,0.22160399,2.404696,-4.655404,1.9303342,3.037833
36,1778612566530,2.9291751,0.21086545,2.527945,-4.1532726,1.4288138,3.1893275
37,1778612566540,2.9291751,0.21086545,2.527945,-4.1532726,1.4288138,3.1893275
38,1778612566550,3.792894,0.26553428,2.246059,-2.9626966,0.73914695,3.091589
39,1778612566560,4.0018067,0.5950116,1.9307368,-3.0140092,0.73975784,2.806315
40,1778612566570,4.0616007,0.7643873,2.0430033,-3.2797356,0.8228355,2.7079656
41,1778612566580,4.3622794,1.2854495,2.5938404,-3.3689218,0.8582657,2.6554313
42,1778612566590,4.50188,1.5282865,2.7356377,-2.7140744,1.0311406,2.293188
43,1778612566600,4.583395,1.7464737,2.7344174,-2.1105394,1.1563679,1.8497
44,1778612566610,4.5504475,1.8931521,2.6411877,-1.6487253,1.2901474,1.4159856
45,1778612566620,4.2517214,2.033729,2.2951143,-0.42943826,1.4941764,0.06352998
46,1778612566630,4.0288973,1.9702741,2.1128037,-0.014049901,1.3732251,-0.40744713
47,1778612566640,3.7496955,1.8426323,1.9529461,-0.014049901,1.3732251,-0.40744713
48,1778612566650,3.5346813,1.7208476,1.8609366,0.9651671,0.66767573,-1.2840388
49,1778612566660,3.073901,1.4343245,1.5160836,2.094046,-0.17165314,-1.9920316
50,1778612566670,3.073901,1.4343245,1.5160836,2.094046,-0.17165314,-1.9920316
51,1778612566680,2.902329,1.377215,1.3713577,2.320677,-0.32986724,-2.28036
52,1778612566690,2.7866457,1.3076587,1.3059504,2.4324653,-0.43554693,-2.552195
53,1778612566700,2.3302586,0.8771418,1.4333482,2.728735,-0.7672467,-3.808745
54,1778612566710,2.1852884,0.69263446,1.5324354,2.8832839,-0.86193085,-4.1502185
55,1778612566720,2.0085912,0.47127452,1.6359158,3.1123583,-0.9560041,-4.3896775
56,1778612566730,1.7176749,0.10982577,1.7210917,3.626096,-1.0922271,-4.5448375
57,1778612566740,1.5746574,-0.009274175,1.71377,3.940081,-1.1392636,-4.519792
58,1778612566750,1.445063,-0.09493827,1.6652026,4.1538835,-1.1777482,-4.459927
59,1778612566760,1.3518331,-0.15546446,1.5914973,4.3811255,-1.2321151,-4.3579125
60,1778612566770,1.3061944,-0.21086545,1.4889933,4.6230283,-1.4049901,-4.2314634
61,1778612566780,1.38112,-0.24186075,1.5209647,4.6633453,-1.536937,-4.26445
62,1778612566790,1.4716653,-0.28432667,1.5939379,4.808731,-2.0494528,-4.59615
63,1778612566800,1.705228,-0.8095379,1.9080396,5.022534,-2.0482311,-5.001154
64,1778612566810,1.6054085,-0.89813066,1.892664,4.946176,-1.649947,-4.882646
65,1778612566820,1.6778935,-0.9005712,1.9126767,4.8704286,-1.53205,-4.811175
66,1778612566830,1.7823502,-0.9034999,1.9160933,4.891809,-1.5033394,-4.8887544
67,1778612566840,1.9046228,-0.91570276,1.8958366,4.904637,-1.5326608,-5.064684
68,1778612566850,1.9046228,-0.91570276,1.8958366,4.904637,-1.5326608,-5.064684
69,1778612566860,1.9915072,-1.040416,1.9160933,4.8032336,-1.9419407,-5.8362064
70,1778612566870,1.9907749,-1.0997219,1.952702,4.7256536,-2.0818288,-5.9950314
71,1778612566880,1.9858938,-1.1531705,2.0305562,4.6437974,-2.1966715,-6.1434717
72,1778612566890,1.8999857,-1.2227268,2.1115835,4.5937066,-2.1496348,-6.1996713
73,1778612566900,1.8863186,-1.2271198,2.152341,4.6108108,-2.0360138,-6.1294217
74,1778612566910,1.8824136,-1.1990532,2.1494124,4.710382,-1.885741,-6.0359597
75,1778612566920,1.837019,-1.1024066,1.7642899,5.136766,-1.6420058,-5.8227677
76,1778612566930,1.7511108,-1.0628693,1.6232247,5.248554,-1.8142698,-5.808107
77,1778612566940,1.6141946,-1.0584763,1.5656272,5.376836,-2.079996,-5.797111
78,1778612566950,1.3676969,-1.1312053,1.5214529,5.6364536,-2.5607471,-5.76779
79,1778612566960,0.7106947,-1.3611072,1.3857571,5.998086,-3.036611,-5.689599
80,1778612566970,0.26529023,-1.5956463,1.2046666,6.739065,-3.5527923,-5.416542
81,1778612566980,-0.0065895454,-1.8279889,0.89154106,7.0249505,-3.6242635,-5.2174
82,1778612566990,-0.24796216,-2.0454438,0.34704942,6.9198813,-3.4917057,-5.0292535
83,1778612567000,-0.4612682,-2.1987116,-0.11836776,6.5264845,-3.2107077,-4.8875327
84,1778612567010,-1.4533609,-2.7925029,-1.2224828,3.6114354,-0.62796944,-4.274835
85,1778612567020,-1.4533609,-2.7925029,-1.2224828,3.6114354,-0.62796944,-4.274835
86,1778612567030,-1.922195,-3.0172799,-1.3515891,2.4147503,0.35918877,-4.0402627
87,1778612567040,-2.8149564,-3.5107634,-1.5368285,1.0323622,1.5344934,-3.4110715
88,1778612567050,-3.7370045,-3.8111982,-2.0517893,-0.08246681,1.9352211,-1.4935656
89,1778612567060,-3.9569001,-3.8009474,-2.1835802,-0.7263188,1.5839735,0.10140363
90,1778612567070,-3.8111982,-3.6864848,-2.0405626,-1.1276573,1.0531317,1.4691309
91,1778612567080,-2.6575394,-3.2376635,-1.3303561,-1.5234979,0.15027285,3.2192597
92,1778612567090,-1.9544104,-2.950408,-0.92229235,-1.8319849,-1.0677924,5.553987
93,1778612567100,-1.1668377,-2.6887786,-0.50495446,-1.9431623,-1.3298537,6.3847637
94,1778612567110,0.21379416,-2.1645436,0.2967736,-2.2681427,-0.79351395,6.9589767
95,1778612567120,0.7058135,-1.8897352,0.6760386,-2.4587326,0.35735616,6.9363747
96,1778612567130,0.9178993,-1.6725243,0.87909424,-2.7690523,1.6957619,6.84841
97,1778612567140,1.0218678,-1.5153515,1.0638455,-3.0653217,2.7036896,6.8007627
98,1778612567150,1.5153515,-1.1905112,1.5229172,-4.061643,4.6682324,6.496552
99,1778612567160,1.5153515,-1.1905112,1.5229172,-4.061643,4.6682324,6.496552
100,1778612567170,1.6966859,-1.0823939,1.5927176,-4.161214,4.710993,6.356053
101,1778612567180,1.8782645,-0.9613415,1.5107143,-4.24307,4.2174134,5.9278364
102,1778612567190,1.8921759,-0.9869675,1.4355447,-4.4892488,3.559512,5.64073
103,1778612567200,1.8831457,-1.0243083,1.4357888,-4.732373,3.331659,5.5356607
104,1778612567210,1.8726513,-1.0667742,1.4660518,-4.732373,3.331659,5.5356607
105,1778612567220,1.8726513,-1.0667742,1.4660518,-4.9571714,3.2693508,5.4874024
106,1778612567230,1.8631331,-1.1748916,1.6503152,-6.029851,3.3927455,5.353012
107,1778612567240,1.8475134,-1.2202863,1.7999222,-6.2650337,3.3414328,5.3236904
108,1778612567250,1.8431203,-1.2359059,1.944404,-6.4702845,3.2375858,5.309641
109,1778612567260,1.820667,-1.1346222,2.1843123,-6.464176,3.068987,5.3695054
110,1778612567270,1.8128573,-1.053107,2.2550888,-6.237545,2.8576276,5.484959
111,1778612567280,1.8594722,-0.94620997,2.2875485,-5.8581977,2.557082,5.6401186
112,1778612567290,1.9546545,-0.86323047,2.2438624,-5.522833,2.316401,5.7549615
113,1778612567300,2.050325,-0.4249037,1.9734468,-4.586376,1.8252654,5.8789673
114,1778612567310,2.050325,-0.4249037,1.9734468,-4.252233,1.7415768,5.83865
115,1778612567320,1.8577638,-0.12544543,1.7371994,-3.648698,1.6572775,5.5533757
116,1778612567330,1.7411044,0.1466784,1.5888127,-3.4428365,1.690875,5.2797084
117,1778612567340,1.6625179,0.26626647,1.5595258,-3.0964758,1.7550159,4.656015
118,1778612567350,1.6271297,0.3943965,1.5126668,-2.842356,1.8576412,4.296215
119,1778612567360,1.6271297,0.3943965,1.5126668,-2.842356,1.8576412,4.296215
120,1778612567370,1.7677068,0.48518583,1.2112561,-2.5350907,2.2119431,3.50881
121,1778612567380,1.8770443,0.36730617,0.83833665,-2.8087585,2.257758,2.4452937
122,1778612567390,1.8804612,0.24674188,0.73510045,-3.196047,2.1569653,1.8411479
123,1778612567400,1.7799095,0.1403329,0.7236297,-3.6700783,2.1355848,1.3756685
124,1778612567410,1.5502517,0.09811102,0.8217408,-4.1227293,2.3261747,1.2156218
125,1778612567420,1.3586667,0.14252943,1.0067362,-4.330424,2.6010642,1.2968669
126,1778612567430,1.2112561,0.3385074,1.343047,-4.2723913,3.0445523,1.853976
127,1778612567440,1.3218141,0.49958518,1.4699568,-4.0634756,2.919936,2.0427334
128,1778612567450,2.0408068,0.73729694,1.4252943,-3.3927455,1.922393,2.0500638
129,1778612567460,2.332699,0.8454143,1.3481722,-3.2754595,1.5497651,1.8344283
130,1778612567470,2.4920685,1.04066,1.227852,-3.5277467,0.77579886,1.1551461
131,1778612567480,2.430566,1.3657444,1.9463564,-3.5277467,0.77579886,1.1551461
132,1778612567490,2.4969497,1.4296874,2.4671748,-3.4752123,-0.23884831,1.0720685
133,1778612567500,2.6116564,1.4702009,2.980427,-2.7348437,-0.2180789,0.9621128
134,1778612567510,2.706595,1.470689,3.2320502,-2.0231857,-0.07086037,0.84849185
135,1778612567520,2.856202,1.4174845,3.2381516,-0.17715092,0.4373795,0.7275405
136,1778612567530,2.9689565,1.3972276,3.0912292,0.41172317,0.552833,0.7367035
137,1778612567540,3.1268616,1.3989362,2.903793,1.0800097,0.5296202,0.68783426
138,1778612567550,3.2937965,1.385513,2.7300243,1.6627752,0.3921755,0.49480084
139,1778612567560,3.4224148,1.3379217,2.5084205,2.0231857,0.26389378,0.2443461
140,1778612567570,3.2998981,1.1631769,1.9312251,2.3823745,-0.15515977,-0.6462954
141,1778612567580,3.2998981,1.1631769,1.9312251,2.2266037,-0.376293,-1.0910053
142,1778612567590,3.2593846,1.099966,2.0622838,1.858863,-0.462425,-1.8014416
143,1778612567600,3.2593846,1.099966,2.0622838,1.858863,-0.462425,-1.8014416
144,1778612567610,3.201787,1.0892274,2.430566,1.8203784,-0.15088372,-2.3793201
145,1778612567620,3.0102022,1.0455412,2.7595553,2.5051584,0.1160644,-2.8906143
146,1778612567630,3.0102022,1.0455412,2.7595553,3.5717292,-0.01038471,-3.0286698
147,1778612567640,2.732465,0.8617661,2.7998247,3.5717292,-0.01038471,-3.0286698
148,1778612567650,2.5372193,0.6545615,2.5220876,4.583933,-0.36713,-2.892447
149,1778612567660,2.4749846,0.5845171,2.3246453,4.9718323,-0.5833763,-2.7672195
150,1778612567670,2.4051843,0.5205741,2.1125596,5.4330354,-1.1453724,-2.6303856
151,1778612567680,2.3737006,0.48616204,2.0825405,5.566204,-1.4025466,-2.656653
152,1778612567690,2.3297706,0.4566311,2.0788796,5.566204,-1.4025466,-2.656653
153,1778612567700,2.306585,0.41074833,2.1081665,5.920506,-2.0793853,-2.9077187
154,1778612567710,2.3222046,0.2596769,2.140626,6.17768,-2.4831672,-3.3347135
155,1778612567720,2.3309908,0.051740136,2.0942552,6.220441,-2.5778513,-3.658472
156,1778612567730,2.3309908,0.051740136,2.0942552,6.170961,-2.565634,-3.9241984
157,1778612567740,2.3134186,-0.07590181,2.0744865,5.998697,-2.4569001,-4.287052
158,1778612567750,2.2628987,-0.4024504,2.196027,5.40799,-1.6346754,-5.180137
159,1778612567760,2.2628987,-0.4024504,2.196027,5.40799,-1.6346754,-5.180137
160,1778612567770,2.2741253,-0.6718896,2.3451462,5.191744,-1.428203,-5.752518
161,1778612567780,2.2741253,-0.6718896,2.3451462,5.191744,-1.428203,-5.752518
162,1778612567790,2.2577736,-1.061405,2.6782842,5.303532,-1.6829338,-6.327342
163,1778612567800,2.209206,-1.1541467,2.7505252,5.4153204,-1.6713274,-6.359718
164,1778612567810,2.140138,-1.240787,2.78811,5.5991907,-1.5760323,-6.310238
165,1778612567820,2.0234787,-1.309123,2.7524776,5.9076777,-1.2345587,-6.0408463
166,1778612567830,1.9946798,-1.3069266,2.699029,6.0579505,-1.006095,-5.8227677
167,1778612567840,1.9993169,-1.291551,2.6226392,6.1868434,-0.8436049,-5.615684
168,1778612567850,2.016645,-1.2515256,2.5128136,6.269921,-0.8472701,-5.480072
169,1778612567860,2.0412948,-1.1961246,2.3029244,6.25526,-1.359786,-5.429981
170,1778612567870,2.0327528,-1.1597601,2.2031047,6.127589,-1.7953329,-5.43609
171,1778612567880,2.0586228,-1.1204668,2.1718655,5.974873,-2.1056526,-5.422651
172,1778612567890,2.1274471,-1.0982577,2.1657639,5.744577,-2.4788911,-5.426316
173,1778612567900,2.2023726,-1.057256,2.2231174,5.053077,-3.0989194,-5.607132
174,1778612567910,2.2023726,-1.057256,2.2231174,5.053077,-3.0989194,-5.607132
175,1778612567920,2.2306833,-1.0096649,2.191146,4.7036624,-3.3396003,-5.857587
176,1778612567930,2.2306833,-1.0096649,2.191146,4.6138654,-3.3915238,-5.9443297
177,1778612567940,2.2155519,-0.97476465,2.1909018,4.6138654,-3.3915238,-5.9443297
178,1778612567950,2.1237862,-0.9679311,2.1860206,4.923574,-3.5399642,-5.915619
179,1778612567960,1.8514184,-1.1988091,1.850442,5.6822686,-3.3530393,-5.7030377
180,1778612567970,1.3137602,-1.7701472,1.155123,6.3261204,-3.299894,-5.785505
181,1778612567980,0.8061211,-2.1884613,0.85444444,6.352388,-3.4342844,-5.919895
182,1778612567990,0.07272906,-2.8188612,0.24820623,6.11415,-3.3481524,-5.8557544
183,1778612568000,-0.27505252,-3.1703036,-0.1461903,5.7494636,-3.0573804,-5.6657753
184,1778612568010,-0.27505252,-3.1703036,-0.1461903,4.402506,-1.967597,-4.967556
185,1778612568020,-0.43637437,-3.5917904,-0.62063754,3.6725218,-1.5668694,-4.8349986
186,1778612568030,-0.70337296,-3.934935,-0.82393724,2.1416936,-0.4868596,-5.4006596
187,1778612568040,-1.7384197,-4.876752,-1.2212625,0.44409904,0.6236934,-6.1935625
188,1778612568050,-2.506956,-5.2972627,-1.4028411,-0.45570546,1.2156218,-6.168517
189,1778612568060,-2.506956,-5.2972627,-1.4028411,-0.45570546,1.2156218,-6.168517
190,1778612568070,-3.6676924,-5.4651737,-1.5634308,-1.7947221,1.9107865,-4.4751987
191,1778612568080,-3.8251092,-5.308245,-1.4814276,-2.2809708,1.7788396,-1.0219775
192,1778612568090,-3.5800757,-5.0712657,-1.4118712,-2.2382102,1.3909402,0.81000733
193,1778612568100,-3.0202084,-4.753015,-1.2866699,-2.2382102,1.0305296,2.107485
194,1778612568110,-2.4015234,-4.437449,-1.1355984,-2.3267858,0.6096435,3.5931094
195,1778612568120,-1.6566606,-4.063309,-0.9369358,-2.4801128,0.2657264,4.65968
196,1778612568130,-1.0079564,-3.7482312,-0.7580418,-2.638327,0.12034045,5.1526484
197,1778612568140,0.1181237,-3.125641,-0.473227,-3.566842,0.9315695,5.465411
198,1778612568150,0.44833317,-2.8759706,-0.33411437,-4.105625,1.6267341,5.4232616
199,1778612568160,0.9715919,-2.2628987,0.4407674,-6.0267963,4.0201044,5.395773
200,1778612568170,1.1194906,-2.0610635,0.7682922,-6.4354653,4.4855833,5.3285775
201,1778612568180,1.2124764,-1.900962,0.99917036,-6.676146,4.586987,5.1929655
202,1778612568190,1.2861817,-1.7157224,1.3105874,-6.9333205,3.9993348,4.9473977
203,1778612568200,1.2861817,-1.7157224,1.3105874,-6.9333205,3.9993348,4.9473977
204,1778612568210,1.3442672,-1.6996148,1.5287746,-7.1031413,2.4495697,4.936402
205,1778612568220,1.3496367,-1.7123058,1.6449459,-7.1373496,1.7941113,5.0231447
206,1778612568230,1.4509203,-1.756236,2.025187,-7.00357,0.26267207,5.516724
207,1778612568240,1.5810028,-1.7642899,2.1716213,-6.872234,-0.07269296,5.7286944
208,1778612568250,1.769415,-1.7491581,2.3373363,-6.675535,-0.22296582,6.016412
209,1778612568260,2.2135992,-1.5534244,2.665105,-6.0811634,0.23151793,6.6132274
210,1778612568270,2.2541127,-1.4484798,2.6870704,-5.8820214,0.25411993,6.7109656
211,1778612568280,2.365403,-1.3462198,2.689999,-5.7012053,0.23701571,6.7066894
212,1778612568290,2.365403,-1.3462198,2.689999,-5.7012053,0.23701571,6.7066894
213,1778612568300,2.5196471,-1.0509106,2.4349592,-5.5246654,0.31398472,6.2564816
214,1778612568310,2.506712,-0.993313,2.3375802,-5.616295,0.36041048,6.02924
215,1778612568320,2.506712,-0.993313,2.3375802,-5.616295,0.36041048,6.02924
216,1778612568330,2.4249527,-0.9452337,2.2567973,-6.0451226,0.5186246,5.3023105
217,1778612568340,2.3629622,-0.9757409,2.2924297,-6.405533,0.8002335,4.574159
218,1778612568350,2.2868164,-0.99136055,2.2580175,-6.6339965,1.001819,4.1593814
219,1778612568360,2.15771,-0.99868226,2.238493,-6.8936143,1.1374311,3.8026361
220,1778612568370,1.9192662,-0.98379475,2.2655835,-7.0750413,1.2082914,3.581503
221,1778612568380,1.7784452,-0.9366917,2.2977989,-7.3682566,1.3952162,3.1282408
222,1778612568390,1.6620299,-0.87079626,2.3161032,-7.371922,1.4196508,2.9944615
223,1778612568400,1.3955194,-0.7236297,2.311222,-7.1379604,1.2351695,2.6584857
224,1778612568410,1.2363939,-0.6638357,2.336848,-6.78488,0.89858276,2.6340508
225,1778612568420,1.108264,-0.5710939,2.3893204,-6.483113,0.70432764,2.8759537
226,1778612568430,1.0750722,-0.44516042,2.4247088,-6.1892867,0.5540548,3.12763
227,1778612568440,1.138527,-0.26236153,2.4581444,-5.7097573,0.3005457,3.4800992
228,1778612568450,1.7608731,0.06369894,2.5140338,-4.524068,-0.816116,3.9419134
229,1778612568460,2.1179287,0.16571487,2.4549718,-4.175264,-1.2235631,3.9309177
230,1778612568470,2.3981063,0.24991462,2.349051,-3.966348,-1.4886786,3.794695
231,1778612568480,2.5728514,0.36291313,2.2604582,-4.099517,-1.4208726,3.5906658
232,1778612568490,2.5911558,0.49958518,2.2973108,-4.3664646,-1.1753048,3.4550538
233,1778612568500,2.5884712,1.0138137,2.915264,-4.845383,-0.39767328,3.3108897
234,1778612568510,2.7209942,1.3835605,3.2750041,-4.6566257,-0.22602014,3.2394185
235,1778612568520,3.3736033,2.0732663,3.0206964,-2.4801128,0.3811799,1.9321668
236,1778612568530,3.3736033,2.0732663,3.0206964,-2.4801128,0.3811799,1.9321668
237,1778612568540,3.2152102,2.169669,2.4064045,-2.3811526,0.29260445,1.2076806
238,1778612568550,3.2152102,2.169669,2.4064045,-2.4630086,0.08246681,0.9914343
239,1778612568560,3.1439455,2.387856,2.8715775,-2.0635028,-0.24801129,0.8582657
240,1778612568570,3.270855,2.49036,2.9838438,-1.6096299,-0.4184427,0.8594874
241,1778612568580,3.4509695,2.5591843,3.07024,-1.1863003,-0.46792278,0.8332202
242,1778612568590,3.6579301,2.6243474,3.0673115,-0.52412236,-0.37873647,0.64568454
243,1778612568600,3.865867,2.6284966,2.8239865,0.48563787,-0.115453534,-0.17165314
244,1778612568610,3.888564,2.468395,2.647533,0.8393288,-0.015271631,-0.95478237
245,1778612568620,3.7799585,2.2563093,2.5174503,0.99204516,0.07452556,-1.8594738
246,1778612568630,3.614732,1.9297606,2.403964,0.9914343,0.28405234,-2.719572
247,1778612568640,3.1400404,1.3877095,2.2258022,0.7483099,0.9297369,-3.758043
248,1778612568650,2.5699227,1.0963051,2.2216532,0.64751714,1.5552629,-3.9920044
249,1778612568660,2.5699227,1.0963051,2.2216532,0.64751714,1.5552629,-3.9920044
250,1778612568670,2.156734,1.0621371,2.396154,0.88331115,1.6389514,-3.8655553
251,1778612568680,1.8836339,0.9752528,2.4825501,2.5314255,0.6365216,-3.281568
252,1778612568690,1.7606289,0.9171671,2.489872,3.2265902,0.13622294,-3.019507
253,1778612568700,1.5727049,0.7043492,2.553083,3.7403278,-0.2406809,-2.7769935
254,1778612568710,1.5626985,0.5605995,2.57456,5.1526484,-1.3310753,-2.1209242
255,1778612568720,1.5739251,0.38219365,2.541856,5.8300977,-1.8173242,-1.8845193
256,1778612568730,1.6132184,0.23527117,2.4579005,6.254649,-2.0922134,-1.7525724
257,1778612568740,1.8323817,0.049299564,2.0752187,6.6712594,-2.0683897,-1.7110336
258,1778612568750,2.0063946,0.016351834,1.8409238,6.527706,-1.7739527,-1.9004018
259,1778612568760,2.1301317,0.0134231495,1.6105338,6.127589,-1.2559389,-2.3738225
260,1778612568770,2.1581984,0.008786061,1.4860646,5.621793,-0.75625116,-2.9956832
261,1778612568780,1.9404991,-0.16864355,1.4777666,4.511851,-0.20586158,-4.669454
262,1778612568790,1.8433644,-0.24649782,1.53512,4.330424,-0.15882497,-5.0793447
263,1778612568800,1.7613611,-0.35315084,1.59467,4.330424,-0.15882497,-5.0793447
264,1778612568810,1.6417731,-0.5874458,1.7206036,4.244292,-0.2003638,-5.522833
265,1778612568820,1.616147,-0.7063017,1.786255,4.2797217,-0.408058,-5.73969
266,1778612568830,1.6166352,-0.827354,1.8816814,4.3047676,-0.50885075,-5.798944
267,1778612568840,1.619808,-0.9405966,2.0102994,4.353026,-0.43799037,-5.8123827
268,1778612568850,1.607117,-1.0028312,2.1286674,4.410447,-0.24373524,-5.765957
269,1778612568860,1.5565971,-1.0409042,2.2243378,4.5271225,0.09468412,-5.643173
270,1778612568870,1.4733735,-1.023088,2.3068292,4.863709,0.66339964,-5.290704
271,1778612568880,1.4819156,-0.97427654,2.29365,5.1184397,0.8051204,-5.0481906
272,1778612568890,1.6224926,-0.9135063,2.157222,5.801998,0.17898351,-4.5570545
273,1778612568900,1.6224926,-0.9135063,2.157222,5.801998,0.17898351,-4.5570545
274,1778612568910,1.6849711,-0.9178993,2.1196373,5.96571,-0.21746802,-4.43366
275,1778612568920,1.8174944,-0.90423214,2.0366576,6.087883,-0.7855727,-4.2919393
276,1778612568930,1.8174944,-0.90423214,2.0366576,6.087883,-0.7855727,-4.2919393
277,1778612568940,2.233856,-0.83736044,1.9878463,5.7641244,-0.8723156,-4.4703116
278,1778612568950,2.233856,-0.83736044,1.9878463,5.7641244,-0.8723156,-4.4703116
279,1778612568960,2.5811496,-0.746083,1.7628256,5.10439,-0.059253927,-5.1532593
280,1778612568970,2.7222145,-0.6321083,1.4043053,4.1276164,0.3408628,-6.225939
281,1778612568980,2.6638849,-0.6208816,1.3530535,3.5631769,0.31703907,-6.790378
282,1778612568990,2.4437451,-0.72729063,1.4538491,3.268129,0.21319197,-7.0945888
283,1778612569000,2.058379,-0.9127741,1.6281059,3.2876768,0.12156218,-7.08115
284,1778612569010,1.010397,-1.6473864,1.880217,4.750088,0.68477994,-5.9272256
285,1778612569020,0.50324607,-2.0498369,1.6322548,5.6712728,0.97249746,-5.2564955
286,1778612569030,-0.065407336,-2.4154346,0.7909895,6.7518935,1.1154399,-4.359745
287,1778612569040,-0.4339338,-2.6119008,-0.20866893,7.134295,0.9450085,-3.5332446
288,1778612569050,-0.79709095,-2.5945725,-1.4484798,6.937597,0.56505036,-2.946203
289,1778612569060,-0.6716455,-2.7488167,-1.5761217,5.647449,-0.70371675,-1.921782
290,1778612569070,-0.65163285,-3.0243573,-1.8265244,5.0842314,-0.6420194,-2.0567832
291,1778612569080,-1.3681849,-3.524919,-2.7673652,2.683531,0.70921457,-2.6963592
292,1778612569090,-1.6063848,-3.7484753,-2.8879294,2.0030272,1.106277,-2.6603181
293,1778612569100,-1.922439,-3.88051,-2.9303954,1.2431108,1.4618006,-2.3335052
294,1778612569110,-2.2101824,-3.893445,-2.9425983,0.60231316,1.4575244,-1.6126842
295,1778612569120,-2.122566,-3.790209,-2.7619958,0.60231316,1.4575244,-1.6126842
296,1778612569130,-1.9217068,-3.6838002,-2.681213,-0.65668017,0.6078109,0.8564331
297,1778612569140,-1.7098651,-3.526383,-2.5945725,-0.99082345,0.35369098,1.3377949
298,1778612569150,-1.2432276,-3.1822624,-2.153073,-1.541213,0.017715093,1.8619173
299,1778612569160,-0.9386441,-2.9953146,-1.7786893,-2.8325822,-0.52534413,2.9492574
300,1778612569170,-0.6872652,-2.8422906,-1.4577539,-2.8325822,-0.52534413,2.9492574
301,1778612569180,-0.46102414,-2.698053,-1.1829455,-3.105639,-0.49296826,3.2290337
302,1778612569190,-0.018304294,-2.2777863,-0.47493544,-3.3499851,-0.3359759,3.490484
303,1778612569200,0.09030118,-2.178211,-0.26919514,-4.111734,0.51068336,4.2485676
304,1778612569210,0.21257387,-2.088398,-0.073949344,-4.3316455,0.68111473,4.4452662
305,1778612569220,0.21257387,-2.088398,-0.073949344,-4.3316455,0.68111473,4.4452662
306,1778612569230,0.53643787,-1.9173138,0.36584184,-4.8563786,0.6750061,4.842329
307,1778612569240,0.9376679,-1.7752724,0.8600578,-5.166087,0.34697145,5.0604076
308,1778612569250,1.1187584,-1.7220681,1.1031388,-5.237559,0.18081611,5.12577
309,1778612569260,1.3925906,-1.6681312,1.4985116,-5.2742105,0.122783914,5.28093
310,1778612569270,1.492166,-1.6630061,1.645678,-5.341406,0.26267207,5.440366
311,1778612569280,1.5785623,-1.6600775,1.8255482,-5.453194,0.5345071,5.644395
312,1778612569290,1.6422611,-1.6473864,1.9751552,-5.5448236,0.7874053,5.807496
313,1778612569300,1.7960173,-1.551472,2.2035928,-5.7464094,1.2583824,6.187454
314,1778612569310,1.8655735,-1.496803,2.2628987,-5.78917,1.3616186,6.2851925
315,1778612569320,1.8999857,-1.4079663,2.344658,-5.8136044,1.4049901,6.365216
316,1778612569330,1.9319572,-1.346952,2.4713237,-5.707925,1.2809844,6.4153066
317,1778612569340,2.0222585,-1.2356619,2.4744964,-5.3695054,1.0036516,6.4482937
318,1778612569350,2.020794,-1.1687901,2.4864552,-5.190522,0.90408057,6.496552
319,1778612569360,2.041783,-1.1092402,2.4798658,-5.0298643,0.8918633,6.511213
320,1778612569370,2.1198812,-0.88641596,2.4144583,-4.8417177,1.0965031,6.327953
321,1778612569380,2.0959635,-0.8175918,2.3456342,-4.800179,1.6041322,5.8093286
322,1778612569390,1.9971205,-0.72826684,2.229951,-4.874705,1.9187278,5.403714
323,1778612569400,1.8870505,-0.65675807,2.136477,-5.0158143,2.1459696,4.982217
324,1778612569410,1.8069998,-0.5876899,2.0954754,-5.1294355,2.2656991,4.6657887
325,1778612569420,1.5914973,-0.47664383,2.0310445,-5.235115,2.398257,4.2418485
326,1778612569430,1.4689806,-0.4417436,1.9705181,-5.2852063,2.4544566,3.4849863
327,1778612569440,1.3528093,-0.4131889,1.8982773,-5.272378,2.398257,3.2479706
328,1778612569450,1.151218,-0.3104408,1.7401282,-5.1379876,1.9468275,2.765387
329,1778612569460,1.7569683,-0.14350566,1.9414753,-4.8679852,1.5234979,3.00057
330,1778612569470,1.9592916,-0.14545812,1.9070634,-4.586987,1.2889256,2.7360654
331,1778612569480,2.0063946,-0.17132819,1.8411678,-4.7702465,1.2449434,2.3823745
332,1778612569490,1.9209745,-0.19158493,1.8594722,-5.0555205,1.2229522,2.1972823
333,1778612569500,1.8011425,-0.14521407,2.4317863,-5.4501395,1.142318,2.1960607
334,1778612569510,2.016645,0.19256116,2.7524776,-5.3823338,0.8906415,2.8252518
335,1778612569520,2.4837706,0.35510328,2.9731054,-4.8710394,0.6976081,3.131906
336,1778612569530,3.4895306,1.0501783,2.8530293,-3.5295794,0.1001819,2.638938
337,1778612569540,3.4424274,1.27886,2.9301512,-3.3499851,0.0061086523,2.4007003
338,1778612569550,3.4538982,1.4431105,3.0631626,-3.164893,0.036651913,2.2418754
339,1778612569560,3.4538982,1.4431105,3.0631626,-3.164893,0.036651913,2.2418754
340,1778612569570,3.491727,1.5839316,3.1598094,-2.802039,0.19486602,2.0048597
341,1778612569580,3.78606,1.9302487,2.9284427,-1.7195857,0.89675015,1.4905112
342,1778612569590,3.78606,1.9302487,2.9284427,-1.7195857,0.89675015,1.4905112
343,1778612569600,4.071363,2.2309272,2.6885345,-0.86070913,1.0769554,0.91629785
344,1778612569610,4.084054,2.3085375,2.5157423,-0.4709771,0.915687,0.6389651
345,1778612569620,4.032558,2.2314155,2.1125596,0.39950588,0.12522738,-0.22174409
346,1778612569630,3.9893596,2.1257386,1.956851,0.62125,-0.12156218,-0.5571091
347,1778612569640,3.9058921,1.9897987,1.7481819,0.77946407,-0.21868975,-1.0128145
348,1778612569650,3.67355,1.7921125,1.4728855,0.53023106,0.18753563,-2.0060816
349,1778612569660,3.444624,1.7152344,1.4894813,0.3652974,0.27550024,-2.398257
350,1778612569670,2.9369848,1.5553769,1.7711234,0.23151793,0.19120082,-2.8851166
351,1778612569680,2.9369848,1.5553769,1.7711234,0.26083946,-0.014660766,-3.2943962
352,1778612569690,2.4613175,1.347684,2.0356815,0.6291912,-0.42455134,-3.7134497
353,1778612569700,2.12281,1.0982577,2.1601508,1.318858,-0.7287622,-3.8967094
354,1778612569710,1.9983407,0.9650024,2.1472156,1.7403551,-0.88331115,-3.9773436
355,1778612569720,1.7816179,0.7407138,2.131352,2.3811526,-0.9468411,-4.0506473
356,1778612569730,1.6617858,0.6299118,2.1374533,2.688418,-0.89980453,-4.029878
357,1778612569740,1.5744133,0.5347294,2.1552696,2.9791899,-0.83077675,-3.9810088
358,1778612569750,1.4821596,0.44052333,2.1684487,3.2919528,-0.7593055,-3.9132028
359,1778612569760,1.4194369,0.3692586,2.160395,3.540575,-0.729984,-3.8600576
360,1778612569770,1.5014402,0.23087814,2.0522776,3.8612792,-0.7470882,-3.8331795
361,1778612569780,1.6739886,0.07248501,1.7877192,4.2314634,-0.7507534,-4.1966443
362,1778612569790,1.6739886,0.07248501,1.7877192,4.191757,-0.6407976,-4.68778
363,1778612569800,1.6839949,-0.34119204,1.9873582,3.626096,0.037873644,-6.052453
364,1778612569810,1.7210917,-0.5095915,2.1664963,3.5863898,0.37384954,-6.3859854
365,1778612569820,1.7437891,-0.6811638,2.2997513,3.6877935,0.6994407,-6.649268
366,1778612569830,1.7508667,-0.9974619,2.4737642,3.9907827,1.2449434,-6.8697906
367,1778612569840,1.7420806,-1.1363305,2.5245283,3.9907827,1.2449434,-6.8697906
368,1778612569850,1.709377,-1.2271198,2.5442967,4.2723913,1.8643607,-6.736011
369,1778612569860,1.692537,-1.2810564,2.5730956,4.446488,2.208278,-6.4843345
370,1778612569870,1.7176749,-1.3066825,2.618246,4.9754972,2.5192082,-5.9486055
371,1778612569880,1.7313421,-1.325719,2.5777326,5.3743925,2.461787,-5.6731057
372,1778612569890,1.7371994,-1.3537855,2.5220876,5.773898,2.2681427,-5.4153204
373,1778612569900,1.7447653,-1.3806318,2.4620495,6.0500093,2.0476203,-5.2241197
374,1778612569910,1.8094405,-1.4079663,2.4024994,6.7384543,1.1264355,-4.742147
375,1778612569920,1.8811932,-1.4030851,2.400059,7.1092496,0.47647488,-4.5313983
376,1778612569930,1.9668574,-1.411627,2.378094,7.4085736,-0.045814894,-4.4037275
377,1778612569940,2.0639923,-1.4340804,2.3395329,7.787921,-0.70249504,-4.29255
378,1778612569950,2.1816278,-1.4670281,2.2414217,8.104349,-1.2608259,-4.269948
379,1778612569960,2.2162838,-1.4911898,2.119149,8.263785,-1.5784758,-4.3114867
380,1778612569970,1.9705181,-1.4008886,1.7376877,8.174599,-2.0512855,-4.446488
381,1778612569980,1.6735007,-1.1714748,1.4004005,7.5961094,-2.8875601,-4.4495425
382,1778612569990,1.5756336,-1.1363305,1.346952,7.536855,-3.2039883,-4.4232755
383,1778612570000,1.4184607,-1.1624447,1.2759314,7.5869465,-3.3585372,-4.370741
384,1778612570010,1.2595794,-1.2539662,1.1155857,7.746382,-3.4593298,-4.2650614
385,1778612570020,0.86152214,-1.5997953,0.38731885,7.7164497,-3.7183368,-4.216192
386,1778612570030,0.6079466,-1.7725879,0.02831064,7.309003,-3.952909,-4.3175955
387,1778612570040,0.26651052,-1.9719826,-0.2591888,6.609562,-4.088521,-4.4550405
388,1778612570050,-0.041977845,-2.1315958,-0.38853914,5.9681535,-4.0646973,-4.509407
389,1778612570060,-0.47713193,-2.4508228,-0.4419877,4.0585885,-2.6499333,-4.4666467
390,1778612570070,-0.60062486,-2.5784647,-0.55815893,3.299894,-1.5870279,-4.4678683
391,1778612570080,-0.82906246,-2.7724903,-0.6875093,2.3060162,-0.093462385,-4.5949283
392,1778612570090,-1.2507933,-3.000684,-0.82711005,1.4391985,1.3640621,-4.8521028
393,1778612570100,-2.9147756,-3.8870997,-1.3881977,0.23884831,3.472158,-5.144707
394,1778612570110,-2.9147756,-3.8870997,-1.3881977,0.23884831,3.472158,-5.144707
395,1778612570120,-3.5327287,-4.079661,-1.666667,0.05009095,3.086702,-4.5252895
396,1778612570130,-4.2263393,-4.101138,-1.8480015,-0.35246924,1.6389514,-1.8674151
397,1778612570140,-3.602773,-3.9205358,-1.3132721,-0.4343252,0.3378085,1.5986344
398,1778612570150,-3.602773,-3.9205358,-1.3132721,-0.4343252,0.3378085,1.5986344
399,1778612570160,-2.2948701,-3.508811,-0.83443177,-0.23151793,0.3115413,4.451986
400,1778612570170,-1.6678872,-3.2505984,-0.7143555,-0.23151793,0.3115413,4.451986
401,1778612570180,-0.46761367,-2.6550987,-0.44955346,-0.91690874,1.599856,5.615073
402,1778612570190,0.017572122,-2.3483188,-0.260165,-1.3127494,2.1068742,5.4379225
403,1778612570200,0.017572122,-2.3483188,-0.260165,-1.3127494,2.1068742,5.4379225
404,1778612570210,0.5747548,-1.956607,-0.044174362,-1.8924606,3.0231721,4.9070807
405,1778612570220,0.82076454,-1.7091328,-0.008786061,-2.5937338,3.839288,4.523457
406,1778612570230,0.8449261,-1.5446383,0.097134784,-3.6047158,4.139834,4.4550405
407,1778612570240,0.8449261,-1.5446383,0.097134784,-3.6047158,4.139834,4.4550405
408,1778612570250,0.8759214,-1.4372531,0.44418418,-4.3377542,4.025602,4.5998154
409,1778612570260,0.8759214,-1.4372531,0.44418418,-4.7989573,3.8802161,4.813618
410,1778612570270,1.0509106,-1.2998489,0.959145,-4.7989573,3.8802161,4.813618
411,1778612570280,1.1912434,-1.2224828,1.138039,-5.053688,3.7763689,5.050023
412,1778612570290,1.2717823,-1.201982,1.1631769,-5.134322,3.6890152,5.0750685
413,1778612570300,1.3406065,-1.1712307,1.1951483,-5.280319,3.535688,5.076901
414,1778612570310,1.3406065,-1.1712307,1.1951483,-5.280319,3.535688,5.076901
415,1778612570320,1.40699,-1.1460928,1.2522577,-5.468466,3.2919528,5.081177
416,1778612570330,1.6620299,-1.0733638,1.551472,-5.946162,2.6957483,4.977941
417,1778612570340,1.7381756,-1.0716554,1.6486067,-6.043901,2.5491407,4.89242
418,1778612570350,1.7381756,-1.0716554,1.6486067,-6.043901,2.5491407,4.89242
419,1778612570360,1.7718556,-1.0318741,1.7328066,-6.3224554,2.5515842,4.7445903
420,1778612570370,1.7118175,-0.9752528,1.8433644,-6.519765,2.5961773,4.6303587
421,1778612570380,1.6324989,-0.8937377,1.9051108,-6.623001,2.529593,4.346917
422,1778612570390,1.6324989,-0.8937377,1.9051108,-6.623001,2.529593,4.346917
423,1778612570400,1.530727,-0.7839119,1.9256116,-6.585738,2.434298,3.998113
424,1778612570410,1.4677603,-0.72533816,1.9300048,-6.5252624,2.3958135,3.767206
425,1778612570420,1.3503687,-0.6216138,1.9385467,-6.351166,2.2290473,3.3585372
426,1778612570430,1.2400548,-0.5608435,1.965637,-6.019466,1.8307631,2.891225
427,1778612570440,1.2039344,-0.5374141,1.9768637,-5.848424,1.7061466,2.7433958
428,1778612570450,1.2176017,-0.53936654,1.9719826,-5.6199603,1.6249015,2.5271494
429,1778612570460,1.1983211,-0.54790854,1.9429398,-5.4189854,1.7037032,2.26631
430,1778612570470,1.0252845,-0.6040417,1.8340902,-5.194187,2.0690005,1.8154916
431,1778612570480,0.9232686,-0.6792113,1.7494024,-5.1838026,2.26631,1.5906931
432,1778612570490,0.8463905,-0.7455949,1.7154784,-5.2149568,2.3261747,1.4422529
433,1778612570500,0.810026,-0.82100856,1.7081566,-5.248554,2.2724187,1.2638801
434,1778612570510,0.7387613,-0.87396896,1.6539761,-5.266269,2.1471913,1.1490375
435,1778612570520,0.71167094,-0.93278676,1.6661788,-5.40799,1.5894713,1.4672983
436,1778612570530,1.1722069,-0.9606094,1.9961443,-5.6541686,0.54305923,2.2589796
437,1778612570540,1.1722069,-0.9606094,1.9961443,-5.6541686,0.54305923,2.2589796
438,1778612570550,1.7232883,-0.7826916,2.5706549,-5.69021,-0.48991394,3.0457742
439,1778612570560,2.127691,-0.52033,3.0185,-5.494122,-0.9669997,3.5326338
440,1778612570570,2.604091,-0.2853029,3.3550549,-4.8472157,-1.0800097,3.8545597
441,1778612570580,3.5312643,0.5867136,3.3923957,-4.8020115,-0.16126843,3.2143729
442,1778612570590,3.4009378,1.0279691,3.358716,-5.182581,0.4813618,2.728735
443,1778612570600,3.2591405,1.410895,3.4912388,-5.5564303,0.8594874,2.2748623
444,1778612570610,3.0248456,1.8106607,3.7416415,-5.652947,1.0170907,1.8668042
445,1778612570620,2.93308,2.243374,4.23781,-4.769025,1.2370021,1.4391985
446,1778612570630,3.0826871,2.4198277,4.2705135,-3.9278636,1.3005321,1.3762794
447,1778612570640,3.1388202,2.5421004,4.161664,-3.3041701,1.3200798,1.4666874
448,1778612570650,3.1829946,2.6204426,4.0821013,-2.5619688,1.178359,1.6853772
449,1778612570660,3.4290044,2.8176408,4.166057,-1.2522738,0.38545597,1.9761491
450,1778612570670,3.734076,3.0148392,4.225119,-0.19730948,-0.15332718,2.0042489
451,1778612570680,4.0269446,3.1214921,4.0803933,1.0647382,-0.43127087,1.7385225
452,1778612570690,4.036463,3.0470545,3.3474894,2.9046643,-0.81489426,0.43860126
453,1778612570700,3.7230935,2.4676628,2.7651687,3.6291504,-1.1404854,-1.754405
454,1778612570710,3.5171092,2.1411142,2.5567439,3.5332446,-0.93645644,-2.6743681
455,1778612570720,3.2386398,1.8450727,2.4232442,3.2064316,-0.3921755,-3.7549887
456,1778612570730,2.88256,1.5358523,2.3946898,2.8130345,0.31215215,-4.5387287
457,1778612570740,2.305853,1.0472497,2.5818818,2.593123,1.4947872,-5.1337113
458,1778612570750,2.0693614,0.8742131,2.659492,2.8582385,1.8826867,-5.145318
459,1778612570760,1.8409238,0.7238738,2.6612,3.199712,1.9792033,-5.0384164
460,1778612570770,1.4306636,0.39805737,2.55772,4.309654,1.3567317,-4.500855
461,1778612570780,1.2766634,0.23405088,2.4866993,4.7036624,0.7837401,-4.2681155
462,1778612570790,1.1065556,0.047103047,2.4410605,5.1740284,0.33964106,-3.903429
463,1778612570800,0.99209267,-0.11324256,2.416899,5.616295,-0.17715092,-3.458719
464,1778612570810,0.8983747,-0.40611124,2.4051843,6.369492,-0.81306165,-2.6120598
465,1778612570820,0.921072,-0.5125202,2.3829749,6.781215,-1.0714576,-2.2266037
466,1778612570830,0.98013395,-0.59159476,2.3283062,7.107417,-1.2278391,-1.9645426
467,1778612570840,1.0533512,-0.6186851,2.2516723,7.265631,-1.2681563,-1.8729129
468,1778612570850,1.4040614,-0.5718261,2.1628354,7.280903,-1.0677924,-2.1416936
469,1778612570860,1.679358,-0.605506,2.1452632,7.1208563,-0.83016586,-2.886949
470,1778612570870,1.679358,-0.605506,2.1452632,7.1208563,-0.83016586,-2.886949
471,1778612570880,1.803095,-0.7541369,2.1945627,6.805039,-0.9596693,-3.7910297
472,1778612570890,1.8133454,-0.9132622,2.3641827,6.604675,-1.3622295,-4.341419
473,1778612570900,1.7794214,-0.98794377,2.5103729,6.577186,-1.636508,-4.4733663
474,1778612570910,1.7672185,-1.0435888,2.6331336,6.6016207,-1.8399261,-4.4929137
475,1778612570920,1.8260365,-1.09118,2.937961,6.6016207,-1.8399261,-4.4929137
476,1778612570930,1.8975451,-1.1204668,3.0670674,7.11658,-2.3139575,-4.223522
477,1778612570940,1.9463564,-1.1758678,3.10392,7.478823,-2.425746,-4.079969
478,1778612570950,1.91829,-1.2293164,3.0338757,7.819075,-2.6138923,-3.9248092
479,1778612570960,1.8260365,-1.3059504,2.771026,8.148332,-3.1929927,-3.6835175
480,1778612570970,1.8323817,-1.308635,2.7009816,8.282111,-3.7201693,-3.739717
481,1778612570980,1.8131012,-1.2856936,2.562601,8.282111,-3.7201693,-3.739717
482,1778612570990,1.5719727,-1.2168695,2.0203059,8.249735,-3.8185186,-3.8270707
483,1778612571000,1.5112025,-1.2166255,1.9014499,7.6688023,-4.3627996,-3.8453968
484,1778612571010,1.5112025,-1.2166255,1.9014499,7.6688023,-4.3627996,-3.8453968
485,1778612571020,1.4689806,-1.2322451,1.7401282,7.4837103,-4.583322,-3.6529741
486,1778612571030,1.6434816,-1.1377949,1.2205303,7.1098604,-5.166087,-2.9718595
487,1778612571040,1.6529999,-1.0797093,1.0082005,6.97547,-5.4012704,-2.9535334
488,1778612571050,1.5790504,-1.0211354,0.8002637,6.6804223,-5.6651645,-3.104417
489,1778612571060,1.5404893,-1.0538392,0.6530972,6.358496,-5.825211,-3.3585372
490,1778612571070,1.4479916,-1.1607363,0.5400987,5.81727,-5.8239894,-3.9333613
491,1778612571080,0.81783587,-1.7040077,0.20915705,4.414723,-5.254052,-5.2821517
492,1778612571090,0.26480213,-2.0520332,0.10348027,3.4019086,-4.5619416,-5.9412756
493,1778612571100,-0.21989559,-2.3595455,0.058817793,2.348166,-3.7061195,-6.3884287
494,1778612571110,-1.19344,-2.9450388,0.17962612,0.86070913,-1.9785925,-6.67187
495,1778612571120,-1.6266416,-3.188608,0.28213018,0.47586402,-0.9828822,-6.5246515
496,1778612571130,-2.1647878,-3.5190616,0.21452633,0.4361578,-0.08674286,-6.2124996
497,1778612571140,-2.664861,-3.8102217,-0.03734076,0.4813618,0.39400807,-5.851478
498,1778612571150,-4.03451,-4.364964,-1.0792211,0.12522738,0.83199847,-3.6975672
499,1778612571160,-4.411579,-4.362767,-1.2598236,0.12522738,0.83199847,-3.6975672
500,1778612571170,-4.578026,-4.2580667,-1.2503053,-0.8197812,0.46670106,-1.246776
501,1778612571180,-3.7792265,-4.036951,-0.694831,-1.3078625,0.2773328,1.4013249
502,1778612571190,-3.158589,-3.8851473,-0.43295756,-1.3249667,0.51068336,2.734233
503,1778612571200,-2.5440528,-3.6794071,-0.27310005,-1.2950343,0.93767816,3.540575
504,1778612571210,-1.8948604,-3.415581,-0.20598431,-1.3457361,1.3787229,4.338365
505,1778612571220,-0.88275504,-2.8784113,-0.1637624,-1.9730947,2.4685066,5.0286427
506,1778612571230,-0.5095915,-2.6248357,-0.12080834,-1.9730947,2.4685066,5.0286427
507,1778612571240,-0.18182266,-2.4017673,0.0014643435,-2.9272664,2.8502972,4.767803
508,1778612571250,0.099819414,-2.1855328,0.19939478,-3.5020905,3.2461379,4.5313983
509,1778612571260,0.409284,-1.8855863,0.60648227,-4.4593163,4.1648793,4.3854017
510,1778612571270,0.5274077,-1.7938206,0.8258897,-4.937624,4.687169,4.4984117
511,1778612571280,0.64040625,-1.7130377,1.0343146,-5.2277846,5.0170364,4.6352453
512,1778612571290,0.98794377,-1.4670281,1.6549523,-5.660888,5.531996,5.2381697
513,1778612571300,0.98794377,-1.4670281,1.6549523,-5.660888,5.531996,5.2381697
514,1778612571310,1.1748916,-1.3352373,1.7994341,-5.5277195,5.5063396,5.287039
515,1778612571320,1.2661691,-1.2119883,1.8382392,-5.2455,5.3432384,5.2558846
516,1778612571330,1.3503687,-1.0672623,1.7513548,-4.550946,4.1044035,4.9486194
517,1778612571340,1.3503687,-1.0672623,1.7513548,-4.550946,4.1044035,4.9486194
518,1778612571350,1.512911,-1.0282133,1.6871678,-4.3377542,3.2302554,4.724432
519,1778612571360,1.5461026,-1.0250404,1.7091328,-4.365854,2.8368583,4.632802
520,1778612571370,1.6124862,-1.0504224,1.8152978,-4.546059,2.679255,4.646852
521,1778612571380,1.6532438,-1.0438329,1.9129207,-4.7030516,2.8771753,4.7470336
522,1778612571390,1.6442136,-1.0045396,1.9585594,-4.8557677,3.2204816,4.894863
523,1778612571400,1.6080933,-0.81197846,1.9946798,-5.013982,3.5246925,5.0035973
524,1778612571410,1.6080933,-0.81197846,1.9946798,-5.1838026,3.6419785,4.9388456
525,1778612571420,1.624445,-0.746083,1.9639287,-5.2045717,3.4929276,4.72321
526,1778612571430,1.6017478,-0.69385475,1.9246354,-5.212513,3.345098,4.5081854
527,1778612571440,1.5463467,-0.65675807,1.8872948,-5.2308393,3.1270192,4.2051964
528,1778612571450,1.4401819,-0.63186425,1.8536148,-5.3285775,2.7097983,3.4892623
529,1778612571460,1.4401819,-0.63186425,1.8536148,-5.3285775,2.7097983,3.4892623
530,1778612571470,1.3540297,-0.6377216,1.8416561,-5.435479,2.7415633,3.0219505
531,1778612571480,1.2661691,-0.626495,1.8362867,-5.5411587,2.9119947,2.6358836
532,1778612571490,1.1885588,-0.6211257,1.7996782,-5.617517,3.1135802,2.4422393
533,1778612571500,1.1343781,-0.6157564,1.7608731,-5.701816,3.2724051,2.3231206
534,1778612571510,1.1075318,-0.60721445,1.7459855,-5.83132,3.426954,2.1661282
535,1778612571520,1.0413923,-0.5535218,1.7652661,-5.917452,3.4037411,1.9113973
536,1778612571530,1.0079564,-0.54839665,1.7928444,-5.83132,3.1038063,1.8503108
537,1778612571540,1.0123495,-0.5632841,1.8099285,-5.6957073,2.610227,1.894904
538,1778612571550,1.3864892,-0.69287854,2.0520332,-5.585752,2.1386392,2.0091357
539,1778612571560,1.3864892,-0.69287854,2.0520332,-5.336519,0.9059132,2.4831672
540,1778612571570,1.6769173,-0.78928113,2.229219,-5.2784867,0.6072,2.6444356
541,1778612571580,1.9585594,-0.8534682,2.4110415,-5.2571063,0.56382865,2.778826
542,1778612571590,2.2826674,-0.8341876,2.609216,-5.276654,0.65668017,3.0329459
543,1778612571600,3.1559043,-0.3607166,3.068776,-5.109277,1.1930199,3.8429532
544,1778612571610,3.1559043,-0.3607166,3.068776,-5.109277,1.1930199,3.8429532
545,1778612571620,3.2684145,0.15448824,3.0580373,-4.9205194,1.1374311,3.9095376
546,1778612571630,3.3926399,0.511544,3.0660913,-4.7800207,1.0054842,3.9364157
547,1778612571640,3.9383516,1.1697664,3.3289406,-4.290107,0.00061086525,3.6389244
548,1778612571650,4.2446437,1.4926541,3.4414513,-4.044539,0.13133603,3.0592132
549,1778612571660,4.3761907,1.7401282,3.3860505,-3.6108243,0.8491027,2.2333233
550,1778612571670,4.155807,2.1208575,2.877191,-3.0885346,2.4397957,0.87109387
551,1778612571680,3.9278574,2.2484994,2.7685854,-2.9303205,2.7708848,0.5039638
552,1778612571690,3.6772106,2.3419733,2.8295999,-2.666427,2.5961773,0.40866885
553,1778612571700,3.6037495,2.387368,2.9491878,-2.352442,2.2180517,0.39584067
554,1778612571710,3.8197398,2.4866993,3.0026364,-1.1575897,1.0512991,0.19242255
555,1778612571720,3.9344468,2.5015867,2.911603,-0.68539083,0.64751714,-0.007941248
556,1778612571730,3.9378636,2.400059,3.0372922,-0.062308256,0.06352998,-0.49296826
557,1778612571740,3.9820378,2.3568609,2.8496125,0.61208695,-0.52778757,-1.2620476
558,1778612571750,3.4075274,2.148924,2.3737006,0.9193522,-0.6414085,-3.0243938
559,1778612571760,2.9526045,1.940255,2.4613175,0.7770206,-0.37873647,-3.74888
560,1778612571770,2.3392887,1.2024701,2.937229,0.70432764,0.60231316,-4.4403796
561,1778612571780,1.5575734,0.5806122,3.6911218,1.8460348,1.6468927,-4.376239
562,1778612571790,1.4243181,0.36681804,3.6220536,2.6688702,1.8490891,-4.133725
563,1778612571800,1.2688537,0.25674823,3.3679898,3.7073412,1.9358319,-3.84784
564,1778612571810,1.1197346,0.21306199,3.1668868,4.569272,1.7330247,-3.4800992
565,1778612571820,1.0977695,0.08053889,2.9818914,5.3084188,1.2901474,-3.119078
566,1778612571830,1.1326697,-0.22672918,2.7766392,6.3633833,0.30787608,-2.669481
567,1778612571840,1.1619565,-0.375116,2.673891,6.831917,-0.11911872,-2.4593434
568,1778612571850,1.2412751,-0.64309084,2.5684586,7.1141367,-0.3567453,-2.3280075
569,1778612571860,1.342559,-0.85322416,2.4464297,7.8636684,-0.56688297,-2.2339342
570,1778612571870,1.342559,-0.85322416,2.4464297,7.8636684,-0.56688297,-2.2339342
571,1778612571880,1.3894179,-0.9174112,2.3456342,7.9626284,-0.45998153,-2.3780985
572,1778612571890,1.4555575,-0.96671075,2.272905,7.9589634,-0.40866885,-2.6120598
573,1778612571900,1.649583,-1.1172941,2.1784549,7.7042327,-0.5235115,-3.2516358
574,1778612571910,1.7291456,-1.185142,2.2055452,7.436063,-0.6249151,-3.659083
575,1778612571920,1.8865626,-1.3279155,2.408113,7.009068,-0.76174897,-4.2626176
576,1778612571930,1.922927,-1.445795,2.592132,6.908275,-0.79901177,-4.478253
577,1778612571940,1.8660617,-1.4745939,2.6228833,6.908275,-0.79901177,-4.478253
578,1778612571950,1.8536148,-1.517548,2.6189783,7.1013083,-0.8741482,-4.466036
579,1778612571960,1.8711869,-1.5292627,2.6143413,7.2613554,-0.9798279,-4.3365326
580,1778612571970,2.0442235,-1.4892373,2.5770006,7.649255,-1.2730432,-4.1899247
581,1778612571980,2.119149,-1.4528728,2.4842587,7.8532834,-1.4923438,-4.2681155
582,1778612571990,2.1689367,-1.4367651,2.3168354,7.914981,-1.7910569,-4.4446554
583,1778612572000,2.20823,-1.4353007,2.1852884,7.8410664,-2.0769417,-4.636467
584,1778612572010,2.2441063,-1.4367651,2.072046,7.6138244,-2.5393667,-4.944343
585,1778612572020,2.165032,-1.4028411,1.9646608,7.2705183,-3.0262265,-5.2516084
586,1778612572030,2.156734,-1.3742863,2.0085912,6.272975,-3.667635,-5.590028
587,1778612572040,2.1891935,-1.2661691,1.9268318,6.272975,-3.667635,-5.590028
588,1778612572050,2.1760144,-1.2258996,1.8953485,5.7183094,-3.336546,-5.7274723
589,1778612572060,2.1550255,-1.1870944,1.8397036,5.6908207,-3.3756413,-5.8899627
590,1778612572070,2.1025531,-1.1695224,1.8660617,5.7372465,-3.5106425,-6.044512
591,1778612572080,1.8650855,-1.3791674,1.8948604,6.4256916,-3.6939023,-6.3132925
592,1778612572090,1.8650855,-1.3791674,1.8948604,6.4256916,-3.6939023,-6.3132925
593,1778612572100,1.705228,-1.5553769,1.7174308,6.7720523,-3.5503488,-6.301075
594,1778612572110,1.0921562,-2.0244548,0.88275504,7.1116934,-3.0842586,-6.260147
595,1778612572120,0.2562601,-2.468151,0.2362474,6.378044,-3.0079005,-5.9901447
596,1778612572130,-0.03294773,-2.6206868,0.055400997,5.7231965,-3.0017917,-5.588806
597,1778612572140,-0.24869433,-2.7053747,-0.0605262,5.2064047,-2.8814514,-5.249776
598,1778612572150,-0.3995217,-2.8022654,-0.18523945,4.532009,-2.4269676,-4.874705
599,1778612572160,-0.3995217,-2.8022654,-0.18523945,4.532009,-2.4269676,-4.874705
600,1778612572170,-2.5042715,-4.5726566,-1.0616491,1.5467108,1.4819591,-5.6651645
601,1778612572180,-3.7787383,-5.118857,-1.6937572,0.5186246,1.4294246,-4.5222354
602,1778612572190,-4.356178,-5.111291,-1.9241474,-0.77457714,1.2156218,-1.7079792
603,1778612572200,-4.216821,-4.8835855,-1.8746037,-1.4923438,1.1270463,0.21074851
604,1778612572210,-3.7504277,-4.6283016,-1.7152344,-2.1410828,1.110553,2.0140228
605,1778612572220,-2.3539321,-3.9161427,-1.211012,-3.1618385,1.087951,4.315763
606,1778612572230,-1.6442136,-3.534437,-0.8776299,-3.68535,1.0714576,5.084842
607,1778612572240,-0.20622836,-2.860595,-0.13789235,-4.076915,1.1154399,5.456859
608,1778612572250,0.22916976,-2.5818818,0.08297946,-4.4312167,1.6114625,5.40799
609,1778612572260,0.49470404,-2.277542,0.23649146,-4.629748,2.1337523,5.281541
610,1778612572270,0.5845171,-2.0317764,0.41123646,-4.8209486,2.5027149,5.2968125
611,1778612572280,0.64943635,-1.8506861,0.5933032,-5.0604076,2.9174924,5.491068
612,1778612572290,0.99453324,-1.6847272,0.9308343,-5.389664,3.5332446,5.8129935
613,1778612572300,1.1412116,-1.5834434,1.095573,-5.517335,3.8686097,5.8417044
614,1778612572310,1.3293798,-1.3750186,1.3149804,-5.742133,4.5020766,5.7097573
615,1778612572320,1.3293798,-1.3750186,1.3149804,-5.742133,4.5020766,5.7097573
616,1778612572330,1.4809394,-1.1868503,1.398448,-5.9137864,4.727486,5.327356
617,1778612572340,1.5051011,-1.125348,1.3662325,-6.0231314,4.506353,5.021923
618,1778612572350,1.5209647,-1.1087521,1.3367015,-6.146526,4.207029,4.7659707
619,1778612572360,1.5314592,-1.1529264,1.4218775,-6.554584,3.1337388,4.1557164
620,1778612572370,1.5314592,-1.1529264,1.4218775,-6.554584,3.1337388,4.1557164
621,1778612572380,1.526334,-1.3576905,1.7735641,-6.8606277,2.5595255,3.9290853
622,1778612572390,1.5509838,-1.4377413,1.8785087,-7.0597696,2.4929411,4.1581597
623,1778612572400,1.5397571,-1.432372,1.9544104,-7.277238,2.6426032,4.627915
624,1778612572410,1.5968665,-1.4113832,1.9636846,-7.439728,2.525317,4.817894
625,1778612572420,1.6803342,-1.3659884,1.9983407,-7.579616,2.330451,4.866153
626,1778612572430,1.8907114,-1.1758678,2.161859,-7.70973,2.0115793,4.767803
627,1778612572440,1.8724071,-1.0845904,2.1943188,-7.688961,1.676825,4.1758747
628,1778612572450,1.7965053,-1.001611,2.2018845,-7.61077,1.5741998,3.6981783
629,1778612572460,1.6874118,-0.9386441,2.1813836,-7.5124207,1.5063937,3.181997
630,1778612572470,1.2676333,-0.84053314,2.0464199,-7.4366736,1.4874569,2.8118126
631,1778612572480,1.1251038,-0.81832397,1.9959,-7.1929383,1.4159856,1.6756034
632,1778612572490,1.1251038,-0.81832397,1.9959,-7.1929383,1.4159856,1.6756034
633,1778612572500,0.9691513,-0.77610207,1.9795485,-7.1239104,1.3481796,1.4880677
634,1778612572510,0.90130347,-0.79318607,2.0554502,-6.5790186,0.9773844,1.0005972
635,1778612572520,0.8847075,-0.8139309,2.0539858,-6.305962,0.93279123,0.90224797
636,1778612572530,0.90642864,-0.8502955,2.0615516,-6.027407,0.90408057,0.8509353
637,1778612572540,0.8886124,-0.8668914,2.0517893,-5.81727,0.9193522,0.86315256
638,1778612572550,0.8776299,-0.82857436,1.9775959,-5.560706,0.9773844,0.97249746
639,1778612572560,0.9601213,-0.83101493,1.9453802,-5.286428,0.816116,1.3115277
640,1778612572570,1.0855666,-0.8600578,1.9485531,-5.312084,0.5149594,1.3982705
641,1778612572580,1.2078394,-0.87396896,2.0310445,-5.4421983,0.02076942,1.4813483
642,1778612572590,1.8960809,-0.7158199,2.699029,-5.7231965,-0.82894415,1.536937
643,1778612572600,1.8960809,-0.7158199,2.699029,-5.7231965,-0.82894415,1.536937
644,1778612572610,2.0862012,-0.42612398,2.9860406,-5.834374,-0.65240407,1.6175711
645,1778612572620,2.0862012,-0.42612398,2.9860406,-5.834374,-0.65240407,1.6175711
646,1778612572630,2.3514917,-0.11617125,3.2591405,-6.1764584,-0.6426302,1.8216002
647,1778612572640,2.250452,0.11202228,3.5476162,-6.3395596,-1.078788,1.8545868
648,1778612572650,1.9873582,0.8075854,4.3459272,-6.228993,-2.0030272,2.2174408
649,1778612572660,1.9873582,0.8075854,4.3459272,-6.228993,-2.0030272,2.2174408
650,1778612572670,1.730854,2.2904773,5.606727,-4.966945,-1.3017539,2.0329595
651,1778612572680,1.7313421,2.6768198,5.879339,-3.9504654,0.15088372,1.5076154
652,1778612572690,1.794797,2.843511,5.8671365,-3.087313,1.2137892,1.0329732
653,1778612572700,1.6732564,2.8483922,5.4192915,-0.8228355,2.8130345,0.14782938
654,1778612572710,1.6098017,2.6970766,5.131792,0.015882496,3.0109549,0.08002335
655,1778612572720,1.5810028,2.4620495,4.759116,1.0885619,2.9798007,0.13133603
656,1778612572730,1.5797825,2.2450826,4.386929,2.0708332,2.7605,0.2706133
657,1778612572740,1.667399,1.6595892,3.5605512,3.8918226,1.0403035,0.43004912
658,1778612572750,1.667399,1.6595892,3.5605512,3.8918226,1.0403035,0.43004912
659,1778612572760,1.6073611,1.4914337,3.462196,4.3377542,0.37934732,0.34269542
660,1778612572770,1.6034561,1.3210819,3.4512136,4.6108108,-0.02443461,0.25961772
661,1778612572780,1.8365307,0.8027043,3.533461,5.1605897,-0.15577064,-0.38362336
662,1778612572790,1.9300048,0.630888,3.5998445,5.294369,0.3268129,-0.66156703
663,1778612572800,1.9300048,0.630888,3.5998445,5.294369,0.3268129,-0.66156703
664,1778612572810,1.888515,0.2801777,3.5998445,5.966321,1.5986344,-1.3096951
665,1778612572820,1.8128573,0.19280522,3.527115,6.315736,1.6749926,-1.4892895
666,1778612572830,1.7364672,0.061014313,3.4268076,6.675535,1.5858061,-1.6261233
667,1778612572840,1.6932691,-0.08932495,3.333334,6.926601,1.4581354,-1.7055358
668,1778612572850,1.6561725,-0.4195344,3.1100214,7.4464474,1.0720685,-1.8680259
669,1778612572860,1.6468983,-0.5339973,3.014595,7.5863357,0.960891,-1.9211712
670,1778612572870,1.6271297,-0.652365,2.9094064,7.732332,0.86132,-2.0005836
671,1778612572880,1.6017478,-0.75340474,2.8276474,7.984009,0.7684685,-2.320677
672,1778612572890,1.5482991,-1.0042956,2.690243,7.984009,0.7684685,-2.320677
673,1778612572900,1.5504957,-1.1138773,2.6270323,8.02066,0.75502944,-2.4489589
674,1778612572910,1.5258459,-1.2132086,2.5779767,8.044484,0.7501425,-2.547308
675,1778612572920,1.496071,-1.3157127,2.4549718,8.086634,0.70188415,-2.605951
676,1778612572930,1.4894813,-1.2991167,2.3263538,8.075027,0.61086524,-2.6340508
677,1778612572940,1.4731296,-1.2852055,2.2702205,7.9803433,0.33414328,-2.71102
678,1778612572950,1.4550693,-1.2795922,2.229707,7.908872,0.12156218,-2.7782152
679,1778612572960,1.4550693,-1.2795922,2.229707,7.908872,0.12156218,-2.7782152
680,1778612572970,1.3545178,-1.202226,2.1928544,7.7543235,-0.5839872,-2.9987376
681,1778612572980,1.3447554,-1.1778203,2.17455,7.733554,-0.8173377,-3.0402763
682,1778612572990,1.3437792,-1.1416998,2.1633234,7.7225585,-0.956615,-3.0653217
683,1778612573000,1.3706255,-1.0689708,2.1232982,7.742717,-1.382999,-3.0995302
684,1778612573010,1.377215,-1.0418804,2.0864456,7.7622647,-1.5522085,-3.100141
685,1778612573020,1.411627,-1.0067362,2.0325086,7.7665405,-1.7751744,-3.0860913
686,1778612573030,1.5121787,-0.94938266,1.9051108,7.747604,-1.9749273,-3.0793717
687,1778612573040,1.5317032,-0.9188756,1.7977256,7.6535306,-2.3860397,-3.159395
688,1778612573050,1.5248697,-0.8844635,1.7037637,7.524638,-2.6841419,-3.2210925
689,1778612573060,1.5446383,-0.83760446,1.5697763,7.2039337,-3.1325169,-3.2241468
690,1778612573070,1.5446383,-0.83760446,1.5697763,7.2039337,-3.1325169,-3.2241468
691,1778612573080,1.5668476,-0.7397375,1.5329236,7.0054026,-3.5149186,-3.1025846
692,1778612573090,1.488017,-0.6980037,1.3484163,7.012733,-3.880827,-3.051272
693,1778612573100,1.488017,-0.6980037,1.3484163,7.012733,-3.880827,-3.051272
694,1778612573110,1.308879,-0.7082541,1.2154051,7.0860367,-4.67373,-2.9614747
695,1778612573120,1.197833,-0.9178993,1.053107,7.1929383,-5.4281487,-2.919325
696,1778612573130,1.1729392,-1.0748281,0.9391323,7.1831646,-5.4202075,-3.0024028
697,1778612573140,1.0794652,-1.325719,0.7136234,7.0927563,-5.172196,-3.1496212
698,1778612573150,0.48054874,-1.8677702,0.22160399,6.1947846,-4.3120975,-3.6511416
699,1778612573160,0.48054874,-1.8677702,0.22160399,6.1947846,-4.3120975,-3.6511416
700,1778612573170,-0.3402158,-2.4993904,-0.18523945,4.6951103,-3.4348953,-3.748269
701,1778612573180,-0.7380291,-2.8632796,-0.35632357,3.602883,-2.7531698,-3.7323866
702,1778612573190,-1.6246891,-3.4207065,-0.45419052,1.6255124,-1.3084733,-3.8948767
703,1778612573200,-2.0278716,-3.7099142,-0.4195344,0.79045963,-0.5662721,-4.076304
704,1778612573210,-2.5955489,-4.024016,-0.48128092,0.3042109,0.16737708,-4.241237
705,1778612573220,-3.3067315,-4.2780795,-0.66700846,0.100792766,0.5149594,-4.13739
706,1778612573230,-4.335433,-4.2875977,-0.959145,-0.57726765,-0.12339478,-1.2156218
707,1778612573240,-4.335433,-4.2875977,-0.959145,-0.57726765,-0.12339478,-1.2156218
708,1778612573250,-3.4731786,-4.1621523,-0.6142921,-0.7489208,-0.6420194,2.143526
709,1778612573260,-2.911603,-3.9327385,-0.48396555,-0.8038987,-0.35430184,3.2705724
710,1778612573270,-1.6222485,-3.356275,-0.3031191,-1.1972959,0.9669997,5.209459
711,1778612573280,-1.1336459,-3.0390007,-0.2809099,-1.4807373,1.6920967,5.4880133
712,1778612573290,-0.38927132,-2.4200716,-0.2421048,-1.9889772,2.1740694,5.540548
713,1778612573300,-0.13960074,-2.152585,-0.19671014,-3.3035593,3.1074715,5.0029864
714,1778612573310,0.031483386,-1.9639287,-0.12764193,-3.8570032,3.3261611,4.714658
715,1778612573320,0.15936938,-1.8091964,-0.009274175,-4.59615,3.540575,4.3346996
716,1778612573330,0.25845662,-1.6564165,0.18694785,-5.267491,3.6774087,4.0286565
717,1778612573340,0.43808278,-1.415044,0.85566473,-6.459289,3.7586539,3.7042868
718,1778612573350,0.43808278,-1.415044,0.85566473,-6.459289,3.7586539,3.7042868
719,1778612573360,0.6262509,-1.3362135,1.2710502,-6.591236,3.8631117,3.8527272
720,1778612573370,0.81783587,-1.3030217,1.5043689,-6.591236,3.8631117,3.8527272
721,1778612573380,0.81783587,-1.3030217,1.5043689,-6.447683,4.280944,4.1239514
722,1778612573390,0.89300543,-1.2771516,1.547567,-6.395759,4.3982296,4.212527
723,1778612573400,1.1287647,-1.2666571,1.5553769,-6.3982024,4.232685,4.2632284
724,1778612573410,1.2727585,-1.292039,1.5905211,-6.613838,3.6138787,4.0689735
725,1778612573420,1.2932593,-1.3396302,1.6632501,-6.776328,3.1038063,3.9675698
726,1778612573430,1.3149804,-1.4118712,1.7713674,-6.895447,2.6676486,3.9309177
727,1778612573440,1.3528093,-1.517548,1.9141409,-7.0542717,2.0482311,3.9431353
728,1778612573450,1.3630598,-1.679846,2.3156152,-7.316944,1.1453724,4.293161
729,1778612573460,1.4289552,-1.7369554,2.5294094,-7.361537,1.0848967,4.583933
730,1778612573470,1.5719727,-1.790892,2.681457,-7.3462653,1.310306,4.987104
731,1778612573480,1.6439695,-1.7747843,2.7827406,-7.231423,1.8173242,5.2363367
732,1778612573490,1.5900329,-1.6459221,2.788598,-7.093978,2.1569653,5.3462925
733,1778612573500,1.5993071,-1.1482893,2.5496662,-6.263812,2.3225098,5.09034
734,1778612573510,1.5993071,-1.1482893,2.5496662,-6.263812,2.3225098,5.09034
735,1778612573520,1.4909457,-0.8642067,2.0100555,-5.4837375,1.6627752,3.8704422
736,1778612573530,1.3842927,-0.85322416,1.8150537,-5.5130587,1.4923438,3.4012976
737,1778612573540,1.3296238,-0.8793382,1.7171869,-5.713423,1.2742649,2.937651
738,1778612573550,1.3057063,-0.9359596,1.6691074,-5.9993076,1.0861185,2.4654522
739,1778612573560,1.2722704,-1.1031388,1.765022,-6.5160995,0.8881981,1.7165314
740,1778612573570,1.2810564,-1.2122324,1.8892472,-6.767165,0.86070913,1.3909402
741,1778612573580,1.3069266,-1.2856936,2.0102994,-6.9296556,0.87598073,1.2095132
742,1778612573590,1.2903306,-1.3264512,2.1394057,-7.1006975,0.9682214,1.078788
743,1778612573600,1.27886,-1.2244352,2.3156152,-7.2143188,1.0115929,1.1355985
744,1778612573610,1.2842293,-1.1507299,2.3758974,-7.1697254,0.7128797,1.2443326
745,1778612573620,1.3096112,-1.087275,2.4901161,-7.1239104,0.08552113,1.400714
746,1778612573630,1.7108413,-0.9076489,2.96676,-7.013344,-0.7330383,1.6334536
747,1778612573640,2.4930449,-0.5720702,3.5068583,-6.623001,-1.8289305,2.098933
748,1778612573650,2.4930449,-0.5720702,3.5068583,-6.363994,-1.998751,2.3530529
749,1778612573660,2.8566902,-0.38316986,3.675746,-6.20578,-1.7421877,2.502104
750,1778612573670,2.929419,0.5191097,3.7406654,-6.3768225,0.15515977,2.6627617
751,1778612573680,2.9013526,1.0167425,3.9271252,-6.871012,1.0329732,2.588236
752,1778612573690,3.0214286,1.4916779,4.209255,-6.78488,0.7452556,2.4465153
753,1778612573700,3.2779331,2.0105436,4.5982823,-6.1953955,0.22357668,2.1862867
754,1778612573710,3.423635,2.3424613,4.805487,-5.4464746,-0.11362094,1.8606955
755,1778612573720,3.1668868,2.7222145,4.6488028,-3.1936035,-0.8356637,0.8539896
756,1778612573730,3.0660913,2.7956758,4.43208,-2.5906794,-1.142318,0.6059783
757,1778612573740,3.150291,2.9440625,4.2517214,-2.0451767,-1.4856243,0.36468655
758,1778612573750,3.2076445,3.0121546,4.300045,-1.3341297,-1.704314,-0.19303341
759,1778612573760,3.1922688,3.0382686,4.36594,-0.90469146,-1.4862351,-0.5748242
760,1778612573770,3.171768,2.932592,4.3383617,-0.45020768,-0.9285152,-0.9431759
761,1778612573780,3.0531561,2.8000689,4.301509,-0.032986723,-0.07147124,-1.4337007
762,1778612573790,2.6065314,2.4125059,4.216333,0.82772243,1.2852604,-2.2382102
763,1778612573800,2.2184803,1.671304,4.208035,1.3952162,1.7275269,-2.7672195
764,1778612573810,2.0342171,1.3205938,4.164349,2.543643,1.9559906,-3.3750305
765,1778612573820,1.7130377,0.61770886,3.871968,3.6798522,1.8765781,-3.4348953
766,1778612573830,1.7130377,0.61770886,3.871968,3.6798522,1.8765781,-3.4348953
767,1778612573840,1.547567,0.34558508,3.6733055,4.2186356,1.6475036,-3.3444872
768,1778612573850,1.3452435,0.014887493,3.377264,4.6712866,1.2932017,-3.2100968
769,1778612573860,1.2429836,-0.27358818,3.1847029,5.5191674,0.23884831,-2.85213
770,1778612573870,1.1778203,-0.41221267,3.1515112,5.765346,-0.034208454,-2.7043004
771,1778612573880,1.1126571,-0.5110559,3.1598094,5.96571,-0.14110987,-2.5411994
772,1778612573890,1.0677505,-0.58964235,3.159321,6.295577,-0.15149458,-2.26631
773,1778612573900,1.0301657,-0.66749656,3.1332068,6.677979,-0.1142318,-1.9792033
774,1778612573910,1.0267489,-0.80123997,2.937961,7.360926,-0.19608775,-1.6444492
775,1778612573920,1.0787331,-0.8705522,2.8037298,7.7036214,-0.32925636,-1.604743
776,1778612573930,1.1412116,-0.9440134,2.6743793,7.899709,-0.4428773,-1.6450601
777,1778612573940,1.2593354,-1.1014304,2.5169625,8.220413,-0.75686204,-1.9321668
778,1778612573950,1.3388981,-1.1761118,2.450579,8.319984,-0.8924741,-2.1197023
779,1778612573960,1.3679409,-1.24518,2.4007912,8.374963,-0.98654735,-2.2785273
780,1778612573970,1.5653832,-1.3818521,2.3478308,8.480642,-1.2651019,-2.8460212
781,1778612573980,1.5653832,-1.3818521,2.3478308,8.480642,-1.2651019,-2.8460212
782,1778612573990,1.598819,-1.5058333,2.3614979,8.462927,-1.2883148,-2.9840767
783,1778612574000,1.5702643,-1.5317032,2.340265,8.444601,-1.0262536,-3.1477885
784,1778612574010,1.5338998,-1.5224291,2.1584423,8.227744,-0.76052725,-3.2443054
785,1778612574020,1.5387809,-1.4638554,2.0691173,8.003556,-0.72143185,-3.291342
786,1778612574030,1.5717287,-1.4101628,2.0093234,7.8209076,-0.752586,-3.3432655
787,1778612574040,1.6176114,-1.3630598,1.9585594,7.8209076,-0.752586,-3.3432655
788,1778612574050,1.6627622,-1.274711,1.9151171,7.3627586,-1.1337659,-3.6065483
789,1778612574060,1.6212723,-1.2337095,1.7823502,7.0829825,-1.6823229,-3.8673878
790,1778612574070,1.6212723,-1.2337095,1.7823502,6.8960576,-1.9663752,-3.9871175
791,1778612574080,1.5641629,-1.2034464,1.7105973,6.7201285,-2.179567,-4.047593
792,1778612574090,1.4787428,-1.1521943,1.6681312,6.4427958,-2.4599543,-4.084856
793,1778612574100,1.4787428,-1.1521943,1.6681312,6.162409,-2.666427,-4.0555344
794,1778612574110,1.518036,-1.0880072,1.730854,5.920506,-2.9034426,-3.9003747
795,1778612574120,1.5993071,-1.0001466,1.5446383,5.9650993,-3.2876768,-3.8185186
796,1778612574130,1.5792944,-0.9652464,1.3750186,6.2772512,-4.783075,-3.6419785
797,1778612574140,1.3303561,-0.9440134,1.0003906,6.413474,-6.038403,-3.5271358
798,1778612574150,1.1692783,-0.9752528,0.90472025,6.2650337,-8.169101,-3.2577443
799,1778612574160,1.090936,-1.3066825,0.6892177,5.8068852,-8.797681,-3.1520646
800,1778612574170,1.0828819,-1.5216969,0.447601,5.502674,-8.388402,-3.3982434
801,1778612574180,0.9220483,-1.743545,0.07468152,4.866153,-7.574729,-4.0176606
802,1778612574190,0.14130914,-2.0923028,-0.42929673,3.8093557,-6.724405,-4.7696357
803,1778612574200,-0.2238005,-2.310734,-0.29579738,1.3787229,-5.009706,-5.748242
804,1778612574210,-0.5864696,-2.6026266,0.022209208,0.27305678,-3.5992181,-5.9363885
805,1778612574220,-1.04066,-2.9816473,0.29091623,-0.37812558,-1.844813,-5.848424
806,1778612574230,-1.4916779,-3.296237,0.37365165,-0.57604593,-0.49968776,-5.6767707
807,1778612574240,-3.000684,-3.77703,0.1342315,-0.44226643,1.6713274,-4.8160615
808,1778612574250,-3.6298635,-3.986187,-0.23429495,-0.27366763,1.7238617,-4.2449026
809,1778612574260,-4.1619086,-4.250501,-0.5427833,-0.08857546,1.3500122,-3.350596
810,1778612574270,-4.6858993,-4.4230494,-0.7106947,0.07819075,0.5039638,-2.2559254
811,1778612574280,-5.3538837,-4.4743013,-0.75486904,0.16432275,-1.2638801,2.4489589
812,1778612574290,-4.2612395,-4.3347006,-0.2853029,0.11301007,-0.9993755,4.309654
813,1778612574300,-3.3833656,-4.170206,-0.027334413,0.07269296,-0.54061574,5.4812937
814,1778612574310,-2.4574125,-3.942745,0.16937573,-0.0012217305,0.32620203,6.592458
815,1778612574320,-0.7497439,-3.3062434,0.19939478,-0.6444628,2.1856759,7.343211
816,1778612574330,-0.10055158,-2.957974,0.17059602,-1.3878858,3.285844,7.306559
817,1778612574340,0.34460884,-2.6934156,0.17206036,-2.2424862,4.3603563,7.095811
818,1778612574350,0.95572823,-2.2026167,0.26870704,-3.7097847,5.6718836,6.5063257
819,1778612574360,1.1024066,-1.9722266,0.49299565,-4.382958,5.988923,6.3071837
820,1778612574370,1.4106508,-1.6788697,0.87616557,-5.0029864,5.9046235,6.263201
821,1778612574380,1.6720362,-1.5043689,1.2830089,-5.177694,5.3255234,6.38232
822,1778612574390,1.6720362,-1.5043689,1.2830089,-5.177694,5.3255234,6.38232
823,1778612574400,1.7674625,-1.4638554,1.4528728,-5.0885077,5.039027,6.483113
824,1778612574410,1.850442,-1.4394495,1.6410409,-4.8624873,4.6810603,6.631553
825,1778612574420,1.9146291,-1.4018649,1.8079761,-4.517959,4.4348817,6.7757173
826,1778612574430,2.0129843,-1.2385906,1.777469,-3.3719761,4.425108,6.594901
827,1778612574440,1.9466007,-1.1773322,1.5790504,-3.3334916,4.3285913,6.2534275
828,1778612574450,1.9021822,-1.1573195,1.3999124,-3.5259142,4.169155,5.9284472
829,1778612574460,1.8611807,-1.1397473,1.2949678,-4.0689735,3.9431353,5.458081
830,1778612574470,1.8001662,-1.1580516,1.4011327,-5.2516084,3.8527272,4.7983465
831,1778612574480,1.7674625,-1.1983211,1.5470788,-5.8300977,3.9730675,4.5045204
832,1778612574490,1.7062042,-1.2224828,1.6878998,-6.263201,4.0958514,4.283998
833,1778612574500,1.6866796,-1.2498171,1.9424516,-6.6474357,4.130671,4.0365977
834,1778612574510,1.692537,-1.1707426,2.0259192,-6.677979,4.1318927,3.8649445
835,1778612574520,1.692537,-1.1707426,2.0259192,-6.618725,4.1099014,3.6511416
836,1778612574530,1.5214529,-1.0113733,1.8663057,-6.4165287,3.566842,2.9614747
837,1778612574540,1.5214529,-1.0113733,1.8663057,-6.378655,3.349374,2.7629435
838,1778612574550,1.4372531,-0.9589009,1.8052914,-6.378655,3.349374,2.7629435
839,1778612574560,1.2437156,-0.8571291,1.6881441,-6.3316183,2.9278772,2.252871
840,1778612574570,1.0474937,-0.7682922,1.5919853,-6.318179,2.8539624,1.8490891
841,1778612574580,0.99209267,-0.72875494,1.5544006,-6.324288,2.9181032,1.649947
842,1778612574590,0.92912596,-0.69214636,1.5265781,-6.3139033,2.9578094,1.5155567
843,1778612574600,0.86371857,-0.673598,1.4850883,-6.28336,2.9168816,1.3720033
844,1778612574610,0.8849516,-0.7426662,1.4526287,-6.2155538,2.6780334,1.287704
845,1778612574620,0.9230245,-0.8241814,1.4433545,-6.0145793,1.7208074,1.2986995
846,1778612574630,0.94279313,-0.93937635,1.4653198,-5.906456,0.98837996,1.4141531
847,1778612574640,0.88421935,-1.1355984,1.543174,-5.801998,0.12034045,1.5968018
848,1778612574650,0.716064,-1.7496464,2.3715043,-5.454416,-1.9291124,2.4092526
849,1778612574660,0.716064,-1.7496464,2.3715043,-5.454416,-1.9291124,2.4092526
850,1778612574670,1.6593453,-1.786255,3.0831752,-4.469701,-4.062865,4.4849725
851,1778612574680,1.6593453,-1.786255,3.0831752,-3.4758232,-4.805066,6.1220913
852,1778612574690,3.645239,-1.3030217,3.2815938,-1.0916162,-4.909524,8.406728
853,1778612574700,4.898961,-0.012202863,2.7583349,-0.53878313,-4.564996,8.448877
854,1778612574710,5.042955,0.9127741,2.604579,-1.4404203,-2.765998,6.6333857
855,1778612574720,4.702251,1.4138237,2.8974476,-2.824641,1.8161024,3.6456437
856,1778612574730,4.139699,1.2761754,2.8549817,-3.2992833,3.9883392,1.8161024
857,1778612574740,4.139699,1.2761754,2.8549817,-3.2992833,3.9883392,1.8161024
858,1778612574750,2.9567537,1.0357789,2.7385664,-3.6364808,5.1349335,0.40317106
859,1778612574760,2.7270956,1.0194272,2.9213653,-3.2931745,4.4208317,0.86376345
860,1778612574770,3.5285797,1.1741594,3.0675557,-1.5540411,2.2956316,2.2498167
861,1778612574780,4.0276766,1.2881342,2.835457,-0.3567453,1.0684034,2.543643
862,1778612574790,4.356666,1.5148634,2.452043,0.5363397,0.0030543262,2.3860397
863,1778612574800,4.164349,2.2816913,2.6995173,2.008525,-2.1386392,1.368949
864,1778612574810,4.164349,2.2816913,2.6995173,2.008525,-2.1386392,1.368949
865,1778612574820,3.912238,2.2284868,2.874018,2.9944615,-0.68661255,-0.41599923
866,1778612574830,3.909309,1.211012,3.287939,3.8655553,0.21380283,-2.1551325
867,1778612574840,3.7145514,1.0206474,3.27476,4.5271225,0.72204274,-3.1764994
868,1778612574850,3.1812863,0.6548056,2.9013526,5.345071,0.9242391,-3.9956696
869,1778612574860,3.1812863,0.6548056,2.9013526,6.885062,0.3005457,-4.9247956
870,1778612574870,2.3397768,0.014887493,2.4417927,7.6315393,-0.54061574,-5.010317
871,1778612574880,1.9883344,-0.30580372,2.21604,8.42261,-2.3041837,-4.111123
872,1778612574890,1.8472692,-0.656514,1.9714943,8.595485,-3.3121114,-2.6713138
873,1778612574900,1.8397036,-0.5989165,2.0139604,8.571051,-3.4330628,-2.0720549
874,1778612574910,1.8694785,-0.5103237,2.0393424,8.607091,-3.4330628,-1.704314
875,1778612574920,2.0988922,-0.47762007,1.8069998,8.649241,-3.4049628,-1.5961909
876,1778612574930,2.1630795,-0.48201308,1.6134624,8.332813,-3.44528,-2.0506747
877,1778612574940,2.1625912,-0.44882128,1.4025971,7.8147993,-3.5674531,-2.489276
878,1778612574950,2.1386735,-0.39927766,1.2515256,7.2815137,-3.667635,-2.8154778
879,1778612574960,2.0947433,-0.34216827,1.1761118,6.4525695,-3.7464366,-3.1783319
880,1778612574970,2.2585058,-0.2884757,1.4143118,5.0170364,-4.003,-3.7360518
881,1778612574980,2.5606487,-0.40147418,1.9409873,4.0866885,-4.2797217,-4.7433686
882,1778612574990,2.5606487,-0.40147418,1.9409873,4.0866885,-4.2797217,-4.7433686
883,1778612575000,2.6494853,-0.4893348,2.1967592,3.8270707,-3.8777726,-5.5423803
884,1778612575010,2.5157423,-0.8561529,2.8056822,4.0414844,-2.5851817,-6.0115247
885,1778612575020,2.353444,-0.933519,2.8767028,4.2638392,-2.3267858,-6.019466
886,1778612575030,2.2272666,-0.97134787,2.868893,4.6425757,-2.3145685,-5.9620447
887,1778612575040,2.1774788,-0.9725681,2.7119641,4.6425757,-2.3145685,-5.9620447
888,1778612575050,2.1962712,-0.9669548,2.5816374,5.6230145,-3.4385605,-5.693875
889,1778612575060,2.1979795,-0.9803779,2.4491146,5.707314,-3.9791763,-5.6107974
890,1778612575070,2.1965153,-0.946454,2.2341,5.6505036,-4.3860126,-5.5362716
891,1778612575080,2.2604582,-0.91253006,2.2223854,5.213124,-5.1880784,-5.4122663
892,1778612575090,2.272905,-0.89056486,2.251184,4.9913797,-5.249165,-5.468466
893,1778612575100,2.1660082,-0.8576172,2.318788,4.8936415,-5.159979,-5.4837375
894,1778612575110,1.9634405,-0.852492,2.042271,4.791627,-4.0494256,-5.4415874
895,1778612575120,1.7757605,-0.79318607,1.8270127,4.6670103,-3.640146,-5.493511
896,1778612575130,1.5302389,-0.7582859,1.6717921,4.5252895,-3.5662313,-5.411044
897,1778612575140,1.3437792,-0.7643873,1.560258,4.4299946,-3.8270707,-5.2687125
898,1778612575150,1.3437792,-0.7643873,1.560258,4.4299946,-3.8270707,-5.2687125
899,1778612575160,0.9298581,-0.9132622,1.3369455,4.555833,-5.8453693,-4.1135664
900,1778612575170,0.8876362,-1.0077124,1.2434716,4.6108108,-6.1208696,-3.8240163
901,1778612575180,0.8851956,-1.1460928,1.2949678,4.6810603,-6.1257567,-3.6413677
902,1778612575190,0.97476465,-1.4047935,1.2981404,4.8252244,-5.70426,-3.9229765
903,1778612575200,0.3048275,-2.0110316,0.77756643,4.6999974,-4.2968264,-5.154481
904,1778612575210,-0.22453266,-2.3510034,0.42587993,4.03843,-3.5069773,-5.734192
905,1778612575220,-0.72729063,-2.70269,0.21501444,3.287066,-2.9791899,-5.996253
906,1778612575230,-0.72729063,-2.70269,0.21501444,3.287066,-2.9791899,-5.996253
907,1778612575240,-2.7820086,-4.1724024,0.19256116,1.0158689,-0.23884831,-5.490457
908,1778612575250,-2.7820086,-4.1724024,0.19256116,1.0158689,-0.23884831,-5.490457
909,1778612575260,-4.454533,-4.616099,-0.7185045,0.9193522,0.21135938,-4.9400673
910,1778612575270,-4.454533,-4.616099,-0.7185045,0.32070425,0.32620203,-3.2015448
911,1778612575280,-4.4904094,-4.605849,-0.59867245,-0.2938262,-0.03726278,-0.017715093
912,1778612575290,-4.1570272,-4.4523363,-0.44442827,-0.35918877,-0.007330383,1.3243558
913,1778612575300,-2.8759706,-3.9310303,-0.090789296,-0.34391713,0.70921457,4.510629
914,1778612575310,-2.1284232,-3.6369412,0.05832968,-0.3304781,1.0476339,5.3695054
915,1778612575320,-1.3179091,-3.2898917,0.18304294,-0.34269542,1.4520267,6.1434717
916,1778612575330,-0.7080101,-2.9857962,0.25699228,-0.40500367,1.8442022,6.522208
917,1778612575340,-0.12813005,-2.6538785,0.2923806,-0.54000485,2.2455406,6.5674124
918,1778612575350,0.50837123,-2.15771,0.31605414,-1.0433578,2.9407053,6.2137213
919,1778612575360,0.73729694,-1.9329334,0.34558508,-1.4953982,3.3334916,5.963877
920,1778612575370,0.8815348,-1.7467177,0.3841461,-1.8820758,3.630372,5.794057
921,1778612575380,0.9886759,-1.5592817,0.43491003,-2.4483478,4.0011673,5.6022453
922,1778612575390,1.0628693,-1.3269392,0.59867245,-3.5234706,4.411058,5.3597317
923,1778612575400,1.0682385,-1.2363939,0.89861876,-4.1013494,4.5032988,5.30903
924,1778612575410,1.1900232,-1.2053988,1.3264512,-5.0469685,4.425719,5.290093
925,1778612575420,1.2776396,-1.1741594,1.5094941,-5.04086,4.2510114,5.269324
926,1778612575430,1.4426224,-1.1160738,1.6905845,-4.881424,4.015828,5.2015176
927,1778612575440,1.5365844,-1.0479817,1.7891837,-4.6761737,3.9315288,5.1117206
928,1778612575450,1.6010156,-0.97549677,1.7518429,-4.0915756,4.0011673,4.8307223
929,1778612575460,1.5980868,-0.95524013,1.6539761,-3.997502,4.0640864,4.704273
930,1778612575470,1.5524482,-0.9159469,1.5295068,-4.051258,4.1037927,4.541172
931,1778612575480,1.5060773,-0.9103335,1.4687365,-4.2858305,4.0640864,4.4006734
932,1778612575490,1.4826478,-0.9371798,1.4255384,-4.9400673,4.048204,4.194812
933,1778612575500,1.4653198,-0.9471862,1.4484798,-5.3823338,4.11601,4.0286565
934,1778612575510,1.4506763,-0.9354714,1.4828918,-5.847813,4.235129,3.8105774
935,1778612575520,1.4086984,-0.8917852,1.5529363,-7.059159,4.579046,2.805704
936,1778612575530,1.3327967,-0.8710403,1.5949141,-7.3371024,4.5888195,2.5216517
937,1778612575540,1.2759314,-0.8598137,1.6561725,-7.6095486,4.520403,2.1960607
938,1778612575550,1.2295604,-0.8520039,1.7242645,-7.7537127,4.3536367,1.9199494
939,1778612575560,1.1722069,-0.8295506,1.8094405,-7.764097,4.0818014,1.7037032
940,1778612575570,1.0338265,-0.7834238,1.944404,-7.4195695,3.4165692,1.5406022
941,1778612575580,1.0101529,-0.77244115,1.9919952,-7.0787063,2.9724703,1.4837917
942,1778612575590,1.0133257,-0.76756,2.0198178,-6.8038173,2.6279423,1.4135422
943,1778612575600,1.0767806,-0.844438,2.076439,-6.2674775,1.9150625,1.0409144
944,1778612575610,1.0831261,-0.9135063,2.1264708,-6.1868434,1.7599027,0.8588765
945,1778612575620,1.069947,-1.0111293,2.2365406,-6.1501913,1.6670512,0.6389651
946,1778612575630,1.1377949,-1.2888663,2.5543032,-6.14225,1.7293595,0.46609017
947,1778612575640,1.1377949,-1.2888663,2.5543032,-6.1581326,1.9529362,0.34574974
948,1778612575650,1.0277251,-1.1129011,2.6665695,-6.5961227,3.462995,-0.08307768
949,1778612575660,0.92595315,-0.8886124,2.8657203,-6.6529336,3.8093557,-0.055588737
950,1778612575670,0.7473033,-0.45248213,3.5312643,-5.73297,2.9126055,0.47403142
951,1778612575680,0.5444917,-0.328257,3.7167478,-4.9834385,2.0885482,0.9083566
952,1778612575690,0.35241866,-0.054668825,3.7623863,-3.9541306,0.98715824,1.8478674
953,1778612575700,0.60599416,0.21330604,3.7206526,-3.9541306,0.98715824,1.8478674
954,1778612575710,2.225558,0.84931916,3.4197302,-2.7061331,-0.35246924,3.9150352
955,1778612575720,2.9508963,1.1722069,3.1566365,-2.9950724,0.03848451,4.332867
956,1778612575730,3.1988585,1.6117541,2.8666964,-4.1153994,0.5174029,3.5466835
957,1778612575740,2.9735935,2.033241,3.005077,-5.126992,0.73364913,2.8704557
958,1778612575750,2.7219706,2.3951778,3.576903,-6.1269784,0.52290064,2.1331415
959,1778612575760,2.4727879,3.1048963,5.032705,-5.90218,-0.30604348,1.640784
960,1778612575770,2.6548548,3.4390104,5.3009233,-4.92113,-0.45204028,1.6022996
961,1778612575780,2.8086107,3.7445705,5.1723056,-3.9260309,-0.21319197,1.3310753
962,1778612575790,2.1711333,4.402793,4.6273255,-2.2534819,1.1368202,-0.7287622
963,1778612575800,2.1711333,4.402793,4.6273255,-2.2534819,1.1368202,-0.7287622
964,1778612575810,2.0061505,4.192171,4.523601,-0.8008443,2.125811,-2.1557434
965,1778612575820,1.2205303,3.456339,4.113585,0.75808376,2.1832323,-2.356718
966,1778612575830,1.1783084,3.1280818,4.0435405,1.3622295,2.0787745,-2.1991148
967,1778612575840,1.1177822,2.8178852,3.9293215,2.1533,1.9004018,-1.9975294
968,1778612575850,1.0557917,2.5108612,3.7504277,2.85946,1.6939293,-1.831374
969,1778612575860,1.0902036,1.9844296,3.4368143,3.830125,1.3707817,-1.6242907
970,1778612575870,1.1319375,1.7459855,3.3174703,4.2534547,1.3182472,-1.5619824
971,1778612575880,1.1702545,1.5212089,3.2430327,4.5307875,1.2925909,-1.5406022
972,1778612575890,1.1885588,1.1224194,3.1439455,4.89242,1.287093,-1.5271631
973,1778612575900,1.2044226,0.93205464,3.0770738,5.6975403,1.205848,-1.4905112
974,1778612575910,1.2197981,0.7739055,2.9940944,5.991977,1.133155,-1.491733
975,1778612575920,1.2224828,0.64016217,2.8674288,6.310238,0.9596693,-1.5253305
976,1778612575930,1.2036903,0.5227706,2.720262,6.491054,0.7324274,-1.6016886
977,1778612575940,1.1917315,0.18645974,2.5723634,6.510602,0.37873647,-1.9730947
978,1778612575950,1.1917315,0.18645974,2.5723634,6.510602,0.37873647,-1.9730947
979,1778612575960,1.2161373,0.04344219,2.565286,6.4672303,0.44348818,-2.1135938
980,1778612575970,1.1687901,-0.24088451,2.566262,6.3108487,0.73975784,-2.4013114
981,1778612575980,1.0062481,-0.46078008,2.647289,6.2851925,0.86926126,-2.4410176
982,1778612575990,0.912286,-0.55108124,2.7527218,6.539923,0.8912524,-2.3084598
983,1778612576000,0.912286,-0.55108124,2.7527218,6.539923,0.8912524,-2.3084598
984,1778612576010,0.8278422,-0.92497694,2.716113,7.3462653,0.6805039,-2.0091357
985,1778612576020,0.8293065,-1.0265048,2.614097,8.21125,0.17898351,-1.4990633
986,1778612576030,0.83028275,-1.1014304,2.5118372,8.407338,-0.06719518,-1.282817
987,1778612576040,0.8498074,-1.1438963,2.4230003,8.567385,-0.43860126,-1.0054842
988,1778612576050,0.9096014,-1.1460928,2.3697958,8.734762,-1.3365731,-0.5589417
989,1778612576060,0.94669807,-1.1434082,2.3719923,8.823338,-1.700038,-0.4269948
990,1778612576070,1.0179628,-1.1541467,2.3566167,8.947343,-2.1374176,-0.2950479
991,1778612576080,1.2605556,-1.0343146,2.1342807,9.012706,-2.4984388,-0.22357668
992,1778612576090,1.2605556,-1.0343146,2.1342807,8.83861,-2.9523118,-0.22724187
993,1778612576100,1.3730661,-0.95938903,2.0561824,8.59182,-3.1764994,-0.3726278
994,1778612576110,1.445063,-0.86982006,2.0100555,8.363356,-3.3560936,-0.5564982
995,1778612576120,1.6334751,-0.65944266,1.8150537,7.6462,-3.816075,-1.1685852
996,1778612576130,1.6334751,-0.65944266,1.8150537,7.6462,-3.816075,-1.1685852
997,1778612576140,1.6339632,-0.592571,1.7369554,6.8465776,-3.9999456,-1.8356501
998,1778612576150,1.5807588,-0.5122762,1.5961344,5.9620447,-4.013385,-2.5497515
999,1778612576160,1.5190123,-0.47127452,1.4972912,5.359121,-4.174042,-3.2528574
1000,1778612576170,1.4955828,-0.45297024,1.4423783,5.039638,-4.288885,-3.6664133
