id,timestamp,acc_x,acc_y,acc_z,gyro_x,gyro_y,gyro_z
0,1780383625307980,-0.58158845,-0.71728426,0.27529657,-0.052534413,0.105068825,-0.13744467
1,1780383625317980,-0.5764632,-0.7311955,0.117879644,-0.1001819,-0.12461651,-0.19242255
2,1780383625327980,-0.5366819,-0.7900133,0.12715383,-0.56138515,-0.28221974,-0.3115413
3,1780383625337980,-0.545712,-0.77292925,0.19597797,-0.7067711,-0.35613444,-0.35185838
4,1780383625347980,-0.59232694,-0.7072779,0.33655494,-0.7483099,-0.4111123,-0.36835176
5,1780383625357980,-0.5640163,-0.7560893,0.3909797,-0.6805039,-0.3744604,-0.41783184
6,1780383625367980,-0.584029,-0.7494998,0.4300289,-0.58032197,-0.24923302,-0.44776422
7,1780383625377980,-0.5937913,-0.70239675,0.54717636,-0.47158796,-0.0842994,-0.44715336
8,1780383625387980,-0.65919864,-0.6155124,0.5232587,-0.3652974,0.02687807,-0.45570546
9,1780383625397980,-0.7050814,-0.6706693,0.4825012,0.13561209,0.25961772,-0.5009095
10,1780383625407980,-0.72582626,-0.7148437,0.41245672,0.25289822,0.18203785,-0.42149702
11,1780383625417980,-0.6987359,-0.7228975,0.24552159,0.2669481,0.073303826,-0.31337386
12,1780383625427980,-0.6587105,-0.7397375,0.19915071,0.20891592,-0.014049901,-0.24617869
13,1780383625437980,-0.6186851,-0.7739055,0.17035197,-0.039095376,-0.118507855,-0.16676621
14,1780383625447980,-0.60306543,-0.80172807,0.17742962,-0.12095132,-0.10323623,-0.124005646
15,1780383625457980,-0.579636,-0.79513854,0.2135501,-0.15515977,-0.092240654,-0.10873401
16,1780383625467980,-0.5981843,-0.75389284,0.23307467,-0.17348573,-0.04153884,-0.096516706
17,1780383625477980,-0.6106312,-0.7145996,0.2562601,-0.17837265,-0.007330383,-0.047647487
18,1780383625487980,-0.6360132,-0.69165826,0.2928687,-0.15027285,0.06352998,-0.03176499
19,1780383625497980,-0.6643238,-0.6457755,0.30677995,-0.06963864,0.14966199,-0.02687807
20,1780383625507980,-0.626739,-0.59964865,0.33704305,0.20647246,0.0036651916,-0.06291912
21,1780383625517980,-0.40049794,-0.39464056,0.4893348,0.57726765,-1.065349,-0.45265114
22,1780383625527980,-0.528628,-0.41684976,0.2809099,0.73364913,-1.3121386,-0.6261369
23,1780383625537980,-0.3236199,-0.45809543,0.09493827,0.70005155,-0.9584476,-0.9120218
24,1780383625547980,-0.16815543,-0.53082454,0.2626056,0.50579643,0.1160644,-1.0482447
25,1780383625557980,-0.011714748,-0.5098356,0.42734426,0.4886922,1.2522738,-1.7947221
26,1780383625567980,0.041977845,-0.48616204,0.3499781,0.5296202,1.9657644,-2.398257
27,1780383625577980,-0.011714748,-0.5747548,0.5427833,0.44837508,2.4007003,-3.3341024
28,1780383625587980,-0.09689073,-0.52301466,0.49055508,0.9388999,2.882673,-4.0555344
29,1780383625597980,0.03099527,-0.7231416,0.59867245,1.2534955,2.6823094,-4.437936
30,1780383625607980,0.24454537,-1.1575636,0.59745216,1.5473217,2.701857,-4.87165
31,1780383625617980,0.24454537,-1.1575636,0.59745216,1.9071213,2.6688702,-5.3658404
32,1780383625627980,-0.15888128,-0.6545615,0.35607952,1.9071213,2.6688702,-5.3658404
33,1780383625637980,-0.24600971,-0.50788313,0.20769271,1.7733418,1.5961909,-5.1355443
34,1780383625647980,-0.21257387,-0.469078,0.24967057,0.75686204,-0.27855456,-4.5533895
35,1780383625657980,-0.18963248,-0.47688788,0.30873242,0.47525316,-0.91324353,-4.388456
36,1780383625667980,-0.1461903,-0.45199403,0.3734076,-0.19425514,-2.7757716,-4.0958514
37,1780383625677980,-0.099819414,-0.43881494,0.3577879,-0.44959682,-3.7067304,-4.034154
38,1780383625687980,-0.06369894,-0.3790209,0.20134723,-0.80573124,-4.3035455,-3.961461
39,1780383625697980,-0.084931925,-0.36413342,0.0741934,-1.5858061,-5.0897293,-3.6658022
40,1780383625707980,-0.117635585,-0.3773125,-0.18694785,-1.9187278,-5.087897,-3.4709363
41,1780383625717980,-0.107873306,-0.45638704,-0.23746772,-2.8405235,-4.289496,-2.8790078
42,1780383625727980,-0.099087246,-0.5213063,-0.060770255,-3.1587842,-3.5790594,-2.6358836
43,1780383625737980,-0.093717985,-0.5098356,-0.057109397,-3.372587,-0.034208454,-1.9388863
44,1780383625747980,-0.0959145,-0.44394013,-0.117391534,-3.3799174,1.006095,-1.7250835
45,1780383625757980,-0.05296042,-0.49006698,-0.047103047,-3.2968397,1.9730947,-1.4801265
46,1780383625767980,-0.010006348,-0.52350277,0.036608588,-3.0677652,2.860682,-1.2803736
47,1780383625777980,0.053204484,-0.60599416,0.08908089,-2.4208589,4.32798,-1.0720685
48,1780383625787980,0.56645685,-1.6481185,-0.047103047,-2.031127,4.785518,-1.6255124
49,1780383625797980,1.5558649,-3.1815302,-0.15936938,-1.3994923,4.8539352,-2.6352727
50,1780383625807980,1.4889933,-3.589838,-0.2767609,-0.79351395,4.860655,-3.4208453
51,1780383625817980,1.5658714,-4.319081,-0.20134723,0.4098906,3.8704422,-4.309654
52,1780383625827980,1.2978964,-4.2517214,0.20110317,0.41355577,2.4697282,-4.02438
53,1780383625837980,0.25040275,-2.51623,0.47835222,0.13500121,0.35430184,-2.8405235
54,1780383625847980,0.11861181,-1.5485432,0.41343296,-0.03604105,-1.2479976,-1.2687671
55,1780383625857980,0.17669745,-1.0960611,0.3572998,-0.081855945,-2.1099286,0.47708577
56,1780383625867980,0.23771177,-0.5127643,0.14374973,0.0,-1.953547,0.8374963
57,1780383625877980,0.23771177,-0.5127643,0.14374973,0.099571034,-1.5888605,0.9443977
58,1780383625887980,0.2518671,-0.4651731,0.03636453,0.13561209,-1.3225232,0.9254609
59,1780383625897980,0.26626647,-0.46639338,-0.06467517,0.06536258,-0.7849618,0.5552765
60,1780383625907980,0.22306833,-0.50666285,-0.23942018,-0.17165314,-0.3640757,0.037873644
61,1780383625917980,0.009274175,-0.60770255,-0.29774985,-0.2779437,-0.14782938,-0.08368854
62,1780383625927980,0.04075756,-0.6987359,-0.3184947,-0.44104472,0.25411993,0.00061086525
63,1780383625937980,0.09298581,-0.7648754,-0.30092257,-0.5552765,0.38362336,0.0421497
64,1780383625947980,0.13179092,-0.79538256,-0.19085276,-0.657291,0.4428773,0.07880162
65,1780383625957980,0.13349932,-0.79440635,-0.11251039,-0.72387534,0.42638394,0.10995574
66,1780383625967980,0.13960074,-0.7987994,-0.03904916,-0.86193085,0.1966986,0.22602014
67,1780383625977980,0.17059602,-0.8151512,0.03172744,-0.8857546,0.122783914,0.26816985
68,1780383625987980,0.08005078,-0.90838104,0.11226633,-0.9071349,0.07696902,0.34574974
69,1780383625997980,0.044418417,-0.97793734,0.16010156,-0.9315695,0.040927973,0.48563787
70,1780383626007980,0.054668825,-0.9989263,0.23112221,-0.929126,0.029932396,0.5821546
71,1780383626017980,0.29530928,-0.8937377,0.5845171,-0.089186326,0.29443705,0.6432411
72,1780383626027980,0.29530928,-0.8937377,0.5845171,-0.089186326,0.29443705,0.6432411
73,1780383626037980,0.45370242,-0.8324793,0.63454884,0.9279043,0.017715093,0.56688297
74,1780383626047980,0.60941094,-0.7468152,0.50763905,1.1917981,-0.10751228,0.4972443
75,1780383626057980,0.63015586,-0.6823841,0.3939084,1.3347405,-0.2602286,0.4111123
76,1780383626067980,0.5981843,-0.66090703,0.2711476,1.2968669,-0.59864795,0.33841935
77,1780383626077980,0.5427833,-0.6262509,0.1701079,1.1508701,-0.76174897,0.3817908
78,1780383626087980,0.37365165,-0.60086894,0.051007964,0.9896017,-0.893085,0.47219884
79,1780383626097980,0.3031191,-0.571338,-0.017572122,0.86132,-0.9114109,0.56321776
80,1780383626107980,0.2362474,-0.5535218,-0.08029483,0.38545597,-0.7874053,0.7244862
81,1780383626117980,0.17230442,-0.5315567,-0.15033926,0.13744467,-0.6591236,0.7654142
82,1780383626127980,0.12764193,-0.5847612,-0.2562601,-0.25473082,-0.42760566,0.7666359
83,1780383626137980,0.14399378,-0.6169767,-0.22453266,-0.7104363,-0.18387043,0.71837753
84,1780383626147980,0.19915071,-0.6980037,-0.183287,-1.8845193,0.41172317,0.42638394
85,1780383626157980,0.56645685,-1.4484798,-0.2608972,-2.3518312,0.5748242,0.30543262
86,1780383626167980,0.6164886,-1.854591,-0.35193056,-2.7531698,0.57360244,0.18753563
87,1780383626177980,0.66847277,-2.1308637,-0.35559142,-3.133128,0.27916542,0.004886922
88,1780383626187980,0.7678041,-2.2973108,-0.27773714,-2.542421,-0.39461896,-0.39584067
89,1780383626197980,0.9410847,-2.383463,-0.11617125,-1.7385225,-0.16493362,-0.6591236
90,1780383626207980,0.91106576,-2.3265977,-0.022453265,-0.9993755,0.65301496,-0.8546005
91,1780383626217980,0.86884385,-2.277054,0.026602242,-0.3390302,1.6811012,-0.960891
92,1780383626227980,0.86152214,-2.263875,0.061502427,-0.15027285,1.6963727,-0.97127575
93,1780383626237980,0.99087244,-2.3805344,0.13276714,0.16982053,1.500285,-1.0439687
94,1780383626247980,1.0687267,-2.5086644,0.107873306,0.53878313,1.2803736,-1.16492
95,1780383626257980,1.0611609,-2.5889592,0.1295944,1.6016886,0.729984,-1.6584991
96,1780383626267980,0.9723241,-2.5821257,0.1010397,1.9016235,0.46120325,-1.8008307
97,1780383626277980,0.8361401,-2.4405725,0.022453265,2.0836613,0.1142318,-1.917506
98,1780383626287980,0.5293602,-1.9844296,-0.08639627,2.0732768,-0.25961772,-1.8435913
99,1780383626297980,0.48103684,-1.7896718,-0.13911264,1.604743,-0.7458665,-1.5552629
100,1780383626307980,0.4170938,-1.560014,-0.16400647,1.1905763,-0.9462303,-1.3524556
101,1780383626317980,0.32947728,-1.1126571,-0.17767367,0.37507126,-1.0555751,-1.010982
102,1780383626327980,0.31873876,-0.9984382,-0.17084008,0.37507126,-1.0555751,-1.010982
103,1780383626337980,0.26480213,-0.8856837,-0.08102701,-0.47769663,-0.7635816,-0.75136423
104,1780383626347980,0.26480213,-0.8856837,-0.08102701,-0.70738196,-0.62796944,-0.6786713
105,1780383626357980,0.07809832,-0.5649925,0.16473864,-1.0054842,-0.4251622,-0.47891834
106,1780383626367980,0.036120474,-0.47005424,0.22526483,-0.8881981,-0.5558874,-0.3200934
107,1780383626377980,-0.009518232,-0.37658033,0.26114124,-0.70066243,-0.72509706,-0.22296582
108,1780383626387980,-0.053204484,-0.17084008,0.40196228,-0.44715336,-0.8912524,-0.119729586
109,1780383626397980,-0.058573738,-0.06809197,0.49201941,-0.12644911,-0.9309586,-0.057421334
110,1780383626407980,-0.08005078,-0.027334413,0.4075756,0.39950588,-0.9334021,0.0061086523
111,1780383626417980,-0.09567044,0.00048811449,0.311173,1.0903945,-1.0946705,0.12705997
112,1780383626427980,-0.10470056,0.030751213,0.21623473,1.3500122,-1.2400564,0.1966986
113,1780383626437980,-0.07004443,0.0605262,0.1044565,1.5393804,-1.382999,0.2443461
114,1780383626447980,-0.071264714,0.06199054,0.064919226,1.7513506,-1.5314392,0.27672195
115,1780383626457980,-0.07614586,0.059794027,0.020744866,1.8099937,-1.5375478,0.3036
116,1780383626467980,-0.09152147,0.05588911,-0.07809832,1.8252654,-1.4630222,0.32986724
117,1780383626477980,-0.09542638,0.056133166,-0.11861181,1.808772,-1.3616186,0.36835176
118,1780383626487980,-0.1010397,0.06028214,-0.14545812,1.6786577,-1.0024298,0.4709771
119,1780383626497980,-0.09884319,0.061502427,-0.14936304,1.6175711,-0.86193085,0.50885075
120,1780383626507980,-0.08786061,0.06613952,-0.119099945,1.5057828,-0.4465425,0.58276546
121,1780383626517980,-0.082003236,0.07028849,-0.10201593,1.577254,0.019547688,0.61086524
122,1780383626527980,-0.082247294,0.073217176,-0.08566409,1.6847663,0.29871312,0.6200282
123,1780383626537980,-0.06760386,0.08371163,-0.07565775,1.7794504,0.5039638,0.61941737
124,1780383626547980,-0.06760386,0.08371163,-0.07565775,1.9321668,0.75869465,0.6065892
125,1780383626557980,-0.070532545,0.10128376,-0.09225364,2.0971005,0.9957104,0.5900958
126,1780383626567980,-0.07004443,0.106164895,-0.11226633,2.3359487,1.3994923,0.5729916
127,1780383626577980,-0.09005712,0.14741059,-0.16034561,2.415972,1.6224581,0.5882632
128,1780383626587980,-0.09811102,0.17547716,-0.17157225,2.4697282,1.8362609,0.6291912
129,1780383626597980,-0.10030753,0.19402552,-0.1615659,2.485,1.9578232,0.6750061
130,1780383626607980,-0.119099945,0.23380683,-0.15400012,2.4459045,1.9932534,0.87781334
131,1780383626617980,-0.12007617,0.2716357,-0.1313028,2.393981,1.9028453,1.0048733
132,1780383626627980,-0.06955632,0.19573392,-0.08127106,2.2815816,1.645671,1.1893547
133,1780383626637980,-0.010006348,0.047347106,0.0021965152,1.8228219,0.47036624,1.3658947
134,1780383626647980,0.19353738,-0.45931572,1.0589644,1.632232,-1.7037032,1.1282681
135,1780383626657980,0.5271637,-0.8771418,1.4894813,1.6694947,-5.1098876,0.6377433
136,1780383626667980,0.9113098,-1.6105338,1.8411678,0.8790351,-12.782966,-1.3658947
137,1780383626677980,0.9113098,-1.6105338,1.8411678,0.8790351,-12.782966,-1.3658947
138,1780383626687980,1.1597601,-1.9466007,1.569044,0.22602014,-11.481823,-2.0482311
139,1780383626697980,0.6987359,-2.1206133,-1.1309613,-2.3780985,-4.414723,-1.2229522
140,1780383626707980,0.35754386,-1.9722266,-1.1399914,-4.6761737,2.32984,2.7079656
141,1780383626717980,0.1986626,-1.8406798,-0.7499879,-4.918076,3.4550538,3.9834523
142,1780383626727980,0.63332856,-1.790892,-0.66822875,-4.987715,4.3218718,4.8014007
143,1780383626737980,1.1168059,-2.8632796,-0.47078642,-4.5967607,4.8221703,4.8380527
144,1780383626747980,1.9246354,-4.643433,-0.21257387,-3.5326338,5.911954,3.010344
145,1780383626757980,2.2987752,-5.691659,-0.24283697,-2.483778,6.263201,0.83016586
146,1780383626767980,1.3989362,-5.014156,-0.07834238,-1.5809193,6.081774,-0.67073005
147,1780383626777980,0.8222289,-4.71543,0.028554698,-0.4728097,5.127603,-1.5845845
148,1780383626787980,0.8222289,-4.71543,0.028554698,0.38423425,3.8368447,-1.7165314
149,1780383626797980,-0.0026846298,-3.5031977,0.010006348,0.22968534,0.5503896,-1.1600331
150,1780383626807980,-0.3385074,-2.254601,-0.039781332,-0.64568454,-1.5632042,-0.70738196
151,1780383626817980,-0.22135992,-1.478987,0.05906185,-2.284636,-3.9358048,0.59559363
152,1780383626827980,-0.27090356,-1.1114367,0.08566409,-2.6713138,-4.089132,0.88147855
153,1780383626837980,-0.32069123,-0.5281399,0.23844394,-2.9083295,-4.0579777,1.097114
154,1780383626847980,-0.29823795,-0.33582276,0.5801241,-3.0775392,-3.8869355,1.3982705
155,1780383626857980,-0.3499781,-0.09493827,1.0636015,-1.9749273,-3.1740558,2.0421226
156,1780383626867980,-0.16742326,-0.08956901,0.7382732,-1.5344934,-2.7806585,2.2015584
157,1780383626877980,-0.04490653,-0.08078295,0.5171573,-1.0329732,-2.2375994,2.3267858
158,1780383626887980,0.058817793,-0.051740136,0.2928687,-0.6096435,-1.7318029,2.3780985
159,1780383626897980,0.10665302,-0.04075756,0.20476402,0.009162978,-1.0439687,2.356718
160,1780383626907980,0.14863087,-0.018792408,0.13105874,0.28221974,-0.82650065,2.293799
161,1780383626917980,0.15692882,0.09493827,0.12471326,0.52534413,-0.852157,2.2467623
162,1780383626927980,0.13349932,0.15375607,0.119343996,0.8979719,-1.0256428,2.2094996
163,1780383626937980,0.110557936,0.21184167,0.11373068,1.2852604,-1.3078625,2.2449298
164,1780383626947980,0.12739788,0.24576566,0.08395569,1.9346102,-2.0378466,2.3988678
165,1780383626957980,0.26577836,0.41172457,0.041001618,2.2583687,-2.3671029,2.439185
166,1780383626967980,0.3436326,0.5271637,0.010982576,2.6145031,-2.6077838,2.456289
167,1780383626977980,0.9520673,1.3960074,-0.31385764,2.823419,-1.5613716,2.2321017
168,1780383626987980,0.9520673,1.3960074,-0.31385764,2.823419,-1.5613716,2.2321017
169,1780383626997980,1.3449996,1.6490947,-0.102259986,2.2272146,0.35918877,0.9981538
170,1780383627007980,1.5168158,0.9813542,2.0617955,2.3952026,1.7898352,-0.33658674
171,1780383627017980,1.5168158,0.9813542,2.0617955,2.207667,2.2534819,-0.6078109
172,1780383627027980,0.78708464,0.47005424,0.11006982,1.8643607,3.0799825,-0.86498517
173,1780383627037980,0.67628264,0.34704942,0.0036608586,1.5271631,3.8747182,-1.0671816
174,1780383627047980,0.5920829,0.20134723,-0.018060237,1.0781772,4.8441615,-1.4440855
175,1780383627057980,0.53228885,0.093717985,0.00073217176,0.91690874,4.9913797,-1.7030923
176,1780383627067980,0.43246946,0.008542004,0.0134231495,0.81306165,4.895474,-1.885741
177,1780383627077980,0.3648656,-0.04075756,0.021477038,0.66156703,4.4941354,-2.057394
178,1780383627087980,0.027822526,-0.17718557,0.05515694,0.18020524,2.9761355,-2.0506747
179,1780383627097980,0.0061014313,-0.6355251,1.0535952,-0.028710667,2.2278256,-1.9657644
180,1780383627107980,-0.118855886,-0.5981843,-0.10128376,-0.2657264,0.030543262,-1.958434
181,1780383627117980,-0.118855886,-0.5981843,-0.10128376,-0.838718,-3.5381315,-2.204002
182,1780383627127980,0.13374338,-0.47273886,-1.1268123,-3.3530393,-3.7953057,-1.709201
183,1780383627137980,1.3188853,-2.745644,-1.4428664,-3.6144896,-3.6572502,-1.591304
184,1780383627147980,1.7703912,-4.0574517,-1.2778838,-3.6377025,-3.0036244,-2.2608123
185,1780383627157980,1.654708,-5.7726865,-1.3108315,-2.629164,-2.3005185,-3.4691038
186,1780383627167980,1.2820327,-6.797971,-1.4828918,0.80939645,0.8717047,-4.7616944
187,1780383627177980,-0.02391761,-6.907308,-1.2512815,2.7348437,3.1899383,-4.099517
188,1780383627187980,-0.50666285,-6.3452444,-1.2690977,3.5613444,4.4819183,-2.6731462
189,1780383627197980,-0.5632841,-5.173037,-1.3420708,-0.22235495,5.2821517,-0.9969321
190,1780383627207980,-0.9925808,-3.865867,-0.14423785,-2.1239784,4.0011673,-0.26206118
191,1780383627217980,-0.7197248,-2.770294,0.72875494,-2.6340508,2.4721715,0.41722095
192,1780383627227980,0.12568948,-1.5778301,1.1419438,-2.8173106,0.7470882,0.9914343
193,1780383627237980,0.5293602,-1.3718457,1.0421244,-2.221106,-0.48197266,1.4984524
194,1780383627247980,0.76341105,-1.46654,0.8000197,-1.7305813,-0.6988298,1.5467108
195,1780383627257980,1.0867869,-1.6300584,0.37267542,-0.6957755,-0.9425651,0.73914695
196,1780383627267980,0.9447456,-1.5749013,0.24771811,-0.31764993,-1.1887437,0.30298916
197,1780383627277980,0.7414459,-1.4987555,0.16132185,0.49541172,-1.9840903,-0.51251596
198,1780383627287980,0.7414459,-1.4987555,0.16132185,0.49541172,-1.9840903,-0.51251596
199,1780383627297980,0.39781332,-1.2168695,0.033435844,0.70616025,-2.240043,-0.61819565
200,1780383627307980,0.21769907,-0.86249834,-0.040513504,0.95539325,-2.8252518,-0.41355577
201,1780383627317980,0.17279254,-0.68458056,-0.06345488,0.8918633,-2.91566,-0.25045475
202,1780383627327980,0.13716017,-0.4834774,-0.099819414,0.7703011,-2.9309313,-0.1020145
203,1780383627337980,0.08956901,-0.18060236,-0.3077562,0.5546656,-2.7464502,0.021991149
204,1780383627347980,0.06272271,-0.039781332,-0.33533466,0.3213151,-2.4263568,0.10262536
205,1780383627357980,0.059305906,0.03294773,-0.27920148,0.004276057,-1.8777997,0.21074851
206,1780383627367980,0.021721095,0.08371163,-0.062478654,-0.32253686,-1.029308,0.39950588
207,1780383627377980,0.011958805,0.08542004,-0.00048811449,-0.34391713,-0.7696902,0.5186246
208,1780383627387980,0.002928687,0.08371163,0.025137896,-0.20219639,-0.5345071,0.7134906
209,1780383627397980,0.00097622897,0.08566409,0.025626011,-0.0720821,-0.44226643,0.81061816
210,1780383627407980,0.0026846298,0.09152147,0.011958805,0.059864793,-0.344528,0.893085
211,1780383627417980,0.0053692595,0.0976229,-0.028066583,0.18020524,-0.22296582,0.95417154
212,1780383627427980,0.04368625,0.09811102,-0.043930303,0.47769663,0.25595254,1.0115929
213,1780383627437980,0.06760386,0.09518232,-0.05418071,0.5497787,0.39828414,0.9810496
214,1780383627447980,0.10396838,0.082491346,-0.099087246,0.6059783,0.6169739,0.9138544
215,1780383627457980,0.11251039,0.07028849,-0.088836834,0.6230826,0.9877691,0.7483099
216,1780383627467980,0.122272685,0.05515694,-0.07224095,0.6047566,1.1362094,0.63407815
217,1780383627477980,0.14911897,0.040513504,-0.0014643435,0.59864795,1.3017539,0.5027421
218,1780383627487980,0.15424417,0.0370967,0.016595893,0.61086524,1.4892895,0.36163223
219,1780383627497980,0.15058333,0.033679903,0.029042812,0.6713409,1.8490891,0.10934488
220,1780383627507980,0.14814276,0.029286869,0.07199689,0.7684685,1.9865338,-0.022602014
221,1780383627517980,0.14545812,0.0605262,0.29701766,0.9718866,1.9248364,-0.119729586
222,1780383627527980,0.16620298,0.16717921,0.3277689,1.3261884,1.7629571,-0.2510656
223,1780383627537980,0.14277348,0.24796216,0.21647878,1.6041322,1.7287487,-0.40378192
224,1780383627547980,0.14277348,0.24796216,0.21647878,1.758681,1.7611245,-0.5308419
225,1780383627557980,-0.0056133163,0.12739788,0.21818718,2.2522602,1.72264,-0.8032878
226,1780383627567980,-0.04612682,0.117635585,0.27724904,2.673757,1.3213016,-0.73364913
227,1780383627577980,-0.09859913,0.11568313,0.36315718,2.673757,1.3213016,-0.73364913
228,1780383627587980,-0.7834238,0.117391534,1.8955926,3.4715471,0.23762658,-0.45814893
229,1780383627597980,-1.7979698,-0.6057501,4.156783,4.9895473,-2.3316727,0.21074851
230,1780383627607980,-0.14472595,-0.59281504,0.42587993,7.929031,-7.2277575,1.1643091
231,1780383627617980,0.006345488,-0.53009236,-0.6799435,7.533801,-7.698124,0.5131268
232,1780383627627980,0.2042759,-0.55840296,-1.0897156,6.278473,-7.027394,0.03726278
233,1780383627637980,0.40196228,-0.8363842,-0.8793382,4.9015827,-7.279681,-0.43249258
234,1780383627647980,0.882511,-2.1437988,-0.6045298,-0.73914695,-7.3975782,-1.8454239
235,1780383627657980,1.5680678,-2.6536345,0.029530926,-2.9889636,-6.5295386,-2.8502972
236,1780383627667980,3.1319866,-4.7229958,2.411774,-1.8106046,-4.9113564,-4.1679335
237,1780383627677980,2.2692444,-4.4682,0.43881494,-0.2779437,-0.11056661,-5.6187387
238,1780383627687980,0.47591165,-3.6388936,0.5274077,-3.6877935,4.4293838,-0.32559118
239,1780383627697980,0.7541369,-2.6367946,0.3402158,-4.2772784,3.7024543,2.003638
240,1780383627707980,0.7975791,-2.2243378,0.379509,-4.4092255,3.0017917,2.5692992
241,1780383627717980,0.6999562,-1.8602043,0.44808912,-4.180762,2.262034,2.5949554
242,1780383627727980,0.5964759,-1.637136,0.42563587,-2.7452285,1.8148806,2.0879374
243,1780383627737980,0.3612047,-1.3096112,-0.15229172,-2.2412646,1.9199494,1.890017
244,1780383627747980,0.30580372,-1.1858741,-0.40903994,-1.9028453,2.0305161,1.6542231
245,1780383627757980,0.31239328,-1.1265682,-0.4803047,-1.9694295,1.954158,1.396438
246,1780383627767980,0.32923323,-1.0682385,-0.43027294,-2.6120598,1.2137892,0.8038987
247,1780383627777980,0.32923323,-1.0211354,-0.3436326,-3.037222,0.56382865,0.43982297
248,1780383627787980,0.19622204,-0.9637821,-0.002928687,-3.291342,0.06780604,0.23396139
249,1780383627797980,0.13179092,-0.86371857,0.12398108,-3.5485163,-0.6218608,0.086132
250,1780383627807980,0.14057697,-0.79538256,0.03734076,-3.6352592,-0.50762904,0.15149458
251,1780383627817980,0.16913168,-0.66920495,0.05515694,-3.6419785,-0.30909783,0.23335053
252,1780383627827980,0.208913,-0.5523015,0.06809197,-3.6328156,-0.29810223,0.3494149
253,1780383627837980,-0.023429496,-0.8236932,0.09445015,-3.4330628,-0.32498032,0.82527894
254,1780383627847980,0.5640163,-2.6582716,-0.13545178,-3.2748485,0.19242255,0.6151413
255,1780383627857980,0.49763274,-2.7693176,-0.122272685,-3.0903673,0.7715228,0.46975538
256,1780383627867980,0.49763274,-2.7693176,-0.122272685,-3.0903673,0.7715228,0.46975538
257,1780383627877980,0.14814276,-2.0522776,0.17303659,-1.7446312,1.3939945,0.9254609
258,1780383627887980,0.22599702,-1.3735542,0.33118567,-1.2425,0.9468411,1.0903945
259,1780383627897980,0.19573392,-1.0941086,0.33362624,-0.5748242,0.13194689,1.2052372
260,1780383627907980,0.15400012,-0.8080735,0.29774985,0.0012217305,-0.7800749,1.2119566
261,1780383627917980,0.09396204,-0.5112999,0.31532198,0.7996226,-2.320677,1.1991285
262,1780383627927980,0.029774986,-0.29652956,0.29726174,1.1582005,-3.0170634,1.2095132
263,1780383627937980,-0.026602242,0.04075756,0.2506468,1.3671165,-3.4434474,1.2168436
264,1780383627947980,-0.033923957,0.11031388,0.26699865,1.8252654,-4.105625,1.1850786
265,1780383627957980,0.07980672,0.11348662,0.5872018,2.403144,-4.1105123,1.169807
266,1780383627967980,0.07980672,0.11348662,0.5872018,3.0335567,-3.7879753,1.1117748
267,1780383627977980,0.27944556,0.122516744,0.31751847,4.1245623,-1.3341297,0.6627888
268,1780383627987980,0.5352176,0.21940747,0.18426323,4.1618247,0.54244834,0.35918877
269,1780383627997980,0.6960513,0.3943965,-0.053204484,3.7568212,2.1148155,0.0067195175
270,1780383628007980,0.6960513,0.3943965,-0.053204484,3.7568212,2.1148155,0.0067195175
271,1780383628017980,0.6355251,0.9017916,-0.20183535,2.4599543,3.1532865,-0.74281216
272,1780383628027980,0.54107493,0.9298581,-0.19134088,2.1496348,3.0750957,-0.91874135
273,1780383628037980,0.3841461,0.8581053,-0.2545517,1.7507398,2.8955014,-1.1081096
274,1780383628047980,0.33362624,0.7922098,-0.27554062,1.3542882,2.6700919,-1.2626585
275,1780383628057980,0.28237423,0.7038611,-0.29994637,0.6291912,2.158187,-1.4721853
276,1780383628067980,0.2072046,0.60013676,-0.28920785,0.23396139,1.7476854,-1.5338826
277,1780383628077980,0.076389916,0.44271985,-0.31068486,-0.112399206,1.323745,-1.5393804
278,1780383628087980,0.03636453,0.36510965,-0.3568117,-0.35063666,1.0659598,-1.5161675
279,1780383628097980,0.02391761,0.28920785,-0.3660859,-0.6236934,0.8790351,-1.4459181
280,1780383628107980,0.048567392,0.17376876,-0.3099527,-0.82833326,0.8454375,-1.3255776
281,1780383628117980,0.0061014313,0.018060237,-0.19890666,-0.97127575,0.8943067,-1.0458013
282,1780383628127980,-0.022453265,-0.079318605,-0.2550398,-1.0042624,0.8503244,-0.7635816
283,1780383628137980,0.10055158,-0.36413342,-0.48518583,-1.2895365,0.7079928,-0.11178834
284,1780383628147980,0.25333142,-0.7922098,-0.6550496,-1.7275269,0.22113322,0.34147367
285,1780383628157980,0.2518671,-1.0106411,-0.51691324,-2.9761355,-1.029308,1.2742649
286,1780383628167980,-0.006833603,-2.160395,2.1804073,-3.8368447,-1.6120734,1.8002199
287,1780383628177980,-0.006833603,-2.160395,2.1804073,-3.8368447,-1.6120734,1.8002199
288,1780383628187980,1.2332213,-4.229268,0.51398456,-3.0634892,0.7654142,1.6175711
289,1780383628197980,1.7625813,-6.876313,-0.77951884,-2.557082,2.7733283,-2.3328943
290,1780383628207980,0.66798466,-6.990044,-0.75291663,-0.19058995,2.393981,-3.2614095
291,1780383628217980,0.061014313,-6.6371365,-1.2793481,1.8851302,0.13744467,-1.428203
292,1780383628227980,0.047347106,-5.77293,-0.9445015,1.4923438,-0.062308256,-0.59742624
293,1780383628237980,0.46029195,-3.0843954,-0.31995904,0.96761054,0.29016098,-0.5571091
294,1780383628247980,0.42368335,-2.1091428,-0.034900185,-0.74464476,0.84849185,-0.84788096
295,1780383628257980,0.44516042,-1.0609169,0.44516042,-1.0122037,0.93279123,-0.6817256
296,1780383628267980,0.44516042,-1.0609169,0.44516042,-1.0952814,0.9095783,-0.31887165
297,1780383628277980,0.5891542,-1.0899596,0.45321432,-1.0415252,0.7141015,0.03481932
298,1780383628287980,0.7438865,-1.3384099,0.37877685,-0.5112942,0.018325957,-0.23701571
299,1780383628297980,0.7438865,-1.3384099,0.37877685,-0.21685717,-0.17592919,-0.5729916
300,1780383628307980,0.41001618,-1.3332847,0.15692882,0.0,-0.32925636,-0.75991637
301,1780383628317980,0.2723679,-1.2568948,0.09152147,0.24495697,-0.5589417,-0.87109387
302,1780383628327980,0.14936304,-1.1063116,0.028066583,0.42088616,-0.9315695,-0.72204274
303,1780383628337980,0.060770255,-0.93571544,0.0046370877,0.33108896,-1.17897,-0.5363397
304,1780383628347980,0.014399378,-0.53180075,-0.002928687,0.11911872,-1.4477507,-0.35246924
305,1780383628357980,0.007321717,-0.3743838,0.010494461,-0.084910266,-1.6102408,-0.23335053
306,1780383628367980,-0.020500809,-0.24576566,-0.028554698,-0.6310238,-1.7140878,0.065973446
307,1780383628377980,-0.05906185,-0.113974735,-0.01586372,-0.8491027,-1.6646078,0.23335053
308,1780383628387980,-0.07858644,0.030507157,0.14082102,-0.956615,-1.681712,0.35308012
309,1780383628397980,-0.07199689,0.05662128,0.19207305,-0.929126,-1.8558086,0.60231316
310,1780383628407980,-0.059549972,0.07175283,0.22746135,-0.8258898,-1.9156734,0.66339964
311,1780383628417980,-0.03929322,0.08664032,0.24015234,-0.6444628,-1.9956968,0.7165449
312,1780383628427980,-0.009030119,0.10518867,0.24503349,-0.4092797,-2.081218,0.7458665
313,1780383628437980,-0.0039049159,0.08688438,0.21037734,0.061086524,-2.1887302,0.7415904
314,1780383628447980,0.026114125,0.08566409,0.3521746,0.6432411,-2.103209,0.68539083
315,1780383628457980,0.026114125,0.08566409,0.3521746,0.6432411,-2.103209,0.68539083
316,1780383628467980,0.053204484,0.07907455,0.30970863,0.9786061,-1.9156734,0.6365216
317,1780383628477980,0.06296677,0.045394648,0.07468152,1.65911,-1.2168436,0.41416663
318,1780383628487980,0.0065895454,0.035876416,-0.04881145,1.8832976,-0.6780604,0.22540927
319,1780383628497980,-0.009030119,0.035144243,-0.06980037,1.9376645,-0.37690386,0.15149458
320,1780383628507980,-0.009030119,0.035144243,-0.06980037,1.9376645,-0.37690386,0.15149458
321,1780383628517980,-0.010738519,0.059794027,-0.11592719,1.9547688,0.6291912,-0.015882496
322,1780383628527980,-0.010738519,0.059794027,-0.11592719,1.9547688,0.6291912,-0.015882496
323,1780383628537980,-0.021965152,0.099575356,-0.09737884,1.8619173,2.2602015,-0.24495697
324,1780383628547980,-0.012690976,0.07199689,-0.07248501,1.8881844,2.5369234,-0.26633725
325,1780383628557980,-0.0065895454,0.065163285,-0.0707766,1.9413297,2.810591,-0.28527406
326,1780383628567980,-0.0065895454,0.05296042,-0.059305906,2.1398609,3.2937853,-0.29626966
327,1780383628577980,-0.0065895454,0.05296042,-0.059305906,2.1398609,3.2937853,-0.29626966
328,1780383628587980,-0.008786061,0.07614586,-0.08151512,2.1771238,3.3096678,-0.2761111
329,1780383628597980,0.036120474,0.082491346,-0.0959145,2.0244074,2.8545732,-0.1337795
330,1780383628607980,0.107873306,0.05027579,-0.09737884,1.9077321,2.593123,-0.16310102
331,1780383628617980,0.40269446,-0.061746486,0.40123013,2.0054705,1.0458013,-0.44043383
332,1780383628627980,0.81783587,-1.0467615,2.3100019,2.9633074,-4.269337,-1.1856894
333,1780383628637980,1.0684826,-1.5292627,1.5275543,3.481321,-8.951009,-1.9785925
334,1780383628647980,1.4360328,-2.4193394,1.5968665,2.9523118,-15.792699,-4.736649
335,1780383628657980,2.1484358,-4.917509,1.3481722,2.5876253,-14.402981,-5.670662
336,1780383628667980,1.1126571,-4.7146983,-0.003172744,2.0146337,-7.1184125,-5.225952
337,1780383628677980,0.3018988,-4.1672773,-0.626495,-3.3066137,5.1331005,1.2748758
338,1780383628687980,0.77805454,-2.7085474,-0.032459613,-4.9083023,7.416515,2.8893926
339,1780383628697980,0.767316,-2.0520332,0.37536004,-6.05062,8.390234,3.5057557
340,1780383628707980,0.6855568,-1.6256653,0.7770783,-4.8759265,4.564385,2.1673498
341,1780383628717980,0.6855568,-1.6256653,0.7770783,-4.8759265,4.564385,2.1673498
342,1780383628727980,0.6501685,-1.0855666,0.31703037,-2.7440066,2.3145685,1.3481796
343,1780383628737980,0.57451075,-0.7826916,-0.24112856,-1.8997909,1.8625281,0.9468411
344,1780383628747980,0.4834774,-0.7128912,-0.35632357,-1.1184943,1.8167132,0.28099802
345,1780383628757980,0.41514137,-0.66139513,-0.37316352,-0.9645562,1.8704693,0.069027774
346,1780383628767980,0.35632357,-0.68604493,-0.61746484,-0.95294976,1.9425515,-0.22418754
347,1780383628777980,0.6025773,-1.7801535,-0.50763905,-1.1502593,2.1820107,-0.5314528
348,1780383628787980,0.84858704,-2.954557,-0.26504618,-1.2321151,2.1905627,-0.9914343
349,1780383628797980,0.83784854,-3.6098506,-0.16547081,-1.0231993,1.3078625,-2.3945918
350,1780383628807980,0.13764828,-3.3509061,-0.014887493,-1.1545353,0.7312057,-2.5185974
351,1780383628817980,-0.36266908,-2.3898087,0.19817449,-1.8393153,-1.5149459,-0.7312057
352,1780383628827980,-0.26065314,-1.995656,0.14350566,-2.2473733,-3.5295794,1.0073168
353,1780383628837980,-0.10958171,-1.6261535,0.12568948,-2.4721715,-4.044539,1.5564847
354,1780383628847980,-0.04490653,-0.96573454,0.24161668,-2.6487117,-4.387845,1.8423696
355,1780383628857980,-0.04490653,-0.96573454,0.24161668,-2.6487117,-4.387845,1.8423696
356,1780383628867980,-0.08542004,-0.61111933,0.32996538,-2.7550023,-4.958393,2.0818288
357,1780383628877980,-0.13691612,0.14814276,1.2268758,-1.5882497,-4.9620585,2.3463335
358,1780383628887980,0.018792408,0.18914436,1.0030752,-0.55771995,-4.550946,2.4471262
359,1780383628897980,0.13032657,0.2169669,0.76853627,0.9669997,-3.903429,2.3170118
360,1780383628907980,0.16083373,0.19548985,0.56523657,1.6297885,-3.418402,2.1416936
361,1780383628917980,0.19963883,0.18694785,0.3990336,2.1911736,-2.747061,1.9407189
362,1780383628927980,0.39756927,0.20940112,0.22892569,2.7226264,-1.8606955,1.6890424
363,1780383628937980,0.45760733,0.25430766,0.07590181,3.3499851,-0.49602258,1.1606439
364,1780383628947980,0.49568027,0.33094162,-0.035144243,3.4910948,0.112399206,0.9456194
365,1780383628957980,0.54668826,0.49519217,-0.10592084,3.5143077,0.5552765,0.86498517
366,1780383628967980,0.8659151,0.9608534,0.056377225,3.503923,1.3377949,0.7507534
367,1780383628977980,0.92400074,1.1536586,-0.052472305,3.2626312,3.5228598,0.36163223
368,1780383628987980,0.84883106,1.1436522,-0.059794027,2.425746,3.6120462,-0.21502456
369,1780383628997980,0.65895456,0.938156,-0.11665936,1.9956968,2.9407053,-0.4905248
370,1780383629007980,0.59183884,0.8288184,-0.19719826,1.6475036,2.3273966,-0.7305948
371,1780383629017980,0.5183776,0.72533816,-0.22965786,0.6921103,0.8924741,-1.3860532
372,1780383629027980,0.18109047,0.43417785,-0.24869433,0.38973203,0.5852089,-1.509448
373,1780383629037980,0.11299851,0.34338856,-0.2923806,0.040317107,0.3817908,-1.5155567
374,1780383629047980,0.043198135,0.22502078,-0.31654227,-0.5369505,0.3286455,-1.3903292
375,1780383629057980,0.0014643435,0.11299851,-0.30092257,-0.8020661,0.37140608,-1.2534955
376,1780383629067980,0.017328065,0.00073217176,-0.2853029,-1.0067059,0.41172317,-1.105666
377,1780383629077980,0.013667206,-0.13349932,-0.2860351,-1.1838568,0.3811799,-0.9285152
378,1780383629087980,0.013667206,-0.13349932,-0.2860351,-1.1838568,0.3811799,-0.9285152
379,1780383629097980,0.11983211,-0.28969595,-0.51398456,-1.949271,-0.24740042,-0.3109304
380,1780383629107980,0.21769907,-0.45345837,-0.6572462,-2.3530529,-0.4801401,-0.1563815
381,1780383629117980,0.34851375,-1.922439,2.3297706,-2.356718,2.0616703,0.64873886
382,1780383629127980,0.7541369,-3.9405482,0.8678676,-2.356718,2.0616703,0.64873886
383,1780383629137980,1.5326794,-4.607557,0.07809832,-1.2290609,4.936402,-0.8381071
384,1780383629147980,1.722312,-5.505687,-0.37609223,-1.1129965,4.3090434,-2.4239132
385,1780383629157980,0.5269196,-6.3930798,-0.53765815,0.30543262,2.2858577,-2.452013
386,1780383629167980,-0.1786499,-5.9359603,-0.6233222,1.2846496,0.870483,-1.2864822
387,1780383629177980,-0.4127008,-5.3192277,-0.42099872,1.564426,-0.6291912,-0.6096435
388,1780383629187980,-0.009518232,-3.28257,-0.6050179,1.0506883,-1.5509869,-0.33353242
389,1780383629197980,0.15009521,-2.4249527,-0.35412705,0.3915646,-1.3603969,-0.4111123
390,1780383629207980,0.20451997,-1.8592281,-0.09005712,-0.040317107,-0.8894198,-0.50885075
391,1780383629217980,0.4087959,-1.2459122,0.29116032,-0.7293731,0.040317107,-0.33841935
392,1780383629227980,0.4087959,-1.2459122,0.29116032,-0.8179486,0.27977628,-0.12156218
393,1780383629237980,0.61844105,-1.4167523,0.35974038,-0.8258898,0.5882632,0.1863139
394,1780383629247980,0.7409578,-1.8538588,0.1952458,-0.48563787,0.41416663,-0.20525073
395,1780383629257980,0.5930591,-1.8040712,0.12935033,-0.2125811,0.2510656,-0.4783075
396,1780383629267980,0.4275883,-1.7030314,0.0605262,0.050701816,-0.0061086523,-0.59742624
397,1780383629277980,0.4275883,-1.7030314,0.0605262,0.050701816,-0.0061086523,-0.59742624
398,1780383629287980,0.24600971,-1.3750186,-0.028066583,0.27366763,-0.7641924,-0.2657264
399,1780383629297980,0.1295944,-0.90691674,0.04490653,0.19914207,-0.96883225,-0.12644911
400,1780383629307980,0.10177187,-0.68091977,0.07980672,0.05375614,-1.3035865,0.03970624
401,1780383629317980,0.08395569,-0.45077375,0.053936653,-0.45204028,-1.7953329,0.29138273
402,1780383629327980,0.08395569,-0.45077375,0.053936653,-0.45204028,-1.7953329,0.29138273
403,1780383629337980,0.10518867,-0.12520137,-0.029530926,-0.9950995,-1.7464638,0.4373795
404,1780383629347980,0.08395569,0.048323333,0.0690682,-1.2046263,-1.636508,0.5479461
405,1780383629357980,0.055645052,0.08102701,0.1666911,-1.1184943,-1.6297885,0.61269784
406,1780383629367980,0.045394648,0.09322987,0.2186753,-0.9089675,-1.6517797,0.65668017
407,1780383629377980,0.03734076,0.105676785,0.23868799,-0.70616025,-1.668273,0.6743952
408,1780383629387980,0.036852647,0.12056428,0.24259292,-0.41172317,-1.7037032,0.6774496
409,1780383629397980,0.036852647,0.12861817,0.2962855,0.5656612,-1.8264871,0.61269784
410,1780383629407980,0.039781332,0.102992155,0.22746135,0.95294976,-1.8503108,0.5742133
411,1780383629417980,0.039781332,0.102992155,0.22746135,0.95294976,-1.8503108,0.5742133
412,1780383629427980,0.0622346,0.07004443,0.06418706,1.6578883,-1.5827519,0.40011674
413,1780383629437980,0.08102701,0.054912884,-0.050031736,1.7739527,-1.3286319,0.28588495
414,1780383629447980,0.07004443,0.047347106,-0.07004443,1.8167132,-1.110553,0.19730948
415,1780383629457980,0.06345488,0.0388051,-0.06345488,1.8399261,-0.81183994,0.09162979
416,1780383629467980,0.05588911,0.0302631,-0.062478654,1.844813,-0.19364429,-0.09590584
417,1780383629477980,0.050031736,0.031483386,-0.067847915,1.8173242,0.059864793,-0.15577064
418,1780383629487980,0.046614934,0.06687169,-0.09615856,1.7696766,0.42210788,-0.23273966
419,1780383629497980,0.029774986,0.1044565,-0.12568948,1.6291776,1.2272283,-0.37323865
420,1780383629507980,0.019036464,0.16766733,-0.12324891,1.5479325,1.7263051,-0.4447099
421,1780383629517980,0.016107777,0.208913,-0.123004854,1.4801265,2.1997259,-0.5039638
422,1780383629527980,0.0019524579,0.21843125,-0.10177187,1.4440855,2.4917192,-0.5369505
423,1780383629537980,-0.021477038,0.14277348,-0.055400997,1.5039502,2.8655689,-0.54733527
424,1780383629547980,-0.0370967,0.14521407,-0.041245673,1.5778649,2.8686233,-0.5326745
425,1780383629557980,-0.0370967,0.14521407,-0.041245673,1.7055358,2.8166997,-0.5345071
426,1780383629567980,0.5005614,-0.3031191,2.1723535,2.538756,1.6670512,-0.74097955
427,1780383629577980,0.25040275,-0.15570852,1.0035634,3.839288,-0.3659083,-1.1264355
428,1780383629587980,0.17401282,-0.18572757,0.29774985,4.788573,-2.8747318,-1.5577064
429,1780383629597980,0.31556603,-0.5293602,0.40391475,4.788573,-2.8747318,-1.5577064
430,1780383629607980,0.6147802,-1.172451,1.4694687,4.733595,-4.823392,-2.0152445
431,1780383629617980,0.967443,-1.8187146,1.5551329,4.6138654,-7.805636,-2.720183
432,1780383629627980,1.5007081,-3.6391375,1.2600676,4.2308526,-8.475756,-4.232685
433,1780383629637980,1.4479916,-4.066726,0.3577879,3.3927455,-5.102557,-4.501466
434,1780383629647980,1.2847173,-3.8653786,-0.47737598,-1.6120734,0.4978552,-2.6725354
435,1780383629657980,0.6157564,-3.5422468,-1.1944162,-4.922963,3.477045,-0.42577308
436,1780383629667980,0.24625377,-3.1637142,-0.79709095,-7.0518284,5.66211,2.7214046
437,1780383629677980,0.09200958,-2.855958,0.033191785,-7.0518284,5.66211,2.7214046
438,1780383629687980,0.3287451,-2.259726,0.8066092,-5.131879,3.644422,3.976122
439,1780383629697980,0.49958518,-1.8438525,0.6155124,-3.1972687,2.5259278,3.663359
440,1780383629707980,0.6450433,-1.1294969,0.20818083,-3.1972687,2.5259278,3.663359
441,1780383629717980,0.8217408,-0.85566473,-0.23258655,-1.758681,1.8295414,2.5503623
442,1780383629727980,0.7987994,-0.7946504,-0.33240595,-1.2082914,2.1380284,1.4526376
443,1780383629737980,0.76170266,-0.7412019,-0.30604777,-1.1111639,2.3561072,0.86437434
444,1780383629747980,0.6233222,-1.1412116,-0.49934113,-1.1814134,2.6633725,0.4783075
445,1780383629757980,0.93059033,-2.2858403,-0.41587353,-1.3365731,3.105639,-0.087964594
446,1780383629767980,1.0540832,-3.1725001,-0.3109289,-1.1985176,3.2565227,-1.7324139
447,1780383629777980,0.7316837,-3.423147,-0.23600335,-1.1209377,3.1129694,-2.543643
448,1780383629787980,0.25870067,-3.2320502,-0.19256116,-1.1838568,2.7763824,-2.737287
449,1780383629797980,-0.14789869,-2.9740815,-0.11226633,-1.3671165,2.2553146,-2.0518963
450,1780383629807980,-0.3236199,-2.4918244,-0.009030119,-1.954158,-0.19120082,-0.096516706
451,1780383629817980,-0.20818083,-1.4045495,0.114218794,-2.860682,-3.3206635,0.9437868
452,1780383629827980,-0.13764828,-1.1028948,0.13886857,-3.5479054,-5.290704,1.5503759
453,1780383629837980,-0.1164153,-0.7878168,0.2238005,-3.5479054,-5.290704,1.5503759
454,1780383629847980,-0.11861181,-0.541319,0.3243521,-3.866777,-5.9534926,1.8387043
455,1780383629857980,-0.27529657,0.08932495,2.0493488,-3.5246925,-6.197228,1.9926424
456,1780383629867980,-0.079318605,0.10030753,1.483624,-2.2858577,-6.120259,2.1789563
457,1780383629877980,0.062478654,0.107873306,1.21028,0.02076942,-4.7623053,2.1881194
458,1780383629887980,0.15375607,0.1342315,1.0143019,0.9639453,-3.9406917,2.0207422
459,1780383629897980,0.21257387,0.1513155,0.88690406,1.6377298,-3.4306192,1.8558086
460,1780383629907980,0.28676724,0.1300825,0.43466598,2.946203,-2.1142046,1.2938126
461,1780383629917980,0.45077375,0.15961345,-0.04905551,3.2027664,-1.5888605,1.0280862
462,1780383629927980,0.45077375,0.15961345,-0.04905551,3.404352,-0.8729264,0.6542367
463,1780383629937980,0.4612682,0.22428861,-0.12910628,3.50881,-0.2302962,0.33169982
464,1780383629947980,0.7556012,0.5549862,-0.14472595,3.3163874,1.8319849,-0.28893927
465,1780383629957980,0.925221,0.76756,-0.09567044,3.1349604,2.951701,-0.5674938
466,1780383629967980,0.925221,0.76756,-0.09567044,3.1349604,2.951701,-0.5674938
467,1780383629977980,0.5867136,0.97403246,-0.24991462,2.9339857,3.5124753,-0.7305948
468,1780383629987980,0.47713193,0.91570276,-0.33020946,1.8851302,3.6377025,-0.9468411
469,1780383629997980,0.43515408,0.822717,-0.32923323,1.4349225,3.254079,-1.0458013
470,1780383630007980,0.32166746,0.6570021,-0.3321619,0.9932669,2.7446175,-1.1734722
471,1780383630017980,0.24064046,0.5618198,-0.328257,0.66645396,2.2797492,-1.2620476
472,1780383630027980,0.15497635,0.44906533,-0.34607318,-0.18753563,0.75502944,-1.3255776
473,1780383630037980,0.062478654,0.32557237,-0.35412705,-0.58093286,0.06719518,-1.2186762
474,1780383630047980,0.014399378,0.05832968,-0.30726805,-0.8344419,-0.35979962,-1.1129965
475,1780383630057980,-0.0388051,-0.11348662,-0.23893206,-1.6029104,-1.3811663,-0.61636305
476,1780383630067980,-0.0388051,-0.11348662,-0.23893206,-1.6029104,-1.3811663,-0.61636305
477,1780383630077980,-0.0134231495,-0.19890666,-0.42734426,-2.4165828,-1.8753563,-0.10873401
478,1780383630087980,0.2779812,-0.6535853,-0.9308343,-2.8857274,-1.844813,0.06291912
479,1780383630097980,0.2779812,-0.6535853,-0.9308343,-2.8857274,-1.844813,0.06291912
480,1780383630107980,1.2673893,-4.506273,0.23697957,-2.339614,4.235129,0.8906415
481,1780383630117980,1.7911361,-5.128131,-0.4412555,-2.1600194,5.0433035,-0.19608775
482,1780383630127980,1.7176749,-5.885441,-0.9056965,-2.1197023,5.0787334,-1.9651535
483,1780383630137980,1.1661055,-6.36062,-0.7746377,-1.2284501,5.081788,-3.8240163
484,1780383630147980,0.093717985,-5.9479194,-0.3909797,0.462425,3.8649445,-2.5692992
485,1780383630157980,-0.22233616,-4.7310495,-0.8061211,1.4446963,0.82344633,-0.6658431
486,1780383630167980,0.23039004,-3.8944216,-0.8180799,1.3878858,-0.6432411,0.015882496
487,1780383630177980,0.32972133,-3.0590136,-0.53717,0.1142318,-0.46609017,-0.54428095
488,1780383630187980,0.19036464,-1.2847173,0.28579104,-0.46120325,-0.30115658,-0.820392
489,1780383630197980,0.19036464,-1.2847173,0.28579104,-0.93951076,-0.11789699,-0.8753699
490,1780383630207980,0.36047253,-1.2222387,0.46370876,-0.99265605,0.077579886,-0.043982297
491,1780383630217980,0.5449798,-1.4267586,0.5012936,-0.75441855,-0.13133603,-0.03359759
492,1780383630227980,0.6582224,-1.6705719,0.38512233,-0.42821655,-0.42210788,-0.21563543
493,1780383630237980,0.5544981,-1.6444578,0.24234885,-0.1740966,-0.64568454,-0.42455134
494,1780383630247980,0.3939084,-1.5578175,0.1147069,0.22540927,-1.0873401,-0.72021013
495,1780383630257980,0.3939084,-1.5578175,0.1147069,0.22540927,-1.0873401,-0.72021013
496,1780383630267980,0.23478307,-1.4409139,0.016107777,0.24373524,-1.1661417,-0.6462954
497,1780383630277980,0.09615856,-0.92937,-0.039537273,-0.00061086525,-1.2425,-0.27977628
498,1780383630287980,0.08419975,-0.72826684,-0.038561042,-0.00061086525,-1.2425,-0.27977628
499,1780383630297980,0.067847915,-0.5130083,-0.044174362,-0.59986967,-1.241889,0.07147124
500,1780383630307980,0.067847915,-0.5130083,-0.044174362,-0.59986967,-1.241889,0.07147124
501,1780383630317980,0.030019043,-0.123004854,0.105676785,-0.7984009,-1.1282681,0.22479841
502,1780383630327980,0.012935034,-0.049543623,0.18938842,-0.5112942,-1.3988814,0.4147775
503,1780383630337980,0.0043930304,0.055400997,0.23112221,-0.29749137,-1.5931365,0.48991394
504,1780383630347980,0.0043930304,0.055400997,0.23112221,0.036651913,-1.8600847,0.5699373
505,1780383630357980,0.021721095,0.099819414,0.16595893,1.0177015,-2.4324653,0.6719518
506,1780383630367980,0.021965152,0.10689708,0.13447554,1.3249667,-2.5033257,0.6536258
507,1780383630377980,-0.00073217176,0.07199689,0.05515694,1.5827519,-2.5185974,0.6267477
508,1780383630387980,0.0021965152,0.05344854,0.0021965152,1.8771889,-2.398257,0.571159
509,1780383630397980,0.0021965152,0.05344854,0.0021965152,1.8771889,-2.398257,0.571159
510,1780383630407980,0.015375607,0.02831064,-0.07590181,1.9816469,-2.084883,0.48991394
511,1780383630417980,0.021477038,0.025870068,-0.10714114,1.9761491,-1.8399261,0.43249258
512,1780383630427980,0.048567392,0.022697324,-0.12764193,1.9394971,-1.568091,0.36041048
513,1780383630437980,0.042954076,0.021721095,-0.13349932,1.8454239,-0.9914343,0.20341812
514,1780383630447980,0.027822526,0.032215554,-0.14765464,1.7629571,-0.5693264,0.12705997
515,1780383630457980,0.021721095,0.04148973,-0.14350566,1.67316,-0.12950343,0.059864793
516,1780383630467980,0.017572122,0.09567044,-0.12983845,1.5974126,0.20463985,0.012217305
517,1780383630477980,0.017572122,0.09567044,-0.12983845,1.5974126,0.20463985,0.012217305
518,1780383630487980,0.054912884,0.21330604,-0.13179092,1.3060299,1.4538593,-0.16432275
519,1780383630497980,0.04515059,0.21672285,-0.09811102,1.0952814,2.2504275,-0.3304781
520,1780383630507980,0.04515059,0.21672285,-0.09811102,1.0952814,2.2504275,-0.3304781
521,1780383630517980,0.017572122,0.20159128,-0.061746486,1.196685,2.8918362,-0.48441613
522,1780383630527980,-0.09811102,0.277005,-0.029286869,1.4453071,3.1783319,-0.5027421
523,1780383630537980,0.3431445,0.021232981,1.8899792,1.496009,3.1703906,-0.43249258
524,1780383630547980,0.3431445,0.021232981,1.8899792,1.496009,3.1703906,-0.43249258
525,1780383630557980,0.1244692,0.05686534,0.6147802,4.4611487,-1.8759671,-0.9260717
526,1780383630567980,0.19890666,-0.21672285,0.22819352,4.4874163,-2.7592783,-0.9254609
527,1780383630577980,0.49812084,-0.66017485,0.9098454,4.4892488,-3.8111882,-1.1068878
528,1780383630587980,0.8429737,-1.5099822,2.1289113,5.183192,-8.785464,-2.5265386
529,1780383630597980,1.1004542,-2.277542,1.7891837,5.500231,-9.699929,-3.690237
530,1780383630607980,1.4096746,-3.0551085,1.1273005,5.0665164,-7.963239,-4.6865582
531,1780383630617980,2.207742,-4.1326213,-0.28383857,4.089132,-5.2467217,-5.1337113
532,1780383630627980,2.1479478,-3.8258414,-0.77854264,-1.9101756,1.8692477,-4.1245623
533,1780383630637980,1.2200422,-3.6503642,-1.0970373,-4.330424,4.5313983,-2.0952678
534,1780383630647980,0.473227,-3.299166,-0.14423785,-6.196617,5.7409115,0.7189884
535,1780383630657980,0.49568027,-2.7763953,1.0391958,-6.4482937,4.656015,2.5650232
536,1780383630667980,0.61624455,-2.4417927,0.9232686,-5.1868567,2.4019222,3.6047158
537,1780383630677980,0.64211464,-2.0742426,0.7404697,-4.2424593,1.6584991,3.5185838
538,1780383630687980,0.5764632,-1.2642165,0.19744232,-2.6077838,1.2822062,2.9608638
539,1780383630697980,0.6062382,-1.1294969,0.009518232,-1.885741,1.3573426,2.543032
540,1780383630707980,0.63064396,-1.0777569,-0.19793043,-1.3738359,1.6865989,1.672549
541,1780383630717980,0.6631035,-0.75267255,-0.5091034,-1.4923438,1.9682078,1.1270463
542,1780383630727980,0.5679212,-0.73680884,-0.40318257,-1.8997909,1.9865338,0.5320636
543,1780383630737980,0.43954712,-0.6799435,-0.35485923,-2.1905627,2.0060816,0.15088372
544,1780383630747980,0.35607952,-0.6025773,-0.29384494,-2.8686233,2.1655173,-0.6084218
545,1780383630757980,0.17620933,-0.43417785,-0.12642166,-3.0494392,2.1374176,-0.9138544
546,1780383630767980,0.0959145,-1.0113733,-0.1598575,-3.2015448,2.1410828,-1.0763446
547,1780383630777980,0.58158845,-2.1923664,-0.11226633,-3.3848042,1.967597,-1.8002199
548,1780383630787980,0.65993077,-3.1576126,-0.1466784,-3.3432655,2.0995438,-2.0372355
549,1780383630797980,-0.23014598,-2.8701131,0.09176553,-3.1917708,2.1056526,-1.5485435
550,1780383630807980,0.003172744,-2.3976183,0.2818861,-2.012801,0.0012217305,1.4563028
551,1780383630817980,0.003172744,-2.3976183,0.2818861,-2.012801,0.0012217305,1.4563028
552,1780383630827980,0.17132819,-2.089374,0.2882316,-1.5906931,-1.2119566,1.6426166
553,1780383630837980,0.054424766,-0.89056486,0.268463,-0.9987647,-3.363424,1.6163495
554,1780383630847980,-0.009274175,-0.58329684,0.2626056,-0.5546656,-4.670065,1.541213
555,1780383630857980,-0.041977845,-0.32850105,0.268463,-0.4166101,-4.842329,1.541213
556,1780383630867980,-0.0319715,0.040513504,0.32044718,-0.20586158,-4.9015827,1.5467108
557,1780383630877980,-0.0319715,0.040513504,0.32044718,-0.20586158,-4.9015827,1.5467108
558,1780383630887980,0.026602242,0.25357547,1.0321181,1.527774,-3.3744197,1.4563028
559,1780383630897980,0.09615856,0.22990192,0.78415596,2.3646593,-2.3762658,1.3121386
560,1780383630907980,0.23893206,0.1598575,0.37536004,2.7940977,-1.7208074,1.1814134
561,1780383630917980,0.31263736,0.16937573,0.22306833,3.1728342,-0.979217,0.96944314
562,1780383630927980,0.37169918,0.2306341,0.06931226,3.3786957,-0.37384954,0.73364913
563,1780383630937980,0.8278422,0.68384844,-0.09054524,3.4709363,0.7086037,0.40622538
564,1780383630947980,0.9066727,0.89080894,-0.09859913,3.0451632,3.1624494,-0.29565877
565,1780383630957980,0.9066727,0.89080894,-0.09859913,3.0451632,3.1624494,-0.29565877
566,1780383630967980,0.79391825,1.0706791,-0.08639627,2.5130997,4.029878,-0.7965683
567,1780383630977980,0.5181335,0.9523114,-0.24576566,1.8020525,3.5607336,-1.1343768
568,1780383630987980,0.46224442,0.8500514,-0.23942018,1.3182472,3.0256155,-1.3481796
569,1780383630997980,0.36437747,0.737541,-0.17450093,0.48991394,1.5387696,-1.7269161
570,1780383631007980,0.27846932,0.6452874,-0.1300825,0.27305678,0.947452,-1.8270979
571,1780383631017980,0.20085911,0.53887844,-0.08029483,0.07147124,0.24678956,-1.9199494
572,1780383631027980,0.08786061,0.311173,-0.09811102,-0.06352998,-0.25411993,-1.9474384
573,1780383631037980,0.00976229,0.23307467,-0.15400012,-0.19730948,-0.41905355,-1.754405
574,1780383631047980,-0.04344219,0.17157225,-0.16913168,-0.23090707,-0.2724459,-1.5399913
575,1780383631057980,-0.10909359,0.0036608586,-0.20232345,-0.2669481,-0.13133603,-1.3518448
576,1780383631067980,-0.107629254,-0.08005078,-0.28798756,-0.36774087,0.051923547,-1.061073
577,1780383631077980,-0.06931226,-0.23039004,-0.48054874,-1.0714576,0.15393804,-0.3866777
578,1780383631087980,0.25479576,-1.274467,-0.6411384,-2.575408,-0.08246681,0.61086524
579,1780383631097980,0.25479576,-1.274467,-0.6411384,-2.575408,-0.08246681,0.61086524
580,1780383631107980,0.008542004,-1.6224926,-0.04075756,-4.2510114,0.7996226,1.9297233
581,1780383631117980,1.509006,-4.428907,0.12349297,-4.817283,1.2583824,2.375655
582,1780383631127980,2.3776057,-6.688877,-0.47859627,-4.817283,1.2583824,2.375655
583,1780383631137980,1.4992436,-6.9173145,-0.56694496,1.2425,2.048842,-3.1239648
584,1780383631147980,0.54205114,-7.072047,-0.9823304,2.5900686,1.119716,-2.257147
585,1780383631157980,0.26797485,-6.8565445,-1.389662,2.5546384,0.5381723,-1.042747
586,1780383631167980,0.54717636,-4.055743,-0.8944698,1.3897184,0.8222246,-0.54611355
587,1780383631177980,0.40611124,-2.809587,-0.15619664,-0.73548174,0.7831292,-0.7892379
588,1780383631187980,0.30458343,-1.9148731,0.36291313,-1.9517145,0.4886922,-0.32742378
589,1780383631197980,0.2806658,-1.4018649,0.5208182,-1.9877555,0.4392121,0.14172074
590,1780383631207980,0.2979939,-1.1609803,0.5859815,-1.8851302,0.453262,0.46303585
591,1780383631217980,0.52423495,-1.0301657,0.6221019,-0.68233645,0.08552113,0.28527406
592,1780383631227980,0.36413342,-0.9313224,0.43832684,-0.26633725,-0.23701571,0.022602014
593,1780383631237980,0.2630937,-0.8437059,0.34729347,0.11056661,-0.5271767,-0.18142697
594,1780383631247980,0.16449459,-0.71874857,0.2779812,0.5112942,-0.93401295,-0.31703907
595,1780383631257980,0.114462845,-0.5847612,0.23771177,0.5870415,-1.1392636,-0.3109304
596,1780383631267980,0.058817793,-0.27456442,0.060038086,0.5448918,-1.2406673,-0.28344148
597,1780383631277980,0.02391761,-0.15400012,-0.031239327,0.4007276,-1.2565498,-0.19730948
598,1780383631287980,0.012690976,-0.059549972,-0.04002539,0.21074851,-1.1050552,-0.07086037
599,1780383631297980,0.0134231495,-0.004881145,0.049543623,0.07269296,-0.95722586,0.15088372
600,1780383631307980,-0.0065895454,0.051252022,0.12642166,0.15760323,-1.0567969,0.25961772
601,1780383631317980,-0.0036608586,0.06443111,0.13105874,0.33292156,-1.2296717,0.3286455
602,1780383631327980,0.008542004,0.08517598,0.11031388,0.7666359,-1.6157386,0.44348818
603,1780383631337980,-0.0017084008,0.117147475,-0.021232981,1.1661417,-1.8423696,0.47586402
604,1780383631347980,-0.005857374,0.117147475,-0.073217176,1.1661417,-1.8423696,0.47586402
605,1780383631357980,-0.004881145,0.108117364,-0.12129646,1.5100589,-1.5528195,0.552833
606,1780383631367980,0.0024405725,0.09615856,-0.16473864,1.5448782,-1.3078625,0.56688297
607,1780383631377980,0.0024405725,0.09615856,-0.16473864,1.5448782,-1.3078625,0.56688297
608,1780383631387980,0.033679903,0.067359805,-0.19353738,1.4758505,-0.7788532,0.5296202
609,1780383631397980,0.03172744,0.04490653,-0.13520771,1.3768903,-0.16249016,0.4147775
610,1780383631407980,0.01415532,0.038561042,-0.11299851,1.3451253,0.12644911,0.36896262
611,1780383631417980,-0.012690976,0.03294773,-0.07272906,1.328021,0.33169982,0.34574974
612,1780383631427980,-0.016107777,0.03441207,-0.06028214,1.319469,0.59864795,0.31948254
613,1780383631437980,-0.013179091,0.057841565,-0.050763905,1.3591752,1.1044444,0.26328292
614,1780383631447980,-0.016107777,0.06199054,-0.03929322,1.4330899,1.704925,0.18753563
615,1780383631457980,-0.016107777,0.06199054,-0.03929322,1.4330899,1.704925,0.18753563
616,1780383631467980,-0.014643434,0.054668825,-0.039537273,1.4715744,1.9058995,0.16615535
617,1780383631477980,-0.010494461,0.056377225,-0.03441207,1.7024814,2.5680776,0.09712757
618,1780383631487980,-0.0156196635,0.070532545,-0.03099527,1.7788396,2.7079656,0.08368854
619,1780383631497980,-0.0156196635,0.070532545,-0.03099527,1.8863518,2.8179214,0.087964594
620,1780383631507980,-0.0156196635,0.070532545,-0.03099527,1.8863518,2.8179214,0.087964594
621,1780383631517980,0.15570852,0.049543623,0.76121455,2.652377,1.5210545,0.06963864
622,1780383631527980,0.11543907,0.040513504,0.5632841,3.037222,0.41416663,0.014049901
623,1780383631537980,0.22526483,-0.13886857,0.4790844,3.1783319,-0.3659083,-0.04520403
624,1780383631547980,0.34900185,-0.42807645,0.97452056,3.4709363,-4.834388,-0.65301496
625,1780383631557980,0.5593792,-0.91545874,1.4526287,3.3286047,-9.089064,-1.4398094
626,1780383631567980,0.7663397,-1.2627522,1.0733638,2.951701,-11.596665,-2.1630738
627,1780383631577980,1.6554403,-2.8293555,1.0482259,1.9883664,-13.432927,-3.321885
628,1780383631587980,2.0918145,-3.8497589,0.89617825,0.82894415,-12.216694,-4.287052
629,1780383631597980,1.4040614,-3.747255,-0.6560259,-2.366492,-2.8753426,-2.4782803
630,1780383631607980,0.63235235,-2.6324015,-0.5635282,-5.031086,1.572978,0.1386664
631,1780383631617980,0.6909261,-2.400059,-0.25357547,-6.491054,7.261966,2.946814
632,1780383631627980,0.8092938,-1.9495293,0.050031736,-6.491054,7.261966,2.946814
633,1780383631637980,0.6970275,-1.3237665,0.38902727,-4.8478265,6.8300843,2.2156084
634,1780383631647980,0.5708499,-1.0750722,0.09884319,-3.5564575,6.0805526,1.7122552
635,1780383631657980,0.788549,-2.0539858,-0.10152781,-1.7880026,5.3554554,0.8338311
636,1780383631667980,1.1641531,-3.4546306,-0.024161667,-1.7880026,5.3554554,0.8338311
637,1780383631677980,1.2766634,-4.296628,-0.28261828,0.47219884,4.2223005,-0.8527679
638,1780383631687980,0.86664724,-3.9451854,-0.28579104,1.0506883,2.5393667,-1.7067575
639,1780383631697980,0.47859627,-3.5986242,-0.25089085,0.7489208,1.0855075,-1.6646078
640,1780383631707980,0.05051985,-2.9977553,-0.1483868,0.099571034,-0.5381723,-1.5418239
641,1780383631717980,-0.48567393,-2.08132,-0.16473864,-0.81122905,-2.3860397,-1.0830641
642,1780383631727980,-0.4978768,-1.6786258,-0.1513155,-1.6578883,-3.6932912,-0.37995818
643,1780383631737980,-0.45004156,-1.3537855,-0.06418706,-2.791654,-5.3322425,0.6817256
644,1780383631747980,-0.34704942,-1.0321181,0.0370967,-3.2430835,-5.624236,1.073901
645,1780383631757980,-0.34704942,-1.0321181,0.0370967,-3.2430835,-5.624236,1.073901
646,1780383631767980,-0.34704942,-1.0321181,0.0370967,-3.6108243,-5.5191674,1.2956452
647,1780383631777980,-0.41538543,0.0924977,1.2983845,-1.9865338,-2.4727826,2.1093178
648,1780383631787980,-0.41538543,0.0924977,1.2983845,-1.9865338,-2.4727826,2.1093178
649,1780383631797980,0.029530926,0.059549972,0.6882414,-0.48808134,-0.89736104,2.362216
650,1780383631807980,0.1044565,0.054912884,0.5806122,-0.48808134,-0.89736104,2.362216
651,1780383631817980,0.16693515,0.047103047,0.4685899,1.0763446,-0.29810223,2.2467623
652,1780383631827980,0.19109683,0.08419975,0.21306199,1.5540411,-0.4813618,2.13925
653,1780383631837980,0.1867038,0.10006347,0.09054524,1.8270979,-0.6536258,2.0653355
654,1780383631847980,0.20110317,0.117147475,0.027090356,2.0830505,-0.89736104,1.967597
655,1780383631857980,0.23966423,0.15302388,0.018792408,2.375044,-1.2852604,1.7983873
656,1780383631867980,0.28676724,0.25552794,-0.036120474,2.515543,-1.4501941,1.7153096
657,1780383631877980,0.33411437,0.41904628,-0.082247294,2.6138923,-1.5827519,1.67316
658,1780383631887980,0.44467232,0.64187056,-0.15204766,2.5870142,-1.5748106,1.7318029
659,1780383631897980,0.6894617,1.1280326,-0.22160399,2.3878722,-1.2950343,1.6578883
660,1780383631907980,0.98428285,1.6005274,0.023673553,2.2510383,-1.0482447,1.4239268
661,1780383631917980,1.1817253,1.0831261,0.14887492,2.1410828,-0.6236934,0.42149702
662,1780383631927980,1.1817253,1.0831261,0.14887492,2.1410828,-0.6236934,0.42149702
663,1780383631937980,0.54717636,0.5930591,-0.19402552,1.2034045,0.66339964,-0.9969321
664,1780383631947980,0.43954712,0.44394013,-0.17523311,0.8258898,1.2388347,-1.1074986
665,1780383631957980,0.32972133,0.3287451,-0.16400647,0.2864958,1.885741,-1.2095132
666,1780383631967980,0.23795582,0.19036464,-0.153512,-0.020158553,2.022575,-1.2046263
667,1780383631977980,0.079318605,-0.0319715,-0.08615221,-0.32925636,2.05434,-1.138042
668,1780383631987980,0.07272906,-0.1718163,-0.029530926,-0.5705481,2.0567832,-1.0311406
669,1780383631997980,0.078830495,-0.59061855,0.33020946,-0.9633345,2.022575,-0.8857546
670,1780383632007980,-0.024405725,-1.7589207,0.66896087,-3.2834008,1.4355333,-1.0085385
671,1780383632017980,-0.0051252022,-0.45223808,-0.29506522,-3.9199224,2.1068742,-0.84238315
672,1780383632027980,0.21281794,-0.7792748,0.048323333,-3.4367278,3.2601879,-0.5467244
673,1780383632037980,0.93010217,-2.6370385,0.12471326,-2.7104092,4.2320743,-0.4111123
674,1780383632047980,1.5199885,-3.8670871,0.17547716,-1.7440202,4.949841,-0.6658431
675,1780383632057980,1.0028312,-6.322059,-0.69458693,0.17837265,3.8496728,-2.6273315
676,1780383632067980,1.0028312,-6.322059,-0.69458693,0.28405234,3.0720413,-3.3279939
677,1780383632077980,-0.21891935,-5.869333,-0.80685323,1.0641272,-0.6017023,-1.2052372
678,1780383632087980,-0.5730464,-3.8431692,-0.7902574,1.4526376,-1.5723672,-0.39584067
679,1780383632097980,-0.47664383,-2.9450388,-0.5976962,1.1191051,-2.3854287,-0.111177474
680,1780383632107980,-0.33704305,-2.3500273,-0.36950266,0.46486846,-2.669481,-0.12034045
681,1780383632117980,-0.22575295,-1.8943723,-0.17157225,0.25167647,-2.3603833,-0.21868975
682,1780383632127980,-0.10518867,-1.4743499,0.00024405724,0.1685988,-1.9315559,-0.267559
683,1780383632137980,0.09811102,-1.048714,0.16595893,0.12156218,-1.4679092,-0.21502456
684,1780383632147980,0.26065314,-1.0501783,0.14374973,-0.09040806,0.035430185,0.0842994
685,1780383632157980,0.40123013,-1.206375,0.06321083,-0.17837265,0.5412266,0.21502456
686,1780383632167980,0.5869577,-1.5880805,-0.08981306,-0.18875736,1.1557571,0.35369098
687,1780383632177980,0.6440671,-1.6476305,-0.16278619,-0.10567969,1.4465289,0.40133846
688,1780383632187980,0.61941725,-1.6220044,-0.21525851,-0.14477506,1.2113458,0.3200934
689,1780383632197980,0.5530337,-1.5419537,-0.21159762,-0.30848694,0.9755518,0.30543262
690,1780383632207980,0.3841461,-1.2295604,-0.1295944,-0.47342056,0.81489426,0.32253686
691,1780383632217980,0.2421048,-0.8266219,0.013179091,-0.70371675,0.59986967,0.37568212
692,1780383632227980,0.2421048,-0.8266219,0.013179091,-0.9260717,0.31948254,0.46975538
693,1780383632237980,0.2208718,-0.30067852,0.2037878,-1.4611896,-0.7855727,0.816116
694,1780383632247980,0.23185438,-0.15570852,0.22477673,-1.6200147,-1.2437216,0.9071349
695,1780383632257980,0.23185438,-0.15570852,0.22477673,-1.6200147,-1.2437216,0.9071349
696,1780383632267980,0.26797485,0.020012695,0.25211114,-1.7171422,-2.1453588,1.0170907
697,1780383632277980,0.32020313,0.18694785,0.6628595,-1.3976597,-2.5088236,0.99204516
698,1780383632287980,0.23771177,0.19353738,0.46273252,-0.79045963,-2.9846876,0.9242391
699,1780383632297980,0.19719826,0.19036464,0.35485923,0.2687807,-3.150232,0.81306165
700,1780383632307980,0.17987019,0.19060871,0.27871338,0.6151413,-3.0891457,0.75869465
701,1780383632317980,0.19036464,0.183287,0.22111587,1.0311406,-2.9107728,0.6579019
702,1780383632327980,0.2608972,0.1181237,0.008542004,1.3909402,-2.652377,0.51251596
703,1780383632337980,0.2608972,0.1181237,0.008542004,1.8075503,-2.0470095,0.16310102
704,1780383632347980,0.25333142,0.10201593,-0.04905551,1.9297233,-1.6646078,-0.06169739
705,1780383632357980,0.24478942,0.08395569,-0.099087246,1.9712621,-1.3836098,-0.2321288
706,1780383632367980,0.21574661,0.05418071,-0.15326795,1.9834795,-1.0262536,-0.4550946
707,1780383632377980,0.19451363,0.04783522,-0.16132185,1.8380935,-0.09773844,-1.010982
708,1780383632387980,0.10689708,0.056377225,-0.1803583,1.7067575,0.29749137,-1.1539245
709,1780383632397980,0.10689708,0.056377225,-0.1803583,1.7067575,0.29749137,-1.1539245
710,1780383632407980,0.073461235,0.13252309,-0.18157859,1.3616186,1.0757337,-1.2925909
711,1780383632417980,0.07492557,0.17401282,-0.16717921,0.95294976,2.2687535,-1.4379768
712,1780383632427980,0.038316987,0.20012695,-0.07370529,0.8735373,2.738509,-1.5045611
713,1780383632437980,0.017816179,0.19744232,-0.010006348,0.8491027,3.2577443,-1.5900823
714,1780383632447980,-0.011714748,0.183287,0.08151512,1.0512991,3.7366626,-1.6792686
715,1780383632457980,-0.037584815,0.14716652,0.18206671,1.0512991,3.7366626,-1.6792686
716,1780383632467980,-0.4300289,-0.025137896,1.833358,1.7568485,3.3597589,-1.5589281
717,1780383632477980,-0.007565775,-0.06980037,0.20232345,3.3609805,2.1838431,-1.2113458
718,1780383632487980,-0.007565775,-0.06980037,0.20232345,4.2271876,1.2541064,-1.0183123
719,1780383632497980,0.00024405724,-0.06711575,-0.07028849,4.114177,0.98899084,-0.960891
720,1780383632507980,0.0134231495,-0.11348662,-0.1330112,3.9694023,0.8374963,-0.9297369
721,1780383632517980,0.3790209,-1.0164984,0.810026,2.2101104,-3.277292,-1.4666874
722,1780383632527980,0.647972,-1.6591012,1.3079028,1.518611,-4.49719,-1.7599027
723,1780383632537980,0.6289356,-1.7950411,-0.12935033,0.18997909,-4.9614477,-2.0659463
724,1780383632547980,0.66920495,-1.8614246,-0.8600578,-1.4538593,-4.4067817,-2.284636
725,1780383632557980,0.72607034,-2.302436,-1.2334653,-4.652961,-1.7421877,-1.8777997
726,1780383632567980,0.46200037,-2.242154,-0.8571291,-5.2326717,-0.8979719,-0.7690793
727,1780383632577980,0.45907167,-2.2829115,0.21745501,-4.5674396,0.0067195175,0.2773328
728,1780383632587980,1.2832531,-3.9756925,0.14594623,-3.613268,1.0372492,1.5008959
729,1780383632597980,1.7396401,-4.7798615,0.22135992,-2.430022,3.037222,1.72264
730,1780383632607980,1.7674625,-4.958267,-0.023673553,-0.45814893,5.0231447,0.44776422
731,1780383632617980,0.6321083,-3.8780696,-0.18768002,-0.14110987,5.0555205,-0.19792034
732,1780383632627980,0.6321083,-3.8780696,-0.18768002,-0.28099802,4.5704937,-0.37751472
733,1780383632637980,0.16815543,-2.8029974,0.0156196635,-1.1050552,1.0934488,-0.099571034
734,1780383632647980,-0.049787678,-2.059355,0.04515059,-1.4660766,-0.07513642,-0.040927973
735,1780383632657980,-0.024649782,-1.8865626,0.07297312,-1.7556267,-0.8564331,0.24678956
736,1780383632667980,0.08127106,-1.735491,0.12422514,-2.0341814,-1.2461652,0.8216137
737,1780383632677980,0.08127106,-1.735491,0.12422514,-2.0341814,-1.2461652,0.8216137
738,1780383632687980,0.11592719,-1.4184607,0.19207305,-2.2162192,-1.5522085,1.056186
739,1780383632697980,0.030751213,-1.0233321,0.2328306,-2.3402247,-1.8148806,1.1117748
740,1780383632707980,-0.0053692595,-0.8341876,0.2550398,-2.5143213,-2.1887302,1.2473868
741,1780383632717980,-0.012935034,-0.70142055,0.26919514,-2.538145,-2.2699752,1.3756685
742,1780383632727980,-0.025381953,-0.43930307,0.30946457,-2.5179865,-2.2870796,1.4905112
743,1780383632737980,-0.016107777,-0.32947728,0.3568117,-2.457511,-2.2766948,1.6737708
744,1780383632747980,0.051740136,-0.18816814,0.4751795,-1.9083431,-2.1997259,2.266921
745,1780383632757980,0.18743597,-0.15692882,0.4024504,-1.5894713,-2.1038198,2.4080307
746,1780383632767980,0.18743597,-0.15692882,0.4024504,-1.5894713,-2.1038198,2.4080307
747,1780383632777980,0.24137263,-0.14399378,0.37023485,-1.3469579,-1.9462167,2.4611762
748,1780383632787980,0.32069123,-0.07980672,0.37584817,-0.13439035,-2.025629,2.3170118
749,1780383632797980,0.3372871,0.044174362,0.28042176,0.2003638,-2.122146,2.2375994
750,1780383632807980,0.34168017,0.119343996,0.24161668,0.643852,-2.2449298,2.149024
751,1780383632817980,0.34168017,0.119343996,0.24161668,0.643852,-2.2449298,2.149024
752,1780383632827980,0.36974674,0.19158493,0.20256752,1.078788,-2.3787093,2.081218
753,1780383632837980,0.54839665,0.4327135,0.061502427,2.0971005,-2.7305677,1.7006488
754,1780383632847980,0.58427304,0.5523015,-0.05662128,2.3133466,-2.6743681,1.5876387
755,1780383632857980,0.7094744,0.75291663,-0.16620298,2.4190264,-1.8063285,1.3164146
756,1780383632867980,0.8881243,1.0321181,-0.21550256,2.2351558,-0.9486737,1.110553
757,1780383632877980,1.4540931,1.0726316,0.33582276,2.162463,-0.37873647,0.8332202
758,1780383632887980,1.1766,0.8573731,0.09737884,2.2058344,1.3836098,-1.1404854
759,1780383632897980,1.1766,0.8573731,0.09737884,2.2058344,1.3836098,-1.1404854
760,1780383632907980,0.5684093,0.51349646,0.043930303,1.9688187,2.1801782,-1.5039502
761,1780383632917980,0.5684093,0.51349646,0.043930303,1.72264,2.7635543,-1.6224581
762,1780383632927980,0.18768002,0.16278619,0.030507157,0.98532563,2.6444356,-1.5906931
763,1780383632937980,0.13667206,0.032459613,0.023673553,0.6542367,2.2852468,-1.5943583
764,1780383632947980,-0.010982576,-0.22160399,0.09493827,0.4251622,2.0024164,-1.5607607
765,1780383632957980,-0.08029483,-0.5288721,0.50812715,0.09285152,1.5803084,-1.4446963
766,1780383632967980,-0.272856,-1.0772687,0.55962324,-0.4831944,0.32559118,-1.4056009
767,1780383632977980,-0.25650415,-0.9269294,-0.060770255,-2.117259,-0.26450464,-1.1050552
768,1780383632987980,0.37145513,-0.6672525,-0.7660957,-2.35794,0.23518312,-0.84421575
769,1780383632997980,0.85224795,-1.2027141,-1.1351103,-2.5082128,0.7635816,-0.8436049
770,1780383633007980,1.6979064,-2.5823698,-1.3703815,-3.2039883,3.3402112,-2.538756
771,1780383633017980,2.3812666,-4.408406,-1.1268123,-2.888171,4.8081203,-4.2919393
772,1780383633027980,1.2810564,-6.4316406,-0.044174362,-1.7721201,5.5326066,-5.4232616
773,1780383633037980,-0.524479,-5.857618,-0.28676724,-0.1001819,5.788559,-5.425705
774,1780383633047980,-0.524479,-5.857618,-0.28676724,1.7867808,2.698192,-1.7391334
775,1780383633057980,-0.5252112,-5.1867046,-0.41172457,2.05434,-0.3903429,-0.20525073
776,1780383633067980,-0.22697324,-2.5423443,-0.52033,0.86315256,-3.9187005,0.122783914
777,1780383633077980,-0.14765464,-2.0488605,-0.3141017,0.86315256,-3.9187005,0.122783914
778,1780383633087980,-0.14765464,-2.0488605,-0.3141017,-0.3145956,-3.6694674,-0.40500367
779,1780383633097980,-0.06882414,-1.6263975,-0.10592084,-0.5015204,-2.6138923,-0.57971114
780,1780383633107980,0.21159762,-1.0409042,0.2020794,-0.20525073,-0.62796944,-0.48991394
781,1780383633117980,0.32532832,-1.1187584,0.11006982,0.021991149,0.7629707,-0.04520403
782,1780383633127980,0.4024504,-1.3098553,0.03636453,0.052534413,1.2070698,0.19303341
783,1780383633137980,0.59061855,-1.4853324,-0.04881145,0.05009095,1.3127494,0.25167647
784,1780383633147980,0.5720702,-1.4475036,-0.04344219,0.013439035,1.1979067,0.23396139
785,1780383633157980,0.503002,-1.3623276,-0.029530926,-0.087964594,0.8546005,0.18875736
786,1780383633167980,0.29018408,-0.9374239,0.046614934,-0.61208695,-0.23701571,0.23701571
787,1780383633177980,0.29018408,-0.9374239,0.046614934,-0.61208695,-0.23701571,0.23701571
788,1780383633187980,0.23405088,-0.7817154,0.09567044,-0.8179486,-0.56688297,0.3213151
789,1780383633197980,0.16351835,-0.45809543,0.17840585,-1.2131784,-1.4483615,0.65118235
790,1780383633207980,0.0924977,-0.19963883,0.24674188,-1.2608259,-1.7037032,0.7770206
791,1780383633217980,0.06443111,-0.10592084,0.2604091,-1.251052,-1.858863,0.8735373
792,1780383633227980,0.059794027,-0.025626011,0.260165,-1.0616838,-2.0506747,1.1404854
793,1780383633237980,0.059794027,-0.025626011,0.260165,-1.0616838,-2.0506747,1.1404854
794,1780383633247980,0.063943,0.07858644,0.19304928,-0.7476991,-1.8497,1.3231341
795,1780383633257980,0.088348724,0.102504045,0.15961345,-0.49968776,-1.6957619,1.368949
796,1780383633267980,0.084931925,0.11324256,0.15595257,0.052534413,-1.496009,1.3530666
797,1780383633277980,0.07443746,0.117879644,0.15326795,0.3817908,-1.41904,1.319469
798,1780383633287980,0.06809197,0.102748096,0.12373702,0.68294734,-1.35551,1.2803736
799,1780383633297980,0.117635585,0.0924977,0.107873306,0.87964594,-1.3274102,1.2461652
800,1780383633307980,0.17816179,0.08444381,0.07590181,1.3451253,-1.2260065,1.0079277
801,1780383633317980,0.22892569,0.077122085,0.028554698,1.4874569,-1.1191051,0.84849185
802,1780383633327980,0.28579104,0.057109397,-0.0078098318,1.6334536,-0.9388999,0.5864306
803,1780383633337980,0.23673552,0.049787678,-0.03099527,1.7531832,-0.71776664,0.3036
804,1780383633347980,0.16522676,0.031239327,-0.021721095,1.9706513,-0.036651913,-0.29260445
805,1780383633357980,0.102748096,0.025381953,-0.039781332,2.0470095,0.23640485,-0.44409904
806,1780383633367980,0.08517598,0.037584815,-0.04075756,2.0861049,0.4990769,-0.5412266
807,1780383633377980,0.08517598,0.037584815,-0.04075756,2.0861049,0.4990769,-0.5412266
808,1780383633387980,0.053936653,0.08859278,-0.070532545,2.2180517,1.4856243,-0.8063421
809,1780383633397980,0.05418071,0.10689708,-0.0976229,2.1783454,1.8264871,-0.86193085
810,1780383633407980,0.025870068,0.13276714,-0.07370529,2.158187,2.1410828,-0.9126327
811,1780383633417980,0.0078098318,0.13081467,-0.051252022,2.189341,2.4306328,-0.9456194
812,1780383633427980,-0.012202863,0.12471326,-0.041245673,2.3261747,2.7739391,-0.95111716
813,1780383633437980,-0.011226633,0.10884953,-0.032703668,2.3890939,2.7861564,-0.9224065
814,1780383633447980,0.04490653,0.0078098318,0.076633975,2.447737,2.0231857,-0.83260936
815,1780383633457980,0.56645685,-1.0431006,2.1889493,3.2607987,-2.8160887,-1.4776831
816,1780383633467980,0.7914777,-1.4782547,1.3669646,3.659083,-7.4953165,-2.3451116
817,1780383633477980,0.95670444,-1.9292725,0.5784157,2.0891593,-11.153177,-4.071417
818,1780383633487980,1.5155954,-2.5896914,0.3499781,0.41599923,-10.25826,-4.894863
819,1780383633497980,1.1175382,-3.6715972,-0.47835222,-0.46914452,-6.542367,-4.646852
820,1780383633507980,0.47347105,-3.0963542,-1.7638018,-1.6145169,-2.1905627,-3.2296445
821,1780383633517980,0.43808278,-2.2316594,-0.938156,-7.108028,4.8844786,2.406809
822,1780383633527980,0.6872652,-1.8838779,0.08053889,-6.5582495,5.891795,2.6865854
823,1780383633537980,0.78684056,-3.022405,0.06369894,-5.5588737,6.4782257,2.438574
824,1780383633547980,0.78684056,-3.022405,0.06369894,-5.5588737,6.4782257,2.438574
825,1780383633557980,1.0841023,-4.269049,0.050763905,-1.9028453,7.0921454,0.9950995
826,1780383633567980,0.93059033,-4.016694,0.024405725,-0.6646214,6.4568458,0.5919284
827,1780383633577980,0.78684056,-3.6967351,-0.061746486,0.016493361,5.681047,0.38362336
828,1780383633587980,0.5649925,-3.377752,-0.053204484,0.70921457,2.5662448,-0.2724459
829,1780383633597980,0.2818861,-2.9062338,-0.102748096,0.19486602,0.50579643,-0.54733527
830,1780383633607980,-0.0959145,-2.2902331,-0.15961345,-0.5546656,-1.5650368,-0.57848936
831,1780383633617980,-0.22477673,-1.5739251,-0.13496366,-1.1630874,-2.719572,-0.28038713
832,1780383633627980,-0.1871919,-1.0255286,-0.021721095,-1.8881844,-3.6932912,0.30482176
833,1780383633637980,-0.14301755,-0.60770255,0.10958171,-2.3591616,-3.9645154,0.70738196
834,1780383633647980,-0.13105874,-0.42661208,0.16229807,-2.56991,-3.929696,0.86559606
835,1780383633657980,-0.12202863,-0.29311275,0.1969542,-2.56991,-3.929696,0.86559606
836,1780383633667980,-0.11348662,-0.18255483,0.23356278,-2.9614747,-3.3512068,1.2321151
837,1780383633677980,-0.07468152,0.0012202862,0.65138876,-2.9614747,-3.3512068,1.2321151
838,1780383633687980,-0.07468152,0.0012202862,0.65138876,-2.50638,-2.5870142,1.541213
839,1780383633697980,0.050031736,0.14814276,1.0125935,-1.7660115,-2.2412646,1.6560557
840,1780383633707980,0.15277983,0.13935669,0.942305,-0.16798794,-1.8723019,1.7324139
841,1780383633717980,0.29018408,0.13764828,0.8195442,0.453262,-1.9187278,1.676825
842,1780383633727980,0.298482,0.13545178,0.64992446,1.2247849,-2.0683897,1.5509869
843,1780383633737980,0.27334413,0.16034561,0.47127452,2.2834144,-2.179567,1.3365731
844,1780383633747980,0.29506522,0.25528386,0.19475769,2.5558603,-2.1649065,1.2956452
845,1780383633757980,0.319715,0.36096066,0.13496366,3.0494392,-1.9779817,1.251052
846,1780383633767980,0.319715,0.36096066,0.13496366,3.0494392,-1.9779817,1.251052
847,1780383633777980,0.34802565,0.5432714,0.044174362,3.118467,-1.599856,1.3866642
848,1780383633787980,0.4087959,0.73680884,-0.008786061,2.973692,-1.3347405,1.5106697
849,1780383633797980,0.74291027,1.2117443,-0.13105874,2.7232373,-1.1123856,1.53205
850,1780383633807980,0.878362,1.1268123,-0.21989559,2.361605,-0.8008443,0.87109387
851,1780383633817980,0.91375035,0.93229866,-0.35315084,2.107485,-0.6621779,0.42821655
852,1780383633827980,0.8080735,0.6897058,-0.43979117,1.7018706,-0.5216789,-0.19181168
853,1780383633837980,0.5122762,0.43881494,-0.42856455,1.273654,-0.41599923,-0.7666359
854,1780383633847980,0.3414361,0.34973404,-0.3746279,0.6731735,0.15454891,-1.3359623
855,1780383633857980,0.067847915,-0.04075756,-0.29555333,0.1740966,0.9578367,-1.3665055
856,1780383633867980,0.067847915,-0.04075756,-0.29555333,0.1740966,0.9578367,-1.3665055
857,1780383633877980,0.041245673,-0.24845028,-0.18865626,-0.20525073,1.41904,-1.2541064
858,1780383633887980,-0.039781332,-0.8776299,0.08102701,-0.91507614,1.713477,-1.0977248
859,1780383633897980,-0.020012695,-0.35095432,-0.79709095,-3.3389895,3.8802161,-0.26939157
860,1780383633907980,0.33020946,-0.60062486,-0.8341876,-3.6370916,4.6883907,-0.118507855
861,1780383633917980,1.1992973,-2.5401478,-0.1415532,-3.200323,8.11229,-1.1252137
862,1780383633927980,1.6390884,-4.6746726,0.23209843,-2.5124888,10.260093,-2.3127358
863,1780383633937980,1.7801535,-5.6731105,-0.35290676,-1.9181169,9.908235,-3.236975
864,1780383633947980,1.0904478,-5.8122234,-0.16595893,-1.319469,8.173377,-4.1581597
865,1780383633957980,0.088104665,-5.8078303,0.04783522,-0.051923547,2.3780985,-2.1276436
866,1780383633967980,-0.19207305,-5.2543087,-0.06296677,0.5748242,-1.0103711,-0.44959682
867,1780383633977980,-0.12690976,-2.7551622,-0.32117933,0.8045095,-3.1942143,0.080634214
868,1780383633987980,-0.12690976,-2.7551622,-0.32117933,0.49296826,-3.7543778,-0.111177474
869,1780383633997980,-0.25089085,-2.1167085,-0.076633975,-0.10751228,-3.5876117,-0.7593055
870,1780383634007980,-0.2884757,-1.8296971,0.09811102,-0.03970624,-3.1166344,-0.9841039
871,1780383634017980,-0.13325526,-1.4577539,0.06418706,0.6078109,-2.1783454,-0.81183994
872,1780383634027980,0.08102701,-1.5317032,0.010982576,1.0616838,-1.6346754,-0.32620203
873,1780383634037980,0.302631,-1.6878998,-0.08005078,1.1453724,-1.4367551,-0.27916542
874,1780383634047980,0.5227706,-1.8675259,-0.27773714,1.1246029,-1.0586295,-0.4642576
875,1780383634057980,0.5227706,-1.8675259,-0.27773714,1.0830641,-0.7623598,-0.62858033
876,1780383634067980,0.36462155,-1.6966859,-0.33191785,0.75747293,-0.28527406,-0.70921457
877,1780383634077980,0.28579104,-1.5465908,-0.35022214,0.4184427,-0.10323623,-0.5674938
878,1780383634087980,0.14277348,-1.1531705,-0.27944556,0.11728613,0.026267206,-0.40744713
879,1780383634097980,0.082247294,-0.97452056,-0.18523945,-0.29810223,0.14905111,-0.14110987
880,1780383634107980,0.03929322,-0.8097819,-0.091033354,-0.90469146,0.04337143,0.38728857
881,1780383634117980,0.021477038,-0.647972,-0.004881145,-1.1710287,-0.15271631,0.6774496
882,1780383634127980,0.06418706,-0.42099872,0.084931925,-1.382388,-0.3830125,0.9254609
883,1780383634137980,0.08932495,-0.3436326,0.04759116,-1.5070046,-0.54733527,1.078788
884,1780383634147980,0.111290105,-0.26504618,-0.011958805,-1.668273,-0.6743952,1.2327261
885,1780383634157980,0.34656128,0.017572122,1.0452971,-1.7666223,-0.9309586,1.4385877
886,1780383634167980,0.34656128,0.017572122,1.0452971,-1.7666223,-0.9309586,1.4385877
887,1780383634177980,0.32410803,0.06296677,0.7690244,-1.0256428,-1.7397442,1.3494014
888,1780383634187980,0.2853029,0.06443111,0.5120321,0.008552114,-2.5265386,1.1569787
889,1780383634197980,0.18987654,0.099087246,0.12715383,0.7067711,-2.6028967,0.9437868
890,1780383634207980,0.18987654,0.099087246,0.12715383,0.7067711,-2.6028967,0.9437868
891,1780383634217980,0.19915071,0.099087246,-0.012202863,1.2443326,-2.2907448,0.6065892
892,1780383634227980,0.2421048,0.08956901,-0.0707766,1.3243558,-2.1038198,0.46303585
893,1780383634237980,0.2762728,0.078830495,-0.15155955,1.3946054,-1.7800614,0.24740042
894,1780383634247980,0.29506522,0.0776102,-0.1637624,1.4245378,-1.3878858,0.01282817
895,1780383634257980,0.3226437,0.06931226,-0.1466784,1.4245378,-0.96761054,-0.2406809
896,1780383634267980,0.36901456,0.06296677,-0.13227904,1.4263704,-0.26145032,-0.7788532
897,1780383634277980,0.38487828,0.058085624,-0.11568313,1.4489723,0.15088372,-1.1166617
898,1780383634287980,0.38487828,0.058085624,-0.11568313,1.4489723,0.15088372,-1.1166617
899,1780383634297980,0.24161668,0.15082738,-0.12739788,1.2901474,1.813659,-1.9938642
900,1780383634307980,0.19256116,0.27529657,-0.08786061,1.1979067,2.329229,-2.175291
901,1780383634317980,0.1598575,0.32044718,0.021721095,1.1979067,2.329229,-2.175291
902,1780383634327980,0.1342315,0.35754386,0.12032023,1.3799446,3.199712,-2.6151142
903,1780383634337980,0.0741934,0.34168017,0.20940112,1.6829338,3.097087,-2.6810875
904,1780383634347980,-0.004881145,0.26821893,0.3328941,2.1099286,2.7440066,-2.6413813
905,1780383634357980,-0.37291947,0.08615221,1.3750186,2.6047294,2.1716259,-2.5222626
906,1780383634367980,-0.5274077,-0.32069123,2.7126963,5.811161,-2.3805418,-1.8081611
907,1780383634377980,0.05906185,-0.29652956,0.95426387,5.811161,-2.3805418,-1.8081611
908,1780383634387980,0.118855886,-0.32069123,-0.29652956,5.862474,-3.4324517,-1.7110336
909,1780383634397980,0.36291313,-0.9408407,0.5747548,4.7781878,-4.7525315,-1.7250835
910,1780383634407980,0.60135704,-1.1768441,-0.018792408,4.7781878,-4.7525315,-1.7250835
911,1780383634417980,0.9642702,-1.6422611,-0.91057765,3.2614095,-5.869193,-1.6627752
912,1780383634427980,0.9642702,-1.6422611,-0.91057765,1.346347,-5.517335,-1.2687671
913,1780383634437980,1.9156054,-3.210817,0.22258021,-1.6010778,-3.7592647,0.56077427
914,1780383634447980,1.6600775,-3.2896478,-0.82344913,-4.724432,0.8570439,3.5607336
915,1780383634457980,1.2683655,-2.9011085,-0.37536004,-6.9962397,2.8252518,4.428162
916,1780383634467980,1.2683655,-2.9011085,-0.37536004,-7.68835,3.8368447,4.4293838
917,1780383634477980,1.0643337,-2.5032952,0.25333142,-7.68835,3.8368447,4.4293838
918,1780383634487980,0.7321718,-1.7240205,0.6897058,-4.302324,4.4171667,2.538756
919,1780383634497980,0.7492558,-2.9133115,0.23478307,-2.918714,4.6883907,1.7910569
920,1780383634507980,1.1919756,-3.8858795,-0.020744866,-1.8710803,4.8753157,1.0861185
921,1780383634517980,1.2686096,-4.3093185,-0.29042813,0.2406809,5.3016996,-1.4239268
922,1780383634527980,1.0128375,-4.1980286,-0.35974038,0.63591075,5.018869,-1.8741345
923,1780383634537980,-0.25284332,-3.0807345,-0.28383857,0.66645396,3.25469,-1.5027285
924,1780383634547980,-0.25284332,-3.0807345,-0.28383857,0.66645396,3.25469,-1.5027285
925,1780383634557980,-0.4886026,-2.5874949,-0.21891935,-0.729984,-0.172264,-0.29810223
926,1780383634567980,-0.55620646,-2.2524045,-0.12129646,-1.4935656,-2.1282544,0.45631635
927,1780383634577980,-0.2626056,-1.6752089,0.087616555,-1.8753563,-3.4477234,0.93034774
928,1780383634587980,-0.10714114,-1.014546,0.07907455,-2.7684412,-3.9376373,1.6804903
929,1780383634597980,-0.084931925,-0.78610843,0.14545812,-2.9217684,-3.6670241,1.7427986
930,1780383634607980,-0.12886222,-0.5508372,0.55571836,-2.702468,-3.3029485,1.8710803
931,1780383634617980,-0.117391534,-0.25333142,0.7268025,-2.702468,-3.3029485,1.8710803
932,1780383634627980,0.008786061,-0.23405088,0.4846977,-1.328021,-2.1025982,2.2602015
933,1780383634637980,0.10543273,-0.22428861,0.28505886,-0.6102544,-0.7641924,2.3499987
934,1780383634647980,0.20525214,-0.1849954,0.067359805,-0.46609017,-0.33964106,2.3353379
935,1780383634657980,0.23527117,-0.14545812,0.027090356,-0.32375857,0.1160644,2.2907448
936,1780383634667980,0.24015234,-0.063943,0.026114125,-0.028099801,0.67011917,2.2333233
937,1780383634677980,0.22794947,0.014643434,0.084931925,0.16920967,0.6065892,2.2540927
938,1780383634687980,0.23527117,0.15497635,0.119099945,0.50640726,0.30176744,2.2974641
939,1780383634697980,0.25040275,0.20940112,0.1044565,0.8344419,-0.10751228,2.3328943
940,1780383634707980,0.2997023,0.28237423,0.10201593,1.4178182,-1.0885619,2.348166
941,1780383634717980,0.37316352,0.36388937,0.08419975,1.7531832,-1.709201,2.289523
942,1780383634727980,0.44662476,0.5339973,0.053936653,1.9895881,-2.1001546,2.211332
943,1780383634737980,0.97085977,1.7772248,-0.2545517,2.1465805,-2.0751092,1.1887437
944,1780383634747980,1.0374874,2.0896182,-0.15277983,1.999362,-1.9480493,0.816116
945,1780383634757980,1.1414558,1.7457415,0.93620354,1.8509218,-1.8839084,0.33475417
946,1780383634767980,0.954996,1.2813005,0.49616838,1.9529362,-1.5992452,-0.051923547
947,1780383634777980,0.80294836,0.97330034,0.10714114,1.4147639,0.5839872,-0.40500367
948,1780383634787980,0.73290396,0.75657743,0.004881145,0.98349303,1.9651535,-0.60048056
949,1780383634797980,0.53009236,0.37121108,0.08932495,0.6951646,2.860682,-0.7293731
950,1780383634807980,0.45126185,0.21208574,0.18523945,0.3707952,3.7232237,-0.8894198
951,1780383634817980,0.3778006,0.04148973,0.41196862,0.18142697,4.2143593,-1.2095132
952,1780383634827980,0.32581642,-0.14057697,0.8078295,0.40378192,3.6731327,-1.3048081
953,1780383634837980,0.3961049,-0.82344913,1.4291992,0.9285152,1.7971655,-1.4227052
954,1780383634847980,0.3116611,-1.0862988,0.29262465,0.634689,-0.4025602,-1.7256943
955,1780383634857980,0.3372871,-0.45931572,-0.5344854,-0.7153232,1.6114625,-1.5155567
956,1780383634867980,1.1346222,-1.5243815,-1.2844733,-0.8136725,2.3200662,-1.3628404
957,1780383634877980,1.1346222,-1.5243815,-1.2844733,-1.3573426,3.0921998,-1.4349225
958,1780383634887980,2.9875047,-5.051985,-1.2371262,-2.3365595,2.607173,-3.4440582
959,1780383634897980,2.9992194,-6.0728765,-1.1497537,-1.6902641,1.8771889,-4.8765373
960,1780383634907980,1.5927176,-6.939036,-1.1014304,-1.0629056,1.16492,-4.615087
961,1780383634917980,-0.22062775,-6.0770254,-0.75535715,-0.48624873,-0.44104472,-3.131906
962,1780383634927980,-0.45638704,-5.1615667,-0.716308,0.462425,-3.2217033,-1.0262536
963,1780383634937980,-0.5269196,-4.1738667,-0.80246025,0.27183503,-3.630372,-0.84116143
964,1780383634947980,-0.71313524,-2.625568,-0.32337585,-0.13622294,-3.4379497,-0.86437434
965,1780383634957980,-0.7873287,-2.0688734,0.091033354,-0.7031059,-2.4758368,-0.8491027
966,1780383634967980,-0.7326599,-1.5841756,0.4685899,-0.77396625,1.0067059,-0.6951646
967,1780383634977980,-0.64162654,-1.3183973,0.60599416,-0.5326745,1.5552629,-0.48808134
968,1780383634987980,-0.16742326,-1.1434082,0.5022698,-0.36835176,1.5302174,-0.12889257
969,1780383634997980,0.14057697,-1.2974083,0.36901456,-0.36713,1.6194037,0.29626966
970,1780383635007980,0.43832684,-1.6037002,0.1415532,-0.5186246,1.6224581,0.83016586
971,1780383635017980,0.58329684,-1.526334,0.119099945,-0.49174652,1.4165965,0.86315256
972,1780383635027980,0.5527897,-1.4204131,0.110801995,-0.50640726,0.9083566,0.8491027
973,1780383635037980,0.46932206,-1.2488409,0.08786061,-0.6432411,-0.089186326,0.79534656
974,1780383635047980,0.39756927,-1.0884954,0.059305906,-0.79168135,-0.552833,0.8026769
975,1780383635057980,0.25943285,-0.73290396,0.053204484,-0.97127575,-0.90285885,0.8588765
976,1780383635067980,0.21184167,-0.56865335,0.09786696,-1.1099422,-1.128879,0.93218035
977,1780383635077980,0.17791773,-0.4036707,0.17401282,-1.3524556,-1.7831156,1.1930199
978,1780383635087980,0.19817449,-0.26358184,0.2967736,-1.2724323,-2.208278,1.3060299
979,1780383635097980,0.2801777,-0.12056428,0.6369894,-0.99082345,-2.706744,1.3359623
980,1780383635107980,0.24942651,0.008297946,0.29140437,-0.65484756,-3.0860913,1.359786
981,1780383635117980,0.24967057,0.04148973,0.1181237,-0.23396139,-2.9816332,1.2705997
982,1780383635127980,0.29140437,0.06321083,0.01513155,-0.06719518,-2.7140744,1.1276573
983,1780383635137980,0.29018408,0.07468152,-0.041977845,0.07269296,-2.3805418,0.9370673
984,1780383635147980,0.20159128,0.102748096,-0.11153416,0.15882497,-2.1429152,0.8020661
985,1780383635157980,0.20159128,0.102748096,-0.11153416,0.30726522,-1.536937,0.535118
986,1780383635167980,0.3141017,0.18694785,-0.117635585,0.35918877,-1.2162327,0.4092797
987,1780383635177980,0.3141017,0.18694785,-0.117635585,0.398895,-0.9718866,0.30848694
988,1780383635187980,0.375116,0.2518671,-0.11495096,0.6536258,-0.11728613,-0.14782938
989,1780383635197980,0.38512233,0.29823795,-0.11543907,0.7495316,0.22479841,-0.3555236
990,1780383635207980,0.27212384,0.32728076,-0.057841565,0.8717047,0.52839845,-0.5296202
991,1780383635217980,0.20281157,0.25552794,-0.018792408,0.9896017,0.6835582,-0.6261369
992,1780383635227980,0.17352471,0.24283697,-0.010494461,1.3182472,0.70249504,-0.9089675
993,1780383635237980,0.1615659,0.29945824,-0.033191785,1.3811663,0.6786713,-1.0213667
994,1780383635247980,0.25015867,0.54156303,-0.11373068,1.3322971,0.8686504,-1.1319333
995,1780383635257980,0.11592719,0.32410803,-0.10055158,1.3439035,1.2883148,-1.3530666
996,1780383635267980,0.11592719,0.32410803,-0.10055158,1.3817772,1.8674151,-1.5723672
997,1780383635277980,0.05027579,0.319715,-0.036608588,1.4929546,2.0958786,-1.5931365
998,1780383635287980,-0.2294138,0.5452239,0.16888762,1.7250835,2.0415115,-1.1759156
999,1780383635297980,-0.36632994,0.39537275,1.056768,2.973081,-0.37507126,-0.462425
1000,1780383635307980,-0.59183884,-0.6240544,3.4294925,2.973081,-0.37507126,-0.462425
